#time,accel_x,accel_y,accel_z
21034.308684,-1332.370696,-842.705048,9252.574275
21034.309007,-1184.329507,-766.095498,9178.553681
21034.309330,-1036.288319,-536.266849,9326.594869
21034.309654,-222.061783,-689.485948,9326.594869
21034.309977,-222.061783,-766.095498,9252.574275
21034.310300,-1332.370696,-383.047749,8882.471304
21034.310623,-222.061783,-383.047749,9252.574275
21034.310947,0.000000,-536.266849,9474.636058
21034.311270,-370.102971,-383.047749,9622.677246
21034.311593,-740.205942,-459.657299,9252.574275
21034.311917,-296.082377,-153.219100,8956.491898
21034.312240,74.020594,-1225.752797,9326.594869
21034.312563,0.000000,-689.485948,8956.491898
21034.312887,148.041188,-842.705048,9030.512492
21034.313210,148.041188,-229.828649,8734.430116
21034.313533,592.164754,0.000000,8956.491898
21034.313856,1036.288319,0.000000,9178.553681
21034.314180,666.185348,0.000000,9104.533087
21034.314503,666.185348,-306.438199,9178.553681
21034.314826,74.020594,76.609550,9400.615463
21034.315150,-370.102971,-1302.362347,9474.636058
21034.315473,-518.144159,-995.924147,9474.636058
21034.315796,-1406.391290,-1072.533697,9252.574275
21034.316120,-1258.350101,-1302.362347,9252.574275
21034.316443,-1480.411884,-1072.533697,9400.615463
21034.316766,-1184.329507,-995.924147,9030.512492
21034.317089,-1110.308913,-536.266849,9474.636058
21034.317413,-444.123565,-459.657299,9400.615463
21034.317736,0.000000,0.000000,9252.574275
21034.318059,148.041188,0.000000,9030.512492
21034.318383,74.020594,0.000000,9252.574275
21034.318706,222.061783,0.000000,9400.615463
21034.319029,-74.020594,0.000000,9030.512492
21034.319353,148.041188,-153.219100,9326.594869
21034.319676,-296.082377,-306.438199,9770.718434
21034.319999,-740.205942,0.000000,8808.450710
21034.320323,-666.185348,-612.876398,9104.533087
21034.320646,-444.123565,0.000000,8956.491898
21034.320969,-888.247130,76.609550,9252.574275
21034.321292,-962.267725,0.000000,9104.533087
21034.321616,-740.205942,306.438199,8586.388927
21034.321939,-222.061783,383.047749,8882.471304
21034.322262,-1036.288319,153.219100,8734.430116
21034.322586,-962.267725,153.219100,9696.697840
21034.322909,-1406.391290,-229.828649,9326.594869
21034.323232,-1924.535449,0.000000,9400.615463
21034.323556,-2072.576638,0.000000,9474.636058
21034.323879,-2738.761985,0.000000,9400.615463
21034.324202,-3034.844362,-229.828649,9252.574275
21034.324525,-2738.761985,689.485948,9474.636058
21034.324849,-2368.659014,1149.143247,9622.677246
21034.325172,-3256.906145,1149.143247,9770.718434
21034.325495,-2664.741391,1685.410096,9400.615463
21034.325819,-1702.473667,2068.457845,9844.739029
21034.326142,-1850.514855,2145.067394,9400.615463
21034.326465,-2960.823768,2911.162892,9252.574275
21034.326789,-2368.659014,2757.943793,9104.533087
21034.327112,-2516.700203,2681.334243,8586.388927
21034.327435,-2960.823768,2987.772442,8882.471304
21034.327758,-3330.926739,2604.724693,8660.409521
21034.328082,-3849.070898,2298.286494,8290.306550
21034.328405,-3701.029710,2298.286494,7994.224174
21034.328728,-2738.761985,2451.505594,8216.285956
21034.329052,-2368.659014,2451.505594,8512.368333
21034.329375,-3034.844362,2911.162892,7698.141797
21034.329698,-1702.473667,2604.724693,7846.182985
21034.330022,-1110.308913,2757.943793,7994.224174
21034.330345,-1110.308913,2604.724693,8142.265362
21034.330668,-1184.329507,2681.334243,8586.388927
21034.330991,-962.267725,1685.410096,8586.388927
21034.331315,-1110.308913,2068.457845,8956.491898
21034.331638,-1110.308913,1072.533697,9622.677246
21034.331961,-1776.494261,842.705048,10288.862594
21034.332285,-2146.597232,842.705048,10066.800811
21034.332608,-2368.659014,842.705048,10658.965565
21034.332931,-2590.720797,1302.362347,11103.089130
21034.333255,-3404.947333,1149.143247,11399.171507
21034.333578,-3256.906145,1378.971896,11251.130318
21034.333901,-2590.720797,2145.067394,11621.233289
21034.334224,-2886.803174,2604.724693,10658.965565
21034.334548,-4071.132681,2757.943793,10436.903782
21034.334871,-3923.091493,2834.553343,10140.821405
21034.335194,-3849.070898,2911.162892,9474.636058
21034.335518,-4589.276840,3753.867940,9030.512492
21034.335841,-5181.441594,2987.772442,7698.141797
21034.336164,-4589.276840,2987.772442,6809.894666
21034.336488,-4145.153275,2451.505594,6883.915261
21034.336811,-3256.906145,1991.848295,5699.585753
21034.337134,-2886.803174,2298.286494,5847.626942
21034.337457,-2516.700203,1685.410096,5551.544565
21034.337781,-1554.432478,1455.581446,5921.647536
21034.338104,-814.226536,1378.971896,6439.791695
21034.338427,-1554.432478,919.314598,8216.285956
21034.338751,-2368.659014,459.657299,8882.471304
21034.339074,-1258.350101,306.438199,9622.677246
21034.339397,-1110.308913,229.828649,10214.842000
21034.339721,-1628.453072,689.485948,10658.965565
21034.340044,-888.247130,766.095498,10584.944971
21034.340367,296.082377,842.705048,10140.821405
21034.340691,814.226536,689.485948,10436.903782
21034.341014,1776.494261,1685.410096,10140.821405
21034.341337,2368.659014,1302.362347,9400.615463
21034.341660,2442.679609,-459.657299,9252.574275
21034.341984,2368.659014,-995.924147,9918.759623
21034.342307,1480.411884,-1685.410096,11399.171507
21034.342630,-1184.329507,-2451.505594,12213.398043
21034.342954,-2812.782580,-3753.867940,12657.521608
21034.343277,-3775.050304,-3753.867940,13619.789333
21034.343600,-5477.523971,-2987.772442,13767.830521
21034.343924,-6661.853478,-1532.190996,13989.892304
21034.344247,-6661.853478,459.657299,13619.789333
21034.344570,-6069.688724,2528.115143,11547.212695
21034.344893,-5033.400406,4903.011187,8808.450710
21034.345217,-3256.906145,6588.421283,5995.668130
21034.345540,-1924.535449,6818.249932,4145.153275
21034.345863,-2294.638420,7354.516781,2590.720797
21034.346187,-1924.535449,6588.421283,2664.741391
21034.346510,-2368.659014,4979.620737,2294.638420
21034.346833,-4219.173869,2145.067394,2664.741391
21034.347157,-5477.523971,0.000000,3923.091493
21034.347480,-5773.606348,-1532.190996,5847.626942
21034.347803,-5255.462188,-2298.286494,7476.080014
21034.348126,-4441.235652,-2604.724693,7698.141797
21034.348450,-3034.844362,-2451.505594,9326.594869
21034.348773,-1924.535449,-842.705048,11473.192101
21034.349096,-1036.288319,1455.581446,12731.542202
21034.349420,-370.102971,3064.381992,13619.789333
21034.349743,74.020594,5056.230287,13767.830521
21034.350066,-1036.288319,6052.154434,14582.057057
21034.350390,-1776.494261,7277.907231,15026.180623
21034.350713,-1406.391290,7354.516781,13619.789333
21034.351036,-814.226536,6052.154434,11621.233289
21034.351359,-1332.370696,5209.449386,11177.109724
21034.351683,-3552.988522,4060.306139,10362.883188
21034.352006,-3775.050304,2757.943793,8734.430116
21034.352329,-2516.700203,612.876398,7772.162391
21034.352653,-2812.782580,-1378.971896,5773.606348
21034.352976,-3701.029710,-1915.238745,4663.297435
21034.353299,-3256.906145,-2451.505594,4441.235652
21034.353623,-2294.638420,-2374.896044,5033.400406
21034.353946,-1332.370696,-1302.362347,5773.606348
21034.354269,-1998.556043,-306.438199,7179.997637
21034.354592,-2738.761985,995.924147,9178.553681
21034.354916,-2590.720797,3294.210641,11917.315666
21034.355239,-2368.659014,5286.058936,12879.583391
21034.355562,-2738.761985,5745.716235,11695.253884
21034.355886,-2072.576638,6665.030833,9696.697840
21034.356209,-1184.329507,7814.174080,8808.450710
21034.356532,-666.185348,8427.050478,7179.997637
21034.356856,1332.370696,7277.907231,4737.318029
21034.357179,2442.679609,5975.544884,5033.400406
21034.357502,888.247130,3140.991542,4071.132681
21034.357826,296.082377,0.000000,3552.988522
21034.358149,888.247130,-3907.087040,4885.359217
21034.358472,-1776.494261,-6894.859482,9030.512492
21034.358795,-5477.523971,-7890.783629,12731.542202
21034.359119,-7179.997637,-9116.536426,15100.201217
21034.359442,-7698.141797,-10265.679673,18283.086767
21034.359765,-9400.615463,-7584.345430,20281.642811
21034.360089,-8438.347739,-3983.696590,19393.395680
21034.360412,-4885.359217,0.000000,18357.107362
21034.360735,-3923.091493,4213.525239,16728.654289
21034.361059,-1332.370696,9193.145976,12361.439231
21034.361382,2812.782580,11644.651570,6661.853478
21034.361705,5255.462188,11338.213370,1628.453072
21034.362028,5107.421000,10342.289223,-296.082377
21034.362352,2442.679609,7814.174080,-518.144159
21034.362675,-1406.391290,3600.648841,1036.288319
21034.362998,-4885.359217,-766.095498,3034.844362
21034.363322,-9252.574275,-4673.182538,6069.688724
21034.363645,-11251.130318,-7967.393179,8734.430116
21034.363968,-12139.377449,-9729.412825,10066.800811
21034.364292,-11695.253884,-7584.345430,11917.315666
21034.364615,-9622.677246,-3447.429741,15396.283594
21034.364938,-5033.400406,689.485948,13989.892304
21034.365261,0.000000,4060.306139,10140.821405
21034.365585,2960.823768,7354.516781,8364.327145
21034.365908,5551.544565,11108.384721,6069.688724
21034.366231,7105.977043,13100.233016,4885.359217
21034.366555,5995.668130,12180.918418,5477.523971
21034.366878,3775.050304,10418.898773,5995.668130
21034.367201,2294.638420,7124.688131,8438.347739
21034.367525,-962.267725,2987.772442,11103.089130
21034.367848,-4515.256246,-1302.362347,12509.480420
21034.368171,-5921.647536,-4596.572988,10584.944971
21034.368494,-6143.709319,-6741.640382,11843.295072
21034.368818,-4589.276840,-6665.030833,12657.521608
21034.369141,-3034.844362,-4443.353888,11621.233289
21034.369465,-3775.050304,-3983.696590,10436.903782
21034.369788,-3775.050304,-1532.190996,10955.047942
21034.370112,-2590.720797,1685.410096,11177.109724
21034.370435,-1110.308913,3907.087040,9474.636058
21034.370759,-296.082377,5362.668486,8364.327145
21034.371082,666.185348,7967.393179,8364.327145
21034.371406,3108.864956,9116.536426,9400.615463
21034.371729,5107.421000,9499.584175,9474.636058
21034.372053,3923.091493,7431.126331,7105.977043
21034.372377,1258.350101,5439.278036,7105.977043
21034.372700,-1258.350101,2145.067394,6217.729913
21034.373024,-2072.576638,-76.609550,7179.997637
21034.373347,-3552.988522,-1608.800546,8438.347739
21034.373671,-5403.503377,-3064.381992,7179.997637
21034.373994,-6439.791695,-4060.306139,5329.482782
21034.374318,-6217.729913,-3524.039291,5477.523971
21034.374641,-3627.009116,-1608.800546,8142.265362
21034.374965,-2146.597232,536.266849,9844.739029
21034.375288,-1110.308913,1378.971896,9918.759623
21034.375612,-2590.720797,2298.286494,9992.780217
21034.375935,-3775.050304,2757.943793,10066.800811
21034.376259,-3997.112087,2298.286494,10807.006753
21034.376583,-3404.947333,2528.115143,11251.130318
21034.376906,-5181.441594,1532.190996,10584.944971
21034.377230,-5107.421000,919.314598,11991.336260
21034.377553,-2442.679609,-383.047749,10881.027347
21034.377877,-888.247130,-919.314598,11177.109724
21034.378200,-1554.432478,-2374.896044,12509.480420
21034.378524,-3997.112087,-2298.286494,12731.542202
21034.378847,-4071.132681,-2987.772442,11177.109724
21034.379171,-1998.556043,-2987.772442,10288.862594
21034.379494,-1406.391290,-2604.724693,8290.306550
21034.379818,-2294.638420,-995.924147,6809.894666
21034.380142,-1480.411884,229.828649,5625.565159
21034.380465,1110.308913,1915.238745,4737.318029
21034.380789,1702.473667,2987.772442,5847.626942
21034.381112,-1480.411884,2374.896044,7105.977043
21034.381436,-2886.803174,2145.067394,8068.244768
21034.381759,-2516.700203,1685.410096,10214.842000
21034.382083,-1258.350101,0.000000,9918.759623
21034.382406,-1110.308913,-306.438199,9178.553681
21034.382730,-222.061783,-229.828649,6883.915261
21034.383053,1850.514855,383.047749,6069.688724
21034.383377,4515.256246,0.000000,5995.668130
21034.383701,3997.112087,1225.752797,8364.327145
21034.384024,3108.864956,766.095498,9252.574275
21034.384348,2516.700203,229.828649,9178.553681
21034.384671,2664.741391,-1455.581446,10807.006753
21034.384995,888.247130,-2604.724693,12065.356855
21034.385318,-1036.288319,-2834.553343,12435.459826
21034.385642,-370.102971,-2374.896044,11103.089130
21034.385965,444.123565,-2221.676944,11251.130318
21034.386289,592.164754,-1762.019645,11917.315666
21034.386612,-518.144159,-766.095498,13471.748144
21034.386936,-1258.350101,-153.219100,13397.727550
21034.387260,148.041188,995.924147,12509.480420
21034.387583,740.205942,919.314598,10214.842000
21034.387907,1702.473667,1302.362347,7994.224174
21034.388230,2812.782580,919.314598,4663.297435
21034.388554,3478.967927,536.266849,4219.173869
21034.388877,3701.029710,1378.971896,5403.503377
21034.389201,222.061783,1685.410096,7698.141797
21034.389524,-740.205942,306.438199,6587.832884
21034.389848,-1554.432478,-612.876398,7031.956449
21034.390171,-1554.432478,-2374.896044,8660.409521
21034.390495,-3404.947333,-2145.067394,9770.718434
21034.390819,-4663.297435,-1991.848295,9326.594869
21034.391142,-2886.803174,-2145.067394,7846.182985
21034.391466,-2146.597232,-1149.143247,7846.182985
21034.391789,-1332.370696,383.047749,9474.636058
21034.392113,-1924.535449,612.876398,9548.656652
21034.392436,-2368.659014,383.047749,9400.615463
21034.392760,-1184.329507,2298.286494,11103.089130
21034.393083,-370.102971,1608.800546,10288.862594
21034.393407,74.020594,0.000000,8142.265362
21034.393730,814.226536,-1991.848295,6809.894666
21034.394054,148.041188,-2068.457845,8882.471304
21034.394377,-1184.329507,-1455.581446,12435.459826
21034.394701,-1554.432478,-2374.896044,13027.624579
21034.395025,-3478.967927,-3217.601092,12953.603985
21034.395348,-3849.070898,-4290.134789,12583.501014
21034.395672,-4441.235652,-4136.915689,11917.315666
21034.395995,-3775.050304,-3447.429741,10510.924376
21034.396319,-2664.741391,-1838.629195,9474.636058
21034.396642,-592.164754,383.047749,6587.832884
21034.396966,0.000000,2221.676944,7105.977043
21034.397289,222.061783,1838.629195,7105.977043
21034.397613,-518.144159,2451.505594,7105.977043
21034.397936,-592.164754,1991.848295,8142.265362
21034.398260,-296.082377,919.314598,6957.935855
21034.398584,0.000000,229.828649,6439.791695
21034.398907,2960.823768,-1685.410096,4219.173869
21034.399231,3182.885551,-1455.581446,5403.503377
21034.399554,1998.556043,-1302.362347,8068.244768
21034.399878,-518.144159,0.000000,11103.089130
21034.400201,740.205942,-2068.457845,10807.006753
21034.400525,2072.576638,-3677.258390,10362.883188
21034.400848,1110.308913,-2145.067394,11917.315666
21034.401172,2072.576638,-459.657299,12139.377449
21034.401495,3552.988522,1608.800546,9696.697840
21034.401819,6217.729913,1455.581446,7772.162391
21034.402143,5773.606348,3217.601092,9252.574275
21034.402466,2368.659014,2834.553343,9622.677246
21034.402790,296.082377,1762.019645,10066.800811
21034.403113,74.020594,0.000000,12139.377449
21034.403437,-962.267725,-1608.800546,11917.315666
21034.403760,-3034.844362,-2757.943793,10881.027347
21034.404084,-3256.906145,-4519.963438,8290.306550
21034.404407,-2294.638420,-3753.867940,7254.018232
21034.404731,-1480.411884,-2681.334243,8660.409521
21034.405054,-1998.556043,-1915.238745,10807.006753
21034.405378,-2072.576638,-1608.800546,9326.594869
21034.405702,-1702.473667,-995.924147,8586.388927
21034.406025,-518.144159,-459.657299,9104.533087
21034.406349,444.123565,536.266849,8660.409521
21034.406672,740.205942,2145.067394,7105.977043
21034.406996,1776.494261,2298.286494,6217.729913
21034.407319,2812.782580,2068.457845,6069.688724
21034.407643,2220.617826,2145.067394,7031.956449
21034.407966,-296.082377,1455.581446,9844.739029
21034.408290,-962.267725,383.047749,10362.883188
21034.408613,-1332.370696,0.000000,10066.800811
21034.408937,-2146.597232,-2298.286494,10362.883188
21034.409261,-2368.659014,-3830.477490,7179.997637
21034.409584,-1406.391290,-3064.381992,6143.709319
21034.409908,-222.061783,-2604.724693,8438.347739
21034.410231,-962.267725,-1149.143247,9622.677246
21034.410555,-2294.638420,-1532.190996,10362.883188
21034.410878,-2812.782580,-2298.286494,9992.780217
21034.411202,-4515.256246,-1762.019645,12953.603985
21034.411525,-5921.647536,-1378.971896,14211.954086
21034.411849,-4515.256246,-3217.601092,10362.883188
21034.412172,-2146.597232,-3447.429741,8882.471304
21034.412496,296.082377,-2221.676944,9918.759623
21034.412819,-592.164754,536.266849,9844.739029
21034.413143,-1036.288319,612.876398,9992.780217
21034.413467,444.123565,-306.438199,8882.471304
21034.413790,1480.411884,919.314598,9252.574275
21034.414114,2516.700203,76.609550,8882.471304
21034.414437,2590.720797,-76.609550,7476.080014
21034.414761,3330.926739,-536.266849,6513.812290
21034.415084,4293.194464,842.705048,7624.121203
21034.415408,4145.153275,995.924147,7031.956449
21034.415731,1702.473667,612.876398,7179.997637
21034.416055,592.164754,-689.485948,7402.059420
21034.416378,-1480.411884,-689.485948,7846.182985
21034.416702,-2442.679609,-536.266849,8734.430116
21034.417026,-2886.803174,0.000000,9622.677246
21034.417349,-2294.638420,-536.266849,8142.265362
21034.417673,0.000000,-536.266849,5921.647536
21034.417996,962.267725,-383.047749,7031.956449
21034.418320,2146.597232,153.219100,9400.615463
21034.418643,1628.453072,689.485948,12435.459826
21034.418967,2368.659014,1225.752797,12879.583391
21034.419290,4293.194464,536.266849,11399.171507
21034.419614,3404.947333,-766.095498,11177.109724
21034.419937,962.267725,-2374.896044,9696.697840
21034.420261,1554.432478,-2221.676944,9696.697840
21034.420585,2220.617826,-1225.752797,9992.780217
21034.420908,1998.556043,-536.266849,10362.883188
21034.421232,-1036.288319,-1915.238745,9844.739029
21034.421555,-3627.009116,-1762.019645,9918.759623
21034.421879,-3478.967927,-1378.971896,11769.274478
21034.422202,-3775.050304,0.000000,11621.233289
21034.422526,-2886.803174,-612.876398,9474.636058
21034.422849,-1110.308913,-689.485948,4811.338623
21034.423173,0.000000,919.314598,4737.318029
21034.423496,962.267725,1838.629195,6735.874072
21034.423820,-814.226536,2145.067394,7994.224174
21034.424144,-1628.453072,842.705048,7698.141797
21034.424467,-296.082377,153.219100,8142.265362
21034.424791,-1110.308913,-919.314598,8364.327145
21034.425114,-1850.514855,-1762.019645,9178.553681
21034.425438,-222.061783,-2451.505594,7476.080014
21034.425761,592.164754,-1685.410096,7105.977043
21034.426085,444.123565,-1225.752797,8438.347739
21034.426408,-1924.535449,-919.314598,9992.780217
21034.426732,-2368.659014,-1455.581446,11621.233289
21034.427055,-2664.741391,-1991.848295,12361.439231
21034.427379,-3478.967927,-1608.800546,12879.583391
21034.427703,-3849.070898,-1378.971896,12731.542202
21034.428026,-2886.803174,-1762.019645,9252.574275
21034.428350,-592.164754,-919.314598,7772.162391
21034.428673,74.020594,-689.485948,8438.347739
21034.428997,-2368.659014,76.609550,10140.821405
21034.429320,-2368.659014,76.609550,9918.759623
21034.429644,0.000000,-842.705048,9400.615463
21034.429967,0.000000,-1149.143247,10214.842000
21034.430291,-888.247130,-1072.533697,10732.986159
21034.430614,444.123565,-995.924147,9178.553681
21034.430938,2368.659014,-1072.533697,7698.141797
21034.431261,3923.091493,-536.266849,7624.121203
21034.431585,2664.741391,842.705048,8290.306550
21034.431909,962.267725,766.095498,9030.512492
21034.432232,740.205942,919.314598,9474.636058
21034.432556,0.000000,1608.800546,9252.574275
21034.432879,-2590.720797,1762.019645,10066.800811
21034.433203,-2812.782580,689.485948,8068.244768
21034.433526,-444.123565,-766.095498,4885.359217
21034.433850,2220.617826,-459.657299,5329.482782
21034.434173,814.226536,1685.410096,7698.141797
21034.434497,-1554.432478,3294.210641,9696.697840
21034.434820,-296.082377,1608.800546,7698.141797
21034.435144,-370.102971,153.219100,7328.038826
21034.435468,0.000000,-1072.533697,9696.697840
21034.435791,-888.247130,-1532.190996,10362.883188
21034.436115,-444.123565,-1532.190996,9400.615463
21034.436438,2146.597232,-2068.457845,8956.491898
21034.436762,2368.659014,-995.924147,9326.594869
21034.437085,370.102971,-1225.752797,11621.233289
21034.437409,-1110.308913,-383.047749,11695.253884
21034.437732,74.020594,-229.828649,12731.542202
21034.438056,888.247130,-153.219100,13101.645173
21034.438379,148.041188,459.657299,11473.192101
21034.438703,1184.329507,306.438199,8734.430116
21034.439027,3108.864956,153.219100,6217.729913
21034.439350,2220.617826,842.705048,5699.585753
21034.439674,0.000000,1608.800546,8290.306550
21034.439997,-518.144159,-306.438199,9030.512492
21034.440321,-1406.391290,-536.266849,7624.121203
21034.440644,-1850.514855,-2298.286494,8586.388927
21034.440968,-3627.009116,-2451.505594,9178.553681
21034.441291,-2960.823768,-2451.505594,7994.224174
21034.441615,-444.123565,-2451.505594,6809.894666
21034.441938,296.082377,-1762.019645,7031.956449
21034.442262,-1184.329507,-229.828649,9252.574275
21034.442586,-962.267725,-459.657299,9548.656652
21034.442909,-1258.350101,-612.876398,10066.800811
21034.443233,-1332.370696,0.000000,11769.274478
21034.443556,-1554.432478,612.876398,11325.150913
21034.443880,-1184.329507,153.219100,9474.636058
21034.444203,-74.020594,-306.438199,8290.306550
21034.444527,1332.370696,0.000000,7698.141797
21034.444850,296.082377,-1378.971896,8882.471304
21034.445174,-3108.864956,-1685.410096,9474.636058
21034.445497,-3923.091493,-1149.143247,10584.944971
21034.445821,-3108.864956,-1532.190996,11177.109724
21034.446145,-3256.906145,-3217.601092,10066.800811
21034.446468,-4737.318029,-3370.820191,9030.512492
21034.446792,-1924.535449,-2681.334243,8660.409521
21034.447115,888.247130,-1838.629195,7254.018232
21034.447439,1998.556043,0.000000,8586.388927
21034.447762,370.102971,1149.143247,9992.780217
21034.448086,-370.102971,1838.629195,9474.636058
21034.448409,296.082377,1072.533697,10584.944971
21034.448733,1776.494261,689.485948,8660.409521
21034.449056,1036.288319,1302.362347,9548.656652
21034.449380,1702.473667,229.828649,7624.121203
21034.449703,3552.988522,689.485948,7179.997637
21034.450027,4737.318029,1378.971896,7994.224174
21034.450351,2516.700203,1225.752797,8882.471304
21034.450674,-222.061783,76.609550,8364.327145
21034.450998,-444.123565,0.000000,9030.512492
21034.451321,296.082377,-306.438199,10066.800811
21034.451645,-1554.432478,-612.876398,11547.212695
21034.451968,-1184.329507,-1302.362347,8512.368333
21034.452292,74.020594,-919.314598,7179.997637
21034.452615,-370.102971,-1225.752797,7550.100608
21034.452939,-1998.556043,76.609550,9030.512492
21034.453262,-1480.411884,-536.266849,8882.471304
21034.453586,-1924.535449,-766.095498,9474.636058
21034.453910,-2590.720797,612.876398,10955.047942
21034.454233,-2812.782580,919.314598,11621.233289
21034.454557,-814.226536,-459.657299,8882.471304
21034.454880,1776.494261,-689.485948,7624.121203
21034.455204,3997.112087,76.609550,8216.285956
21034.455527,4959.379811,919.314598,8438.347739
21034.455851,4737.318029,1302.362347,10510.924376
21034.456174,3182.885551,1608.800546,11029.068536
21034.456498,2072.576638,1225.752797,11103.089130
21034.456821,518.144159,-766.095498,8660.409521
21034.457145,-1036.288319,-842.705048,9326.594869
21034.457469,666.185348,-536.266849,9252.574275
21034.457792,1480.411884,-612.876398,7031.956449
21034.458116,444.123565,-536.266849,7846.182985
21034.458439,-2516.700203,0.000000,8438.347739
21034.458763,-3849.070898,612.876398,8142.265362
21034.459086,-3923.091493,-1072.533697,10436.903782
21034.459410,-3627.009116,-1838.629195,10214.842000
21034.459733,-4219.173869,-1915.238745,10510.924376
21034.460057,-2738.761985,-2834.553343,7698.141797
21034.460380,-1776.494261,-2528.115143,7031.956449
21034.460704,-814.226536,-1685.410096,7772.162391
21034.461028,-2294.638420,-766.095498,9696.697840
21034.461351,-2368.659014,-2528.115143,8956.491898
21034.461675,-2220.617826,-2911.162892,10732.986159
21034.461998,-2072.576638,-1915.238745,12879.583391
21034.462322,-2220.617826,-1072.533697,12287.418637
21034.462645,-148.041188,-2068.457845,9252.574275
21034.462969,1628.453072,-1762.019645,7846.182985
21034.463292,2738.761985,-1072.533697,7476.080014
21034.463616,592.164754,689.485948,9474.636058
21034.463939,-666.185348,0.000000,9992.780217
21034.464263,0.000000,-383.047749,8808.450710
21034.464587,1184.329507,-919.314598,10214.842000
21034.464910,-296.082377,-766.095498,11621.233289
21034.465234,-1036.288319,229.828649,8956.491898
21034.465557,1332.370696,-229.828649,7624.121203
21034.465881,2442.679609,-612.876398,7254.018232
21034.466204,740.205942,306.438199,7920.203579
21034.466528,444.123565,536.266849,8216.285956
21034.466851,962.267725,0.000000,8364.327145
21034.467175,0.000000,766.095498,9992.780217
21034.467498,-1702.473667,1532.190996,10658.965565
21034.467822,-1480.411884,0.000000,8290.306550
21034.468145,296.082377,-995.924147,7328.038826
21034.468469,2812.782580,-689.485948,6735.874072
21034.468793,370.102971,689.485948,9252.574275
21034.469116,-2368.659014,-229.828649,10066.800811
21034.469440,-1924.535449,0.000000,9696.697840
21034.469763,-444.123565,-459.657299,9474.636058
21034.470087,-1184.329507,0.000000,10140.821405
21034.470410,-2220.617826,306.438199,9400.615463
21034.470734,962.267725,76.609550,8660.409521
21034.471057,5181.441594,919.314598,7254.018232
21034.471381,4959.379811,995.924147,6735.874072
21034.471704,2294.638420,1072.533697,8660.409521
21034.472028,592.164754,1149.143247,10214.842000
21034.472351,740.205942,1302.362347,11843.295072
21034.472675,888.247130,0.000000,11917.315666
21034.472998,-1258.350101,-612.876398,10955.047942
21034.473322,-1036.288319,-2374.896044,8068.244768
21034.473645,370.102971,-1915.238745,7476.080014
21034.473969,1110.308913,-689.485948,8734.430116
21034.474292,-518.144159,383.047749,9622.677246
21034.474616,-3182.885551,153.219100,8956.491898
21034.474939,-3627.009116,-842.705048,8734.430116
21034.475263,-3034.844362,-1455.581446,8512.368333
21034.475586,-3404.947333,-995.924147,9548.656652
21034.475910,-2516.700203,-2221.676944,7402.059420
21034.476233,-518.144159,-1685.410096,6513.812290
21034.476557,370.102971,-1302.362347,6957.935855
21034.476880,-1850.514855,-612.876398,9548.656652
21034.477204,-3108.864956,-1302.362347,8660.409521
21034.477527,-2960.823768,-2298.286494,9178.553681
21034.477851,-2072.576638,-2451.505594,11621.233289
21034.478174,-2812.782580,-1608.800546,11695.253884
21034.478498,-1628.453072,-1378.971896,9474.636058
21034.478821,888.247130,-1455.581446,8142.265362
21034.479145,2590.720797,383.047749,9400.615463
21034.479468,3108.864956,1608.800546,9474.636058
21034.479792,888.247130,536.266849,8956.491898
21034.480115,296.082377,-459.657299,8586.388927
21034.480439,-148.041188,-383.047749,9770.718434
21034.480762,-1036.288319,-612.876398,10658.965565
21034.481085,-2072.576638,-1685.410096,10214.842000
21034.481409,-1184.329507,-2298.286494,8956.491898
21034.481732,296.082377,-2987.772442,6143.709319
21034.482056,-1036.288319,-2068.457845,8660.409521
21034.482379,-3108.864956,-1225.752797,9844.739029
21034.482703,-2368.659014,-766.095498,8142.265362
21034.483026,-666.185348,-995.924147,10288.862594
21034.483350,-666.185348,-919.314598,11325.150913
21034.483673,-1998.556043,306.438199,10436.903782
21034.483997,74.020594,-383.047749,7624.121203
21034.484320,2368.659014,-383.047749,7105.977043
21034.484644,3849.070898,1072.533697,8882.471304
21034.484967,1850.514855,1455.581446,8216.285956
21034.485291,-814.226536,536.266849,8068.244768
21034.485614,-444.123565,-383.047749,9252.574275
21034.485938,814.226536,153.219100,9696.697840
21034.486261,-518.144159,-306.438199,10288.862594
21034.486585,-1184.329507,-2068.457845,9474.636058
21034.486908,2146.597232,-1302.362347,7031.956449
21034.487232,4071.132681,0.000000,8068.244768
21034.487555,2516.700203,0.000000,9696.697840
21034.487879,592.164754,766.095498,8660.409521
21034.488202,1110.308913,459.657299,8808.450710
21034.488526,1776.494261,0.000000,10288.862594
21034.488849,0.000000,1072.533697,10807.006753
21034.489173,-444.123565,153.219100,8734.430116
21034.489496,814.226536,-1532.190996,7846.182985
21034.489820,1258.350101,-612.876398,7254.018232
21034.490143,444.123565,1072.533697,9474.636058
21034.490467,-1406.391290,-689.485948,8290.306550
21034.490790,-1406.391290,-1685.410096,8586.388927
21034.491114,-592.164754,-306.438199,11695.253884
21034.491437,-1110.308913,383.047749,12287.418637
21034.491761,-1258.350101,-689.485948,10362.883188
21034.492084,-740.205942,-1608.800546,7105.977043
21034.492408,0.000000,-919.314598,7105.977043
21034.492731,0.000000,0.000000,8660.409521
21034.493055,-2072.576638,-536.266849,9030.512492
21034.493378,-2294.638420,-1378.971896,8068.244768
21034.493702,-2960.823768,-1302.362347,9400.615463
21034.494025,-3997.112087,-919.314598,9992.780217
21034.494349,-3775.050304,-766.095498,10658.965565
21034.494672,-592.164754,-1608.800546,9474.636058
21034.494996,370.102971,-1532.190996,9326.594869
21034.495319,-518.144159,-1149.143247,9178.553681
21034.495643,-1184.329507,0.000000,8956.491898
21034.495966,-1702.473667,-1225.752797,8216.285956
21034.496290,-2368.659014,-995.924147,9622.677246
21034.496613,-740.205942,-842.705048,8660.409521
21034.496937,-1850.514855,-689.485948,10288.862594
21034.497260,-2294.638420,-1685.410096,9326.594869
21034.497584,0.000000,-1225.752797,7105.977043
21034.497907,1850.514855,-995.924147,7179.997637
21034.498231,-444.123565,-1072.533697,9252.574275
21034.498554,-2368.659014,0.000000,9474.636058
21034.498878,-1332.370696,76.609550,9474.636058
21034.499201,0.000000,-229.828649,10510.924376
21034.499525,-296.082377,0.000000,11177.109724
21034.499848,-888.247130,-536.266849,9400.615463
21034.500172,740.205942,-1072.533697,8142.265362
21034.500495,3775.050304,-612.876398,7920.203579
21034.500819,3404.947333,536.266849,8882.471304
21034.501142,296.082377,689.485948,9844.739029
21034.501466,-1184.329507,0.000000,9474.636058
21034.501789,888.247130,153.219100,10584.944971
21034.502113,1554.432478,-383.047749,10436.903782
21034.502436,-222.061783,-995.924147,8142.265362
21034.502760,1036.288319,-383.047749,7698.141797
21034.503083,3182.885551,-229.828649,7846.182985
21034.503407,2664.741391,919.314598,8364.327145
21034.503730,370.102971,689.485948,9326.594869
21034.504054,-666.185348,536.266849,8438.347739
21034.504377,-370.102971,-536.266849,8882.471304
21034.504701,-370.102971,-1225.752797,9844.739029
21034.505024,-962.267725,0.000000,10658.965565
21034.505348,222.061783,-229.828649,9178.553681
21034.505671,2516.700203,-612.876398,7328.038826
21034.505995,3034.844362,-689.485948,6513.812290
21034.506318,148.041188,153.219100,8808.450710
21034.506642,148.041188,383.047749,10436.903782
21034.506965,1406.391290,689.485948,10510.924376
21034.507289,1924.535449,383.047749,11029.068536
21034.507612,-888.247130,-689.485948,9696.697840
21034.507936,-814.226536,-1532.190996,8216.285956
21034.508259,1776.494261,-1302.362347,7772.162391
21034.508583,1998.556043,0.000000,9400.615463
21034.508906,-1702.473667,153.219100,10584.944971
21034.509230,-3478.967927,-995.924147,8882.471304
21034.509553,-3404.947333,-1991.848295,7846.182985
21034.509877,-3108.864956,-2221.676944,9474.636058
21034.510200,-4737.318029,-766.095498,11473.192101
21034.510524,-4071.132681,-1149.143247,9844.739029
21034.510847,-1480.411884,-995.924147,7624.121203
21034.511171,74.020594,-1991.848295,7624.121203
21034.511494,-2886.803174,-995.924147,8808.450710
21034.511818,-4293.194464,-919.314598,9474.636058
21034.512141,-3552.988522,-1378.971896,10510.924376
21034.512465,-2368.659014,-1991.848295,10510.924376
21034.512788,-2294.638420,-1762.019645,9622.677246
21034.513112,-1406.391290,-2221.676944,9622.677246
21034.513435,-1554.432478,-1762.019645,8808.450710
21034.513759,0.000000,-1838.629195,7254.018232
21034.514082,666.185348,-919.314598,7846.182985
21034.514406,1406.391290,-229.828649,9178.553681
21034.514729,370.102971,995.924147,9844.739029
21034.515052,1036.288319,153.219100,9252.574275
21034.515376,1184.329507,766.095498,10658.965565
21034.515699,444.123565,459.657299,10510.924376
21034.516023,1628.453072,919.314598,7254.018232
21034.516346,3923.091493,-612.876398,6217.729913
21034.516670,2738.761985,-153.219100,8882.471304
21034.516993,0.000000,919.314598,11843.295072
21034.517317,-1184.329507,383.047749,10362.883188
21034.517640,-1406.391290,-1378.971896,8364.327145
21034.517964,-592.164754,-2451.505594,8512.368333
21034.518287,-1628.453072,-612.876398,8734.430116
21034.518611,-888.247130,-383.047749,8586.388927
21034.518934,1332.370696,-612.876398,7772.162391
21034.519258,1924.535449,919.314598,8438.347739
21034.519581,0.000000,1302.362347,9474.636058
21034.519905,-740.205942,76.609550,7994.224174
21034.520228,148.041188,-306.438199,9474.636058
21034.520552,1184.329507,-459.657299,10658.965565
21034.520875,666.185348,1072.533697,12435.459826
21034.521199,2072.576638,383.047749,9474.636058
21034.521522,3256.906145,76.609550,7772.162391
21034.521846,3701.029710,153.219100,8290.306550
21034.522169,2664.741391,689.485948,8438.347739
21034.522493,1924.535449,995.924147,8512.368333
21034.522816,1184.329507,766.095498,9104.533087
21034.523140,1110.308913,0.000000,9178.553681
21034.523463,296.082377,0.000000,9400.615463
21034.523787,-148.041188,-1149.143247,9474.636058
21034.524110,-592.164754,-689.485948,9252.574275
21034.524434,370.102971,-459.657299,8882.471304
21034.524757,592.164754,-766.095498,9548.656652
21034.525081,-2294.638420,-1608.800546,8734.430116
21034.525404,-5551.544565,-995.924147,9326.594869
21034.525728,-4219.173869,-2298.286494,9326.594869
21034.526051,-4737.318029,-1685.410096,10584.944971
21034.526375,-4959.379811,-2451.505594,9918.759623
21034.526698,-3478.967927,-2298.286494,8290.306550
21034.527022,-740.205942,-2298.286494,7254.018232
21034.527345,0.000000,-1225.752797,9030.512492
21034.527669,-962.267725,-842.705048,9548.656652
21034.527992,-2664.741391,-306.438199,9030.512492
21034.528316,-2590.720797,-612.876398,10066.800811
21034.528639,-1332.370696,0.000000,11029.068536
21034.528963,-1554.432478,-1149.143247,10584.944971
21034.529286,-888.247130,-1762.019645,8512.368333
21034.529610,0.000000,-1532.190996,7624.121203
21034.529933,1628.453072,-459.657299,7772.162391
21034.530257,370.102971,306.438199,9992.780217
21034.530580,-1480.411884,-153.219100,9474.636058
21034.530904,-1776.494261,0.000000,10288.862594
21034.531227,-962.267725,-612.876398,9474.636058
21034.531551,-444.123565,-383.047749,10658.965565
21034.531874,666.185348,-766.095498,8068.244768
21034.532198,1628.453072,0.000000,6809.894666
21034.532521,2368.659014,0.000000,7624.121203
21034.532845,0.000000,919.314598,9770.718434
21034.533168,-1776.494261,1378.971896,8808.450710
21034.533492,-1702.473667,0.000000,8290.306550
21034.533815,-1184.329507,-1072.533697,8290.306550
21034.534139,-1110.308913,76.609550,9918.759623
21034.534462,-666.185348,306.438199,9622.677246
21034.534786,1998.556043,229.828649,7698.141797
21034.535109,2368.659014,536.266849,7994.224174
21034.535433,1480.411884,1149.143247,9844.739029
21034.535756,814.226536,766.095498,10436.903782
21034.536080,1406.391290,-153.219100,9696.697840
21034.536403,1036.288319,766.095498,10066.800811
21034.536727,370.102971,306.438199,10066.800811
21034.537050,148.041188,536.266849,8956.491898
21034.537374,2516.700203,0.000000,7698.141797
21034.537697,4071.132681,306.438199,7254.018232
21034.538021,2220.617826,459.657299,8882.471304
21034.538344,0.000000,76.609550,9400.615463
21034.538668,0.000000,0.000000,9030.512492
21034.538991,518.144159,-766.095498,8956.491898
21034.539315,-444.123565,-383.047749,9474.636058
21034.539638,-1628.453072,-1915.238745,9918.759623
21034.539962,-666.185348,-1149.143247,8216.285956
21034.540285,888.247130,-1072.533697,7402.059420
21034.540609,1850.514855,-995.924147,9030.512492
21034.540932,-74.020594,-612.876398,9992.780217
21034.541256,-2146.597232,-1225.752797,9252.574275
21034.541579,-2738.761985,-536.266849,9696.697840
21034.541903,-2220.617826,-1915.238745,9918.759623
21034.542226,-2738.761985,-1915.238745,10140.821405
21034.542550,-1406.391290,-2528.115143,9178.553681
21034.542873,0.000000,-2068.457845,8734.430116
21034.543197,-666.185348,-1302.362347,9992.780217
21034.543520,-2146.597232,-1685.410096,11029.068536
21034.543844,-2590.720797,-1685.410096,9474.636058
21034.544167,-4441.235652,-2374.896044,9622.677246
21034.544491,-4441.235652,-2451.505594,10288.862594
21034.544814,-4441.235652,-1762.019645,10584.944971
21034.545138,-3330.926739,-2451.505594,8734.430116
21034.545461,-592.164754,-2145.067394,7698.141797
21034.545785,74.020594,-842.705048,7476.080014
21034.546108,-592.164754,0.000000,9252.574275
21034.546432,-1184.329507,-76.609550,8882.471304
21034.546755,-814.226536,153.219100,7920.203579
21034.547079,-370.102971,-536.266849,8142.265362
21034.547402,0.000000,0.000000,8586.388927
21034.547726,1998.556043,-153.219100,8364.327145
21034.548049,2072.576638,0.000000,8660.409521
21034.548373,2442.679609,-459.657299,8142.265362
21034.548696,2664.741391,0.000000,8956.491898
21034.549020,1110.308913,0.000000,9918.759623
21034.549343,518.144159,0.000000,10436.903782
21034.549666,518.144159,-306.438199,8364.327145
21034.549990,74.020594,-919.314598,8586.388927
21034.550313,-666.185348,306.438199,10214.842000
21034.550637,814.226536,1455.581446,8882.471304
21034.550960,3404.947333,76.609550,6957.935855
21034.551284,2812.782580,-383.047749,9178.553681
21034.551607,1406.391290,919.314598,12065.356855
21034.551931,518.144159,1685.410096,11547.212695
21034.552254,444.123565,-306.438199,10066.800811
21034.552578,0.000000,-1072.533697,9474.636058
21034.552901,-1702.473667,0.000000,10584.944971
21034.553225,-296.082377,-153.219100,9696.697840
21034.553548,1406.391290,-1072.533697,7698.141797
21034.553872,1184.329507,-612.876398,6809.894666
21034.554195,-1258.350101,0.000000,9030.512492
21034.554519,-2812.782580,306.438199,7994.224174
21034.554842,-1776.494261,459.657299,8512.368333
21034.555166,-370.102971,76.609550,9992.780217
21034.555489,-740.205942,306.438199,8438.347739
21034.555813,74.020594,459.657299,6957.935855
21034.556136,2368.659014,0.000000,6883.915261
21034.556460,4071.132681,1608.800546,8364.327145
21034.556783,2368.659014,2298.286494,10066.800811
21034.557107,222.061783,1072.533697,9622.677246
21034.557430,-1110.308913,-459.657299,9622.677246
21034.557754,-1184.329507,-536.266849,10066.800811
21034.558077,-1924.535449,-1302.362347,11399.171507
21034.558401,-666.185348,-995.924147,9622.677246
21034.558724,518.144159,-995.924147,7698.141797
21034.559048,518.144159,0.000000,6809.894666
21034.559371,-1480.411884,153.219100,9326.594869
21034.559695,-4145.153275,612.876398,9548.656652
21034.560018,-4885.359217,-1072.533697,8512.368333
21034.560342,-4663.297435,-1991.848295,9770.718434
21034.560665,-5551.544565,-2528.115143,10362.883188
21034.560989,-6069.688724,-2451.505594,9992.780217
21034.561312,-3849.070898,-2757.943793,9178.553681
21034.561636,-2590.720797,-2145.067394,8956.491898
21034.561959,-3256.906145,-2298.286494,11103.089130
21034.562283,-2146.597232,-2298.286494,9918.759623
21034.562606,-1332.370696,-1838.629195,8882.471304
21034.562930,0.000000,-995.924147,9474.636058
21034.563253,444.123565,689.485948,9474.636058
21034.563577,814.226536,459.657299,9252.574275
21034.563900,3034.844362,0.000000,6735.874072
21034.564224,5107.421000,536.266849,6587.832884
21034.564547,5255.462188,306.438199,7994.224174
21034.564871,1258.350101,0.000000,10214.842000
21034.565194,740.205942,-153.219100,9844.739029
21034.565518,1036.288319,-1072.533697,9400.615463
21034.565841,-740.205942,-536.266849,9696.697840
21034.566165,-1998.556043,-1608.800546,9474.636058
21034.566488,0.000000,-1915.238745,7624.121203
21034.566812,2294.638420,-1225.752797,7698.141797
21034.567135,2368.659014,306.438199,9326.594869
21034.567459,592.164754,612.876398,9844.739029
21034.567782,-1554.432478,-1149.143247,8586.388927
21034.568106,-1554.432478,-1532.190996,9548.656652
21034.568429,-222.061783,-1532.190996,10510.924376
21034.568753,-1184.329507,-1532.190996,11843.295072
21034.569076,-592.164754,-2298.286494,10584.944971
21034.569400,1554.432478,-1532.190996,8364.327145
21034.569723,2368.659014,-842.705048,7624.121203
21034.570047,666.185348,-766.095498,9622.677246
21034.570370,740.205942,-995.924147,9918.759623
21034.570694,740.205942,-153.219100,9474.636058
21034.571017,1036.288319,-153.219100,10288.862594
21034.571341,1628.453072,842.705048,10510.924376
21034.571664,1998.556043,612.876398,8808.450710
21034.571988,3552.988522,1072.533697,7179.997637
21034.572311,4515.256246,766.095498,6513.812290
21034.572635,3182.885551,1302.362347,6735.874072
21034.572958,518.144159,919.314598,9474.636058
21034.573282,-1332.370696,842.705048,11029.068536
21034.573605,-2220.617826,229.828649,11251.130318
21034.573928,-3478.967927,-995.924147,9844.739029
21034.574252,-4959.379811,-3447.429741,8290.306550
21034.574575,-3997.112087,-2604.724693,7698.141797
21034.574899,-3108.864956,-459.657299,9400.615463
21034.575222,-3034.844362,-229.828649,9474.636058
21034.575546,-3108.864956,-766.095498,8364.327145
21034.575869,-2738.761985,-1225.752797,7920.203579
21034.576193,-3849.070898,0.000000,9992.780217
21034.576516,-4515.256246,1685.410096,10214.842000
21034.576840,-3182.885551,0.000000,10140.821405
21034.577163,-1998.556043,0.000000,7105.977043
21034.577487,0.000000,-306.438199,6883.915261
21034.577810,518.144159,0.000000,7179.997637
21034.578134,-962.267725,306.438199,9252.574275
21034.578457,-1628.453072,1072.533697,11399.171507
21034.578781,-888.247130,766.095498,9770.718434
21034.579104,-1036.288319,-306.438199,8290.306550
21034.579428,-1998.556043,76.609550,8808.450710
21034.579751,-296.082377,-536.266849,8068.244768
21034.580075,1776.494261,-229.828649,6809.894666
21034.580398,2516.700203,-459.657299,6957.935855
21034.580722,148.041188,766.095498,9474.636058
21034.581045,-2146.597232,536.266849,9622.677246
21034.581369,-1332.370696,-1378.971896,8660.409521
21034.581692,444.123565,-2604.724693,10140.821405
21034.582016,-1480.411884,-1225.752797,12879.583391
21034.582339,-814.226536,-1225.752797,11843.295072
21034.582663,1406.391290,-1991.848295,8216.285956
21034.582986,3552.988522,-1838.629195,6587.832884
21034.583309,2368.659014,0.000000,9030.512492
21034.583633,1184.329507,-153.219100,9844.739029
21034.583956,2294.638420,-229.828649,9622.677246
21034.584280,2886.803174,-919.314598,9992.780217
21034.584603,1332.370696,-306.438199,11029.068536
21034.584927,740.205942,-1378.971896,9326.594869
21034.585250,2590.720797,-2451.505594,7920.203579
21034.585574,4589.276840,-1302.362347,9548.656652
21034.585897,3552.988522,-383.047749,9474.636058
21034.586221,1184.329507,-1378.971896,8734.430116
21034.586544,296.082377,-2068.457845,9104.533087
21034.586868,0.000000,-1149.143247,9548.656652
21034.587191,0.000000,-766.095498,9622.677246
21034.587515,0.000000,-1225.752797,9474.636058
21034.587838,0.000000,-1685.410096,7772.162391
21034.588162,296.082377,-1302.362347,7698.141797
21034.588485,1554.432478,-1455.581446,6957.935855
21034.588809,-1036.288319,-995.924147,8882.471304
21034.589132,-2368.659014,-1915.238745,9030.512492
21034.589456,-3108.864956,-1685.410096,9474.636058
21034.589779,-3182.885551,-2528.115143,10955.047942
21034.590103,-3701.029710,-2374.896044,10807.006753
21034.590426,-2220.617826,-2451.505594,7994.224174
21034.590750,222.061783,-1762.019645,7698.141797
21034.591073,888.247130,-383.047749,9696.697840
21034.591397,-148.041188,689.485948,9474.636058
21034.591720,-518.144159,689.485948,9104.533087
21034.592044,-1110.308913,229.828649,9622.677246
21034.592367,-888.247130,842.705048,11251.130318
21034.592691,-2368.659014,1455.581446,11991.336260
21034.593014,-2146.597232,-995.924147,10510.924376
21034.593337,-296.082377,-306.438199,9104.533087
21034.593661,1110.308913,-459.657299,8290.306550
21034.593984,-2220.617826,229.828649,8586.388927
21034.594308,-5181.441594,-919.314598,7698.141797
21034.594631,-5181.441594,-612.876398,7994.224174
21034.594955,-3256.906145,153.219100,9252.574275
21034.595278,-3849.070898,612.876398,8586.388927
21034.595602,-4441.235652,153.219100,7698.141797
21034.595925,-2146.597232,229.828649,6291.750507
21034.596249,962.267725,1225.752797,5699.585753
21034.596572,1406.391290,1838.629195,7476.080014
21034.596896,-518.144159,1225.752797,7476.080014
21034.597219,-592.164754,1149.143247,7402.059420
21034.597543,592.164754,995.924147,9252.574275
21034.597866,1110.308913,842.705048,10732.986159
21034.598190,592.164754,0.000000,10066.800811
21034.598513,1924.535449,-995.924147,8956.491898
21034.598837,4515.256246,-153.219100,9696.697840
21034.599160,4441.235652,153.219100,10584.944971
21034.599484,2220.617826,0.000000,10807.006753
21034.599807,1258.350101,-995.924147,10658.965565
21034.600131,518.144159,76.609550,11399.171507
21034.600454,518.144159,383.047749,11103.089130
21034.600778,74.020594,-612.876398,11325.150913
21034.601101,0.000000,-1608.800546,9696.697840
21034.601425,1406.391290,-1608.800546,7994.224174
21034.601748,1850.514855,-766.095498,7920.203579
21034.602072,-740.205942,-1149.143247,9622.677246
21034.602395,-1554.432478,-459.657299,8364.327145
21034.602718,-962.267725,-842.705048,8364.327145
21034.603042,444.123565,-2068.457845,7772.162391
21034.603365,-1850.514855,0.000000,9918.759623
21034.603689,-296.082377,0.000000,8808.450710
21034.604012,2516.700203,76.609550,6735.874072
21034.604336,3478.967927,-1225.752797,5477.523971
21034.604659,1850.514855,-689.485948,7550.100608
21034.604983,148.041188,0.000000,9104.533087
21034.605306,74.020594,-1072.533697,9770.718434
21034.605630,-148.041188,-1532.190996,9992.780217
21034.605953,-1628.453072,-2068.457845,10214.842000
21034.606277,-2368.659014,-2374.896044,9696.697840
21034.606600,-1480.411884,-2451.505594,8364.327145
21034.606924,592.164754,-2757.943793,8660.409521
21034.607247,296.082377,-1608.800546,10658.965565
21034.607571,-1332.370696,-919.314598,10288.862594
21034.607894,-888.247130,-1302.362347,9548.656652
21034.608218,-2146.597232,-1532.190996,10807.006753
21034.608541,-2738.761985,-1762.019645,10658.965565
21034.608865,-1850.514855,-1072.533697,10510.924376
21034.609188,518.144159,-1685.410096,9030.512492
21034.609512,2146.597232,-1838.629195,8882.471304
21034.609835,518.144159,-1532.190996,8882.471304
21034.610159,-2368.659014,-306.438199,10288.862594
21034.610482,-3552.988522,-1455.581446,9400.615463
21034.610806,-3404.947333,-1838.629195,9992.780217
21034.611129,-2590.720797,-1685.410096,11029.068536
21034.611453,-3182.885551,-1225.752797,10510.924376
21034.611776,-1554.432478,-612.876398,7328.038826
21034.612100,1258.350101,766.095498,6513.812290
21034.612423,1924.535449,1991.848295,7698.141797
21034.612746,1332.370696,2451.505594,8142.265362
21034.613070,148.041188,1991.848295,6735.874072
21034.613393,-740.205942,1302.362347,7624.121203
21034.613717,-1184.329507,1225.752797,9770.718434
21034.614040,-2072.576638,612.876398,9622.677246
21034.614364,-1036.288319,-1225.752797,6439.791695
21034.614687,1258.350101,-2145.067394,6809.894666
21034.615011,2220.617826,-766.095498,7772.162391
21034.615334,222.061783,536.266849,11843.295072
21034.615658,-222.061783,76.609550,10658.965565
21034.615981,444.123565,0.000000,10584.944971
21034.616305,1258.350101,-383.047749,10807.006753
21034.616628,370.102971,383.047749,11325.150913
21034.616952,740.205942,229.828649,10955.047942
21034.617275,1850.514855,459.657299,9844.739029
21034.617599,3256.906145,-459.657299,7402.059420
21034.617922,1554.432478,0.000000,8512.368333
21034.618246,-1332.370696,-383.047749,9474.636058
21034.618569,-2294.638420,0.000000,9474.636058
21034.618893,0.000000,-1072.533697,9696.697840
21034.619216,-148.041188,-1225.752797,9548.656652
21034.619540,-2072.576638,-1072.533697,9918.759623
21034.619863,-1184.329507,-229.828649,8142.265362
21034.620187,2664.741391,-383.047749,7105.977043
21034.620510,3330.926739,0.000000,7698.141797
21034.620834,1776.494261,459.657299,9400.615463
21034.621157,666.185348,919.314598,7698.141797
21034.621481,2220.617826,536.266849,8734.430116
21034.621804,2294.638420,1455.581446,10066.800811
21034.622127,0.000000,1072.533697,9696.697840
21034.622451,1110.308913,-1072.533697,6217.729913
21034.622774,2072.576638,-1838.629195,5403.503377
21034.623098,1702.473667,-1149.143247,8512.368333
21034.623421,-148.041188,0.000000,12139.377449
21034.623745,-2886.803174,-1072.533697,11547.212695
21034.624068,-3256.906145,-2451.505594,11325.150913
21034.624392,-2664.741391,-3294.210641,9770.718434
21034.624715,-5255.462188,-3370.820191,10510.924376
21034.625039,-5403.503377,-3907.087040,10362.883188
21034.625362,-3108.864956,-3447.429741,9252.574275
21034.625686,-888.247130,-2757.943793,8660.409521
21034.626009,-2368.659014,-2221.676944,9918.759623
21034.626333,-3923.091493,-1608.800546,9252.574275
21034.626656,-3552.988522,-1685.410096,10066.800811
21034.626980,-2220.617826,-1991.848295,10140.821405
21034.627303,0.000000,0.000000,11251.130318
21034.627627,1258.350101,153.219100,9400.615463
21034.627950,1924.535449,842.705048,7698.141797
21034.628274,4811.338623,766.095498,6809.894666
21034.628597,4219.173869,2451.505594,9918.759623
21034.628921,1554.432478,1762.019645,9178.553681
21034.629244,370.102971,1685.410096,7698.141797
21034.629568,0.000000,229.828649,7476.080014
21034.629891,-2368.659014,229.828649,9030.512492
21034.630215,-3478.967927,-1149.143247,9178.553681
21034.630538,-2516.700203,-2221.676944,5477.523971
21034.630862,-2220.617826,-2374.896044,7105.977043
21034.631185,-2664.741391,-766.095498,9030.512492
21034.631508,-4441.235652,306.438199,8438.347739
21034.631832,-4071.132681,-1608.800546,8438.347739
21034.632155,-2812.782580,-1608.800546,9844.739029
21034.632479,-1776.494261,-153.219100,9918.759623
21034.632802,-1480.411884,0.000000,10214.842000
21034.633126,222.061783,-153.219100,8956.491898
21034.633449,3404.947333,0.000000,8882.471304
21034.633773,3923.091493,842.705048,10807.006753
21034.634096,2812.782580,306.438199,11843.295072
21034.634420,1850.514855,153.219100,9918.759623
21034.634743,2220.617826,-229.828649,10214.842000
21034.635067,2294.638420,-229.828649,10362.883188
21034.635390,740.205942,0.000000,10584.944971
21034.635714,2442.679609,-536.266849,9104.533087
21034.636037,3627.009116,76.609550,7402.059420
21034.636361,4737.318029,842.705048,8512.368333
21034.636684,1998.556043,1302.362347,8882.471304
21034.637008,74.020594,229.828649,7994.224174
21034.637331,-148.041188,0.000000,9030.512492
21034.637655,-444.123565,459.657299,8734.430116
21034.637978,-2368.659014,-459.657299,9326.594869
21034.638302,-2442.679609,-1991.848295,6661.853478
21034.638625,-1110.308913,-1532.190996,5625.565159
21034.638949,1924.535449,-1455.581446,7328.038826
21034.639272,0.000000,0.000000,9252.574275
21034.639596,-2664.741391,-766.095498,9104.533087
21034.639919,-1850.514855,-1608.800546,7994.224174
21034.640243,-296.082377,-1378.971896,9474.636058
21034.640566,-1702.473667,-1378.971896,12879.583391
21034.640890,-1184.329507,-1838.629195,10214.842000
21034.641213,0.000000,-1378.971896,8364.327145
21034.641536,592.164754,-2221.676944,9104.533087
21034.641860,-296.082377,-689.485948,9992.780217
21034.642183,-1776.494261,-612.876398,10288.862594
21034.642507,-1406.391290,-1608.800546,9770.718434
21034.642830,-814.226536,-1378.971896,9548.656652
21034.643154,-1184.329507,229.828649,12435.459826
21034.643477,-1628.453072,-383.047749,11399.171507
21034.643801,444.123565,-842.705048,7550.100608
21034.644124,2516.700203,-995.924147,7179.997637
21034.644448,1110.308913,0.000000,9030.512492
21034.644771,-1628.453072,536.266849,8956.491898
21034.645095,-1406.391290,0.000000,7624.121203
21034.645418,-1036.288319,-383.047749,8808.450710
21034.645742,-2072.576638,-842.705048,9400.615463
21034.646065,-3627.009116,-689.485948,9178.553681
21034.646389,-2368.659014,-2451.505594,7031.956449
21034.646712,-592.164754,-2145.067394,7031.956449
21034.647036,74.020594,-383.047749,7179.997637
21034.647359,-1924.535449,612.876398,9252.574275
21034.647683,-2664.741391,-1378.971896,8290.306550
21034.648006,-2368.659014,-1072.533697,7920.203579
21034.648330,-1332.370696,-612.876398,9178.553681
21034.648653,-1998.556043,76.609550,11621.233289
21034.648977,-1258.350101,-459.657299,9844.739029
21034.649300,888.247130,-383.047749,8660.409521
21034.649624,3478.967927,-1455.581446,8438.347739
21034.649947,1702.473667,-459.657299,9326.594869
21034.650271,-666.185348,-459.657299,10436.903782
21034.650594,444.123565,383.047749,11103.089130
21034.650917,2220.617826,229.828649,11325.150913
21034.651241,1110.308913,-76.609550,11843.295072
21034.651564,1110.308913,-766.095498,9326.594869
21034.651888,2886.803174,-383.047749,7698.141797
21034.652211,5033.400406,0.000000,8956.491898
21034.652535,3330.926739,2451.505594,12213.398043
21034.652858,888.247130,1608.800546,9474.636058
21034.653182,-666.185348,383.047749,8068.244768
21034.653505,-814.226536,-766.095498,7328.038826
21034.653829,-1924.535449,689.485948,9474.636058
21034.654152,-2516.700203,383.047749,9696.697840
21034.654476,-666.185348,0.000000,5477.523971
21034.654799,148.041188,-383.047749,4811.338623
21034.655123,-370.102971,-383.047749,5773.606348
21034.655446,-2960.823768,612.876398,7254.018232
21034.655770,-2368.659014,-459.657299,8512.368333
21034.656093,-1184.329507,-306.438199,9474.636058
21034.656417,-370.102971,-153.219100,10510.924376
21034.656740,0.000000,-383.047749,11695.253884
21034.657064,666.185348,-1072.533697,9474.636058
21034.657387,2072.576638,0.000000,10214.842000
21034.657711,3775.050304,306.438199,9918.759623
21034.658034,2738.761985,76.609550,9696.697840
21034.658358,592.164754,-306.438199,8586.388927
21034.658681,-1480.411884,0.000000,9992.780217
21034.659005,-1036.288319,-306.438199,10584.944971
21034.659328,-1554.432478,-536.266849,11325.150913
21034.659652,-1702.473667,-2145.067394,8956.491898
21034.659975,-1850.514855,-2145.067394,8364.327145
21034.660299,-518.144159,-1608.800546,9030.512492
21034.660622,-1924.535449,-1455.581446,10807.006753
21034.660945,-3923.091493,-2681.334243,9770.718434
21034.661269,-5699.585753,-2681.334243,9178.553681
21034.661592,-4071.132681,-2604.724693,8438.347739
21034.661916,-3701.029710,-2374.896044,10214.842000
21034.662239,-3404.947333,-2068.457845,9474.636058
21034.662563,-1776.494261,-1685.410096,8068.244768
21034.662886,962.267725,-1608.800546,7624.121203
21034.663210,1332.370696,-383.047749,8364.327145
21034.663533,444.123565,0.000000,8142.265362
21034.663857,-148.041188,383.047749,8216.285956
21034.664180,222.061783,-689.485948,8586.388927
21034.664504,814.226536,383.047749,10288.862594
21034.664827,1702.473667,-383.047749,9844.739029
21034.665151,1924.535449,-383.047749,9104.533087
21034.665474,2442.679609,-842.705048,8586.388927
21034.665798,2442.679609,-383.047749,9326.594869
21034.666121,-222.061783,229.828649,9770.718434
21034.666445,-3108.864956,-383.047749,9178.553681
21034.666768,-1332.370696,76.609550,7920.203579
21034.667092,-148.041188,-1149.143247,10066.800811
21034.667415,-1036.288319,-612.876398,10807.006753
21034.667739,0.000000,689.485948,9548.656652
21034.668062,1776.494261,0.000000,8586.388927
21034.668386,2368.659014,0.000000,7254.018232
21034.668709,296.082377,612.876398,8956.491898
21034.669033,444.123565,306.438199,9400.615463
21034.669356,1184.329507,229.828649,9992.780217
21034.669680,814.226536,689.485948,10584.944971
21034.670003,0.000000,919.314598,10732.986159
21034.670326,370.102971,-383.047749,7105.977043
21034.670650,74.020594,-612.876398,7105.977043
21034.670973,2294.638420,-153.219100,7402.059420
21034.671296,222.061783,1991.848295,8068.244768
21034.671620,-518.144159,919.314598,8142.265362
21034.671943,-1702.473667,383.047749,7846.182985
21034.672267,-370.102971,459.657299,7328.038826
21034.672590,444.123565,536.266849,9030.512492
21034.672913,592.164754,766.095498,10066.800811
21034.673237,2590.720797,842.705048,9474.636058
21034.673560,3108.864956,842.705048,8882.471304
21034.673883,888.247130,-229.828649,9844.739029
21034.674207,-666.185348,-383.047749,9474.636058
21034.674530,-518.144159,-1302.362347,7772.162391
21034.674853,-592.164754,-2451.505594,8808.450710
21034.675177,-1702.473667,-383.047749,13397.727550
21034.675500,-2146.597232,306.438199,11843.295072
21034.675823,-1184.329507,-1608.800546,7994.224174
21034.676147,444.123565,-3677.258390,7105.977043
21034.676470,-1924.535449,-1762.019645,9770.718434
21034.676794,-3108.864956,-1378.971896,9696.697840
21034.677117,-3627.009116,-1915.238745,9696.697840
21034.677440,-3775.050304,-2298.286494,10362.883188
21034.677764,-5255.462188,-1378.971896,10955.047942
21034.678087,-5181.441594,-2987.772442,9474.636058
21034.678410,-2960.823768,-4213.525239,6883.915261
21034.678734,-444.123565,-2604.724693,7624.121203
21034.679057,-296.082377,-459.657299,9400.615463
21034.679380,-1258.350101,-229.828649,9548.656652
21034.679704,-888.247130,-995.924147,7994.224174
21034.680027,0.000000,-536.266849,7402.059420
21034.680351,1184.329507,-459.657299,8512.368333
21034.680674,592.164754,383.047749,10066.800811
21034.680997,2590.720797,229.828649,9696.697840
21034.681321,5773.606348,229.828649,7920.203579
21034.681644,3775.050304,459.657299,8586.388927
21034.681967,888.247130,0.000000,10214.842000
21034.682291,-740.205942,-229.828649,9548.656652
21034.682614,-518.144159,-1225.752797,8956.491898
21034.682937,296.082377,-919.314598,10436.903782
21034.683261,-1332.370696,-306.438199,9548.656652
21034.683584,-1332.370696,-229.828649,7994.224174
21034.683907,370.102971,-383.047749,8068.244768
21034.684231,1406.391290,229.828649,8512.368333
21034.684554,592.164754,766.095498,9992.780217
21034.684878,-1332.370696,-229.828649,8512.368333
21034.685201,-2146.597232,0.000000,8956.491898
21034.685524,-1110.308913,-306.438199,8956.491898
21034.685848,-2590.720797,-1072.533697,10362.883188
21034.686171,-370.102971,-1838.629195,9474.636058
21034.686494,814.226536,-1149.143247,9474.636058
21034.686818,2220.617826,-612.876398,10732.986159
21034.687141,1702.473667,76.609550,10362.883188
21034.687464,888.247130,0.000000,9474.636058
21034.687788,2368.659014,-306.438199,7031.956449
21034.688111,2738.761985,1685.410096,7328.038826
21034.688435,2590.720797,2987.772442,9770.718434
21034.688758,2812.782580,3294.210641,10288.862594
21034.689081,3034.844362,2298.286494,8142.265362
21034.689405,3108.864956,689.485948,7105.977043
21034.689728,1110.308913,0.000000,7772.162391
21034.690051,-1480.411884,-383.047749,9030.512492
21034.690375,-3108.864956,-612.876398,7994.224174
21034.690698,-4441.235652,-842.705048,8734.430116
21034.691021,-4367.215058,-919.314598,9696.697840
21034.691345,-4885.359217,-1225.752797,10436.903782
21034.691668,-3627.009116,-2374.896044,8216.285956
21034.691991,-2294.638420,-1378.971896,8068.244768
21034.692315,-1184.329507,-459.657299,8808.450710
21034.692638,-1776.494261,0.000000,9178.553681
21034.692962,-2368.659014,0.000000,7846.182985
21034.693285,-2738.761985,-536.266849,9178.553681
21034.693608,-2516.700203,-459.657299,10955.047942
21034.693932,-2368.659014,-919.314598,11695.253884
21034.694255,-1628.453072,-1838.629195,10584.944971
21034.694578,296.082377,-2374.896044,10066.800811
21034.694902,444.123565,-995.924147,9622.677246
21034.695225,-1406.391290,-229.828649,9844.739029
21034.695548,-888.247130,-1608.800546,8586.388927
21034.695872,-1110.308913,-1762.019645,7402.059420
21034.696195,-518.144159,0.000000,9178.553681
21034.696519,-370.102971,1225.752797,10732.986159
21034.696842,1258.350101,76.609550,8142.265362
21034.697165,2442.679609,-1302.362347,6365.771101
21034.697489,2220.617826,-919.314598,6439.791695
21034.697812,518.144159,306.438199,7994.224174
21034.698135,-740.205942,-153.219100,9696.697840
21034.698459,-370.102971,-2221.676944,8586.388927
21034.698782,-1258.350101,-2374.896044,8734.430116
21034.699105,-2442.679609,-1991.848295,10658.965565
21034.699429,-1184.329507,-2145.067394,10732.986159
21034.699752,2146.597232,-1608.800546,9252.574275
21034.700075,3627.009116,-1302.362347,8438.347739
21034.700399,2442.679609,-306.438199,9622.677246
21034.700722,740.205942,536.266849,10214.842000
21034.701046,814.226536,0.000000,8808.450710
21034.701369,1332.370696,-306.438199,8956.491898
21034.701692,296.082377,0.000000,9992.780217
21034.702016,-592.164754,0.000000,11251.130318
21034.702339,1036.288319,-842.705048,9474.636058
21034.702662,1110.308913,-612.876398,9178.553681
21034.702986,740.205942,-1608.800546,8586.388927
21034.703309,-2072.576638,-1225.752797,8956.491898
21034.703632,-1702.473667,-1225.752797,8882.471304
21034.703956,-1110.308913,-229.828649,9844.739029
21034.704279,-296.082377,536.266849,10362.883188
21034.704603,296.082377,-306.438199,7772.162391
21034.704926,1702.473667,-459.657299,5625.565159
21034.705249,3256.906145,689.485948,7994.224174
21034.705573,4515.256246,2145.067394,9918.759623
21034.705896,2590.720797,2987.772442,11029.068536
21034.706219,1184.329507,306.438199,8660.409521
21034.706543,-2146.597232,-842.705048,7550.100608
21034.706866,-3404.947333,-1608.800546,8142.265362
21034.707189,-3108.864956,-842.705048,10807.006753
21034.707513,-2368.659014,-1225.752797,9252.574275
21034.707836,-1480.411884,-1302.362347,8956.491898
21034.708159,-1628.453072,-536.266849,8956.491898
21034.708483,-3552.988522,306.438199,9474.636058
21034.708806,-4219.173869,-919.314598,8438.347739
21034.709130,-3627.009116,-995.924147,7920.203579
21034.709453,-2812.782580,-689.485948,8808.450710
21034.709776,-2960.823768,689.485948,10436.903782
21034.710100,-2368.659014,0.000000,8734.430116
21034.710423,-666.185348,-306.438199,7476.080014
21034.710746,740.205942,0.000000,7846.182985
21034.711070,592.164754,383.047749,10140.821405
21034.711393,-592.164754,0.000000,9770.718434
21034.711716,-740.205942,-766.095498,9400.615463
21034.712040,0.000000,0.000000,10140.821405
21034.712363,-444.123565,-229.828649,9030.512492
21034.712687,-962.267725,-995.924147,9104.533087
21034.713010,1184.329507,-1072.533697,8142.265362
21034.713333,2294.638420,153.219100,8290.306550
21034.713657,1850.514855,306.438199,9474.636058
21034.713980,-814.226536,-1072.533697,8734.430116
21034.714303,-1332.370696,-1532.190996,8734.430116
21034.714627,-666.185348,-1149.143247,9178.553681
21034.714950,-1554.432478,-536.266849,9030.512492
21034.715273,-2516.700203,-1225.752797,9548.656652
21034.715597,-888.247130,-2374.896044,7846.182985
21034.715920,1850.514855,-1915.238745,7476.080014
21034.716243,2664.741391,-1302.362347,8216.285956
21034.716567,740.205942,-1149.143247,10436.903782
21034.716890,666.185348,-689.485948,9474.636058
21034.717214,1998.556043,-689.485948,10362.883188
21034.717537,2294.638420,-383.047749,10807.006753
21034.717860,1258.350101,0.000000,11695.253884
21034.718184,1998.556043,229.828649,10288.862594
21034.718507,3701.029710,-536.266849,7550.100608
21034.718830,3923.091493,-229.828649,8142.265362
21034.719154,1036.288319,-153.219100,9104.533087
21034.719477,-1110.308913,0.000000,9178.553681
21034.719800,-1776.494261,-153.219100,9252.574275
21034.720124,-2072.576638,-1302.362347,8142.265362
21034.720447,-3034.844362,-1762.019645,9326.594869
21034.720771,-3108.864956,-1915.238745,8068.244768
21034.721094,-1332.370696,-1838.629195,8068.244768
21034.721417,296.082377,-995.924147,8068.244768
21034.721741,-666.185348,-689.485948,8734.430116
21034.722064,-1776.494261,-842.705048,8882.471304
21034.722387,-1480.411884,-612.876398,9252.574275
21034.722711,-888.247130,-536.266849,8438.347739
21034.723034,-1258.350101,-536.266849,9548.656652
21034.723357,-1258.350101,-306.438199,10362.883188
21034.723681,1036.288319,-459.657299,8068.244768
21034.724004,3256.906145,229.828649,8364.327145
21034.724327,2516.700203,306.438199,10140.821405
21034.724651,-296.082377,842.705048,10955.047942
21034.724974,-518.144159,153.219100,9326.594869
21034.725298,222.061783,-306.438199,10214.842000
21034.725621,-370.102971,-306.438199,10584.944971
21034.725944,-2368.659014,383.047749,9918.759623
21034.726268,-1998.556043,-919.314598,8808.450710
21034.726591,-1702.473667,-1225.752797,8068.244768
21034.726914,-962.267725,-306.438199,8808.450710
21034.727238,-2368.659014,229.828649,9030.512492
21034.727561,-3997.112087,-1302.362347,8438.347739
21034.727884,-3701.029710,-536.266849,7698.141797
21034.728208,-3182.885551,0.000000,9474.636058
21034.728531,-3627.009116,306.438199,10658.965565
21034.728855,-2442.679609,-919.314598,8068.244768
21034.729178,592.164754,-1762.019645,5773.606348
21034.729501,1702.473667,-842.705048,8660.409521
21034.729825,518.144159,383.047749,10955.047942
21034.730148,-444.123565,1225.752797,9844.739029
21034.730471,1110.308913,-995.924147,8734.430116
21034.730795,814.226536,-1915.238745,8142.265362
21034.731118,0.000000,-842.705048,9844.739029
21034.731441,1480.411884,-689.485948,9992.780217
21034.731765,3182.885551,-612.876398,9474.636058
21034.732088,4293.194464,76.609550,8956.491898
21034.732411,2368.659014,1608.800546,9844.739029
21034.732735,1702.473667,-229.828649,8216.285956
21034.733058,592.164754,-229.828649,8142.265362
21034.733382,518.144159,-459.657299,9178.553681
21034.733705,-518.144159,0.000000,11251.130318
21034.734028,-962.267725,-995.924147,10436.903782
21034.734352,0.000000,-1915.238745,9474.636058
21034.734675,1036.288319,-1991.848295,8956.491898
21034.734998,-888.247130,-1532.190996,10066.800811
21034.735322,-1184.329507,-1685.410096,9104.533087
21034.735645,-2294.638420,-1532.190996,8808.450710
21034.735968,-2738.761985,-1378.971896,10066.800811
21034.736292,-1628.453072,-995.924147,8734.430116
21034.736615,-1998.556043,-459.657299,9696.697840
21034.736939,1036.288319,-1532.190996,8734.430116
21034.737262,3701.029710,0.000000,7624.121203
21034.737585,5329.482782,1915.238745,9474.636058
21034.737909,1998.556043,1915.238745,11399.171507
21034.738232,-518.144159,306.438199,8660.409521
21034.738555,814.226536,-536.266849,7624.121203
21034.738879,1036.288319,-1532.190996,7994.224174
21034.739202,-1258.350101,-306.438199,11103.089130
21034.739525,-1406.391290,306.438199,10066.800811
21034.739849,1480.411884,-1225.752797,7254.018232
21034.740172,2294.638420,-842.705048,7476.080014
21034.740495,-370.102971,229.828649,9622.677246
21034.740819,-1998.556043,76.609550,7994.224174
21034.741142,-962.267725,-919.314598,7920.203579
21034.741466,0.000000,-689.485948,8290.306550
21034.741789,-2294.638420,459.657299,10436.903782
21034.742112,-2886.803174,-995.924147,9474.636058
21034.742436,-518.144159,-1149.143247,7920.203579
21034.742759,74.020594,-1378.971896,9622.677246
21034.743082,-2294.638420,-1225.752797,10658.965565
21034.743406,-4293.194464,-1838.629195,9696.697840
21034.743729,-3627.009116,-2987.772442,9178.553681
21034.744052,-2590.720797,-1532.190996,9918.759623
21034.744376,-3478.967927,0.000000,11325.150913
21034.744699,-2886.803174,-766.095498,10288.862594
21034.745022,74.020594,-766.095498,7846.182985
21034.745346,1850.514855,0.000000,7476.080014
21034.745669,148.041188,1302.362347,9474.636058
21034.745993,-1184.329507,842.705048,9474.636058
21034.746316,222.061783,0.000000,8216.285956
21034.746639,518.144159,-766.095498,7698.141797
21034.746963,-592.164754,0.000000,9326.594869
21034.747286,-2072.576638,766.095498,10362.883188
21034.747609,370.102971,-383.047749,8586.388927
21034.747933,2812.782580,-1225.752797,7550.100608
21034.748256,2886.803174,-306.438199,9178.553681
21034.748579,518.144159,459.657299,9696.697840
21034.748903,222.061783,459.657299,8364.327145
21034.749226,1036.288319,0.000000,6439.791695
21034.749550,1036.288319,766.095498,8808.450710
21034.749873,148.041188,612.876398,10510.924376
21034.750196,296.082377,0.000000,8438.347739
21034.750520,2220.617826,-1149.143247,7328.038826
21034.750843,1036.288319,-1991.848295,9474.636058
21034.751166,-1924.535449,-919.314598,11843.295072
21034.751490,-2664.741391,-1762.019645,9770.718434
21034.751813,-888.247130,-4213.525239,8660.409521
21034.752136,-1406.391290,-2987.772442,9104.533087
21034.752460,-2294.638420,-842.705048,12139.377449
21034.752783,-740.205942,-153.219100,11029.068536
21034.753106,3552.988522,-459.657299,8660.409521
21034.753430,4737.318029,0.000000,9104.533087
21034.753753,1702.473667,1455.581446,10140.821405
21034.754077,0.000000,1225.752797,9030.512492
21034.754400,1110.308913,-459.657299,7920.203579
21034.754723,1554.432478,76.609550,8216.285956
21034.755047,148.041188,689.485948,9474.636058
21034.755370,-1110.308913,0.000000,8660.409521
21034.755693,518.144159,-1455.581446,6587.832884
21034.756017,2368.659014,-306.438199,7402.059420
21034.756340,-148.041188,306.438199,10362.883188
21034.756663,-2886.803174,-689.485948,8142.265362
21034.756987,-3108.864956,-1685.410096,7402.059420
21034.757310,-888.247130,-2068.457845,9252.574275
21034.757634,-2220.617826,-536.266849,10436.903782
21034.757957,-2812.782580,-536.266849,10288.862594
21034.758280,-1184.329507,-1225.752797,7994.224174
21034.758604,1036.288319,-383.047749,7328.038826
21034.758927,740.205942,153.219100,8586.388927
21034.759250,-1850.514855,-689.485948,8660.409521
21034.759574,-3182.885551,-1685.410096,8142.265362
21034.759897,-2220.617826,-1685.410096,9918.759623
21034.760220,-2072.576638,-995.924147,11399.171507
21034.760544,-3330.926739,-1072.533697,12583.501014
21034.760867,-2294.638420,-1762.019645,9770.718434
21034.761190,1110.308913,-1532.190996,9474.636058
21034.761514,1628.453072,-689.485948,10955.047942
21034.761837,0.000000,536.266849,10807.006753
21034.762161,-1258.350101,0.000000,8808.450710
21034.762484,-296.082377,-612.876398,7698.141797
21034.762807,0.000000,-459.657299,7031.956449
21034.763131,-1850.514855,383.047749,10658.965565
21034.763454,-740.205942,76.609550,9474.636058
21034.763777,666.185348,383.047749,8216.285956
21034.764101,1554.432478,-1225.752797,7698.141797
21034.764424,-1110.308913,-766.095498,8216.285956
21034.764747,-2294.638420,-1072.533697,8586.388927
21034.765071,-740.205942,-536.266849,8956.491898
21034.765394,74.020594,0.000000,8734.430116
21034.765718,-592.164754,0.000000,9252.574275
21034.766041,-296.082377,0.000000,9326.594869
21034.766364,2368.659014,-459.657299,7179.997637
21034.766688,3627.009116,0.000000,8290.306550
21034.767011,2072.576638,229.828649,10362.883188
21034.767334,-148.041188,0.000000,9178.553681
21034.767658,74.020594,-766.095498,7920.203579
21034.767981,888.247130,-1991.848295,8808.450710
21034.768304,-666.185348,0.000000,11547.212695
21034.768628,-814.226536,-76.609550,11029.068536
21034.768951,2220.617826,-1455.581446,8660.409521
21034.769274,2960.823768,-842.705048,10066.800811
21034.769598,1036.288319,0.000000,10807.006753
21034.769921,-1702.473667,306.438199,9326.594869
21034.770245,-1924.535449,-1532.190996,7994.224174
21034.770568,-1184.329507,-1532.190996,8882.471304
21034.770891,-1332.370696,-842.705048,9918.759623
21034.771215,-1702.473667,-536.266849,10584.944971
21034.771538,518.144159,-1302.362347,7254.018232
21034.771861,2886.803174,-306.438199,7105.977043
21034.772185,2590.720797,1378.971896,9474.636058
21034.772508,1110.308913,2068.457845,10214.842000
21034.772831,1776.494261,1072.533697,8808.450710
21034.773155,1850.514855,-306.438199,7031.956449
21034.773478,-148.041188,-306.438199,8068.244768
21034.773802,-2220.617826,612.876398,10881.027347
21034.774125,-1628.453072,-459.657299,9104.533087
21034.774448,-74.020594,-1072.533697,8216.285956
21034.774772,-592.164754,-1915.238745,9104.533087
21034.775095,-4367.215058,-995.924147,11029.068536
21034.775418,-5329.482782,-1838.629195,10288.862594
21034.775742,-3404.947333,-2374.896044,7846.182985
21034.776065,-2220.617826,-2451.505594,7550.100608
21034.776388,-4145.153275,-612.876398,10214.842000
21034.776712,-3478.967927,-383.047749,9474.636058
21034.777035,74.020594,-1378.971896,6735.874072
21034.777359,888.247130,-1608.800546,9030.512492
21034.777682,-518.144159,0.000000,11843.295072
21034.778005,-1628.453072,-76.609550,9696.697840
21034.778329,-592.164754,-2451.505594,9622.677246
21034.778652,666.185348,-1838.629195,9992.780217
21034.778975,-740.205942,153.219100,10955.047942
21034.779299,-814.226536,-766.095498,9548.656652
21034.779622,1702.473667,-1302.362347,7105.977043
21034.779945,3404.947333,-306.438199,6735.874072
21034.780269,2294.638420,1302.362347,9400.615463
21034.780592,-370.102971,153.219100,9474.636058
21034.780916,-592.164754,-306.438199,8142.265362
21034.781239,296.082377,-612.876398,9474.636058
21034.781562,518.144159,-612.876398,9918.759623
21034.781886,-1110.308913,0.000000,10732.986159
21034.782209,-666.185348,-1302.362347,7994.224174
21034.782532,2072.576638,-995.924147,7105.977043
21034.782856,1998.556043,-1072.533697,8956.491898
21034.783179,-1480.411884,153.219100,10288.862594
21034.783502,-1924.535449,459.657299,9770.718434
21034.783826,-222.061783,-689.485948,8734.430116
21034.784149,0.000000,-1149.143247,8660.409521
21034.784473,-1480.411884,0.000000,10362.883188
21034.784796,0.000000,0.000000,9548.656652
21034.785119,2368.659014,-383.047749,7179.997637
21034.785443,2886.803174,0.000000,9104.533087
21034.785766,296.082377,995.924147,11029.068536
21034.786089,-1184.329507,383.047749,9844.739029
21034.786413,-1332.370696,-229.828649,9252.574275
21034.786736,0.000000,-383.047749,9326.594869
21034.787059,-1332.370696,-383.047749,8734.430116
21034.787383,-1554.432478,-612.876398,8956.491898
21034.787706,1924.535449,-459.657299,7476.080014
21034.788030,2368.659014,536.266849,8216.285956
21034.788353,222.061783,842.705048,10658.965565
21034.788676,-814.226536,0.000000,8882.471304
21034.789000,-370.102971,-383.047749,7994.224174
21034.789323,592.164754,-459.657299,9030.512492
21034.789646,0.000000,459.657299,9844.739029
21034.789970,-740.205942,612.876398,8808.450710
21034.790293,1554.432478,-306.438199,7031.956449
21034.790616,2664.741391,0.000000,6661.853478
21034.790940,962.267725,383.047749,9770.718434
21034.791263,-2146.597232,229.828649,9622.677246
21034.791586,-1850.514855,-995.924147,9178.553681
21034.791910,-1258.350101,-2374.896044,9030.512492
21034.792233,-2664.741391,-1532.190996,9400.615463
21034.792557,-3404.947333,-1455.581446,9474.636058
21034.792880,-1554.432478,-1915.238745,8882.471304
21034.793203,222.061783,-1915.238745,9030.512492
21034.793527,0.000000,-536.266849,11029.068536
21034.793850,-1036.288319,-919.314598,11177.109724
21034.794173,-1850.514855,-1685.410096,9474.636058
21034.794497,-2368.659014,-2374.896044,9548.656652
21034.794820,-1628.453072,-1532.190996,9474.636058
21034.795143,-2146.597232,-1225.752797,10881.027347
21034.795467,-2294.638420,-1302.362347,10066.800811
21034.795790,-370.102971,-1455.581446,7254.018232
21034.796114,518.144159,-1608.800546,6809.894666
21034.796437,-814.226536,-1532.190996,9474.636058
21034.796760,-1628.453072,229.828649,9252.574275
21034.797084,-592.164754,459.657299,8438.347739
21034.797407,592.164754,-689.485948,9326.594869
21034.797730,-518.144159,-536.266849,10214.842000
21034.798054,-740.205942,-1378.971896,8438.347739
21034.798377,1036.288319,-1455.581446,8142.265362
21034.798700,2072.576638,-1455.581446,9252.574275
21034.799024,296.082377,1378.971896,11991.336260
21034.799347,-1332.370696,0.000000,8364.327145
21034.799671,-1702.473667,-2145.067394,7105.977043
21034.799994,-888.247130,-612.876398,9104.533087
21034.800317,-1184.329507,1302.362347,9844.739029
21034.800641,-592.164754,919.314598,9474.636058
21034.800964,2442.679609,-995.924147,7402.059420
21034.801287,3108.864956,153.219100,7476.080014
21034.801611,1036.288319,459.657299,9548.656652
21034.801934,-1628.453072,536.266849,8956.491898
21034.802257,-962.267725,-459.657299,9252.574275
21034.802581,0.000000,-1072.533697,9030.512492
21034.802904,74.020594,-995.924147,9844.739029
21034.803228,-888.247130,-689.485948,9474.636058
21034.803551,1184.329507,-153.219100,8512.368333
21034.803874,3552.988522,153.219100,9400.615463
21034.804198,4071.132681,1608.800546,9844.739029
21034.804521,1998.556043,1378.971896,9474.636058
21034.804844,444.123565,306.438199,8068.244768
21034.805168,1036.288319,153.219100,7624.121203
21034.805491,666.185348,536.266849,8956.491898
21034.805814,814.226536,153.219100,9400.615463
21034.806138,814.226536,-229.828649,8956.491898
21034.806461,814.226536,-919.314598,7254.018232
21034.806785,592.164754,-306.438199,9400.615463
21034.807108,-1184.329507,-459.657299,10658.965565
21034.807431,-2368.659014,-1608.800546,9770.718434
21034.807755,-1628.453072,-1915.238745,9104.533087
21034.808078,-1332.370696,-1608.800546,8882.471304
21034.808401,-2294.638420,-995.924147,10436.903782
21034.808725,-2072.576638,0.000000,9696.697840
21034.809048,666.185348,0.000000,7920.203579
21034.809371,2590.720797,-229.828649,8364.327145
21034.809695,74.020594,689.485948,9622.677246
21034.810018,-3034.844362,612.876398,9918.759623
21034.810342,-3478.967927,-766.095498,8808.450710
21034.810665,-2960.823768,-2068.457845,8216.285956
21034.810988,-4071.132681,-2145.067394,9992.780217
21034.811312,-4811.338623,-2987.772442,10140.821405
21034.811635,-2812.782580,-3064.381992,8808.450710
21034.811958,-2220.617826,-2451.505594,9178.553681
21034.812282,-3404.947333,-1915.238745,10510.924376
21034.812605,-4737.318029,-1455.581446,9326.594869
21034.812928,-2960.823768,-2068.457845,7254.018232
21034.813252,-370.102971,-1915.238745,7550.100608
21034.813575,-962.267725,459.657299,10807.006753
21034.813899,-1110.308913,919.314598,10362.883188
21034.814222,1628.453072,76.609550,7772.162391
21034.814545,3552.988522,-1072.533697,6365.771101
21034.814869,2294.638420,229.828649,9030.512492
21034.815192,0.000000,459.657299,9992.780217
21034.815515,74.020594,0.000000,9474.636058
21034.815839,1110.308913,-2145.067394,7698.141797
21034.816162,444.123565,-536.266849,10288.862594
21034.816485,0.000000,306.438199,11029.068536
21034.816809,1924.535449,-536.266849,9104.533087
21034.817132,4145.153275,-1532.190996,7920.203579
21034.817455,5033.400406,0.000000,9252.574275
21034.817779,1036.288319,1302.362347,9992.780217
21034.818102,-370.102971,1072.533697,9400.615463
21034.818426,1480.411884,229.828649,9474.636058
21034.818749,1480.411884,0.000000,9622.677246
21034.819072,0.000000,-153.219100,10807.006753
21034.819396,-814.226536,-766.095498,8586.388927
21034.819719,-296.082377,-1225.752797,8438.347739
21034.820042,1702.473667,0.000000,8660.409521
21034.820366,-740.205942,0.000000,10066.800811
21034.820689,-1850.514855,-1302.362347,8586.388927
21034.821012,-1850.514855,-1302.362347,7846.182985
21034.821336,-222.061783,0.000000,9178.553681
21034.821659,296.082377,1685.410096,9992.780217
21034.821983,666.185348,689.485948,7994.224174
21034.822306,2220.617826,-383.047749,6143.709319
21034.822629,2960.823768,0.000000,7105.977043
21034.822953,2220.617826,995.924147,10732.986159
21034.823276,296.082377,306.438199,9474.636058
21034.823599,-2294.638420,-1225.752797,8216.285956
21034.823923,-1850.514855,-2221.676944,9918.759623
21034.824246,-1554.432478,-766.095498,11547.212695
21034.824569,-1332.370696,-383.047749,11399.171507
21034.824893,0.000000,-1455.581446,9400.615463
21034.825216,1332.370696,-612.876398,7846.182985
21034.825540,518.144159,536.266849,8808.450710
21034.825863,-1554.432478,-306.438199,8068.244768
21034.826186,-2516.700203,-995.924147,7402.059420
21034.826510,-3997.112087,-1225.752797,7994.224174
21034.826833,-4663.297435,-1225.752797,9696.697840
21034.827156,-4737.318029,-2068.457845,9918.759623
21034.827480,-3404.947333,-3064.381992,8882.471304
21034.827803,-3256.906145,-3370.820191,8956.491898
21034.828126,-2738.761985,-3140.991542,9474.636058
21034.828450,-3701.029710,-1838.629195,11177.109724
21034.828773,-3478.967927,-2221.676944,10881.027347
21034.829097,-2294.638420,-1532.190996,10066.800811
21034.829420,-1924.535449,-536.266849,9030.512492
21034.829743,-1184.329507,-383.047749,9474.636058
21034.830067,1628.453072,0.000000,6661.853478
21034.830390,3256.906145,0.000000,6661.853478
21034.830713,3182.885551,1149.143247,8660.409521
21034.831037,666.185348,1685.410096,9992.780217
21034.831360,-814.226536,-229.828649,8216.285956
21034.831683,-1110.308913,-1532.190996,8512.368333
21034.832007,-296.082377,-1378.971896,9992.780217
21034.832330,-814.226536,0.000000,10214.842000
21034.832654,296.082377,-1225.752797,9030.512492
21034.832977,2220.617826,-689.485948,8068.244768
21034.833300,3330.926739,766.095498,8586.388927
21034.833624,2516.700203,1685.410096,9474.636058
21034.833947,2590.720797,1072.533697,7402.059420
21034.834270,2072.576638,995.924147,7994.224174
21034.834594,1036.288319,1072.533697,10658.965565
21034.834917,1036.288319,689.485948,9992.780217
21034.835240,296.082377,0.000000,9104.533087
21034.835564,1480.411884,-1915.238745,8364.327145
21034.835887,1110.308913,-1072.533697,8882.471304
21034.836211,222.061783,-995.924147,10955.047942
21034.836534,-1554.432478,-1455.581446,11177.109724
21034.836857,-1850.514855,-766.095498,9474.636058
21034.837181,-296.082377,-919.314598,9326.594869
21034.837504,-148.041188,-995.924147,9474.636058
21034.837827,-296.082377,0.000000,9326.594869
21034.838151,1998.556043,459.657299,7624.121203
21034.838474,3034.844362,1532.190996,6661.853478
21034.838797,3108.864956,1915.238745,8882.471304
21034.839121,592.164754,1991.848295,8660.409521
21034.839444,-666.185348,842.705048,7920.203579
21034.839768,-222.061783,76.609550,9252.574275
21034.840091,-962.267725,459.657299,9844.739029
21034.840414,-2294.638420,-536.266849,9104.533087
21034.840738,-1554.432478,-1915.238745,7698.141797
21034.841061,-148.041188,-995.924147,8142.265362
21034.841384,-222.061783,306.438199,10658.965565
21034.841708,-1850.514855,-153.219100,11103.089130
21034.842031,-2664.741391,-1455.581446,7994.224174
21034.842354,-3256.906145,-2145.067394,9252.574275
21034.842678,-3330.926739,-1225.752797,9696.697840
21034.843001,-3330.926739,-612.876398,10658.965565
21034.843324,-2146.597232,-2221.676944,9178.553681
21034.843648,-1480.411884,-1378.971896,7846.182985
21034.843971,-1406.391290,-612.876398,9030.512492
21034.844295,-2960.823768,-459.657299,10362.883188
21034.844618,-3849.070898,-1762.019645,9622.677246
21034.844941,-3849.070898,-2374.896044,9178.553681
21034.845265,-2812.782580,-1991.848295,9474.636058
21034.845588,-2146.597232,-1302.362347,10955.047942
21034.845911,-1110.308913,-1149.143247,10510.924376
21034.846235,370.102971,-1149.143247,8216.285956
21034.846558,1406.391290,-1072.533697,7624.121203
21034.846881,1998.556043,-459.657299,8808.450710
21034.847205,222.061783,-229.828649,9400.615463
21034.847528,0.000000,0.000000,9770.718434
21034.847852,814.226536,0.000000,9030.512492
21034.848175,1332.370696,0.000000,8586.388927
21034.848498,0.000000,0.000000,9030.512492
21034.848822,1998.556043,612.876398,7772.162391
21034.849145,4071.132681,919.314598,7254.018232
21034.849468,3108.864956,1149.143247,9770.718434
21034.849792,370.102971,689.485948,9844.739029
21034.850115,-592.164754,76.609550,8586.388927
21034.850438,-222.061783,-1762.019645,8438.347739
21034.850762,-888.247130,-1455.581446,9844.739029
21034.851085,-888.247130,-536.266849,9696.697840
21034.851409,592.164754,-995.924147,8438.347739
21034.851732,2220.617826,-1532.190996,7179.997637
21034.852055,2220.617826,-689.485948,7402.059420
21034.852379,74.020594,0.000000,9400.615463
21034.852702,74.020594,76.609550,8956.491898
21034.853025,1332.370696,-459.657299,9918.759623
21034.853349,1554.432478,-995.924147,10584.944971
21034.853672,-296.082377,-306.438199,12065.356855
21034.853995,1258.350101,-306.438199,9696.697840
21034.854319,3256.906145,-766.095498,8734.430116
21034.854642,4219.173869,0.000000,9326.594869
21034.854966,2368.659014,383.047749,10066.800811
21034.855289,592.164754,-536.266849,8734.430116
21034.855612,-740.205942,-919.314598,8142.265362
21034.855936,-740.205942,-1302.362347,8438.347739
21034.856259,-2220.617826,-306.438199,10807.006753
21034.856582,-1998.556043,-1608.800546,8882.471304
21034.856906,-370.102971,-2068.457845,7624.121203
21034.857229,-444.123565,-1685.410096,8364.327145
21034.857552,-2368.659014,-536.266849,10584.944971
21034.857876,-2886.803174,-153.219100,8734.430116
21034.858199,-2368.659014,-1685.410096,7994.224174
21034.858523,-2442.679609,-1225.752797,8808.450710
21034.858846,-3775.050304,0.000000,10807.006753
21034.859169,-3108.864956,-842.705048,9918.759623
21034.859493,-1776.494261,-1532.190996,7624.121203
21034.859816,-370.102971,-2068.457845,6439.791695
21034.860139,-1184.329507,-153.219100,8882.471304
21034.860463,-2812.782580,459.657299,10955.047942
21034.860786,-3627.009116,-1225.752797,9474.636058
21034.861109,-3627.009116,-2221.676944,8660.409521
21034.861433,-3997.112087,-2298.286494,9844.739029
21034.861756,-3256.906145,-1378.971896,11399.171507
21034.862080,-370.102971,-1072.533697,10288.862594
21034.862403,888.247130,-1378.971896,7846.182985
21034.862726,592.164754,-766.095498,8216.285956
21034.863050,-814.226536,0.000000,9400.615463
21034.863373,-1110.308913,0.000000,9474.636058
21034.863696,-518.144159,0.000000,9474.636058
21034.864020,222.061783,76.609550,9548.656652
21034.864343,-222.061783,995.924147,10584.944971
21034.864666,444.123565,612.876398,8660.409521
21034.864990,1628.453072,306.438199,6217.729913
21034.865313,2368.659014,536.266849,6809.894666
21034.865637,1702.473667,1915.238745,9030.512492
21034.865960,1184.329507,1991.848295,9326.594869
21034.866283,0.000000,1149.143247,10140.821405
21034.866607,148.041188,306.438199,9030.512492
21034.866930,0.000000,612.876398,9400.615463
21034.867253,148.041188,-689.485948,7254.018232
21034.867577,1850.514855,0.000000,5995.668130
21034.867900,3182.885551,306.438199,8068.244768
21034.868223,1924.535449,1072.533697,10214.842000
21034.868547,666.185348,842.705048,9844.739029
21034.868870,962.267725,-229.828649,8290.306550
21034.869194,2664.741391,-383.047749,8512.368333
21034.869517,1776.494261,1532.190996,12805.562797
21034.869840,2368.659014,2298.286494,11769.274478
21034.870164,3627.009116,1225.752797,7846.182985
21034.870487,2960.823768,-1532.190996,6883.915261
21034.870810,222.061783,-842.705048,8660.409521
21034.871134,-1110.308913,-919.314598,9178.553681
21034.871457,-1406.391290,-2068.457845,9030.512492
21034.871780,-1998.556043,-2298.286494,9474.636058
21034.872104,-2590.720797,-1685.410096,10732.986159
21034.872427,-2590.720797,-2374.896044,10881.027347
21034.872750,-1258.350101,-3447.429741,8068.244768
21034.873074,1480.411884,-2834.553343,7254.018232
21034.873397,962.267725,-612.876398,11325.150913
21034.873720,296.082377,-306.438199,10510.924376
21034.874044,-296.082377,-689.485948,8142.265362
21034.874367,518.144159,-1991.848295,7698.141797
21034.874690,-1332.370696,-1149.143247,10510.924376
21034.875014,-1480.411884,0.000000,11325.150913
21034.875337,518.144159,-2145.067394,8142.265362
21034.875660,74.020594,-2834.553343,7698.141797
21034.875984,-1554.432478,-1685.410096,9474.636058
21034.876307,-3775.050304,-842.705048,10066.800811
21034.876630,-4367.215058,-3447.429741,7328.038826
21034.876954,-4811.338623,-2987.772442,9326.594869
21034.877277,-5107.421000,-1762.019645,11325.150913
21034.877600,-5181.441594,-1072.533697,11103.089130
21034.877923,-3627.009116,-2604.724693,8882.471304
21034.878247,-1554.432478,-2757.943793,7254.018232
21034.878570,-1480.411884,-383.047749,9326.594869
21034.878893,-1184.329507,229.828649,9474.636058
21034.879217,-592.164754,-229.828649,7846.182985
21034.879540,296.082377,-919.314598,7624.121203
21034.879863,0.000000,459.657299,9178.553681
21034.880187,-444.123565,1149.143247,10807.006753
21034.880510,1480.411884,0.000000,9696.697840
21034.880833,4071.132681,-459.657299,7624.121203
21034.881157,3701.029710,306.438199,8956.491898
21034.881480,2368.659014,1225.752797,11547.212695
21034.881803,2590.720797,459.657299,8068.244768
21034.882127,2220.617826,0.000000,7698.141797
21034.882450,1406.391290,689.485948,9030.512492
21034.882773,0.000000,2451.505594,10658.965565
21034.883097,518.144159,1532.190996,9326.594869
21034.883420,1258.350101,-766.095498,7402.059420
21034.883743,1258.350101,76.609550,6883.915261
21034.884067,148.041188,1915.238745,8882.471304
21034.884390,-740.205942,1532.190996,8142.265362
21034.884713,-592.164754,0.000000,7550.100608
21034.885037,-296.082377,-229.828649,9104.533087
21034.885360,-1036.288319,383.047749,10436.903782
21034.885683,0.000000,-383.047749,10881.027347
21034.886007,2516.700203,-1685.410096,9770.718434
21034.886330,3404.947333,-2145.067394,9474.636058
21034.886653,2886.803174,-306.438199,10066.800811
21034.886977,1554.432478,1149.143247,9770.718434
21034.887300,1480.411884,-689.485948,8068.244768
21034.887623,888.247130,-1378.971896,7624.121203
21034.887947,518.144159,0.000000,9696.697840
21034.888270,-370.102971,1072.533697,11843.295072
21034.888593,814.226536,-919.314598,9474.636058
21034.888917,222.061783,-1378.971896,6735.874072
21034.889240,-666.185348,-919.314598,8956.491898
21034.889563,-2368.659014,0.000000,10510.924376
21034.889887,-3478.967927,-1608.800546,9252.574275
21034.890210,-3182.885551,-2911.162892,8956.491898
21034.890533,-3034.844362,-2221.676944,10362.883188
21034.890857,-4663.297435,-459.657299,11473.192101
21034.891180,-3256.906145,-1608.800546,10214.842000
21034.891503,-814.226536,-1762.019645,8734.430116
21034.891827,370.102971,-1072.533697,7920.203579
21034.892150,0.000000,-536.266849,9030.512492
21034.892473,-740.205942,-842.705048,8586.388927
21034.892797,-592.164754,0.000000,8512.368333
21034.893120,-296.082377,383.047749,8808.450710
21034.893443,-1406.391290,76.609550,10658.965565
21034.893767,-2146.597232,-383.047749,9992.780217
21034.894090,-1850.514855,-1225.752797,9622.677246
21034.894413,-814.226536,-1455.581446,9326.594869
21034.894737,-2220.617826,-995.924147,10066.800811
21034.895060,-4145.153275,-1072.533697,9474.636058
21034.895383,-3330.926739,-1302.362347,7105.977043
21034.895707,-3627.009116,-1149.143247,6217.729913
21034.896030,-3923.091493,-306.438199,7254.018232
21034.896353,-3775.050304,0.000000,8956.491898
21034.896677,-1184.329507,-842.705048,6735.874072
21034.897000,2072.576638,-766.095498,7402.059420
21034.897323,2368.659014,306.438199,10066.800811
21034.897646,370.102971,1302.362347,10510.924376
21034.897970,1184.329507,-153.219100,9622.677246
21034.898293,2072.576638,-689.485948,8956.491898
21034.898616,1924.535449,153.219100,11843.295072
21034.898940,1998.556043,306.438199,10955.047942
21034.899263,4441.235652,-229.828649,9474.636058
21034.899586,5847.626942,-459.657299,7772.162391
21034.899910,3923.091493,1838.629195,9474.636058
21034.900233,1924.535449,1225.752797,8956.491898
21034.900556,1554.432478,383.047749,7624.121203
21034.900880,1554.432478,-612.876398,6957.935855
21034.901203,444.123565,-153.219100,7994.224174
21034.901526,-1258.350101,-153.219100,10510.924376
21034.901850,0.000000,-612.876398,8882.471304
21034.902173,1184.329507,-612.876398,8142.265362
21034.902496,370.102971,-1608.800546,9474.636058
21034.902820,-1332.370696,-2221.676944,10732.986159
21034.903143,-1480.411884,-2451.505594,9474.636058
21034.903466,0.000000,-2374.896044,9474.636058
21034.903790,-1480.411884,-1302.362347,9474.636058
21034.904113,-2442.679609,-1149.143247,10584.944971
21034.904436,0.000000,-1532.190996,7402.059420
21034.904760,2294.638420,-383.047749,7920.203579
21034.905083,3775.050304,-459.657299,8586.388927
21034.905406,2812.782580,1225.752797,9104.533087
21034.905730,1850.514855,0.000000,10584.944971
21034.906053,444.123565,-1149.143247,10066.800811
21034.906376,74.020594,-1302.362347,9474.636058
21034.906700,-888.247130,-1991.848295,10140.821405
21034.907023,-3108.864956,-3064.381992,9992.780217
21034.907346,-2294.638420,-2757.943793,9474.636058
21034.907670,-518.144159,-2451.505594,8660.409521
21034.907993,-1998.556043,-1532.190996,9548.656652
21034.908316,-3182.885551,-1378.971896,9326.594869
21034.908640,-3108.864956,-1991.848295,7476.080014
21034.908963,-1924.535449,-1915.238745,6809.894666
21034.909286,-814.226536,-153.219100,9770.718434
21034.909610,0.000000,689.485948,10140.821405
21034.909933,-444.123565,-766.095498,7846.182985
21034.910256,962.267725,-2145.067394,6735.874072
21034.910580,2146.597232,-1762.019645,8512.368333
21034.910903,592.164754,-2145.067394,9474.636058
21034.911226,-222.061783,-2681.334243,9474.636058
21034.911550,-962.267725,-2604.724693,10362.883188
21034.911873,-592.164754,-2604.724693,9178.553681
21034.912196,-962.267725,-2298.286494,10658.965565
21034.912520,-740.205942,-2911.162892,10881.027347
21034.912843,370.102971,-2145.067394,9178.553681
21034.913166,3256.906145,-1302.362347,7698.141797
21034.913490,3775.050304,0.000000,8364.327145
21034.913813,2368.659014,689.485948,8660.409521
21034.914136,1406.391290,0.000000,6883.915261
21034.914460,2294.638420,-1532.190996,6661.853478
21034.914783,2294.638420,-2221.676944,8438.347739
21034.915106,1628.453072,-842.705048,12139.377449
21034.915430,1850.514855,-1762.019645,11843.295072
21034.915753,2146.597232,-2757.943793,10955.047942
21034.916076,4885.359217,-3447.429741,9474.636058
21034.916400,5551.544565,-2451.505594,8586.388927
21034.916723,5329.482782,-2451.505594,7994.224174
21034.917046,5625.565159,-995.924147,8512.368333
21034.917369,6291.750507,1225.752797,9474.636058
21034.917693,7031.956449,1225.752797,9178.553681
21034.918016,5107.421000,-919.314598,9030.512492
21034.918339,3108.864956,-1685.410096,7698.141797
21034.918663,2220.617826,-1608.800546,9030.512492
21034.918986,2886.803174,-2068.457845,7254.018232
21034.919309,2516.700203,-4136.915689,7254.018232
21034.919633,0.000000,-5056.230287,7105.977043
21034.919956,-3330.926739,-4979.620737,7846.182985
21034.920279,-2960.823768,-4979.620737,10732.986159
21034.920603,-1924.535449,-4749.792088,11473.192101
21034.920926,-2886.803174,-5439.278036,12065.356855
21034.921249,-3404.947333,-6741.640382,10881.027347
21034.921573,-3034.844362,-6281.983084,9622.677246
21034.921896,740.205942,-4213.525239,8956.491898
21034.922219,3923.091493,-2681.334243,7698.141797
21034.922543,5255.462188,-2145.067394,7846.182985
21034.922866,5551.544565,-1762.019645,8586.388927
21034.923189,5403.503377,-459.657299,10140.821405
21034.923513,5699.585753,-1915.238745,10807.006753
21034.923836,2960.823768,-3524.039291,11177.109724
21034.924159,1554.432478,-4749.792088,11177.109724
21034.924483,2146.597232,-4903.011187,10658.965565
21034.924806,1110.308913,-3983.696590,11695.253884
21034.925129,296.082377,-3294.210641,10732.986159
21034.925453,518.144159,-2834.553343,7402.059420
21034.925776,2812.782580,-3983.696590,5403.503377
21034.926099,3997.112087,-1915.238745,5329.482782
21034.926423,3997.112087,-1685.410096,5847.626942
21034.926746,1554.432478,-995.924147,6217.729913
21034.927069,-740.205942,-3524.039291,6587.832884
21034.927393,-2146.597232,-4060.306139,7772.162391
21034.927716,-2590.720797,-4903.011187,10362.883188
21034.928039,-2294.638420,-5669.106685,11621.233289
21034.928363,-1776.494261,-5056.230287,12731.542202
21034.928686,-1184.329507,-3830.477490,12879.583391
21034.929009,148.041188,-3064.381992,12287.418637
21034.929333,2516.700203,-1455.581446,9844.739029
21034.929656,5181.441594,-919.314598,7698.141797
21034.929979,7031.956449,-842.705048,5107.421000
21034.930303,7328.038826,-842.705048,4737.318029
21034.930626,6291.750507,-766.095498,7254.018232
21034.930949,4441.235652,-689.485948,9400.615463
21034.931273,2516.700203,-1302.362347,11399.171507
21034.931596,666.185348,-2911.162892,13619.789333
21034.931919,-1480.411884,-4213.525239,14211.954086
21034.932243,-1998.556043,-3983.696590,14285.974681
21034.932566,-1406.391290,-3677.258390,11991.336260
21034.932889,-1554.432478,-1838.629195,9178.553681
21034.933213,0.000000,766.095498,6883.915261
21034.933536,2812.782580,2145.067394,4441.235652
21034.933859,4663.297435,3294.210641,3034.844362
21034.934183,5477.523971,2451.505594,1184.329507
21034.934506,5255.462188,1455.581446,962.267725
21034.934829,3849.070898,-383.047749,4515.256246
21034.935153,2960.823768,-1991.848295,8364.327145
21034.935476,2886.803174,-4366.744339,10436.903782
21034.935799,-962.267725,-5898.935335,12583.501014
21034.936123,-3478.967927,-6435.202183,15248.242405
21034.936446,-3034.844362,-5745.716235,16728.654289
21034.936769,-370.102971,-5132.839837,14804.118840
21034.937092,518.144159,-3524.039291,12657.521608
21034.937416,740.205942,-995.924147,10807.006753
21034.937739,1850.514855,1302.362347,6957.935855
21034.938062,2960.823768,1838.629195,3478.967927
21034.938386,4959.379811,1378.971896,2738.761985
21034.938709,4737.318029,306.438199,2294.638420
21034.939032,4145.153275,-1532.190996,3034.844362
21034.939356,4885.359217,-4596.572988,5995.668130
21034.939679,3923.091493,-6894.859482,9400.615463
21034.940002,0.000000,-8656.879127,13175.665768
21034.940326,-1702.473667,-9959.241474,15322.262999
21034.940649,-592.164754,-11184.994271,17098.757260
21034.940972,-370.102971,-10189.070123,17764.942608
21034.941296,-962.267725,-7507.735880,17912.983796
21034.941619,0.000000,-3140.991542,16136.489536
21034.941942,2738.761985,153.219100,11769.274478
21034.942266,4219.173869,3907.087040,7328.038826
21034.942589,5033.400406,5822.325785,3849.070898
21034.942912,5107.421000,6358.592633,222.061783
21034.943236,5255.462188,6435.202183,-740.205942
21034.943559,4071.132681,3524.039291,-814.226536
21034.943882,962.267725,76.609550,1406.391290
21034.944206,-2220.617826,-4673.182538,4293.194464
21034.944529,-3330.926739,-9193.145976,6217.729913
21034.944852,-3701.029710,-11797.870669,10288.862594
21034.945176,-4071.132681,-13330.061665,14952.160028
21034.945499,-2294.638420,-12870.404366,17098.757260
21034.945822,1406.391290,-11951.089769,15914.427753
21034.946146,4589.276840,-8733.488677,15692.365970
21034.946469,6291.750507,-3140.991542,14434.015869
21034.946792,7994.224174,1915.238745,13101.645173
21034.947116,9474.636058,4979.620737,9622.677246
21034.947439,9918.759623,8273.831378,7476.080014
21034.947762,8142.265362,8733.488677,6439.791695
21034.948086,5033.400406,7890.783629,4885.359217
21034.948409,1924.535449,5745.716235,5033.400406
21034.948732,-592.164754,2374.896044,4811.338623
21034.949056,-4071.132681,-1302.362347,5329.482782
21034.949379,-6513.812290,-5745.716235,6217.729913
21034.949702,-7179.997637,-8886.707777,7920.203579
21034.950026,-7254.018232,-10648.727422,10288.862594
21034.950349,-6883.915261,-12180.918418,11325.150913
21034.950672,-5329.482782,-11031.775171,12213.398043
21034.950996,-1258.350101,-8963.317327,12583.501014
21034.951319,3627.009116,-5592.497135,12361.439231
21034.951642,6439.791695,-1915.238745,10436.903782
21034.951966,9474.636058,1608.800546,8956.491898
21034.952289,11695.253884,4443.353888,7254.018232
21034.952612,13027.624579,6588.421283,6069.688724
21034.952936,12879.583391,7124.688131,5329.482782
21034.953259,11177.109724,6052.154434,4811.338623
21034.953582,8290.306550,3600.648841,4589.276840
21034.953906,5403.503377,306.438199,6217.729913
21034.954229,2072.576638,-4136.915689,7105.977043
21034.954552,-2368.659014,-7584.345430,9178.553681
21034.954876,-6217.729913,-11338.213370,11029.068536
21034.955199,-7105.977043,-13406.671215,12065.356855
21034.955522,-6143.709319,-13789.718964,14137.933492
21034.955846,-6291.750507,-12410.747068,14582.057057
21034.956169,-4589.276840,-9576.193725,13915.871710
21034.956492,-1998.556043,-5975.544884,13249.686362
21034.956815,1332.370696,-2604.724693,11029.068536
21034.957139,3034.844362,1149.143247,10732.986159
21034.957462,5181.441594,3907.087040,10140.821405
21034.957785,5699.585753,5439.278036,7994.224174
21034.958109,5033.400406,5132.839837,6957.935855
21034.958432,3849.070898,3983.696590,6365.771101
21034.958755,2146.597232,2451.505594,6957.935855
21034.959079,0.000000,0.000000,7698.141797
21034.959402,-666.185348,-2604.724693,7476.080014
21034.959725,-3182.885551,-5362.668486,7179.997637
21034.960049,-4145.153275,-6971.469032,7402.059420
21034.960372,-3701.029710,-7354.516781,7328.038826
21034.960695,-3108.864956,-7201.297681,7328.038826
21034.961019,-2146.597232,-5822.325785,7476.080014
21034.961342,0.000000,-3064.381992,8216.285956
21034.961665,2442.679609,-1685.410096,8068.244768
21034.961989,3775.050304,919.314598,7698.141797
21034.962312,5107.421000,2221.676944,8364.327145
21034.962635,5699.585753,2374.896044,8882.471304
21034.962959,6291.750507,2451.505594,8512.368333
21034.963282,7105.977043,1838.629195,9252.574275
21034.963605,5995.668130,153.219100,9474.636058
21034.963929,4071.132681,-1455.581446,9474.636058
21034.964252,2960.823768,-4443.353888,10658.965565
21034.964575,2368.659014,-5439.278036,11251.130318
21034.964899,1554.432478,-6588.421283,11991.336260
21034.965222,666.185348,-6971.469032,13101.645173
21034.965545,740.205942,-7814.174080,12953.603985
21034.965869,1184.329507,-7124.688131,12213.398043
21034.966192,2590.720797,-5515.887586,10881.027347
21034.966515,3256.906145,-3294.210641,9992.780217
21034.966839,1480.411884,-1302.362347,9622.677246
21034.967162,1110.308913,383.047749,9326.594869
21034.967485,2516.700203,1072.533697,7550.100608
21034.967809,3034.844362,76.609550,8068.244768
21034.968132,2220.617826,229.828649,7846.182985
21034.968455,1036.288319,0.000000,6883.915261
21034.968779,1554.432478,536.266849,5699.585753
21034.969102,1998.556043,-612.876398,6069.688724
21034.969425,1480.411884,-1302.362347,7698.141797
21034.969749,592.164754,-2145.067394,8438.347739
21034.970072,0.000000,-2834.553343,8438.347739
21034.970395,0.000000,-3370.820191,9030.512492
21034.970719,-296.082377,-2451.505594,9400.615463
21034.971043,0.000000,-2911.162892,9770.718434
21034.971366,-888.247130,-3294.210641,9178.553681
21034.971690,-1924.535449,-1762.019645,8660.409521
21034.972013,-2146.597232,-1608.800546,8364.327145
21034.972337,-1924.535449,-1532.190996,8290.306550
21034.972660,-1776.494261,-1915.238745,8438.347739
21034.972984,-1258.350101,-2528.115143,8512.368333
21034.973307,-1184.329507,-2221.676944,8956.491898
21034.973631,-888.247130,-2911.162892,9326.594869
21034.973954,296.082377,-3064.381992,9548.656652
21034.974278,2220.617826,-3983.696590,10214.842000
21034.974601,3182.885551,-4826.401637,10881.027347
21034.974925,3256.906145,-4213.525239,10732.986159
21034.975248,5551.544565,-4290.134789,10066.800811
21034.975572,7105.977043,-4903.011187,10214.842000
21034.975895,7476.080014,-4060.306139,8882.471304
21034.976218,7920.203579,-3217.601092,8364.327145
21034.976542,8660.409521,-3064.381992,7920.203579
21034.976865,8068.244768,-2987.772442,7105.977043
21034.977189,7846.182985,-2528.115143,7476.080014
21034.977512,7328.038826,-2911.162892,7031.956449
21034.977836,6587.832884,-3677.258390,8364.327145
21034.978159,5255.462188,-4290.134789,8216.285956
21034.978483,4737.318029,-4673.182538,8216.285956
21034.978806,2886.803174,-5669.106685,8808.450710
21034.979130,1628.453072,-6665.030833,9696.697840
21034.979453,814.226536,-7354.516781,10584.944971
21034.979777,-296.082377,-7737.564530,11473.192101
21034.980100,-1480.411884,-7507.735880,11843.295072
21034.980424,-1332.370696,-6588.421283,11695.253884
21034.980747,-1850.514855,-6358.592633,12213.398043
21034.981070,-2220.617826,-5669.106685,12731.542202
21034.981394,-2368.659014,-4213.525239,12361.439231
21034.981717,-1998.556043,-2451.505594,11695.253884
21034.982041,-888.247130,-1685.410096,10807.006753
21034.982364,-518.144159,-689.485948,9918.759623
21034.982688,-444.123565,-459.657299,9474.636058
21034.983011,-444.123565,229.828649,8068.244768
21034.983335,666.185348,229.828649,7031.956449
21034.983658,888.247130,0.000000,6883.915261
21034.983982,-296.082377,-383.047749,6587.832884
21034.984305,-666.185348,-612.876398,6735.874072
21034.984629,740.205942,-1225.752797,7402.059420
21034.984952,814.226536,-689.485948,7402.059420
21034.985275,-222.061783,0.000000,7846.182985
21034.985599,0.000000,-229.828649,7624.121203
21034.985922,1258.350101,919.314598,7920.203579
21034.986246,1998.556043,1838.629195,7846.182985
21034.986569,1998.556043,2451.505594,6883.915261
21034.986893,1184.329507,2221.676944,5477.523971
21034.987216,2664.741391,1608.800546,4737.318029
21034.987540,3775.050304,536.266849,5625.565159
21034.987863,3330.926739,-306.438199,6365.771101
21034.988187,2072.576638,-1915.238745,6883.915261
21034.988510,1924.535449,-3677.258390,8142.265362
21034.988834,2368.659014,-4596.572988,11251.130318
21034.989157,1332.370696,-5056.230287,14285.974681
21034.989481,444.123565,-4903.011187,16210.510130
21034.989804,1924.535449,-4903.011187,16876.695478
21034.990127,2590.720797,-4749.792088,15544.324782
21034.990451,3775.050304,-2604.724693,14508.036463
21034.990774,4885.359217,-306.438199,12731.542202
21034.991098,5921.647536,1532.190996,10214.842000
21034.991421,7179.997637,2451.505594,7328.038826
21034.991745,7772.162391,2528.115143,4663.297435
21034.992068,6439.791695,2221.676944,3108.864956
21034.992392,4663.297435,919.314598,3478.967927
21034.992715,4145.153275,-1838.629195,4515.256246
21034.993039,3108.864956,-3370.820191,5551.544565
21034.993362,2516.700203,-5286.058936,6513.812290
21034.993686,2442.679609,-7124.688131,7254.018232
21034.994009,3330.926739,-8580.269578,8660.409521
21034.994333,4367.215058,-8733.488677,9178.553681
21034.994656,4071.132681,-8656.879127,10584.944971
21034.994979,2590.720797,-6818.249932,11473.192101
21034.995303,1628.453072,-6128.763984,12065.356855
21034.995626,666.185348,-5286.058936,12731.542202
21034.995950,148.041188,-4443.353888,12361.439231
21034.996273,-1554.432478,-3370.820191,12287.418637
21034.996597,-3627.009116,-2987.772442,12287.418637
21034.996920,-3923.091493,-3217.601092,10288.862594
21034.997244,-4737.318029,-3600.648841,9474.636058
21034.997567,-5921.647536,-4213.525239,8882.471304
21034.997891,-6513.812290,-4903.011187,9030.512492
21034.998214,-5181.441594,-6205.373534,7698.141797
21034.998538,-3182.885551,-6818.249932,8216.285956
21034.998861,-1332.370696,-7354.516781,8142.265362
21034.999185,518.144159,-7660.954980,8142.265362
21034.999508,4515.256246,-8197.221829,8512.368333
21034.999831,5551.544565,-6588.421283,10140.821405
21035.000155,5699.585753,-4060.306139,12361.439231
21035.000478,6513.812290,-1991.848295,13323.706956
21035.000802,7994.224174,0.000000,12509.480420
21035.001125,8364.327145,2681.334243,11325.150913
21035.001449,6809.894666,4213.525239,9326.594869
21035.001772,6217.729913,6052.154434,6883.915261
21035.002096,3701.029710,6588.421283,5403.503377
21035.002419,814.226536,5898.935335,4219.173869
21035.002743,-2738.761985,4213.525239,1924.535449
21035.003066,-4737.318029,1225.752797,444.123565
21035.003390,-5329.482782,-2374.896044,370.102971
21035.003713,-5255.462188,-4749.792088,2442.679609
21035.004037,-4885.359217,-7354.516781,4367.215058
21035.004360,-3997.112087,-9346.365076,7328.038826
21035.004683,-2664.741391,-9806.022374,13027.624579
21035.005007,-666.185348,-9193.145976,15840.407159
21035.005330,2590.720797,-8120.612279,18357.107362
21035.005654,6365.771101,-6052.154434,21317.931130
21035.005977,9326.594869,-1532.190996,20355.663405
21035.006301,12879.583391,3294.210641,17320.819043
21035.006624,14952.160028,5745.716235,13397.727550
21035.006948,14582.057057,7890.783629,8364.327145
21035.007271,13767.830521,9039.926876,4219.173869
21035.007595,13027.624579,7507.735880,2146.597232
21035.007918,9104.533087,4673.182538,814.226536
21035.008242,3627.009116,1378.971896,1036.288319
21035.008565,-2590.720797,-2604.724693,4737.318029
21035.008889,-5995.668130,-7814.174080,6587.832884
21035.009212,-9400.615463,-10265.679673,9474.636058
21035.009535,-12065.356855,-13176.842566,12287.418637
21035.009859,-12139.377449,-14172.766713,12953.603985
21035.010182,-8660.409521,-11568.042020,13545.768739
21035.010506,-2072.576638,-7354.516781,11843.295072
21035.010829,2072.576638,-2911.162892,10732.986159
21035.011153,4885.359217,1302.362347,8586.388927
21035.011476,8290.306550,4213.525239,5625.565159
21035.011800,10732.986159,6128.763984,4811.338623
21035.012123,9474.636058,6052.154434,5773.606348
21035.012447,5921.647536,4903.011187,6143.709319
21035.012770,2664.741391,1225.752797,7254.018232
21035.013094,0.000000,-2757.943793,9548.656652
21035.013417,-3701.029710,-5822.325785,11621.233289
21035.013741,-6587.832884,-8733.488677,13027.624579
21035.014064,-7550.100608,-11031.775171,12805.562797
21035.014387,-7402.059420,-12563.966167,11029.068536
21035.014711,-5773.606348,-12334.137518,10288.862594
21035.015034,-4737.318029,-9882.631924,10955.047942
21035.015358,-2960.823768,-6818.249932,9696.697840
21035.015681,592.164754,-3753.867940,8882.471304
21035.016005,4367.215058,-1302.362347,8586.388927
21035.016328,5255.462188,1532.190996,10436.903782
21035.016652,7328.038826,3830.477490,9252.574275
21035.016975,10807.006753,4136.915689,7031.956449
21035.017299,11991.336260,3064.381992,5921.647536
21035.017622,10436.903782,2911.162892,5995.668130
21035.017946,8882.471304,1762.019645,7031.956449
21035.018269,6661.853478,-1225.752797,7550.100608
21035.018593,3182.885551,-3983.696590,8734.430116
21035.018916,-370.102971,-6435.202183,10214.842000
21035.019239,-3330.926739,-8656.879127,11251.130318
21035.019563,-3108.864956,-10112.460574,12139.377449
21035.019886,-1628.453072,-8427.050478,10955.047942
21035.020210,296.082377,-7277.907231,9252.574275
21035.020533,2294.638420,-4596.572988,8290.306550
21035.020857,2368.659014,-1685.410096,8956.491898
21035.021180,3552.988522,995.924147,7772.162391
21035.021504,5773.606348,3447.429741,9178.553681
21035.021827,6957.935855,3830.477490,11177.109724
21035.022151,4663.297435,4443.353888,10955.047942
21035.022474,1702.473667,2145.067394,9844.739029
21035.022798,1776.494261,-536.266849,8956.491898
21035.023121,3182.885551,-2834.553343,9696.697840
21035.023445,1924.535449,-2068.457845,11251.130318
21035.023768,-1258.350101,-3677.258390,11399.171507
21035.024091,-3404.947333,-5132.839837,9622.677246
21035.024415,-2516.700203,-5362.668486,8586.388927
21035.024738,-1554.432478,-3830.477490,8068.244768
21035.025062,-3849.070898,-2681.334243,7846.182985
21035.025385,-3775.050304,-1838.629195,7105.977043
21035.025709,0.000000,-459.657299,5921.647536
21035.026032,1702.473667,1762.019645,7402.059420
21035.026356,-666.185348,3217.601092,8882.471304
21035.026679,-3478.967927,4290.134789,8882.471304
21035.027003,-3404.947333,3140.991542,8142.265362
21035.027326,-2516.700203,2604.724693,10066.800811
21035.027650,-3775.050304,2604.724693,11991.336260
21035.027973,-5921.647536,153.219100,9030.512492
21035.028297,-5329.482782,-1685.410096,6217.729913
21035.028620,-1480.411884,-2298.286494,6143.709319
21035.028943,222.061783,-842.705048,8290.306550
21035.029267,-518.144159,-1455.581446,9178.553681
21035.029590,-1258.350101,-2604.724693,7328.038826
21035.029914,-518.144159,-4060.306139,8808.450710
21035.030237,-1036.288319,-2604.724693,11621.233289
21035.030561,-740.205942,-1225.752797,14211.954086
21035.030884,814.226536,-1915.238745,12953.603985
21035.031208,2368.659014,-2298.286494,9474.636058
21035.031531,370.102971,-842.705048,9474.636058
21035.031855,222.061783,229.828649,9474.636058
21035.032178,1480.411884,2451.505594,9844.739029
21035.032502,2294.638420,2528.115143,9030.512492
21035.032825,444.123565,2298.286494,7920.203579
21035.033148,296.082377,1225.752797,7402.059420
21035.033472,1776.494261,536.266849,6809.894666
21035.033795,3256.906145,229.828649,6809.894666
21035.034119,3701.029710,-919.314598,6735.874072
21035.034442,2368.659014,-2451.505594,6069.688724
21035.034766,1258.350101,-3524.039291,7624.121203
21035.035089,2368.659014,-3600.648841,9030.512492
21035.035413,2220.617826,-2221.676944,12065.356855
21035.035736,0.000000,-2145.067394,13249.686362
21035.036060,1184.329507,-2374.896044,11621.233289
21035.036383,4737.318029,-2145.067394,10066.800811
21035.036707,5625.565159,0.000000,11251.130318
21035.037030,2072.576638,1991.848295,11251.130318
21035.037354,740.205942,3064.381992,8660.409521
21035.037677,1998.556043,2451.505594,7328.038826
21035.038000,1406.391290,2757.943793,8808.450710
21035.038324,-1924.535449,1991.848295,8512.368333
21035.038647,-5033.400406,-383.047749,7550.100608
21035.038971,-5625.565159,-2911.162892,5847.626942
21035.039294,-3552.988522,-2604.724693,7624.121203
21035.039618,-3404.947333,-3294.210641,9622.677246
21035.039941,-7105.977043,-4290.134789,10955.047942
21035.040265,-7772.162391,-5592.497135,7920.203579
21035.040588,-6143.709319,-5056.230287,8586.388927
21035.040912,-4737.318029,-3983.696590,11991.336260
21035.041235,-3701.029710,-1225.752797,12065.356855
21035.041559,444.123565,-536.266849,9474.636058
21035.041882,3330.926739,1455.581446,8290.306550
21035.042206,2664.741391,4060.306139,10214.842000
21035.042529,1998.556043,4903.011187,9548.656652
21035.042852,2368.659014,3524.039291,6809.894666
21035.043176,1480.411884,1685.410096,6957.935855
21035.043499,-296.082377,2068.457845,9030.512492
21035.043823,-3256.906145,1302.362347,9474.636058
21035.044146,-4219.173869,-766.095498,8882.471304
21035.044470,-2960.823768,-1838.629195,7994.224174
21035.044793,-2368.659014,-2681.334243,7920.203579
21035.045117,-3478.967927,-3447.429741,9326.594869
21035.045440,-3701.029710,-4443.353888,9474.636058
21035.045764,-1628.453072,-2604.724693,9918.759623
21035.046087,-1184.329507,0.000000,11621.233289
21035.046411,-888.247130,-153.219100,9696.697840
21035.046734,2294.638420,919.314598,8734.430116
21035.047058,5477.523971,995.924147,7328.038826
21035.047381,5773.606348,2451.505594,7920.203579
21035.047704,4441.235652,3064.381992,9474.636058
21035.048028,3552.988522,2068.457845,8142.265362
21035.048351,1702.473667,1532.190996,7624.121203
21035.048675,740.205942,229.828649,9474.636058
21035.048998,-444.123565,-919.314598,9252.574275
21035.049322,-1332.370696,-3140.991542,8290.306550
21035.049645,0.000000,-3217.601092,8882.471304
21035.049969,1036.288319,-1608.800546,10362.883188
21035.050292,740.205942,-1302.362347,10140.821405
21035.050616,296.082377,-1838.629195,8882.471304
21035.050939,888.247130,-2145.067394,8734.430116
21035.051263,888.247130,-536.266849,10140.821405
21035.051586,1184.329507,1149.143247,10584.944971
21035.051910,1850.514855,842.705048,10140.821405
21035.052233,2886.803174,1072.533697,8734.430116
21035.052556,3256.906145,2145.067394,8216.285956
21035.052880,1924.535449,2757.943793,9770.718434
21035.053203,814.226536,1302.362347,10362.883188
21035.053527,-666.185348,76.609550,8142.265362
21035.053850,-2146.597232,-1455.581446,8808.450710
21035.054174,-2664.741391,-1532.190996,9992.780217
21035.054497,-4811.338623,-1225.752797,10584.944971
21035.054821,-5181.441594,-3064.381992,6957.935855
21035.055144,-4145.153275,-3447.429741,5921.647536
21035.055468,-3330.926739,-2911.162892,7328.038826
21035.055791,-3775.050304,-689.485948,9622.677246
21035.056115,-5255.462188,-995.924147,9474.636058
21035.056438,-5403.503377,-2298.286494,9104.533087
21035.056762,-4515.256246,-1685.410096,8734.430116
21035.057085,-4293.194464,-689.485948,9918.759623
21035.057408,-1628.453072,-919.314598,8438.347739
21035.057732,1554.432478,0.000000,7772.162391
21035.058055,2960.823768,995.924147,11177.109724
21035.058379,2072.576638,1685.410096,11473.192101
21035.058702,2146.597232,919.314598,9326.594869
21035.059026,1998.556043,-1991.848295,8808.450710
21035.059349,0.000000,-1991.848295,10140.821405
21035.059673,-1184.329507,-842.705048,11251.130318
21035.059996,592.164754,-1455.581446,9844.739029
21035.060320,1332.370696,-2757.943793,7105.977043
21035.060643,518.144159,-1685.410096,8216.285956
21035.060967,-740.205942,-1072.533697,9622.677246
21035.061290,-2146.597232,-612.876398,10214.842000
21035.061614,-888.247130,-612.876398,10362.883188
21035.061937,-962.267725,306.438199,10140.821405
21035.062260,-2516.700203,306.438199,9326.594869
21035.062584,-1110.308913,-229.828649,7031.956449
21035.062907,888.247130,229.828649,5773.606348
21035.063231,2590.720797,995.924147,7402.059420
21035.063554,2294.638420,2145.067394,8364.327145
21035.063878,1776.494261,1225.752797,8142.265362
21035.064201,1036.288319,0.000000,8068.244768
21035.064525,888.247130,-766.095498,9178.553681
21035.064848,1850.514855,0.000000,10214.842000
21035.065172,1924.535449,-612.876398,10584.944971
21035.065495,3627.009116,-842.705048,8438.347739
21035.065819,6365.771101,-306.438199,8364.327145
21035.066142,4811.338623,1455.581446,11621.233289
21035.066466,1702.473667,1455.581446,11251.130318
21035.066789,148.041188,459.657299,8956.491898
21035.067112,444.123565,-306.438199,9326.594869
21035.067436,-740.205942,76.609550,9474.636058
21035.067759,-3478.967927,459.657299,10955.047942
21035.068083,-2960.823768,-1455.581446,7031.956449
21035.068406,-2664.741391,-1378.971896,6439.791695
21035.068730,-1258.350101,-995.924147,8216.285956
21035.069053,-3182.885551,-229.828649,8734.430116
21035.069377,-4737.318029,-1991.848295,7846.182985
21035.069700,-1924.535449,-2451.505594,8438.347739
21035.070024,-1924.535449,-766.095498,10362.883188
21035.070347,-1998.556043,-1072.533697,10584.944971
21035.070671,-1184.329507,-1608.800546,9622.677246
21035.070994,1850.514855,-1685.410096,7994.224174
21035.071318,2294.638420,76.609550,10066.800811
21035.071641,1184.329507,459.657299,9992.780217
21035.071964,370.102971,0.000000,9474.636058
21035.072288,370.102971,76.609550,8956.491898
21035.072611,-1036.288319,995.924147,10066.800811
21035.072935,-2368.659014,1608.800546,9992.780217
21035.073258,-2368.659014,459.657299,9252.574275
21035.073582,-1258.350101,0.000000,7031.956449
21035.073905,-740.205942,-612.876398,5699.585753
21035.074229,-2664.741391,-612.876398,6661.853478
21035.074552,-4145.153275,-1072.533697,8586.388927
21035.074876,-3478.967927,-689.485948,9622.677246
21035.075199,-3701.029710,-2221.676944,9844.739029
21035.075522,-4515.256246,-3217.601092,10288.862594
21035.075846,-4441.235652,-3294.210641,11103.089130
21035.076169,-1332.370696,-3140.991542,9474.636058
21035.076493,2738.761985,-2145.067394,8956.491898
21035.076816,2960.823768,-459.657299,10214.842000
21035.077139,2072.576638,1455.581446,9548.656652
21035.077463,1850.514855,1225.752797,8364.327145
21035.077786,2960.823768,995.924147,7920.203579
21035.078110,1998.556043,1685.410096,9474.636058
21035.078433,1258.350101,1991.848295,10066.800811
21035.078757,2960.823768,536.266849,7550.100608
21035.079080,3552.988522,-459.657299,7476.080014
21035.079403,2072.576638,-536.266849,7476.080014
21035.079727,-888.247130,-995.924147,8586.388927
21035.080050,-1924.535449,-2528.115143,8660.409521
21035.080374,-1184.329507,-2604.724693,9696.697840
21035.080697,-888.247130,-2298.286494,10658.965565
21035.081020,-1850.514855,-2451.505594,10288.862594
21035.081344,-814.226536,-2298.286494,8586.388927
21035.081667,2442.679609,-1532.190996,8068.244768
21035.081991,3775.050304,1225.752797,10658.965565
21035.082314,2886.803174,1149.143247,11325.150913
21035.082638,2368.659014,459.657299,9474.636058
21035.082961,1924.535449,-229.828649,7846.182985
21035.083284,0.000000,-229.828649,10140.821405
21035.083608,-1554.432478,153.219100,10807.006753
21035.083931,-1406.391290,-1149.143247,9918.759623
21035.084255,-296.082377,-2374.896044,7994.224174
21035.084578,-962.267725,-1762.019645,8660.409521
21035.084902,-1850.514855,-1991.848295,9326.594869
21035.085225,-3701.029710,-1915.238745,10214.842000
21035.085548,-3034.844362,-2221.676944,8068.244768
21035.085872,-2442.679609,-1149.143247,9104.533087
21035.086195,-2146.597232,-459.657299,10214.842000
21035.086519,-2368.659014,766.095498,8734.430116
21035.086842,222.061783,0.000000,6661.853478
21035.087165,1702.473667,766.095498,8438.347739
21035.087489,1628.453072,1762.019645,8660.409521
21035.087812,962.267725,2145.067394,9030.512492
21035.088136,666.185348,0.000000,7846.182985
21035.088459,-1998.556043,0.000000,8586.388927
21035.088783,-2960.823768,612.876398,10584.944971
21035.089106,-2368.659014,-612.876398,9474.636058
21035.089429,-1184.329507,-2374.896044,7402.059420
21035.089753,-1036.288319,-1608.800546,7994.224174
21035.090076,-1702.473667,153.219100,9622.677246
21035.090400,-1332.370696,-612.876398,9474.636058
21035.090723,-1702.473667,-1378.971896,9178.553681
21035.091046,-2146.597232,-1991.848295,9178.553681
21035.091370,-3034.844362,-919.314598,9252.574275
21035.091693,-2886.803174,-1302.362347,10436.903782
21035.092017,-888.247130,-1762.019645,9400.615463
21035.092340,814.226536,-536.266849,9326.594869
21035.092664,1184.329507,0.000000,11029.068536
21035.092987,592.164754,0.000000,10140.821405
21035.093310,1480.411884,536.266849,10214.842000
21035.093634,2146.597232,-459.657299,9918.759623
21035.093957,666.185348,-383.047749,10214.842000
21035.094281,592.164754,153.219100,10140.821405
21035.094604,1480.411884,536.266849,9030.512492
