#time,accel_x,accel_y,accel_z
5387.308980,-518.144159,383.047749,9252.574275
5387.309303,-1184.329507,766.095498,8512.368333
5387.309626,-740.205942,153.219100,9992.780217
5387.309948,0.000000,306.438199,9770.718434
5387.310271,444.123565,689.485948,8956.491898
5387.310594,0.000000,995.924147,8290.306550
5387.310917,0.000000,612.876398,9770.718434
5387.311239,-370.102971,306.438199,9696.697840
5387.311562,-666.185348,306.438199,8734.430116
5387.311885,0.000000,689.485948,8142.265362
5387.312208,-1036.288319,306.438199,9252.574275
5387.312531,-814.226536,459.657299,9992.780217
5387.312853,-444.123565,229.828649,9992.780217
5387.313176,-370.102971,459.657299,8586.388927
5387.313499,0.000000,766.095498,9030.512492
5387.313822,-222.061783,459.657299,9844.739029
5387.314144,666.185348,1149.143247,9992.780217
5387.314467,962.267725,1072.533697,8734.430116
5387.314790,444.123565,919.314598,8734.430116
5387.315113,370.102971,612.876398,9918.759623
5387.315436,0.000000,919.314598,9992.780217
5387.315758,-370.102971,1378.971896,9030.512492
5387.316081,370.102971,766.095498,8882.471304
5387.316404,-666.185348,995.924147,9400.615463
5387.316727,-1036.288319,766.095498,9474.636058
5387.317049,-148.041188,536.266849,9474.636058
5387.317372,-740.205942,612.876398,8438.347739
5387.317695,-666.185348,919.314598,8586.388927
5387.318018,-296.082377,459.657299,9992.780217
5387.318340,666.185348,1532.190996,9252.574275
5387.318663,444.123565,2145.067394,8512.368333
5387.318986,74.020594,1225.752797,8882.471304
5387.319309,296.082377,919.314598,10510.924376
5387.319632,222.061783,1685.410096,10066.800811
5387.319954,962.267725,1762.019645,9548.656652
5387.320277,666.185348,1685.410096,9326.594869
5387.320600,0.000000,1378.971896,10140.821405
5387.320923,1036.288319,1378.971896,10436.903782
5387.321245,1406.391290,1838.629195,9474.636058
5387.321568,1480.411884,2221.676944,9104.533087
5387.321891,1258.350101,2298.286494,9622.677246
5387.322214,2738.761985,2374.896044,10140.821405
5387.322537,3997.112087,3294.210641,8956.491898
5387.322859,3552.988522,3600.648841,8142.265362
5387.323182,3701.029710,3370.820191,9400.615463
5387.323505,3552.988522,3140.991542,9918.759623
5387.323828,4515.256246,3830.477490,9474.636058
5387.324150,4885.359217,4213.525239,8734.430116
5387.324473,3849.070898,3677.258390,9474.636058
5387.324796,3256.906145,2987.772442,9770.718434
5387.325119,3478.967927,3600.648841,9622.677246
5387.325442,3627.009116,3830.477490,8438.347739
5387.325764,2960.823768,4366.744339,8290.306550
5387.326087,1702.473667,3217.601092,9030.512492
5387.326410,2590.720797,3524.039291,8808.450710
5387.326733,3034.844362,4213.525239,7179.997637
5387.327055,2294.638420,4213.525239,6439.791695
5387.327378,2146.597232,3753.867940,7550.100608
5387.327701,1850.514855,3447.429741,8290.306550
5387.328024,2072.576638,4136.915689,7624.121203
5387.328347,2368.659014,4213.525239,8068.244768
5387.328669,888.247130,3370.820191,9178.553681
5387.328992,444.123565,2834.553343,10066.800811
5387.329315,1036.288319,2681.334243,10510.924376
5387.329638,740.205942,3064.381992,9844.739029
5387.329960,222.061783,1838.629195,10288.862594
5387.330283,0.000000,1608.800546,11029.068536
5387.330606,1332.370696,2068.457845,10584.944971
5387.330929,2294.638420,2681.334243,9474.636058
5387.331252,2146.597232,2911.162892,9400.615463
5387.331574,2960.823768,3140.991542,10362.883188
5387.331897,4145.153275,3524.039291,9548.656652
5387.332220,4589.276840,3524.039291,9030.512492
5387.332543,4293.194464,4136.915689,8586.388927
5387.332865,1924.535449,2911.162892,9696.697840
5387.333188,962.267725,2068.457845,10066.800811
5387.333511,1258.350101,1838.629195,9474.636058
5387.333834,0.000000,1455.581446,8956.491898
5387.334157,-1110.308913,1225.752797,8882.471304
5387.334479,-296.082377,306.438199,10214.842000
5387.334802,888.247130,1225.752797,9400.615463
5387.335125,666.185348,2298.286494,7846.182985
5387.335448,0.000000,1225.752797,8364.327145
5387.335770,0.000000,536.266849,9400.615463
5387.336093,0.000000,1225.752797,9104.533087
5387.336416,888.247130,1762.019645,8290.306550
5387.336739,740.205942,2145.067394,8882.471304
5387.337062,518.144159,1225.752797,10214.842000
5387.337384,814.226536,1225.752797,9918.759623
5387.337707,1406.391290,1532.190996,9030.512492
5387.338030,1776.494261,1915.238745,8438.347739
5387.338353,2516.700203,2145.067394,9474.636058
5387.338675,4663.297435,2451.505594,9770.718434
5387.338998,5625.565159,3830.477490,8808.450710
5387.339321,4737.318029,4060.306139,8734.430116
5387.339644,4071.132681,2911.162892,10288.862594
5387.339966,3182.885551,2068.457845,11251.130318
5387.340289,2886.803174,2221.676944,11325.150913
5387.340612,2146.597232,2145.067394,10955.047942
5387.340935,-222.061783,612.876398,11473.192101
5387.341258,-1702.473667,383.047749,11325.150913
5387.341580,-666.185348,689.485948,9326.594869
5387.341903,666.185348,2374.896044,8142.265362
5387.342226,1628.453072,3294.210641,7624.121203
5387.342549,2664.741391,4443.353888,8808.450710
5387.342871,4885.359217,5132.839837,7994.224174
5387.343194,6069.688724,6128.763984,7105.977043
5387.343517,5773.606348,5975.544884,6735.874072
5387.343840,3849.070898,4903.011187,9252.574275
5387.344163,2368.659014,4136.915689,10584.944971
5387.344485,1924.535449,3064.381992,9992.780217
5387.344808,1184.329507,2145.067394,8956.491898
5387.345131,-296.082377,1608.800546,9844.739029
5387.345454,-1332.370696,1685.410096,10288.862594
5387.345776,-666.185348,2604.724693,9104.533087
5387.346099,1258.350101,3447.429741,7328.038826
5387.346422,2220.617826,3830.477490,6883.915261
5387.346745,1998.556043,4519.963438,8290.306550
5387.347068,2664.741391,4826.401637,8734.430116
5387.347390,3256.906145,5592.497135,7772.162391
5387.347713,3478.967927,5132.839837,8734.430116
5387.348036,3849.070898,4903.011187,10658.965565
5387.348359,2442.679609,4519.963438,11473.192101
5387.348681,3034.844362,4213.525239,10881.027347
5387.349004,3034.844362,3907.087040,10658.965565
5387.349327,1110.308913,2298.286494,10732.986159
5387.349650,370.102971,1455.581446,10658.965565
5387.349973,1480.411884,1302.362347,9030.512492
5387.350295,1850.514855,2757.943793,7624.121203
5387.350618,1480.411884,2528.115143,7994.224174
5387.350941,1702.473667,2374.896044,9400.615463
5387.351264,2738.761985,3524.039291,8216.285956
5387.351586,2220.617826,4596.572988,7698.141797
5387.351909,888.247130,3753.867940,9696.697840
5387.352232,592.164754,2528.115143,10955.047942
5387.352555,1036.288319,2374.896044,9992.780217
5387.352878,1184.329507,2604.724693,9400.615463
5387.353200,-888.247130,2298.286494,9844.739029
5387.353523,-1258.350101,689.485948,10140.821405
5387.353846,-296.082377,459.657299,8956.491898
5387.354169,0.000000,689.485948,7772.162391
5387.354491,962.267725,1302.362347,6735.874072
5387.354814,2368.659014,1915.238745,7994.224174
5387.355137,3701.029710,2757.943793,8512.368333
5387.355460,5477.523971,3524.039291,8956.491898
5387.355783,4663.297435,3600.648841,7920.203579
5387.356105,4293.194464,3677.258390,10214.842000
5387.356428,4219.173869,2911.162892,12065.356855
5387.356751,3849.070898,3217.601092,11547.212695
5387.357074,3404.947333,2987.772442,11029.068536
5387.357396,1184.329507,2145.067394,10658.965565
5387.357719,-148.041188,536.266849,10732.986159
5387.358042,-444.123565,-76.609550,8882.471304
5387.358365,-1110.308913,612.876398,7772.162391
5387.358687,-296.082377,1072.533697,7920.203579
5387.359010,222.061783,1838.629195,7920.203579
5387.359333,2220.617826,1991.848295,8956.491898
5387.359656,2590.720797,2681.334243,7772.162391
5387.359979,1554.432478,2757.943793,8290.306550
5387.360301,1258.350101,2451.505594,11177.109724
5387.360624,1406.391290,2451.505594,12139.377449
5387.360947,666.185348,2374.896044,11843.295072
5387.361270,1184.329507,1685.410096,10436.903782
5387.361592,-740.205942,153.219100,10807.006753
5387.361915,-1924.535449,0.000000,9770.718434
5387.362238,-148.041188,612.876398,9844.739029
5387.362561,592.164754,2374.896044,6957.935855
5387.362884,2368.659014,3217.601092,7550.100608
5387.363206,3849.070898,3753.867940,7994.224174
5387.363529,4737.318029,3830.477490,6735.874072
5387.363852,5773.606348,4290.134789,6883.915261
5387.364175,4219.173869,4443.353888,8808.450710
5387.364497,3256.906145,3524.039291,11177.109724
5387.364820,2886.803174,2757.943793,12287.418637
5387.365143,1628.453072,3064.381992,10881.027347
5387.365466,1406.391290,2145.067394,10214.842000
5387.365789,-296.082377,766.095498,10436.903782
5387.366111,0.000000,1149.143247,10214.842000
5387.366434,1332.370696,1608.800546,8882.471304
5387.366757,518.144159,2145.067394,7179.997637
5387.367080,2442.679609,2221.676944,5995.668130
5387.367403,3478.967927,2374.896044,7105.977043
5387.367725,2294.638420,3830.477490,6883.915261
5387.368048,3256.906145,4136.915689,7698.141797
5387.368371,1776.494261,3907.087040,9622.677246
5387.368694,2072.576638,3677.258390,10288.862594
5387.369017,2812.782580,3217.601092,10214.842000
5387.369339,518.144159,2604.724693,10584.944971
5387.369662,-296.082377,995.924147,10807.006753
5387.369985,-1480.411884,919.314598,10510.924376
5387.370308,-814.226536,689.485948,9326.594869
5387.370631,0.000000,1532.190996,9474.636058
5387.370954,-1628.453072,1225.752797,7550.100608
5387.371276,-2294.638420,995.924147,9252.574275
5387.371599,-592.164754,1685.410096,7772.162391
5387.371922,1924.535449,2298.286494,7624.121203
5387.372245,2072.576638,3370.820191,6883.915261
5387.372568,1406.391290,3064.381992,9548.656652
5387.372890,1480.411884,2987.772442,10288.862594
5387.373213,1776.494261,3140.991542,9474.636058
5387.373536,2146.597232,2451.505594,8438.347739
5387.373859,-814.226536,1455.581446,9252.574275
5387.374182,-2590.720797,0.000000,10658.965565
5387.374504,-2886.803174,-842.705048,10214.842000
5387.374827,-2738.761985,-842.705048,8216.285956
5387.375150,-3182.885551,-1149.143247,8808.450710
5387.375473,-4663.297435,-1532.190996,9326.594869
5387.375796,-3849.070898,-1838.629195,10066.800811
5387.376118,-1628.453072,-612.876398,7402.059420
5387.376441,-1184.329507,383.047749,7698.141797
5387.376764,-1406.391290,-1149.143247,8438.347739
5387.377087,-1554.432478,-536.266849,11103.089130
5387.377410,-666.185348,766.095498,10658.965565
5387.377732,740.205942,229.828649,9474.636058
5387.378055,296.082377,-766.095498,10288.862594
5387.378378,-740.205942,-1685.410096,10436.903782
5387.378701,0.000000,-2528.115143,9548.656652
5387.379024,814.226536,-1532.190996,8956.491898
5387.379346,444.123565,-306.438199,9400.615463
5387.379669,444.123565,-1072.533697,9770.718434
5387.379992,1332.370696,-1225.752797,9474.636058
5387.380315,1702.473667,-536.266849,8512.368333
5387.380638,2072.576638,0.000000,8364.327145
5387.380961,2590.720797,459.657299,10362.883188
5387.381283,2368.659014,306.438199,11547.212695
5387.381606,1184.329507,306.438199,9918.759623
5387.381929,666.185348,-306.438199,9696.697840
5387.382252,-296.082377,-612.876398,8216.285956
5387.382575,518.144159,-1072.533697,10066.800811
5387.382897,-296.082377,-766.095498,9770.718434
5387.383220,-2220.617826,-1455.581446,9474.636058
5387.383543,-2738.761985,-1915.238745,9104.533087
5387.383866,-1258.350101,-919.314598,8956.491898
5387.384189,-962.267725,-536.266849,9178.553681
5387.384511,-1480.411884,-153.219100,7920.203579
5387.384834,-2294.638420,0.000000,10214.842000
5387.385157,222.061783,689.485948,9400.615463
5387.385480,1332.370696,1378.971896,9622.677246
5387.385803,1258.350101,2145.067394,9474.636058
5387.386125,-962.267725,1608.800546,10658.965565
5387.386448,-1406.391290,0.000000,10584.944971
5387.386771,592.164754,1532.190996,9622.677246
5387.387094,1924.535449,2451.505594,9400.615463
5387.387417,1036.288319,2681.334243,8290.306550
5387.387739,0.000000,1838.629195,9696.697840
5387.388062,1554.432478,2604.724693,7920.203579
5387.388385,2590.720797,3524.039291,7550.100608
5387.388708,2368.659014,3524.039291,6735.874072
5387.389031,444.123565,3064.381992,9326.594869
5387.389353,-666.185348,2604.724693,10288.862594
5387.389676,222.061783,3294.210641,9178.553681
5387.389999,1184.329507,3447.429741,7402.059420
5387.390322,-148.041188,2681.334243,8438.347739
5387.390645,-2664.741391,1532.190996,9252.574275
5387.390968,-1850.514855,1915.238745,9992.780217
5387.391290,-740.205942,2834.553343,7179.997637
5387.391613,-740.205942,2298.286494,7698.141797
5387.391936,-2368.659014,1532.190996,8438.347739
5387.392259,-3330.926739,919.314598,9992.780217
5387.392582,-2294.638420,1072.533697,6513.812290
5387.392904,-2146.597232,842.705048,7254.018232
5387.393227,-2072.576638,536.266849,8882.471304
5387.393550,-2072.576638,-383.047749,9844.739029
5387.393873,-3108.864956,0.000000,10066.800811
5387.394196,-296.082377,306.438199,7846.182985
5387.394518,-1776.494261,0.000000,10362.883188
5387.394841,-1184.329507,0.000000,9770.718434
5387.395164,-814.226536,-919.314598,11621.233289
5387.395487,-444.123565,-383.047749,9030.512492
5387.395810,1480.411884,-459.657299,9696.697840
5387.396132,2664.741391,-153.219100,9696.697840
5387.396455,2590.720797,306.438199,10658.965565
5387.396778,2220.617826,536.266849,10214.842000
5387.397101,2072.576638,229.828649,9918.759623
5387.397424,2590.720797,153.219100,10066.800811
5387.397746,2590.720797,-689.485948,9252.574275
5387.398069,1850.514855,-995.924147,9104.533087
5387.398392,1036.288319,-919.314598,9030.512492
5387.398715,-444.123565,-1608.800546,9844.739029
5387.399038,296.082377,-1455.581446,8882.471304
5387.399360,-148.041188,-1149.143247,8882.471304
5387.399683,-2072.576638,-1838.629195,8586.388927
5387.400006,-1850.514855,-3140.991542,9104.533087
5387.400329,-1554.432478,-2834.553343,8586.388927
5387.400652,-888.247130,-1991.848295,9918.759623
5387.400975,-2960.823768,-2145.067394,9548.656652
5387.401297,-4737.318029,-3140.991542,11473.192101
5387.401620,-962.267725,-2298.286494,8290.306550
5387.401943,0.000000,-1762.019645,11029.068536
5387.402266,592.164754,-919.314598,8068.244768
5387.402589,-962.267725,-919.314598,11991.336260
5387.402911,-444.123565,-766.095498,10214.842000
5387.403234,518.144159,-919.314598,11177.109724
5387.403557,2368.659014,536.266849,9400.615463
5387.403880,814.226536,536.266849,10658.965565
5387.404203,-296.082377,76.609550,11177.109724
5387.404525,1850.514855,0.000000,10732.986159
5387.404848,3627.009116,1915.238745,8512.368333
5387.405171,2664.741391,1915.238745,8808.450710
5387.405494,74.020594,2145.067394,10510.924376
5387.405817,-666.185348,1685.410096,11103.089130
5387.406139,1850.514855,2604.724693,8068.244768
5387.406462,2220.617826,3447.429741,7772.162391
5387.406785,296.082377,3294.210641,8808.450710
5387.407108,-2812.782580,1762.019645,10140.821405
5387.407431,-1998.556043,1685.410096,9400.615463
5387.407753,-814.226536,3064.381992,6513.812290
5387.408076,-222.061783,3217.601092,7402.059420
5387.408399,-2812.782580,2757.943793,8882.471304
5387.408722,-2220.617826,2451.505594,9474.636058
5387.409045,-1110.308913,2757.943793,6365.771101
5387.409367,-222.061783,3294.210641,5551.544565
5387.409690,-2294.638420,2451.505594,7105.977043
5387.410013,-3256.906145,2298.286494,7994.224174
5387.410336,-2220.617826,2528.115143,8956.491898
5387.410659,-444.123565,2834.553343,6587.832884
5387.410982,-888.247130,2374.896044,8882.471304
5387.411304,-1184.329507,2451.505594,9252.574275
5387.411627,-1554.432478,1225.752797,11399.171507
5387.411950,-148.041188,1225.752797,8808.450710
5387.412273,0.000000,1991.848295,10436.903782
5387.412596,1036.288319,1608.800546,10658.965565
5387.412918,962.267725,1302.362347,11769.274478
5387.413241,888.247130,1762.019645,10066.800811
5387.413564,1998.556043,1991.848295,9178.553681
5387.413887,4441.235652,2374.896044,8956.491898
5387.414210,3256.906145,2451.505594,9400.615463
5387.414532,2294.638420,1838.629195,9992.780217
5387.414855,666.185348,1149.143247,9770.718434
5387.415178,740.205942,229.828649,9104.533087
5387.415501,1110.308913,-689.485948,9696.697840
5387.415824,222.061783,-459.657299,9622.677246
5387.416146,-1036.288319,-1608.800546,11399.171507
5387.416469,-1480.411884,-1915.238745,10436.903782
5387.416792,-666.185348,-1378.971896,10510.924376
5387.417115,1258.350101,-995.924147,9326.594869
5387.417438,-444.123565,-919.314598,8734.430116
5387.417760,-1776.494261,-1455.581446,9326.594869
5387.418083,0.000000,-1149.143247,8364.327145
5387.418406,148.041188,-153.219100,8512.368333
5387.418729,-296.082377,-383.047749,7920.203579
5387.419052,-1924.535449,-1762.019645,9548.656652
5387.419375,-2960.823768,-2604.724693,9548.656652
5387.419697,-666.185348,-1915.238745,9992.780217
5387.420020,296.082377,-1608.800546,9548.656652
5387.420343,-962.267725,-1608.800546,9178.553681
5387.420666,-1332.370696,-2221.676944,10807.006753
5387.420989,74.020594,-1455.581446,9992.780217
5387.421311,1702.473667,-919.314598,8956.491898
5387.421634,2146.597232,-842.705048,7698.141797
5387.421957,444.123565,-995.924147,10658.965565
5387.422280,-296.082377,-459.657299,11399.171507
5387.422603,592.164754,306.438199,10881.027347
5387.422925,1480.411884,612.876398,8956.491898
5387.423248,-222.061783,383.047749,9844.739029
5387.423571,-2516.700203,229.828649,10658.965565
5387.423894,-1406.391290,76.609550,9844.739029
5387.424217,-444.123565,1072.533697,9178.553681
5387.424539,-1332.370696,1149.143247,8438.347739
5387.424862,-2442.679609,459.657299,9992.780217
5387.425185,-1628.453072,842.705048,8586.388927
5387.425508,0.000000,2298.286494,7105.977043
5387.425831,888.247130,1838.629195,7328.038826
5387.426153,-444.123565,2145.067394,9030.512492
5387.426476,-888.247130,2068.457845,9918.759623
5387.426799,0.000000,2451.505594,8216.285956
5387.427122,592.164754,2834.553343,8660.409521
5387.427445,-444.123565,2604.724693,9104.533087
5387.427767,-962.267725,1991.848295,9622.677246
5387.428090,-962.267725,2298.286494,9548.656652
5387.428413,-518.144159,3064.381992,7402.059420
5387.428736,-740.205942,2451.505594,8364.327145
5387.429059,-814.226536,2068.457845,8364.327145
5387.429382,-444.123565,2145.067394,9400.615463
5387.429704,-962.267725,2528.115143,7328.038826
5387.430027,-296.082377,2451.505594,8660.409521
5387.430350,-1110.308913,1991.848295,9474.636058
5387.430673,-1554.432478,1302.362347,9178.553681
5387.430996,-1258.350101,1149.143247,9474.636058
5387.431318,-962.267725,1532.190996,7698.141797
5387.431641,-888.247130,1072.533697,10066.800811
5387.431964,-592.164754,1378.971896,9474.636058
5387.432287,-740.205942,1532.190996,9622.677246
5387.432610,592.164754,1378.971896,8364.327145
5387.432932,2072.576638,1608.800546,7476.080014
5387.433255,2960.823768,1532.190996,9622.677246
5387.433578,3701.029710,2221.676944,9474.636058
5387.433901,2146.597232,1149.143247,9770.718434
5387.434224,1184.329507,229.828649,8808.450710
5387.434546,1406.391290,0.000000,11103.089130
5387.434869,962.267725,383.047749,9844.739029
5387.435192,1480.411884,153.219100,10140.821405
5387.435515,0.000000,-612.876398,10510.924376
5387.435838,-444.123565,-842.705048,10140.821405
5387.436160,814.226536,-1532.190996,9474.636058
5387.436483,814.226536,-1072.533697,8068.244768
5387.436806,-1554.432478,-1225.752797,9400.615463
5387.437129,-1998.556043,-1378.971896,9474.636058
5387.437452,148.041188,-1149.143247,9474.636058
5387.437774,814.226536,-229.828649,7772.162391
5387.438097,0.000000,-919.314598,8216.285956
5387.438420,-1628.453072,-2221.676944,9844.739029
5387.438743,-814.226536,-1762.019645,10214.842000
5387.439066,74.020594,-919.314598,9474.636058
5387.439389,444.123565,-842.705048,9622.677246
5387.439711,-2072.576638,-2068.457845,11399.171507
5387.440034,-2812.782580,-2604.724693,11843.295072
5387.440357,-888.247130,-1915.238745,9770.718434
5387.440680,-222.061783,-1685.410096,9474.636058
5387.441003,-1184.329507,-1225.752797,9696.697840
5387.441325,-2368.659014,-689.485948,11695.253884
5387.441648,-1036.288319,-459.657299,10510.924376
5387.441971,296.082377,0.000000,7994.224174
5387.442294,0.000000,306.438199,7772.162391
5387.442617,-1184.329507,-459.657299,9474.636058
5387.442939,-1628.453072,-229.828649,11251.130318
5387.443262,0.000000,842.705048,8660.409521
5387.443585,666.185348,1149.143247,8290.306550
5387.443908,-666.185348,459.657299,8512.368333
5387.444231,-1850.514855,153.219100,9918.759623
5387.444553,-1406.391290,919.314598,8438.347739
5387.444876,1258.350101,1762.019645,7179.997637
5387.445199,518.144159,1072.533697,8290.306550
5387.445522,-592.164754,1072.533697,9992.780217
5387.445845,-666.185348,2145.067394,11769.274478
5387.446167,0.000000,2604.724693,9252.574275
5387.446490,444.123565,2298.286494,8438.347739
5387.446813,148.041188,1532.190996,9548.656652
5387.447136,-222.061783,1685.410096,9400.615463
5387.447459,-592.164754,2911.162892,8808.450710
5387.447781,74.020594,2681.334243,7179.997637
5387.448104,-1036.288319,1685.410096,8734.430116
5387.448427,-1406.391290,1532.190996,7698.141797
5387.448750,-1036.288319,1455.581446,8586.388927
5387.449073,-592.164754,1455.581446,7105.977043
5387.449396,-370.102971,1838.629195,8512.368333
5387.449718,370.102971,1149.143247,9474.636058
5387.450041,888.247130,2145.067394,9548.656652
5387.450364,222.061783,2298.286494,8956.491898
5387.450687,1110.308913,2221.676944,8734.430116
5387.451010,2590.720797,2221.676944,10362.883188
5387.451332,2368.659014,2911.162892,9844.739029
5387.451655,1332.370696,2298.286494,9770.718434
5387.451978,666.185348,1838.629195,9474.636058
5387.452301,888.247130,1378.971896,9844.739029
5387.452624,2368.659014,1455.581446,9548.656652
5387.452946,1702.473667,1532.190996,8438.347739
5387.453269,444.123565,1455.581446,8290.306550
5387.453592,740.205942,459.657299,9326.594869
5387.453915,1554.432478,1072.533697,8882.471304
5387.454238,1776.494261,1608.800546,7698.141797
5387.454560,74.020594,459.657299,8438.347739
5387.454883,-1332.370696,-306.438199,10362.883188
5387.455206,-666.185348,-229.828649,9400.615463
5387.455529,0.000000,-306.438199,9400.615463
5387.455852,-592.164754,229.828649,7920.203579
5387.456174,-1850.514855,-1685.410096,10881.027347
5387.456497,-2960.823768,-1608.800546,10288.862594
5387.456820,-1702.473667,-1302.362347,9992.780217
5387.457143,-1184.329507,-1302.362347,9474.636058
5387.457466,-1850.514855,-2068.457845,10140.821405
5387.457788,-3182.885551,-2604.724693,11917.315666
5387.458111,-1702.473667,-2757.943793,9918.759623
5387.458434,-148.041188,-1378.971896,9178.553681
5387.458757,-518.144159,-1455.581446,8882.471304
5387.459080,-1406.391290,-1838.629195,10658.965565
5387.459403,-1480.411884,-1762.019645,10510.924376
5387.459725,74.020594,-842.705048,9030.512492
5387.460048,814.226536,-919.314598,9104.533087
5387.460371,-814.226536,-1455.581446,9548.656652
5387.460694,-2146.597232,-1302.362347,10955.047942
5387.461017,-370.102971,-612.876398,10066.800811
5387.461339,222.061783,0.000000,8290.306550
5387.461662,-444.123565,-306.438199,9770.718434
5387.461985,1258.350101,0.000000,9252.574275
5387.462308,1184.329507,0.000000,10584.944971
5387.462631,2590.720797,1455.581446,7031.956449
5387.462953,1702.473667,1072.533697,9696.697840
5387.463276,518.144159,459.657299,9252.574275
5387.463599,-962.267725,459.657299,10955.047942
5387.463922,-370.102971,1149.143247,9104.533087
5387.464245,0.000000,1072.533697,8586.388927
5387.464567,-814.226536,536.266849,8660.409521
5387.464890,-2220.617826,229.828649,9548.656652
5387.465213,-1998.556043,1762.019645,8956.491898
5387.465538,-1702.473667,1838.629195,8142.265362
5387.465860,-814.226536,1838.629195,8290.306550
5387.466183,-592.164754,2298.286494,9326.594869
5387.466506,148.041188,2451.505594,9030.512492
5387.466828,-1258.350101,2068.457845,7994.224174
5387.467151,-592.164754,1838.629195,7476.080014
5387.467474,0.000000,1685.410096,9474.636058
5387.467797,74.020594,2068.457845,8808.450710
5387.468119,0.000000,2681.334243,9622.677246
5387.468442,-444.123565,2604.724693,9400.615463
5387.468765,-444.123565,2451.505594,9770.718434
5387.469087,2072.576638,2451.505594,8882.471304
5387.469410,2516.700203,2911.162892,8882.471304
5387.469733,296.082377,3753.867940,10658.965565
5387.470055,518.144159,3294.210641,10584.944971
5387.470378,1776.494261,2374.896044,10214.842000
5387.470701,2220.617826,2604.724693,6809.894666
5387.471024,962.267725,2374.896044,8216.285956
5387.471346,-888.247130,2298.286494,8882.471304
5387.471669,518.144159,2298.286494,9178.553681
5387.471992,1628.453072,1685.410096,7254.018232
5387.472314,296.082377,1762.019645,6883.915261
5387.472637,-2294.638420,689.485948,9474.636058
5387.472960,-2664.741391,0.000000,9474.636058
5387.473282,-1110.308913,459.657299,9178.553681
5387.473605,1110.308913,1455.581446,9178.553681
5387.473928,-814.226536,383.047749,10066.800811
5387.474251,-2146.597232,-306.438199,11547.212695
5387.474573,-814.226536,-995.924147,9992.780217
5387.474896,-222.061783,-1762.019645,9326.594869
5387.475219,-2442.679609,-2298.286494,9252.574275
5387.475541,-2886.803174,-3370.820191,11251.130318
5387.475864,-2664.741391,-3294.210641,11251.130318
5387.476187,74.020594,-1915.238745,8734.430116
5387.476509,666.185348,-1532.190996,8142.265362
5387.476832,-592.164754,-2068.457845,8882.471304
5387.477155,-888.247130,-1685.410096,10140.821405
5387.477478,1258.350101,-459.657299,8882.471304
5387.477800,1480.411884,-306.438199,8882.471304
5387.478123,1110.308913,-229.828649,10066.800811
5387.478446,-444.123565,-919.314598,12139.377449
5387.478768,74.020594,-1225.752797,10658.965565
5387.479091,740.205942,-995.924147,9252.574275
5387.479414,222.061783,-842.705048,9178.553681
5387.479736,518.144159,-1532.190996,10140.821405
5387.480059,-1110.308913,-1302.362347,10881.027347
5387.480382,592.164754,0.000000,9474.636058
5387.480705,1924.535449,383.047749,8142.265362
5387.481027,296.082377,306.438199,9474.636058
5387.481350,888.247130,995.924147,8734.430116
5387.481673,-296.082377,766.095498,9696.697840
5387.481995,1258.350101,2451.505594,7179.997637
5387.482318,1110.308913,1685.410096,10288.862594
5387.482641,962.267725,1608.800546,9622.677246
5387.482963,518.144159,1915.238745,11103.089130
5387.483286,222.061783,1915.238745,7920.203579
5387.483609,-444.123565,1072.533697,8438.347739
5387.483932,-1184.329507,689.485948,10214.842000
5387.484254,-1628.453072,995.924147,8808.450710
5387.484577,-2516.700203,1149.143247,10140.821405
5387.484900,-2368.659014,1685.410096,8956.491898
5387.485222,-3627.009116,995.924147,9252.574275
5387.485545,-1406.391290,1838.629195,7994.224174
5387.485868,-2294.638420,2911.162892,8438.347739
5387.486190,-2886.803174,2757.943793,7698.141797
5387.486513,-1184.329507,3217.601092,9030.512492
5387.486836,-222.061783,2681.334243,7994.224174
5387.487159,666.185348,2987.772442,7105.977043
5387.487481,-1036.288319,2528.115143,7624.121203
5387.487804,-1110.308913,1838.629195,8438.347739
5387.488127,1036.288319,1378.971896,8808.450710
5387.488449,666.185348,2374.896044,7994.224174
5387.488772,1258.350101,2451.505594,8364.327145
5387.489095,-222.061783,1838.629195,10214.842000
5387.489418,740.205942,1838.629195,9770.718434
5387.489740,2368.659014,2145.067394,10288.862594
5387.490063,1924.535449,2221.676944,9326.594869
5387.490386,444.123565,1685.410096,11399.171507
5387.490708,-740.205942,1072.533697,11991.336260
5387.491031,1036.288319,689.485948,10140.821405
5387.491354,1702.473667,1225.752797,7994.224174
5387.491676,888.247130,459.657299,7846.182985
5387.491999,-1258.350101,-459.657299,10066.800811
5387.492322,-444.123565,-306.438199,8808.450710
5387.492645,444.123565,-229.828649,8364.327145
5387.492967,518.144159,0.000000,7476.080014
5387.493290,-1998.556043,-1455.581446,9992.780217
5387.493613,-2368.659014,-1685.410096,11177.109724
5387.493935,-888.247130,-1302.362347,10214.842000
5387.494258,0.000000,-995.924147,9104.533087
5387.494581,-1184.329507,-1608.800546,10362.883188
5387.494903,-1776.494261,-1455.581446,11843.295072
5387.495226,296.082377,-1685.410096,10584.944971
5387.495549,2516.700203,-536.266849,7698.141797
5387.495872,2220.617826,0.000000,9252.574275
5387.496194,1258.350101,-612.876398,10140.821405
5387.496517,-148.041188,-1302.362347,11103.089130
5387.496840,1702.473667,-612.876398,8290.306550
5387.497162,3404.947333,-842.705048,8216.285956
5387.497485,1628.453072,-536.266849,9474.636058
5387.497808,444.123565,0.000000,11473.192101
5387.498130,444.123565,-153.219100,10955.047942
5387.498453,888.247130,153.219100,8290.306550
5387.498776,444.123565,0.000000,9178.553681
5387.499099,-296.082377,-306.438199,9992.780217
5387.499421,-1110.308913,306.438199,11325.150913
5387.499744,-1924.535449,689.485948,8882.471304
5387.500067,-296.082377,76.609550,8364.327145
5387.500389,148.041188,306.438199,8068.244768
5387.500712,-1554.432478,1225.752797,9622.677246
5387.501035,-1258.350101,2145.067394,9252.574275
5387.501357,-1776.494261,1532.190996,8660.409521
5387.501680,-1184.329507,919.314598,7920.203579
5387.502003,-1554.432478,842.705048,9400.615463
5387.502326,-3404.947333,459.657299,8956.491898
5387.502648,-3182.885551,995.924147,9918.759623
5387.502971,-2146.597232,1225.752797,9474.636058
5387.503294,-148.041188,995.924147,9474.636058
5387.503616,-148.041188,1608.800546,8068.244768
5387.503939,-1628.453072,1991.848295,9030.512492
5387.504262,-1110.308913,2068.457845,8882.471304
5387.504584,740.205942,1378.971896,8586.388927
5387.504907,1332.370696,2451.505594,7846.182985
5387.505230,666.185348,2451.505594,8734.430116
5387.505553,-1702.473667,1302.362347,10510.924376
5387.505875,-592.164754,1378.971896,9474.636058
5387.506198,740.205942,1608.800546,8586.388927
5387.506521,1184.329507,2145.067394,7254.018232
5387.506843,518.144159,2451.505594,9770.718434
5387.507166,0.000000,2451.505594,10288.862594
5387.507489,2220.617826,1685.410096,9252.574275
5387.507811,2072.576638,1149.143247,7846.182985
5387.508134,-740.205942,229.828649,9474.636058
5387.508457,-2072.576638,-1225.752797,11177.109724
5387.508780,-1332.370696,-612.876398,10436.903782
5387.509102,1184.329507,612.876398,8660.409521
5387.509425,1332.370696,459.657299,7772.162391
5387.509748,-1036.288319,229.828649,8808.450710
5387.510070,-814.226536,0.000000,8734.430116
5387.510393,1184.329507,383.047749,7476.080014
5387.510716,1924.535449,1149.143247,7772.162391
5387.511039,444.123565,1149.143247,8882.471304
5387.511361,-888.247130,76.609550,11769.274478
5387.511684,74.020594,-536.266849,8808.450710
5387.512007,666.185348,-459.657299,7920.203579
5387.512329,74.020594,-995.924147,8512.368333
5387.512652,-1258.350101,-1838.629195,11325.150913
5387.512975,-962.267725,-1608.800546,11843.295072
5387.513297,370.102971,-842.705048,9696.697840
5387.513620,888.247130,-1302.362347,9548.656652
5387.513943,-962.267725,-1302.362347,9474.636058
5387.514266,-1998.556043,-1685.410096,11621.233289
5387.514588,592.164754,-919.314598,10214.842000
5387.514911,1184.329507,0.000000,9400.615463
5387.515234,1184.329507,536.266849,9696.697840
5387.515556,296.082377,-229.828649,10658.965565
5387.515879,148.041188,-306.438199,9992.780217
5387.516202,1628.453072,842.705048,7254.018232
5387.516524,2664.741391,-229.828649,9030.512492
5387.516847,1850.514855,229.828649,9992.780217
5387.517170,0.000000,-459.657299,10881.027347
5387.517493,-666.185348,-842.705048,9252.574275
5387.517815,-1332.370696,-536.266849,8882.471304
5387.518138,-1036.288319,0.000000,10214.842000
5387.518461,-1332.370696,612.876398,10658.965565
5387.518783,-1850.514855,0.000000,9992.780217
5387.519106,-1702.473667,1225.752797,9178.553681
5387.519429,-1776.494261,536.266849,8734.430116
5387.519751,-592.164754,1302.362347,8956.491898
5387.520074,-1110.308913,1762.019645,7402.059420
5387.520397,-1776.494261,1915.238745,8290.306550
5387.520720,-1036.288319,1762.019645,7624.121203
5387.521042,0.000000,1378.971896,7624.121203
5387.521365,-148.041188,1762.019645,5921.647536
5387.521688,-1702.473667,1225.752797,8216.285956
5387.522010,-2368.659014,1225.752797,8512.368333
5387.522333,-1554.432478,1302.362347,9992.780217
5387.522656,0.000000,1915.238745,10140.821405
5387.522978,-148.041188,1685.410096,10732.986159
5387.523301,-2294.638420,1455.581446,11029.068536
5387.523624,-1924.535449,842.705048,10732.986159
5387.523947,1184.329507,1225.752797,9474.636058
5387.524269,2368.659014,1991.848295,7772.162391
5387.524592,148.041188,1762.019645,8660.409521
5387.524915,-444.123565,1302.362347,9844.739029
5387.525237,814.226536,919.314598,8660.409521
5387.525560,1924.535449,2145.067394,7179.997637
5387.525883,2368.659014,1838.629195,7105.977043
5387.526205,-814.226536,612.876398,10362.883188
5387.526528,-888.247130,919.314598,9770.718434
5387.526851,2072.576638,1302.362347,9400.615463
5387.527174,518.144159,1149.143247,8734.430116
5387.527496,-888.247130,919.314598,9178.553681
5387.527819,-1036.288319,306.438199,10066.800811
5387.528142,1554.432478,842.705048,8734.430116
5387.528464,3552.988522,1225.752797,7994.224174
5387.528787,1258.350101,612.876398,8882.471304
5387.529110,0.000000,-229.828649,11621.233289
5387.529432,-148.041188,-383.047749,10732.986159
5387.529755,1184.329507,229.828649,8586.388927
5387.530078,1850.514855,-612.876398,8512.368333
5387.530401,74.020594,-459.657299,9992.780217
5387.530723,-740.205942,-1378.971896,11547.212695
5387.531046,592.164754,-459.657299,9400.615463
5387.531369,-148.041188,-1072.533697,8512.368333
5387.531691,-518.144159,-842.705048,8364.327145
5387.532014,-1924.535449,-1685.410096,11399.171507
5387.532337,-1850.514855,-1225.752797,10140.821405
5387.532659,-1110.308913,-1378.971896,8586.388927
5387.532982,-814.226536,-1532.190996,9178.553681
5387.533305,-814.226536,-1072.533697,9918.759623
5387.533628,-2516.700203,-919.314598,10510.924376
5387.533950,-1184.329507,-153.219100,8882.471304
5387.534273,-518.144159,-306.438199,9696.697840
5387.534596,148.041188,0.000000,8734.430116
5387.534918,148.041188,153.219100,10066.800811
5387.535241,296.082377,1149.143247,9992.780217
5387.535564,518.144159,1991.848295,9326.594869
5387.535887,1406.391290,919.314598,8512.368333
5387.536209,1776.494261,842.705048,10140.821405
5387.536532,888.247130,1608.800546,9104.533087
5387.536855,518.144159,1225.752797,9474.636058
5387.537177,1628.453072,1762.019645,8808.450710
5387.537500,1258.350101,1762.019645,11029.068536
5387.537823,1110.308913,1149.143247,8290.306550
5387.538145,-592.164754,1608.800546,9030.512492
5387.538468,-1480.411884,1685.410096,8734.430116
5387.538791,-740.205942,1225.752797,9104.533087
5387.539114,666.185348,2145.067394,9178.553681
5387.539436,-666.185348,2451.505594,9474.636058
5387.539759,-2368.659014,2681.334243,8956.491898
5387.540082,-1036.288319,1072.533697,8438.347739
5387.540404,-444.123565,1838.629195,7920.203579
5387.540727,-296.082377,2145.067394,7550.100608
5387.541050,-2368.659014,1072.533697,9474.636058
5387.541372,-3627.009116,0.000000,10955.047942
5387.541695,-2368.659014,76.609550,9252.574275
5387.542018,-1184.329507,536.266849,7179.997637
5387.542341,-1924.535449,229.828649,8808.450710
5387.542663,-3330.926739,689.485948,11103.089130
5387.542986,-1332.370696,536.266849,9770.718434
5387.543309,2072.576638,1378.971896,8512.368333
5387.543631,1924.535449,2451.505594,7550.100608
5387.543954,296.082377,2145.067394,8586.388927
5387.544277,888.247130,2068.457845,10881.027347
5387.544599,3034.844362,2681.334243,9104.533087
5387.544922,3478.967927,2604.724693,8734.430116
5387.545245,2368.659014,1378.971896,8882.471304
5387.545568,74.020594,76.609550,11621.233289
5387.545890,444.123565,306.438199,9622.677246
5387.546213,1924.535449,0.000000,9252.574275
5387.546536,962.267725,0.000000,8586.388927
5387.546858,-740.205942,-229.828649,10584.944971
5387.547181,-1554.432478,-842.705048,11399.171507
5387.547504,-592.164754,-459.657299,9030.512492
5387.547826,222.061783,536.266849,7994.224174
5387.548149,-370.102971,76.609550,9252.574275
5387.548472,-962.267725,-229.828649,10584.944971
5387.548795,-296.082377,0.000000,9474.636058
5387.549117,814.226536,1225.752797,6957.935855
5387.549440,1406.391290,536.266849,8290.306550
5387.549763,-1036.288319,-459.657299,9474.636058
5387.550085,-1998.556043,-842.705048,9992.780217
5387.550408,-222.061783,-919.314598,7994.224174
5387.550731,0.000000,-766.095498,9400.615463
5387.551053,666.185348,-1149.143247,9696.697840
5387.551376,-296.082377,-1225.752797,12065.356855
5387.551699,-444.123565,-459.657299,10140.821405
5387.552022,296.082377,-459.657299,9474.636058
5387.552344,518.144159,0.000000,9992.780217
5387.552667,1184.329507,76.609550,11325.150913
5387.552990,666.185348,995.924147,10214.842000
5387.553312,0.000000,919.314598,9326.594869
5387.553635,1184.329507,536.266849,8808.450710
5387.553958,888.247130,229.828649,8660.409521
5387.554280,-222.061783,1149.143247,7105.977043
5387.554603,-666.185348,1149.143247,9030.512492
5387.554926,-1036.288319,919.314598,8142.265362
5387.555249,-592.164754,919.314598,9178.553681
5387.555571,370.102971,919.314598,7994.224174
5387.555894,-444.123565,919.314598,9400.615463
5387.556217,-2516.700203,0.000000,9030.512492
5387.556539,-444.123565,612.876398,10140.821405
5387.556862,74.020594,1225.752797,10288.862594
5387.557185,0.000000,2374.896044,9104.533087
5387.557507,-2146.597232,1149.143247,10140.821405
5387.557830,-1332.370696,229.828649,9474.636058
5387.558153,222.061783,1302.362347,9548.656652
5387.558476,-296.082377,2451.505594,8586.388927
5387.558798,-1554.432478,1302.362347,9326.594869
5387.559121,-3997.112087,0.000000,9770.718434
5387.559444,-2812.782580,0.000000,8438.347739
5387.559766,148.041188,459.657299,7698.141797
5387.560089,-888.247130,1838.629195,7994.224174
5387.560412,-2590.720797,689.485948,10881.027347
5387.560735,-1628.453072,-689.485948,10732.986159
5387.561057,444.123565,1149.143247,8882.471304
5387.561380,962.267725,1685.410096,8068.244768
5387.561703,-296.082377,1072.533697,9622.677246
5387.562025,-1258.350101,766.095498,11991.336260
5387.562348,518.144159,995.924147,9770.718434
5387.562671,2960.823768,1608.800546,7772.162391
5387.562993,2738.761985,1302.362347,7624.121203
5387.563316,0.000000,919.314598,9400.615463
5387.563639,74.020594,306.438199,9104.533087
5387.563962,2368.659014,1378.971896,7846.182985
5387.564284,2738.761985,1302.362347,7550.100608
5387.564607,1628.453072,842.705048,9400.615463
5387.564930,-592.164754,-153.219100,11991.336260
5387.565252,444.123565,0.000000,8882.471304
5387.565575,1036.288319,383.047749,7994.224174
5387.565898,444.123565,229.828649,7920.203579
5387.566220,-1184.329507,-612.876398,11029.068536
5387.566543,-2664.741391,-766.095498,10140.821405
5387.566865,-518.144159,0.000000,8068.244768
5387.567188,1036.288319,-306.438199,7624.121203
5387.567511,-1332.370696,766.095498,9030.512492
5387.567833,-1776.494261,-229.828649,10955.047942
5387.568156,-1554.432478,76.609550,10140.821405
5387.568479,-222.061783,0.000000,7550.100608
5387.568801,296.082377,-766.095498,9770.718434
5387.569124,-1110.308913,-919.314598,10436.903782
5387.569446,-740.205942,-1225.752797,9548.656652
5387.569769,-444.123565,-995.924147,7920.203579
5387.570092,148.041188,-919.314598,9696.697840
5387.570414,0.000000,-612.876398,10732.986159
5387.570737,-888.247130,-995.924147,10881.027347
5387.571060,-518.144159,-766.095498,10362.883188
5387.571382,222.061783,-459.657299,9326.594869
5387.571705,592.164754,153.219100,9992.780217
5387.572027,1184.329507,383.047749,10510.924376
5387.572350,-370.102971,459.657299,10362.883188
5387.572673,-666.185348,842.705048,9030.512492
5387.572995,518.144159,612.876398,9474.636058
5387.573318,1258.350101,1225.752797,8142.265362
5387.573640,444.123565,1225.752797,9326.594869
5387.573963,-2220.617826,153.219100,9474.636058
5387.574286,-888.247130,-229.828649,9844.739029
5387.574608,0.000000,306.438199,9326.594869
5387.574931,0.000000,689.485948,8808.450710
5387.575254,-2294.638420,536.266849,8734.430116
5387.575576,-2220.617826,-383.047749,9696.697840
5387.575899,-296.082377,842.705048,8438.347739
5387.576221,1406.391290,1915.238745,8882.471304
5387.576544,-296.082377,2451.505594,8660.409521
5387.576867,-1258.350101,2221.676944,10066.800811
5387.577189,0.000000,1762.019645,8734.430116
5387.577512,1258.350101,2604.724693,7254.018232
5387.577835,740.205942,2911.162892,7179.997637
5387.578157,-1036.288319,1915.238745,9178.553681
5387.578480,-1702.473667,766.095498,9400.615463
5387.578802,0.000000,1532.190996,7772.162391
5387.579125,222.061783,2145.067394,7550.100608
5387.579448,-296.082377,1608.800546,8512.368333
5387.579770,-2960.823768,612.876398,11325.150913
5387.580093,-1554.432478,1455.581446,10658.965565
5387.580416,296.082377,1762.019645,9474.636058
5387.580738,370.102971,2374.896044,8660.409521
5387.581061,0.000000,1608.800546,10140.821405
5387.581383,0.000000,1608.800546,10955.047942
5387.581706,1998.556043,2451.505594,9326.594869
5387.582029,2368.659014,3600.648841,7402.059420
5387.582351,1554.432478,1915.238745,8142.265362
5387.582674,666.185348,1072.533697,9474.636058
5387.582997,0.000000,1225.752797,9326.594869
5387.583319,1998.556043,1072.533697,7105.977043
5387.583642,2368.659014,1225.752797,7846.182985
5387.583964,-592.164754,995.924147,10510.924376
5387.584287,-370.102971,1072.533697,10584.944971
5387.584610,-296.082377,229.828649,9918.759623
5387.584932,74.020594,612.876398,8290.306550
5387.585255,148.041188,-459.657299,10140.821405
5387.585577,-222.061783,-1072.533697,10436.903782
5387.585900,0.000000,-306.438199,10436.903782
5387.586223,0.000000,0.000000,8364.327145
5387.586545,592.164754,-1532.190996,8882.471304
5387.586868,-444.123565,-1302.362347,9548.656652
5387.587191,-370.102971,-919.314598,9326.594869
5387.587513,0.000000,-1225.752797,9104.533087
5387.587836,-1332.370696,-1302.362347,9622.677246
5387.588158,-1110.308913,-2221.676944,10362.883188
5387.588481,-1036.288319,-2068.457845,10066.800811
5387.588804,-2664.741391,-1378.971896,11473.192101
5387.589126,-2664.741391,-1838.629195,10436.903782
5387.589449,-1702.473667,-1915.238745,10881.027347
5387.589772,-370.102971,-1378.971896,9770.718434
5387.590094,-370.102971,-1072.533697,9400.615463
5387.590417,-1998.556043,-1225.752797,8882.471304
5387.590739,-1628.453072,-1072.533697,9400.615463
5387.591062,0.000000,-1072.533697,8660.409521
5387.591385,0.000000,-306.438199,8734.430116
5387.591707,-814.226536,153.219100,9696.697840
5387.592030,-888.247130,0.000000,9548.656652
5387.592353,518.144159,153.219100,10214.842000
5387.592675,2368.659014,1302.362347,9030.512492
5387.592998,740.205942,1455.581446,9844.739029
5387.593320,148.041188,1532.190996,10288.862594
5387.593643,1406.391290,1302.362347,10066.800811
5387.593966,2738.761985,2451.505594,8734.430116
5387.594288,1332.370696,2757.943793,8364.327145
5387.594611,-1036.288319,1532.190996,9474.636058
5387.594933,-1480.411884,842.705048,10140.821405
5387.595256,-222.061783,1532.190996,8290.306550
5387.595579,518.144159,2374.896044,7402.059420
5387.595901,-1628.453072,2221.676944,8364.327145
5387.596224,-3330.926739,1762.019645,9400.615463
5387.596547,-2294.638420,1991.848295,8808.450710
5387.596869,-962.267725,2374.896044,6883.915261
5387.597192,-1036.288319,2528.115143,6957.935855
5387.597514,-3182.885551,1915.238745,9104.533087
5387.597837,-1480.411884,1762.019645,9104.533087
5387.598160,370.102971,3064.381992,8142.265362
5387.598482,1702.473667,3140.991542,6365.771101
5387.598805,0.000000,2298.286494,9696.697840
5387.599128,-296.082377,1838.629195,9474.636058
5387.599450,148.041188,2068.457845,9992.780217
5387.599773,2146.597232,2757.943793,7402.059420
5387.600095,1998.556043,2528.115143,9252.574275
5387.600418,740.205942,1072.533697,10436.903782
5387.600741,518.144159,1072.533697,11177.109724
5387.601063,1480.411884,1455.581446,9252.574275
5387.601386,1184.329507,1838.629195,8956.491898
5387.601709,740.205942,1302.362347,10288.862594
5387.602031,-370.102971,459.657299,10510.924376
5387.602354,592.164754,1378.971896,9030.512492
5387.602676,1110.308913,1072.533697,7328.038826
5387.602999,666.185348,689.485948,9474.636058
5387.603322,-666.185348,-383.047749,9104.533087
5387.603644,-1776.494261,-612.876398,9918.759623
5387.603967,-740.205942,-536.266849,8142.265362
5387.604290,-962.267725,-919.314598,8882.471304
5387.604612,-518.144159,-1608.800546,9474.636058
5387.604935,-1110.308913,-2451.505594,9992.780217
5387.605257,-888.247130,-1608.800546,9918.759623
5387.605580,296.082377,-689.485948,9104.533087
5387.605903,0.000000,-1455.581446,11473.192101
5387.606225,518.144159,-1378.971896,10732.986159
5387.606548,-222.061783,-1378.971896,10658.965565
5387.606870,0.000000,-1072.533697,8660.409521
5387.607193,518.144159,-612.876398,10140.821405
5387.607516,666.185348,-995.924147,9844.739029
5387.607838,-518.144159,-383.047749,9104.533087
5387.608161,-1406.391290,-1225.752797,9548.656652
5387.608484,-1702.473667,-1225.752797,9252.574275
5387.608806,-148.041188,-1608.800546,9474.636058
5387.609129,0.000000,-995.924147,8956.491898
5387.609451,-1998.556043,-306.438199,10140.821405
5387.609774,-2146.597232,-1149.143247,10288.862594
5387.610097,-148.041188,0.000000,10436.903782
5387.610419,1258.350101,229.828649,9104.533087
5387.610742,1258.350101,1072.533697,8808.450710
5387.611065,-296.082377,1072.533697,9992.780217
5387.611387,592.164754,1455.581446,9770.718434
5387.611710,1776.494261,1991.848295,9326.594869
5387.612032,1406.391290,1991.848295,8142.265362
5387.612355,74.020594,1455.581446,8882.471304
5387.612678,-2146.597232,689.485948,9770.718434
5387.613000,-814.226536,1378.971896,9844.739029
5387.613323,0.000000,1532.190996,8438.347739
5387.613646,-1184.329507,1838.629195,8068.244768
5387.613968,-3034.844362,1378.971896,9474.636058
5387.614291,-2442.679609,0.000000,9104.533087
5387.614613,74.020594,2221.676944,7698.141797
5387.614936,0.000000,2757.943793,8290.306550
5387.615259,-1850.514855,2451.505594,10066.800811
5387.615581,-2886.803174,1149.143247,11325.150913
5387.615904,-1702.473667,1762.019645,8734.430116
5387.616227,148.041188,2145.067394,8068.244768
5387.616549,444.123565,2681.334243,7994.224174
5387.616872,-1924.535449,2221.676944,10658.965565
5387.617194,0.000000,1455.581446,9918.759623
5387.617517,1184.329507,2374.896044,7920.203579
5387.617840,1406.391290,2451.505594,7105.977043
5387.618162,592.164754,2374.896044,8956.491898
5387.618485,222.061783,1685.410096,10288.862594
5387.618807,1850.514855,2451.505594,8734.430116
5387.619130,2886.803174,2834.553343,8512.368333
5387.619453,1924.535449,1915.238745,9622.677246
5387.619775,148.041188,689.485948,9770.718434
5387.620098,-370.102971,995.924147,9622.677246
5387.620421,1480.411884,1532.190996,6735.874072
5387.620743,1480.411884,1225.752797,8660.409521
5387.621066,1184.329507,995.924147,9400.615463
5387.621388,444.123565,459.657299,9918.759623
5387.621711,-148.041188,383.047749,8512.368333
5387.622034,-666.185348,306.438199,7772.162391
5387.622356,1110.308913,0.000000,9252.574275
5387.622679,370.102971,0.000000,9918.759623
5387.623002,0.000000,0.000000,10140.821405
5387.623324,-740.205942,-919.314598,9178.553681
5387.623647,0.000000,-842.705048,10214.842000
5387.623969,-888.247130,-1149.143247,10214.842000
5387.624292,-1998.556043,-919.314598,9992.780217
5387.624615,-2294.638420,-1915.238745,11029.068536
5387.624937,-1702.473667,-1378.971896,9918.759623
5387.625260,-444.123565,-1532.190996,10214.842000
5387.625583,-1110.308913,-1608.800546,9474.636058
5387.625905,-1850.514855,-995.924147,9770.718434
5387.626228,-888.247130,-842.705048,9178.553681
5387.626550,222.061783,-1302.362347,9622.677246
5387.626873,1628.453072,153.219100,10436.903782
5387.627196,222.061783,0.000000,10288.862594
5387.627518,-1480.411884,-1378.971896,10732.986159
5387.627841,0.000000,-1072.533697,9696.697840
5387.628163,962.267725,0.000000,9844.739029
5387.628486,1480.411884,612.876398,9178.553681
5387.628809,-370.102971,0.000000,10066.800811
5387.629131,-2146.597232,-306.438199,9622.677246
5387.629454,148.041188,229.828649,8660.409521
5387.629777,1480.411884,459.657299,8142.265362
5387.630099,296.082377,995.924147,7772.162391
5387.630422,-2146.597232,612.876398,11029.068536
5387.630744,-962.267725,536.266849,10066.800811
5387.631067,888.247130,766.095498,8216.285956
5387.631390,-592.164754,1302.362347,6883.915261
5387.631712,-2146.597232,459.657299,8882.471304
5387.632035,-2664.741391,306.438199,9696.697840
5387.632358,-592.164754,1608.800546,7846.182985
5387.632680,518.144159,2451.505594,7994.224174
5387.633003,-1554.432478,1991.848295,8068.244768
5387.633325,-3923.091493,306.438199,9696.697840
5387.633648,-2590.720797,1225.752797,9030.512492
5387.633971,-666.185348,1991.848295,8364.327145
5387.634293,0.000000,2374.896044,9252.574275
5387.634616,-1110.308913,1762.019645,10658.965565
5387.634939,-444.123565,1532.190996,10807.006753
5387.635261,592.164754,2068.457845,8956.491898
5387.635584,1628.453072,2987.772442,7920.203579
5387.635906,2072.576638,2374.896044,9696.697840
5387.636229,518.144159,1685.410096,9918.759623
5387.636552,148.041188,2068.457845,9770.718434
5387.636874,2442.679609,2987.772442,7402.059420
5387.637197,1998.556043,2221.676944,8512.368333
5387.637520,740.205942,1915.238745,8734.430116
5387.637842,-444.123565,1991.848295,10140.821405
5387.638165,592.164754,2451.505594,8660.409521
5387.638487,666.185348,2451.505594,9474.636058
5387.638810,740.205942,1455.581446,8660.409521
5387.639133,-74.020594,383.047749,10214.842000
5387.639455,-518.144159,1149.143247,8438.347739
5387.639778,-148.041188,536.266849,8068.244768
5387.640100,1480.411884,-383.047749,7846.182985
5387.640423,1036.288319,612.876398,9548.656652
5387.640746,0.000000,229.828649,9030.512492
5387.641068,0.000000,153.219100,8586.388927
5387.641391,-1258.350101,76.609550,9326.594869
5387.641714,518.144159,0.000000,8734.430116
5387.642036,0.000000,-1149.143247,9622.677246
5387.642359,-1702.473667,-612.876398,9770.718434
5387.642681,-1406.391290,-995.924147,10732.986159
5387.643004,0.000000,-1455.581446,9622.677246
5387.643327,740.205942,-995.924147,9696.697840
5387.643649,-888.247130,-1072.533697,9622.677246
5387.643972,-1998.556043,-1915.238745,10436.903782
5387.644295,-666.185348,-1915.238745,10288.862594
5387.644617,1110.308913,-1302.362347,9622.677246
5387.644940,1110.308913,-1302.362347,9622.677246
5387.645262,-1258.350101,-1455.581446,11103.089130
5387.645585,-1924.535449,-1455.581446,11917.315666
5387.645908,0.000000,-1378.971896,11843.295072
5387.646230,962.267725,-229.828649,10140.821405
5387.646553,-370.102971,-536.266849,9770.718434
5387.646876,-1184.329507,-612.876398,9770.718434
5387.647198,888.247130,-459.657299,10140.821405
5387.647521,1554.432478,842.705048,7254.018232
5387.647843,888.247130,76.609550,6809.894666
5387.648166,-962.267725,-459.657299,9178.553681
5387.648489,-1850.514855,-689.485948,9252.574275
5387.648811,0.000000,459.657299,8660.409521
5387.649134,1258.350101,1072.533697,8068.244768
5387.649457,-1036.288319,1302.362347,9252.574275
5387.649779,-2368.659014,766.095498,10955.047942
5387.650102,-1554.432478,766.095498,10066.800811
5387.650424,296.082377,1838.629195,8216.285956
5387.650747,0.000000,1991.848295,7698.141797
5387.651070,-1554.432478,1608.800546,9844.739029
5387.651392,-1036.288319,1532.190996,9844.739029
5387.651715,0.000000,1378.971896,7179.997637
5387.652037,888.247130,2451.505594,7476.080014
5387.652360,-1110.308913,1762.019645,9474.636058
5387.652683,-1332.370696,1378.971896,10362.883188
5387.653005,-1184.329507,1455.581446,9622.677246
5387.653328,740.205942,2757.943793,7920.203579
5387.653651,1258.350101,2681.334243,8290.306550
5387.653973,-74.020594,1685.410096,9104.533087
5387.654296,0.000000,2681.334243,9770.718434
5387.654618,962.267725,3370.820191,8364.327145
5387.654941,1184.329507,3217.601092,8734.430116
5387.655264,1258.350101,2681.334243,9622.677246
5387.655586,1258.350101,2528.115143,10214.842000
5387.655909,888.247130,2528.115143,8734.430116
5387.656232,1480.411884,1991.848295,7624.121203
5387.656554,1850.514855,1838.629195,9844.739029
5387.656877,814.226536,2681.334243,9474.636058
5387.657199,-222.061783,1915.238745,10732.986159
5387.657522,-296.082377,995.924147,8438.347739
5387.657845,-370.102971,229.828649,8142.265362
5387.658167,296.082377,919.314598,8586.388927
5387.658490,-740.205942,766.095498,9474.636058
5387.658813,-1406.391290,459.657299,8586.388927
5387.659135,-592.164754,1149.143247,9400.615463
5387.659458,0.000000,766.095498,8290.306550
5387.659780,370.102971,536.266849,9030.512492
5387.660103,-1110.308913,306.438199,8216.285956
5387.660426,-2072.576638,-766.095498,9400.615463
5387.660748,-666.185348,-1302.362347,8808.450710
5387.661071,-148.041188,-689.485948,9326.594869
5387.661393,-666.185348,-995.924147,8290.306550
5387.661716,-1110.308913,-1532.190996,9548.656652
5387.662039,-1998.556043,-1455.581446,10584.944971
5387.662361,-296.082377,-1532.190996,10584.944971
5387.662684,518.144159,-1302.362347,10288.862594
5387.663007,-1406.391290,-1762.019645,10436.903782
5387.663329,-1924.535449,-2451.505594,11029.068536
5387.663652,-370.102971,-1991.848295,9844.739029
5387.663974,1258.350101,-842.705048,9770.718434
5387.664297,1110.308913,-689.485948,8586.388927
5387.664620,-518.144159,-1455.581446,10732.986159
5387.664942,148.041188,-1302.362347,9844.739029
5387.665265,1998.556043,-766.095498,9548.656652
5387.665588,2294.638420,0.000000,8734.430116
5387.665910,-296.082377,0.000000,11325.150913
5387.666233,-962.267725,-536.266849,12213.398043
5387.666555,444.123565,0.000000,10584.944971
5387.666878,888.247130,229.828649,9252.574275
5387.667201,-444.123565,0.000000,8956.491898
5387.667523,-2220.617826,-919.314598,9992.780217
5387.667846,-888.247130,-306.438199,9326.594869
5387.668168,518.144159,919.314598,7698.141797
5387.668491,0.000000,766.095498,7179.997637
5387.668814,-814.226536,153.219100,9326.594869
5387.669136,-2442.679609,383.047749,9770.718434
5387.669459,-1036.288319,1685.410096,8512.368333
5387.669782,888.247130,2145.067394,7476.080014
5387.670104,-296.082377,2451.505594,8882.471304
5387.670427,-1406.391290,1685.410096,9622.677246
5387.670749,-518.144159,1608.800546,9474.636058
5387.671072,1776.494261,2987.772442,7624.121203
5387.671395,1776.494261,3370.820191,8734.430116
5387.671717,-296.082377,2528.115143,9992.780217
5387.672040,74.020594,1532.190996,9400.615463
5387.672362,74.020594,1762.019645,8216.285956
5387.672685,-814.226536,2298.286494,8068.244768
5387.673008,-518.144159,536.266849,9918.759623
5387.673330,-962.267725,1762.019645,10510.924376
5387.673653,-1184.329507,1991.848295,9474.636058
5387.673976,-74.020594,2298.286494,8512.368333
5387.674298,-740.205942,2451.505594,9474.636058
5387.674621,-296.082377,2528.115143,9178.553681
5387.674943,-740.205942,1762.019645,9178.553681
5387.675266,-814.226536,1762.019645,7476.080014
5387.675589,74.020594,2374.896044,7846.182985
5387.675911,-222.061783,2298.286494,9252.574275
5387.676234,0.000000,1762.019645,8734.430116
5387.676556,0.000000,995.924147,7328.038826
5387.676879,666.185348,766.095498,7105.977043
5387.677202,1628.453072,842.705048,9474.636058
5387.677524,1036.288319,1608.800546,9400.615463
5387.677847,666.185348,689.485948,9844.739029
5387.678170,444.123565,229.828649,9252.574275
5387.678492,222.061783,0.000000,9770.718434
5387.678815,1406.391290,383.047749,10140.821405
5387.679137,1110.308913,919.314598,10436.903782
5387.679460,0.000000,-536.266849,9548.656652
5387.679783,148.041188,-612.876398,9770.718434
5387.680105,1258.350101,459.657299,9104.533087
5387.680428,1406.391290,0.000000,9622.677246
5387.680750,0.000000,-1149.143247,8956.491898
5387.681073,-1628.453072,-2374.896044,10510.924376
5387.681396,-888.247130,-1762.019645,9474.636058
5387.681718,0.000000,-1225.752797,9548.656652
5387.682041,-592.164754,-1608.800546,9400.615463
5387.682364,-2516.700203,-2374.896044,11547.212695
5387.682686,-2368.659014,-2374.896044,10658.965565
5387.683009,0.000000,-1302.362347,10140.821405
5387.683331,296.082377,-306.438199,10436.903782
5387.683654,-888.247130,-536.266849,10362.883188
5387.683977,-1850.514855,-1302.362347,11177.109724
5387.684299,592.164754,-1149.143247,9326.594869
5387.684622,1998.556043,153.219100,8290.306550
5387.684944,1776.494261,76.609550,8290.306550
5387.685267,518.144159,0.000000,10584.944971
5387.685590,0.000000,-612.876398,10584.944971
5387.685912,1258.350101,153.219100,8512.368333
5387.686235,2220.617826,842.705048,7698.141797
5387.686558,1184.329507,306.438199,9252.574275
5387.686880,-592.164754,995.924147,10214.842000
5387.687203,444.123565,1838.629195,9326.594869
5387.687525,592.164754,2145.067394,7846.182985
5387.687848,0.000000,1838.629195,8734.430116
5387.688171,-1480.411884,1608.800546,9844.739029
5387.688493,-1702.473667,1532.190996,9918.759623
5387.688816,-1184.329507,1455.581446,7254.018232
5387.689138,-814.226536,1685.410096,7179.997637
5387.689461,-2812.782580,536.266849,8364.327145
5387.689784,-4589.276840,306.438199,8956.491898
5387.690106,-3849.070898,459.657299,8882.471304
5387.690429,-2442.679609,1149.143247,6883.915261
5387.690752,-2294.638420,229.828649,8586.388927
5387.691074,-2072.576638,612.876398,9178.553681
5387.691397,-2146.597232,842.705048,10140.821405
5387.691719,-1110.308913,1225.752797,7920.203579
5387.692042,-888.247130,1685.410096,9178.553681
5387.692365,1110.308913,1991.848295,9844.739029
5387.692687,740.205942,2298.286494,11103.089130
5387.693010,1258.350101,2528.115143,8438.347739
5387.693332,1554.432478,2145.067394,9252.574275
5387.693655,2072.576638,1532.190996,8586.388927
5387.693978,2220.617826,1991.848295,9622.677246
5387.694300,1554.432478,1915.238745,8438.347739
5387.694623,888.247130,1378.971896,9474.636058
5387.694946,962.267725,1072.533697,8882.471304
5387.695268,1702.473667,536.266849,9474.636058
5387.695591,888.247130,1762.019645,9326.594869
5387.695913,-1776.494261,153.219100,9474.636058
5387.696236,-518.144159,-153.219100,9548.656652
5387.696559,962.267725,229.828649,8660.409521
5387.696881,888.247130,1072.533697,8364.327145
5387.697204,-666.185348,153.219100,8512.368333
5387.697527,-1628.453072,-842.705048,10807.006753
5387.697849,-296.082377,-459.657299,8660.409521
5387.698172,1258.350101,-229.828649,8808.450710
5387.698494,0.000000,-612.876398,8512.368333
5387.698817,-2220.617826,-1072.533697,11103.089130
5387.699140,-2442.679609,-2145.067394,10066.800811
5387.699462,148.041188,-1915.238745,9252.574275
5387.699785,592.164754,-919.314598,8660.409521
5387.700107,-592.164754,-842.705048,10140.821405
5387.700430,-1332.370696,-1149.143247,12139.377449
5387.700753,1258.350101,-383.047749,10066.800811
5387.701075,3034.844362,0.000000,9178.553681
5387.701398,1258.350101,536.266849,8734.430116
5387.701721,0.000000,-229.828649,11769.274478
5387.702043,-148.041188,-459.657299,10436.903782
5387.702366,1998.556043,383.047749,8808.450710
5387.702688,2886.803174,766.095498,8660.409521
5387.703011,-370.102971,612.876398,9326.594869
5387.703334,-962.267725,0.000000,11473.192101
5387.703656,1184.329507,306.438199,7550.100608
5387.703979,1110.308913,1072.533697,8660.409521
5387.704301,0.000000,689.485948,7254.018232
5387.704624,-3108.864956,-306.438199,11917.315666
5387.704947,-814.226536,995.924147,9474.636058
5387.705269,-518.144159,1762.019645,8586.388927
5387.705592,0.000000,1838.629195,7698.141797
5387.705915,-1628.453072,536.266849,10066.800811
5387.706237,-2516.700203,919.314598,9474.636058
5387.706560,-2072.576638,1225.752797,9326.594869
5387.706882,-1184.329507,1225.752797,7402.059420
5387.707205,-2368.659014,153.219100,8956.491898
5387.707528,-3330.926739,383.047749,8956.491898
5387.707850,-3034.844362,612.876398,9992.780217
5387.708173,-518.144159,1072.533697,7031.956449
5387.708495,-1628.453072,1072.533697,8808.450710
5387.708818,-370.102971,1685.410096,9252.574275
5387.709141,-740.205942,1532.190996,10436.903782
5387.709463,0.000000,2298.286494,8364.327145
5387.709786,518.144159,2068.457845,8142.265362
5387.710109,1406.391290,1685.410096,9178.553681
5387.710431,1036.288319,2221.676944,9178.553681
5387.710754,592.164754,2374.896044,9992.780217
5387.711076,222.061783,1685.410096,8882.471304
5387.711399,962.267725,1455.581446,8734.430116
5387.711722,1036.288319,1378.971896,8808.450710
5387.712044,0.000000,1455.581446,9992.780217
5387.712367,-296.082377,1149.143247,9844.739029
5387.712689,1406.391290,1149.143247,8586.388927
5387.713012,2146.597232,612.876398,9770.718434
5387.713335,1924.535449,1455.581446,8734.430116
5387.713657,-962.267725,536.266849,9992.780217
5387.713980,-1110.308913,229.828649,10066.800811
5387.714303,0.000000,0.000000,9400.615463
5387.714625,1628.453072,153.219100,8512.368333
5387.714948,0.000000,612.876398,8956.491898
5387.715270,-1480.411884,-383.047749,10214.842000
5387.715593,-1554.432478,-383.047749,9400.615463
5387.715916,592.164754,0.000000,8882.471304
5387.716238,0.000000,76.609550,9104.533087
5387.716561,-1998.556043,-306.438199,10066.800811
5387.716883,-2072.576638,-1072.533697,11399.171507
5387.717206,1406.391290,-306.438199,8734.430116
5387.717529,1924.535449,-383.047749,7846.182985
5387.717851,0.000000,0.000000,7698.141797
5387.718174,-1850.514855,-1149.143247,11399.171507
5387.718497,-962.267725,-995.924147,9918.759623
5387.718819,1258.350101,-612.876398,8660.409521
5387.719142,2072.576638,-229.828649,8512.368333
5387.719464,-592.164754,-1302.362347,10584.944971
5387.719787,-1628.453072,-1455.581446,11251.130318
5387.720110,148.041188,-689.485948,9548.656652
5387.720432,2220.617826,306.438199,8290.306550
5387.720755,814.226536,536.266849,9474.636058
5387.721077,296.082377,612.876398,11399.171507
5387.721400,1258.350101,612.876398,10732.986159
5387.721723,2738.761985,1072.533697,8364.327145
5387.722045,2220.617826,995.924147,7920.203579
5387.722368,592.164754,-459.657299,10288.862594
5387.722691,-2220.617826,0.000000,11991.336260
5387.723013,-1406.391290,689.485948,10140.821405
5387.723336,-1110.308913,76.609550,8660.409521
5387.723658,-2220.617826,-689.485948,9252.574275
5387.723981,-2368.659014,0.000000,9622.677246
5387.724304,-3034.844362,0.000000,9400.615463
5387.724626,-2294.638420,1302.362347,8364.327145
5387.724949,-370.102971,1685.410096,7920.203579
5387.725271,-666.185348,1149.143247,9178.553681
5387.725594,-1184.329507,1991.848295,9400.615463
5387.725917,-2072.576638,2298.286494,8956.491898
5387.726239,0.000000,1302.362347,7698.141797
5387.726562,1184.329507,919.314598,9400.615463
5387.726885,1258.350101,1991.848295,8660.409521
5387.727207,0.000000,1915.238745,9770.718434
5387.727530,0.000000,1762.019645,8438.347739
5387.727852,370.102971,1225.752797,8660.409521
5387.728175,962.267725,1685.410096,8734.430116
5387.728498,-296.082377,2221.676944,10288.862594
5387.728820,-444.123565,1762.019645,9178.553681
5387.729143,-518.144159,1302.362347,9104.533087
5387.729465,1036.288319,919.314598,8512.368333
5387.729788,1184.329507,1991.848295,7624.121203
5387.730111,-1110.308913,2068.457845,9696.697840
5387.730433,-1628.453072,1302.362347,9326.594869
5387.730756,666.185348,919.314598,10214.842000
5387.731079,1258.350101,1302.362347,6291.750507
5387.731401,74.020594,1608.800546,7994.224174
5387.731724,-2368.659014,153.219100,8216.285956
5387.732046,-2442.679609,-383.047749,9548.656652
5387.732369,518.144159,0.000000,8438.347739
5387.732692,444.123565,995.924147,8660.409521
5387.733014,-1332.370696,536.266849,10140.821405
5387.733337,-1480.411884,306.438199,11325.150913
5387.733659,666.185348,0.000000,9770.718434
5387.733982,2960.823768,1302.362347,8068.244768
5387.734305,1702.473667,1072.533697,9326.594869
5387.734627,0.000000,-306.438199,11621.233289
5387.734950,148.041188,-459.657299,10584.944971
5387.735273,2442.679609,306.438199,8364.327145
5387.735595,2590.720797,0.000000,7624.121203
5387.735918,-518.144159,-383.047749,9770.718434
5387.736240,-1332.370696,-842.705048,11547.212695
5387.736563,962.267725,-383.047749,10066.800811
5387.736886,1110.308913,-383.047749,8956.491898
5387.737208,-296.082377,-995.924147,9030.512492
5387.737531,-1850.514855,-1762.019645,11843.295072
5387.737853,-888.247130,-766.095498,10584.944971
5387.738176,0.000000,-689.485948,9548.656652
5387.738499,-222.061783,383.047749,8660.409521
5387.738821,222.061783,-229.828649,9622.677246
5387.739144,-1258.350101,-229.828649,11177.109724
5387.739467,0.000000,383.047749,8734.430116
5387.739789,148.041188,0.000000,8586.388927
5387.740112,-1332.370696,-383.047749,8438.347739
5387.740434,-2146.597232,-919.314598,9474.636058
5387.740757,-1480.411884,-995.924147,8734.430116
5387.741080,-1110.308913,689.485948,8734.430116
5387.741402,-666.185348,153.219100,9104.533087
5387.741725,148.041188,-459.657299,9992.780217
5387.742047,148.041188,689.485948,9400.615463
5387.742370,222.061783,1608.800546,8586.388927
5387.742693,1406.391290,1991.848295,8438.347739
5387.743015,592.164754,2145.067394,9474.636058
5387.743338,740.205942,1072.533697,9400.615463
5387.743661,74.020594,2145.067394,8808.450710
5387.743983,-148.041188,2221.676944,8808.450710
5387.744306,0.000000,1532.190996,9252.574275
5387.744628,-814.226536,1225.752797,9844.739029
5387.744951,-1110.308913,2068.457845,8586.388927
5387.745274,-2442.679609,1532.190996,8512.368333
5387.745596,-2294.638420,1302.362347,8734.430116
5387.745919,-1036.288319,919.314598,9400.615463
5387.746241,-888.247130,689.485948,7994.224174
5387.746564,-1480.411884,995.924147,7920.203579
5387.746887,-2442.679609,612.876398,9548.656652
5387.747209,-1110.308913,1072.533697,10214.842000
5387.747532,-1554.432478,1302.362347,10140.821405
5387.747855,296.082377,2145.067394,8734.430116
5387.748177,-1554.432478,1532.190996,9696.697840
5387.748500,-148.041188,1302.362347,8808.450710
5387.748822,962.267725,1378.971896,10214.842000
5387.749145,1258.350101,2374.896044,8660.409521
5387.749468,-148.041188,1072.533697,10362.883188
5387.749790,296.082377,995.924147,9548.656652
5387.750113,2368.659014,995.924147,9844.739029
5387.750435,2738.761985,1455.581446,7476.080014
5387.750758,1258.350101,1149.143247,8438.347739
5387.751081,666.185348,536.266849,9622.677246
5387.751403,518.144159,919.314598,9844.739029
5387.751726,2072.576638,1378.971896,9178.553681
5387.752049,1480.411884,1378.971896,8660.409521
5387.752371,-666.185348,0.000000,10362.883188
5387.752694,-1702.473667,-766.095498,10140.821405
5387.753016,0.000000,-995.924147,8882.471304
5387.753339,444.123565,-689.485948,8512.368333
5387.753662,-370.102971,-383.047749,8660.409521
5387.753984,-666.185348,-1302.362347,10436.903782
5387.754307,222.061783,-153.219100,9030.512492
5387.754629,1406.391290,612.876398,7624.121203
5387.754952,1406.391290,-229.828649,8586.388927
5387.755275,148.041188,-919.314598,9992.780217
5387.755597,0.000000,-995.924147,11621.233289
5387.755920,814.226536,-229.828649,9918.759623
5387.756243,296.082377,-536.266849,10140.821405
5387.756565,-666.185348,-995.924147,10066.800811
5387.756888,-1628.453072,-1225.752797,11769.274478
5387.757210,-1258.350101,-1225.752797,8956.491898
5387.757533,-444.123565,-229.828649,9178.553681
5387.757856,-1036.288319,0.000000,9770.718434
5387.758178,-518.144159,-689.485948,10066.800811
5387.758501,-444.123565,0.000000,9252.574275
5387.758823,296.082377,612.876398,7698.141797
5387.759146,148.041188,1149.143247,9474.636058
5387.759469,370.102971,153.219100,10066.800811
5387.759791,0.000000,842.705048,9844.739029
5387.760114,518.144159,1378.971896,8586.388927
5387.760437,148.041188,1685.410096,9178.553681
5387.760759,-518.144159,1225.752797,10955.047942
5387.761082,-814.226536,383.047749,9104.533087
5387.761404,-1702.473667,689.485948,9474.636058
5387.761727,-888.247130,919.314598,8068.244768
5387.762050,-1554.432478,995.924147,9326.594869
5387.762372,-296.082377,1455.581446,9030.512492
5387.762695,0.000000,1991.848295,8586.388927
5387.763017,-518.144159,1838.629195,7920.203579
5387.763340,-444.123565,2221.676944,8882.471304
5387.763663,-592.164754,2145.067394,9844.739029
5387.763985,-148.041188,1455.581446,9104.533087
5387.764308,-1924.535449,1149.143247,8512.368333
5387.764631,-2960.823768,919.314598,9178.553681
5387.764953,-2294.638420,919.314598,8586.388927
5387.765276,-1184.329507,842.705048,9104.533087
5387.765598,-1406.391290,1378.971896,7476.080014
5387.765921,-1258.350101,1225.752797,8438.347739
5387.766244,0.000000,1378.971896,8586.388927
5387.766566,1406.391290,1991.848295,8956.491898
5387.766889,2146.597232,2987.772442,8956.491898
5387.767211,1110.308913,2451.505594,9622.677246
5387.767534,814.226536,1072.533697,10214.842000
5387.767857,518.144159,1532.190996,9992.780217
5387.768179,1406.391290,2604.724693,9178.553681
5387.768502,1332.370696,1378.971896,8660.409521
5387.768825,-1036.288319,153.219100,9474.636058
5387.769147,0.000000,229.828649,8882.471304
5387.769470,1110.308913,612.876398,8216.285956
5387.769793,370.102971,689.485948,7105.977043
5387.770116,-740.205942,-612.876398,8216.285956
5387.770438,-1036.288319,-766.095498,10288.862594
5387.770761,1406.391290,766.095498,9844.739029
5387.771084,2220.617826,919.314598,8512.368333
5387.771407,1406.391290,536.266849,9622.677246
5387.771729,370.102971,153.219100,11325.150913
5387.772052,444.123565,153.219100,10955.047942
5387.772375,1702.473667,459.657299,8956.491898
5387.772698,1702.473667,153.219100,9548.656652
5387.773020,-740.205942,-919.314598,9696.697840
5387.773343,-814.226536,-919.314598,10807.006753
5387.773666,0.000000,-306.438199,8438.347739
5387.773988,370.102971,-383.047749,8882.471304
5387.774311,-296.082377,-1072.533697,9104.533087
5387.774634,-1702.473667,-1532.190996,10807.006753
5387.774957,-740.205942,-306.438199,9770.718434
5387.775279,-296.082377,995.924147,8290.306550
5387.775602,-666.185348,-919.314598,9252.574275
5387.775925,-1258.350101,-1302.362347,9992.780217
5387.776248,-1924.535449,-689.485948,10288.862594
5387.776570,-814.226536,0.000000,8882.471304
5387.776893,-370.102971,229.828649,8734.430116
5387.777216,74.020594,0.000000,9918.759623
5387.777539,-1110.308913,229.828649,9918.759623
5387.777861,-370.102971,306.438199,9474.636058
5387.778184,0.000000,76.609550,8660.409521
5387.778507,444.123565,612.876398,9400.615463
5387.778830,814.226536,459.657299,10362.883188
5387.779152,0.000000,1149.143247,9918.759623
5387.779475,-518.144159,536.266849,9252.574275
5387.779798,222.061783,842.705048,7772.162391
5387.780120,-814.226536,842.705048,9696.697840
5387.780443,-592.164754,1685.410096,8660.409521
5387.780766,-888.247130,1455.581446,10510.924376
5387.781089,-1480.411884,1225.752797,8438.347739
5387.781411,-666.185348,689.485948,8808.450710
5387.781734,0.000000,1072.533697,7920.203579
5387.782057,-1702.473667,1685.410096,10140.821405
5387.782380,-3182.885551,1608.800546,9548.656652
5387.782702,-888.247130,1302.362347,9474.636058
5387.783025,0.000000,1225.752797,8660.409521
5387.783348,0.000000,2451.505594,8216.285956
5387.783671,-1850.514855,1915.238745,9474.636058
5387.783993,-962.267725,995.924147,9252.574275
5387.784316,-222.061783,1149.143247,8364.327145
5387.784639,740.205942,1991.848295,6809.894666
5387.784962,-740.205942,2681.334243,8882.471304
5387.785284,-2886.803174,842.705048,10140.821405
5387.785607,-1998.556043,306.438199,9696.697840
5387.785930,0.000000,383.047749,8290.306550
5387.786252,-592.164754,1225.752797,8956.491898
5387.786575,-888.247130,1302.362347,9696.697840
5387.786898,-148.041188,383.047749,9844.739029
5387.787221,2294.638420,1762.019645,7254.018232
5387.787543,2368.659014,2145.067394,8068.244768
5387.787866,1406.391290,1532.190996,7550.100608
5387.788189,518.144159,689.485948,10584.944971
5387.788512,1110.308913,1072.533697,9030.512492
5387.788834,2516.700203,1915.238745,8438.347739
5387.789157,2516.700203,1532.190996,8142.265362
5387.789480,-666.185348,383.047749,10881.027347
5387.789803,-814.226536,-689.485948,11473.192101
5387.790125,370.102971,-766.095498,9030.512492
5387.790448,444.123565,-612.876398,8956.491898
5387.790771,-518.144159,-612.876398,9992.780217
5387.791094,-1776.494261,-1072.533697,11843.295072
5387.791416,-296.082377,-1072.533697,9770.718434
5387.791739,444.123565,-612.876398,7698.141797
5387.792062,74.020594,-1608.800546,9104.533087
5387.792384,-814.226536,-919.314598,10658.965565
5387.792707,-888.247130,-995.924147,10955.047942
5387.793030,148.041188,-536.266849,8956.491898
5387.793353,0.000000,-229.828649,9548.656652
5387.793675,-1036.288319,-689.485948,9474.636058
5387.793998,-1406.391290,-689.485948,11177.109724
5387.794321,-592.164754,-842.705048,9400.615463
5387.794644,-148.041188,-689.485948,8660.409521
5387.794966,222.061783,-229.828649,9770.718434
5387.795289,0.000000,153.219100,10584.944971
5387.795612,0.000000,766.095498,9622.677246
5387.795935,814.226536,995.924147,7476.080014
5387.796257,2072.576638,919.314598,8216.285956
5387.796580,1702.473667,1608.800546,9770.718434
5387.796903,1110.308913,1532.190996,9252.574275
5387.797226,370.102971,536.266849,8808.450710
5387.797548,0.000000,766.095498,8142.265362
5387.797871,222.061783,536.266849,8734.430116
5387.798194,666.185348,995.924147,8438.347739
5387.798516,-1036.288319,1225.752797,9030.512492
5387.798839,-1554.432478,766.095498,8364.327145
5387.799162,-1258.350101,842.705048,8290.306550
5387.799485,-296.082377,1302.362347,8660.409521
5387.799807,-1924.535449,1915.238745,9326.594869
5387.800130,-2960.823768,1149.143247,9696.697840
5387.800453,-2294.638420,383.047749,9992.780217
5387.800776,-1110.308913,1608.800546,9326.594869
5387.801098,-370.102971,2145.067394,9252.574275
5387.801421,-740.205942,1608.800546,8956.491898
5387.801744,-2146.597232,1149.143247,9992.780217
5387.802067,-444.123565,1685.410096,8512.368333
5387.802389,1036.288319,1685.410096,8734.430116
5387.802712,518.144159,2145.067394,8290.306550
5387.803035,-1702.473667,1225.752797,11103.089130
5387.803358,-1258.350101,1532.190996,9844.739029
5387.803680,1036.288319,1532.190996,10066.800811
5387.804003,740.205942,2068.457845,8882.471304
5387.804326,-444.123565,1838.629195,9844.739029
5387.804649,-888.247130,612.876398,10658.965565
5387.804971,-222.061783,1149.143247,8808.450710
5387.805294,1036.288319,1608.800546,7624.121203
5387.805617,444.123565,536.266849,7328.038826
5387.805939,-1850.514855,0.000000,9548.656652
5387.806262,-1480.411884,153.219100,9030.512492
5387.806585,1036.288319,306.438199,7031.956449
5387.806908,666.185348,1072.533697,7550.100608
5387.807230,-1036.288319,229.828649,8586.388927
5387.807553,296.082377,-766.095498,9622.677246
5387.807876,3627.009116,689.485948,7402.059420
5387.808199,3775.050304,2298.286494,8290.306550
5387.808521,2886.803174,1685.410096,10584.944971
5387.808844,592.164754,536.266849,13249.686362
5387.809167,1184.329507,0.000000,10362.883188
5387.809490,2368.659014,0.000000,8808.450710
5387.809812,1554.432478,0.000000,8438.347739
5387.810135,74.020594,-1762.019645,10584.944971
5387.810458,-1036.288319,-1532.190996,11843.295072
5387.810781,-222.061783,-1302.362347,9770.718434
5387.811103,-296.082377,-1149.143247,8512.368333
5387.811426,-1110.308913,-1532.190996,10288.862594
5387.811749,-1850.514855,-1149.143247,11769.274478
5387.812071,-1850.514855,-995.924147,10732.986159
5387.812394,-666.185348,-383.047749,8068.244768
5387.812717,-1332.370696,-76.609550,10288.862594
5387.813040,-2368.659014,-536.266849,10288.862594
5387.813362,-3404.947333,-1072.533697,9696.697840
5387.813685,-2220.617826,-842.705048,7698.141797
5387.814008,-1554.432478,-229.828649,7254.018232
5387.814331,-1258.350101,0.000000,8586.388927
5387.814653,-1776.494261,0.000000,9030.512492
5387.814976,-1258.350101,459.657299,9918.759623
5387.815299,-962.267725,536.266849,8438.347739
5387.815622,518.144159,383.047749,9400.615463
5387.815944,1702.473667,1378.971896,9030.512492
5387.816267,1480.411884,1915.238745,9474.636058
5387.816590,518.144159,1762.019645,8734.430116
5387.816913,1554.432478,2298.286494,8660.409521
5387.817235,2294.638420,2145.067394,9400.615463
5387.817558,1850.514855,1838.629195,8808.450710
5387.817881,-296.082377,1225.752797,9400.615463
5387.818203,-1406.391290,1149.143247,8808.450710
5387.818526,-592.164754,1072.533697,9474.636058
5387.818849,222.061783,1302.362347,8956.491898
5387.819172,-2368.659014,842.705048,9400.615463
5387.819494,-4219.173869,-229.828649,9992.780217
5387.819817,-3256.906145,0.000000,9474.636058
5387.820140,-1036.288319,536.266849,9474.636058
5387.820463,-1258.350101,919.314598,8734.430116
5387.820785,-2664.741391,459.657299,10066.800811
5387.821108,-2294.638420,0.000000,9918.759623
5387.821431,-444.123565,842.705048,8586.388927
5387.821754,888.247130,1915.238745,8290.306550
5387.822076,148.041188,1838.629195,9178.553681
5387.822399,-1480.411884,689.485948,10584.944971
5387.822722,222.061783,1685.410096,9178.553681
5387.823045,2516.700203,2528.115143,8438.347739
5387.823367,2960.823768,2451.505594,7179.997637
5387.823690,888.247130,766.095498,9548.656652
5387.824013,666.185348,1762.019645,9474.636058
5387.824335,3256.906145,2374.896044,8290.306550
5387.824658,3775.050304,2068.457845,6735.874072
5387.824981,2664.741391,1532.190996,8660.409521
5387.825304,814.226536,689.485948,9474.636058
5387.825626,1554.432478,1072.533697,9252.574275
5387.825949,2960.823768,2374.896044,7624.121203
5387.826272,2294.638420,1455.581446,9548.656652
5387.826595,0.000000,306.438199,10510.924376
5387.826917,-592.164754,-76.609550,10436.903782
5387.827240,-592.164754,383.047749,8956.491898
5387.827563,-592.164754,689.485948,8068.244768
5387.827886,-1406.391290,-383.047749,9770.718434
5387.828208,-1332.370696,-1072.533697,9622.677246
5387.828531,-1998.556043,-612.876398,9918.759623
5387.828854,-1406.391290,-306.438199,7698.141797
5387.829177,-1702.473667,-1225.752797,10066.800811
5387.829499,-2146.597232,-1455.581446,9844.739029
5387.829822,-3923.091493,-2068.457845,12583.501014
5387.830145,-2886.803174,-1532.190996,9474.636058
5387.830468,-2738.761985,-1532.190996,10658.965565
5387.830790,-1554.432478,-1838.629195,10066.800811
5387.831113,-1702.473667,-1685.410096,10362.883188
5387.831436,-1998.556043,-383.047749,9548.656652
5387.831758,148.041188,-383.047749,9104.533087
5387.832081,1998.556043,229.828649,10066.800811
5387.832404,2368.659014,0.000000,8956.491898
5387.832727,1702.473667,689.485948,10362.883188
5387.833049,1184.329507,153.219100,9474.636058
5387.833372,2220.617826,459.657299,9918.759623
5387.833695,2368.659014,766.095498,9252.574275
5387.834018,1332.370696,689.485948,9622.677246
5387.834340,-148.041188,0.000000,8364.327145
5387.834663,-1480.411884,-689.485948,8734.430116
5387.834986,0.000000,-229.828649,7105.977043
5387.835309,222.061783,306.438199,8734.430116
5387.835631,-1628.453072,842.705048,6957.935855
5387.835954,-2738.761985,306.438199,10214.842000
5387.836277,-2368.659014,995.924147,8734.430116
5387.836600,814.226536,1072.533697,8734.430116
5387.836922,-518.144159,1455.581446,8142.265362
5387.837245,-2664.741391,1532.190996,10807.006753
5387.837568,-3256.906145,919.314598,10658.965565
5387.837890,-444.123565,1072.533697,8364.327145
5387.838213,814.226536,2374.896044,7994.224174
5387.838536,-666.185348,1685.410096,7994.224174
5387.838859,-2220.617826,919.314598,10510.924376
5387.839181,-888.247130,1455.581446,9548.656652
5387.839504,1406.391290,2298.286494,8882.471304
5387.839827,1406.391290,1991.848295,8216.285956
5387.840150,-814.226536,1838.629195,9992.780217
5387.840472,-222.061783,1838.629195,11103.089130
5387.840795,1924.535449,2221.676944,9178.553681
5387.841118,2220.617826,3064.381992,8216.285956
5387.841441,1924.535449,2757.943793,9770.718434
5387.841763,370.102971,1915.238745,10658.965565
5387.842086,962.267725,2145.067394,9252.574275
5387.842409,1850.514855,2068.457845,7402.059420
5387.842732,1998.556043,2987.772442,7476.080014
5387.843054,666.185348,2528.115143,8882.471304
5387.843377,0.000000,2374.896044,10140.821405
5387.843700,1110.308913,2451.505594,7846.182985
5387.844022,1406.391290,1762.019645,6957.935855
5387.844345,0.000000,1225.752797,8512.368333
5387.844668,-1702.473667,306.438199,9844.739029
5387.844991,-1480.411884,766.095498,9178.553681
5387.845313,-740.205942,459.657299,7772.162391
5387.845636,-666.185348,0.000000,9326.594869
5387.845959,-814.226536,0.000000,9770.718434
5387.846282,-1554.432478,-306.438199,9696.697840
5387.846604,-370.102971,229.828649,8586.388927
5387.846927,-962.267725,0.000000,9622.677246
5387.847250,-518.144159,-612.876398,9326.594869
5387.847573,-296.082377,-229.828649,9992.780217
5387.847895,-1480.411884,-689.485948,10140.821405
5387.848218,-370.102971,-919.314598,9770.718434
5387.848541,0.000000,-1532.190996,10436.903782
5387.848864,0.000000,-1532.190996,10436.903782
5387.849186,74.020594,-1225.752797,10288.862594
5387.849509,-1332.370696,-1685.410096,9918.759623
5387.849832,-1258.350101,-2221.676944,11103.089130
5387.850154,74.020594,-1608.800546,10066.800811
5387.850477,-1036.288319,-1762.019645,10362.883188
5387.850800,-1480.411884,-1915.238745,9992.780217
5387.851123,-2294.638420,-1838.629195,9622.677246
5387.851445,-740.205942,-383.047749,9992.780217
5387.851768,888.247130,536.266849,8882.471304
5387.852091,-222.061783,612.876398,8882.471304
5387.852414,0.000000,76.609550,8660.409521
5387.852736,740.205942,459.657299,9844.739029
5387.853059,2516.700203,995.924147,8438.347739
5387.853382,1258.350101,383.047749,8586.388927
5387.853705,-1184.329507,-536.266849,9474.636058
5387.854027,-888.247130,229.828649,10066.800811
5387.854350,222.061783,306.438199,9030.512492
5387.854673,2368.659014,766.095498,8216.285956
5387.854996,74.020594,612.876398,9178.553681
5387.855318,-1406.391290,766.095498,9548.656652
5387.855641,-592.164754,1608.800546,9178.553681
5387.855964,1702.473667,2068.457845,8956.491898
5387.856286,-592.164754,2451.505594,8364.327145
5387.856609,-3256.906145,1378.971896,10362.883188
5387.856932,-2294.638420,1608.800546,9844.739029
5387.857255,222.061783,1762.019645,8364.327145
5387.857577,-444.123565,1685.410096,6809.894666
5387.857900,-740.205942,995.924147,7624.121203
5387.858223,-2072.576638,1072.533697,9548.656652
5387.858546,-296.082377,2298.286494,8068.244768
5387.858868,888.247130,2298.286494,9104.533087
5387.859191,666.185348,2298.286494,8438.347739
5387.859514,-962.267725,919.314598,11103.089130
5387.859837,-666.185348,1455.581446,10362.883188
5387.860159,1406.391290,2374.896044,9548.656652
5387.860482,1702.473667,2834.553343,10066.800811
5387.860805,666.185348,2221.676944,10510.924376
5387.861128,1332.370696,2068.457845,9992.780217
5387.861450,1110.308913,1915.238745,7105.977043
5387.861773,1406.391290,1608.800546,6957.935855
5387.862096,1110.308913,766.095498,7772.162391
5387.862419,-888.247130,153.219100,9400.615463
5387.862741,-518.144159,842.705048,8956.491898
5387.863064,370.102971,1302.362347,8512.368333
5387.863387,444.123565,1685.410096,9474.636058
5387.863709,148.041188,689.485948,9622.677246
5387.864032,1110.308913,459.657299,10658.965565
5387.864355,962.267725,1762.019645,10436.903782
5387.864678,2220.617826,1991.848295,10436.903782
5387.865000,2072.576638,1685.410096,11621.233289
5387.865323,2368.659014,1685.410096,10881.027347
5387.865646,962.267725,612.876398,10288.862594
5387.865969,592.164754,383.047749,7772.162391
5387.866291,962.267725,-153.219100,10584.944971
5387.866614,0.000000,0.000000,9474.636058
5387.866937,-2812.782580,-919.314598,11473.192101
5387.867260,-2886.803174,-1302.362347,8290.306550
5387.867582,-4737.318029,-2221.676944,9474.636058
5387.867905,-3256.906145,-2298.286494,8364.327145
5387.868228,-4589.276840,-1991.848295,9474.636058
5387.868551,-5181.441594,-1685.410096,8216.285956
5387.868873,-4885.359217,-1532.190996,8956.491898
5387.869196,-2738.761985,-1149.143247,7402.059420
5387.869519,-592.164754,-306.438199,7328.038826
5387.869842,148.041188,612.876398,6291.750507
5387.870164,0.000000,383.047749,7254.018232
5387.870487,2664.741391,1225.752797,8364.327145
5387.870810,4737.318029,1838.629195,9918.759623
5387.871133,4811.338623,2604.724693,8882.471304
5387.871455,4663.297435,919.314598,10732.986159
5387.871778,3108.864956,766.095498,11917.315666
5387.872101,5329.482782,1685.410096,11029.068536
5387.872424,6735.874072,2068.457845,11325.150913
5387.872746,4515.256246,2451.505594,10214.842000
5387.873069,1776.494261,1302.362347,12435.459826
5387.873392,1258.350101,842.705048,10807.006753
5387.873715,1924.535449,459.657299,9104.533087
5387.874037,-370.102971,689.485948,8660.409521
5387.874360,-4293.194464,-766.095498,10881.027347
5387.874683,-5995.668130,-1532.190996,11843.295072
5387.875006,-5625.565159,-1608.800546,9030.512492
5387.875329,-4959.379811,0.000000,8512.368333
5387.875651,-6809.894666,-1072.533697,8660.409521
5387.875974,-8586.388927,-2374.896044,9918.759623
5387.876297,-7254.018232,-919.314598,8956.491898
5387.876620,-4515.256246,0.000000,7772.162391
5387.876942,-3182.885551,306.438199,7476.080014
5387.877265,-3256.906145,612.876398,8364.327145
5387.877588,-1332.370696,153.219100,9400.615463
5387.877911,1406.391290,1762.019645,6439.791695
5387.878233,2738.761985,2987.772442,6587.832884
5387.878556,3256.906145,2681.334243,8512.368333
5387.878879,2812.782580,1915.238745,10066.800811
5387.879202,3849.070898,2681.334243,8660.409521
5387.879524,4811.338623,3447.429741,7846.182985
5387.879847,4663.297435,2374.896044,9252.574275
5387.880170,3775.050304,2987.772442,9474.636058
5387.880493,1702.473667,2145.067394,10436.903782
5387.880816,2368.659014,2068.457845,8142.265362
5387.881138,888.247130,1685.410096,8586.388927
5387.881461,-592.164754,1072.533697,8808.450710
5387.881784,-1036.288319,612.876398,10140.821405
5387.882107,-2368.659014,383.047749,8808.450710
5387.882429,-2368.659014,229.828649,7550.100608
5387.882752,-2886.803174,-383.047749,9030.512492
5387.883075,-2886.803174,-995.924147,9252.574275
5387.883398,-3404.947333,-919.314598,10140.821405
5387.883720,-3775.050304,-919.314598,10214.842000
5387.884043,-2516.700203,-1072.533697,10214.842000
5387.884366,-1776.494261,-766.095498,10362.883188
5387.884689,-1110.308913,229.828649,10436.903782
5387.885011,-814.226536,0.000000,10732.986159
5387.885334,-296.082377,306.438199,10214.842000
5387.885657,1258.350101,459.657299,10584.944971
5387.885980,3701.029710,612.876398,9474.636058
5387.886302,2516.700203,459.657299,9548.656652
5387.886625,1332.370696,306.438199,10066.800811
5387.886948,1554.432478,-153.219100,10140.821405
5387.887271,1850.514855,153.219100,10066.800811
5387.887594,2886.803174,612.876398,8512.368333
5387.887916,1036.288319,229.828649,10066.800811
5387.888239,222.061783,153.219100,9030.512492
5387.888562,1184.329507,612.876398,9178.553681
5387.888885,1924.535449,766.095498,7920.203579
5387.889207,0.000000,-229.828649,7846.182985
5387.889530,-1110.308913,-383.047749,8586.388927
5387.889853,-962.267725,0.000000,8512.368333
5387.890176,592.164754,229.828649,7846.182985
5387.890498,296.082377,0.000000,7698.141797
5387.890821,-2220.617826,-612.876398,9474.636058
5387.891144,-2146.597232,-612.876398,10140.821405
5387.891467,1406.391290,-766.095498,8142.265362
5387.891789,370.102971,766.095498,10362.883188
5387.892112,-1110.308913,536.266849,9992.780217
5387.892435,-2516.700203,-459.657299,12953.603985
5387.892758,-1332.370696,536.266849,11103.089130
5387.893080,0.000000,1072.533697,9474.636058
5387.893403,-370.102971,1072.533697,8364.327145
5387.893726,-2146.597232,919.314598,10436.903782
5387.894049,-1110.308913,612.876398,10362.883188
5387.894372,148.041188,1838.629195,7179.997637
5387.894694,-666.185348,1532.190996,7476.080014
5387.895017,-1628.453072,919.314598,8512.368333
5387.895340,-3478.967927,306.438199,10584.944971
5387.895663,-2146.597232,919.314598,7920.203579
5387.895985,-148.041188,1915.238745,7624.121203
5387.896308,-888.247130,1225.752797,7624.121203
5387.896631,-1480.411884,766.095498,10214.842000
5387.896954,-1702.473667,1608.800546,10214.842000
5387.897276,1036.288319,2528.115143,8142.265362
5387.897599,1628.453072,1915.238745,8068.244768
5387.897922,1554.432478,2298.286494,8808.450710
5387.898245,1036.288319,1608.800546,10807.006753
5387.898567,1110.308913,1915.238745,7772.162391
5387.898890,1258.350101,1838.629195,8216.285956
5387.899213,2886.803174,1838.629195,7994.224174
5387.899536,888.247130,995.924147,9104.533087
5387.899859,444.123565,766.095498,8660.409521
5387.900181,518.144159,766.095498,7476.080014
5387.900504,962.267725,1072.533697,7772.162391
5387.900827,962.267725,689.485948,9030.512492
5387.901150,-888.247130,0.000000,11029.068536
5387.901472,-1850.514855,-306.438199,9992.780217
5387.901795,-1110.308913,-766.095498,9622.677246
5387.902118,-148.041188,-612.876398,10658.965565
5387.902441,444.123565,76.609550,10881.027347
5387.902763,-1110.308913,0.000000,10732.986159
5387.903086,-444.123565,-689.485948,9548.656652
5387.903409,370.102971,-919.314598,10362.883188
5387.903732,296.082377,-612.876398,9992.780217
5387.904054,74.020594,-766.095498,10288.862594
5387.904377,-1702.473667,-1762.019645,10881.027347
5387.904700,-1702.473667,-1991.848295,10658.965565
5387.905023,-518.144159,-1302.362347,10955.047942
5387.905345,444.123565,-766.095498,9252.574275
5387.905668,-666.185348,-153.219100,9844.739029
5387.905991,-1406.391290,-153.219100,9844.739029
5387.906314,1628.453072,-229.828649,9252.574275
5387.906637,2442.679609,689.485948,8290.306550
5387.906959,1850.514855,1608.800546,7772.162391
5387.907282,0.000000,-229.828649,10066.800811
5387.907605,-592.164754,-383.047749,8734.430116
5387.907928,1406.391290,689.485948,7920.203579
5387.908250,1628.453072,1685.410096,7476.080014
5387.908573,-370.102971,1149.143247,9178.553681
5387.908896,-1480.411884,536.266849,10214.842000
5387.909219,518.144159,919.314598,7920.203579
5387.909541,518.144159,1762.019645,8364.327145
5387.909864,-1110.308913,2374.896044,8512.368333
5387.910187,-2516.700203,1302.362347,10362.883188
5387.910510,-1554.432478,1455.581446,9918.759623
5387.910832,-296.082377,2374.896044,8290.306550
5387.911155,-296.082377,2451.505594,7402.059420
5387.911478,-2072.576638,1685.410096,9548.656652
5387.911801,-3330.926739,1532.190996,10214.842000
5387.912124,-1924.535449,1149.143247,7772.162391
5387.912446,-1110.308913,919.314598,6883.915261
5387.912769,-2368.659014,1378.971896,7698.141797
5387.913092,-3034.844362,-153.219100,11325.150913
5387.913415,-1850.514855,459.657299,10436.903782
5387.913737,0.000000,1225.752797,9326.594869
5387.914060,1110.308913,1838.629195,7698.141797
5387.914383,1184.329507,1838.629195,10955.047942
5387.914706,1776.494261,2757.943793,11103.089130
5387.915028,2590.720797,3294.210641,9474.636058
5387.915351,2886.803174,3370.820191,8660.409521
5387.915674,2368.659014,1838.629195,9178.553681
5387.915997,962.267725,995.924147,10510.924376
5387.916319,74.020594,995.924147,9326.594869
5387.916642,74.020594,919.314598,8438.347739
5387.916965,-1036.288319,229.828649,8290.306550
5387.917288,-1702.473667,0.000000,9622.677246
5387.917610,-1702.473667,-919.314598,9178.553681
5387.917933,-1702.473667,-689.485948,7698.141797
5387.918256,-962.267725,-842.705048,8364.327145
5387.918579,-592.164754,-383.047749,9918.759623
5387.918902,-740.205942,0.000000,9622.677246
5387.919224,-1480.411884,229.828649,9104.533087
5387.919547,-592.164754,153.219100,9326.594869
5387.919870,592.164754,-612.876398,8956.491898
5387.920193,1480.411884,-536.266849,9178.553681
5387.920515,296.082377,-536.266849,10510.924376
5387.920838,-740.205942,-919.314598,10362.883188
5387.921161,-740.205942,-1378.971896,9474.636058
5387.921484,1184.329507,-1915.238745,8438.347739
5387.921806,1628.453072,-383.047749,8586.388927
5387.922129,0.000000,-995.924147,8808.450710
5387.922452,148.041188,-306.438199,10214.842000
5387.922775,2146.597232,-459.657299,9992.780217
5387.923097,2368.659014,229.828649,10066.800811
5387.923420,0.000000,229.828649,10066.800811
5387.923743,-1628.453072,0.000000,11251.130318
5387.924066,0.000000,-919.314598,10510.924376
5387.924388,1628.453072,-766.095498,7698.141797
5387.924711,740.205942,-459.657299,8142.265362
5387.925034,-2442.679609,-536.266849,10881.027347
5387.925357,-3404.947333,-1302.362347,10510.924376
5387.925680,-1258.350101,-995.924147,8956.491898
5387.926002,-222.061783,0.000000,7550.100608
5387.926325,-518.144159,-153.219100,8660.409521
5387.926648,-2072.576638,76.609550,11473.192101
5387.926971,0.000000,689.485948,11399.171507
5387.927293,1628.453072,1455.581446,9030.512492
5387.927616,1258.350101,1532.190996,8512.368333
5387.927939,-296.082377,1225.752797,10807.006753
5387.928262,-1406.391290,1149.143247,10955.047942
5387.928584,592.164754,1915.238745,8956.491898
5387.928907,2368.659014,2374.896044,7772.162391
5387.929230,296.082377,2068.457845,8068.244768
5387.929553,-1998.556043,842.705048,9104.533087
5387.929875,-666.185348,1685.410096,8586.388927
5387.930198,592.164754,2451.505594,7105.977043
5387.930521,592.164754,2834.553343,8882.471304
5387.930844,-518.144159,2145.067394,10214.842000
5387.931167,0.000000,2298.286494,11251.130318
5387.931489,592.164754,2834.553343,8660.409521
5387.931812,148.041188,2834.553343,7328.038826
5387.932135,-592.164754,1915.238745,9474.636058
5387.932458,-1998.556043,1608.800546,9696.697840
5387.932780,-962.267725,2068.457845,8364.327145
5387.933103,888.247130,1991.848295,6439.791695
5387.933426,-148.041188,2068.457845,8438.347739
5387.933749,-1036.288319,1225.752797,9030.512492
5387.934071,-2368.659014,919.314598,9918.759623
5387.934394,-1850.514855,1378.971896,8660.409521
5387.934717,-518.144159,1685.410096,8660.409521
5387.935040,0.000000,1149.143247,10288.862594
5387.935362,222.061783,1685.410096,10362.883188
5387.935685,-222.061783,1608.800546,9548.656652
5387.936008,74.020594,1991.848295,8808.450710
5387.936331,518.144159,766.095498,9474.636058
5387.936653,666.185348,612.876398,8734.430116
5387.936976,-148.041188,76.609550,8808.450710
5387.937299,-1332.370696,76.609550,9178.553681
5387.937622,-1628.453072,0.000000,9622.677246
5387.937945,-666.185348,-153.219100,9770.718434
5387.938267,-1406.391290,-612.876398,8216.285956
5387.938590,-1628.453072,-1302.362347,8956.491898
5387.938913,-518.144159,-766.095498,8438.347739
5387.939236,1110.308913,-153.219100,10732.986159
5387.939558,1850.514855,919.314598,9918.759623
5387.939881,592.164754,-153.219100,9474.636058
5387.940204,74.020594,-1991.848295,8734.430116
5387.940527,1110.308913,-1072.533697,8956.491898
5387.940849,1258.350101,383.047749,9696.697840
5387.941172,1924.535449,536.266849,10214.842000
5387.941495,-74.020594,-1532.190996,10881.027347
5387.941818,-222.061783,-1991.848295,9252.574275
5387.942140,888.247130,-1532.190996,9770.718434
5387.942463,592.164754,-766.095498,9030.512492
5387.942786,-740.205942,-842.705048,10732.986159
5387.943109,-1036.288319,-689.485948,11177.109724
5387.943431,148.041188,-1685.410096,9844.739029
5387.943754,1184.329507,-995.924147,8586.388927
5387.944077,0.000000,76.609550,9400.615463
5387.944400,-2368.659014,-612.876398,11917.315666
5387.944723,-888.247130,-842.705048,10362.883188
5387.945045,666.185348,0.000000,8364.327145
5387.945368,2294.638420,383.047749,8586.388927
5387.945691,-370.102971,229.828649,10288.862594
5387.946014,-2664.741391,-383.047749,10807.006753
5387.946336,296.082377,0.000000,8956.491898
5387.946659,1110.308913,689.485948,7772.162391
5387.946982,666.185348,1762.019645,7994.224174
5387.947305,-370.102971,1378.971896,10881.027347
5387.947627,0.000000,1532.190996,10955.047942
5387.947950,1406.391290,2757.943793,8438.347739
5387.948273,2368.659014,1991.848295,7846.182985
5387.948596,740.205942,1838.629195,10288.862594
5387.948918,-1480.411884,1915.238745,11325.150913
5387.949241,-1036.288319,2374.896044,8882.471304
5387.949564,-444.123565,1762.019645,6587.832884
5387.949887,-1998.556043,1225.752797,6587.832884
5387.950210,-2516.700203,459.657299,7920.203579
5387.950532,-2294.638420,1302.362347,8142.265362
5387.950855,-1850.514855,2528.115143,7328.038826
5387.951178,-1924.535449,2451.505594,8142.265362
5387.951501,-1998.556043,1455.581446,10066.800811
5387.951823,-2072.576638,1532.190996,9992.780217
5387.952146,-2220.617826,1838.629195,9104.533087
5387.952469,-1332.370696,1762.019645,8438.347739
5387.952792,0.000000,2374.896044,9326.594869
5387.953114,444.123565,2374.896044,9474.636058
5387.953437,222.061783,2911.162892,9474.636058
5387.953760,148.041188,2068.457845,7994.224174
5387.954083,888.247130,1532.190996,8734.430116
5387.954405,1480.411884,1991.848295,9400.615463
5387.954728,666.185348,1149.143247,9844.739029
5387.955051,0.000000,766.095498,9548.656652
5387.955374,1036.288319,536.266849,8956.491898
5387.955696,2220.617826,1149.143247,9770.718434
5387.956019,2368.659014,1532.190996,8808.450710
5387.956342,0.000000,842.705048,9326.594869
5387.956665,2516.700203,1072.533697,7772.162391
5387.956988,814.226536,919.314598,10214.842000
5387.957310,2072.576638,995.924147,8364.327145
5387.957633,0.000000,0.000000,9992.780217
5387.957956,-1924.535449,-1455.581446,9104.533087
5387.958279,-2220.617826,-1991.848295,10140.821405
5387.958601,-962.267725,-1608.800546,9474.636058
5387.958924,-1554.432478,-536.266849,10140.821405
5387.959247,-1628.453072,-1455.581446,10362.883188
5387.959570,-2442.679609,-2451.505594,9770.718434
5387.959892,518.144159,-1608.800546,8438.347739
5387.960215,1332.370696,-689.485948,8808.450710
5387.960538,444.123565,-919.314598,8586.388927
5387.960861,-740.205942,-2221.676944,11991.336260
5387.961183,370.102971,-1072.533697,10732.986159
5387.961506,1184.329507,-76.609550,9844.739029
5387.961829,2368.659014,0.000000,9400.615463
5387.962152,-1184.329507,-1149.143247,11325.150913
5387.962475,-1110.308913,-1455.581446,11177.109724
5387.962797,1110.308913,-383.047749,9844.739029
5387.963120,1850.514855,76.609550,8734.430116
5387.963443,222.061783,0.000000,9400.615463
5387.963766,-1184.329507,-1149.143247,10732.986159
5387.964088,-888.247130,-1685.410096,9918.759623
5387.964411,740.205942,306.438199,7994.224174
5387.964734,0.000000,536.266849,9178.553681
5387.965057,-1480.411884,0.000000,10584.944971
5387.965379,-1850.514855,0.000000,9844.739029
5387.965702,666.185348,1455.581446,7476.080014
5387.966025,222.061783,2221.676944,7624.121203
5387.966348,-1332.370696,766.095498,9178.553681
5387.966670,-2590.720797,153.219100,9696.697840
5387.966993,-2072.576638,1149.143247,9252.574275
5387.967316,-740.205942,1762.019645,7105.977043
5387.967639,-444.123565,1915.238745,8882.471304
5387.967961,-518.144159,1915.238745,9622.677246
5387.968284,0.000000,1991.848295,10807.006753
5387.968607,814.226536,2911.162892,7328.038826
5387.968930,1924.535449,2528.115143,7846.182985
5387.969253,296.082377,1991.848295,10140.821405
5387.969575,-592.164754,2911.162892,10584.944971
5387.969898,370.102971,2911.162892,9696.697840
5387.970221,222.061783,3217.601092,8808.450710
5387.970544,74.020594,2528.115143,8142.265362
5387.970867,0.000000,2145.067394,8882.471304
5387.971190,-296.082377,2374.896044,7624.121203
5387.971512,-1110.308913,2298.286494,7920.203579
5387.971835,-1110.308913,1991.848295,7772.162391
5387.972158,-1184.329507,1302.362347,8882.471304
5387.972481,-518.144159,1225.752797,7179.997637
5387.972804,-1184.329507,536.266849,7846.182985
5387.973126,-962.267725,919.314598,7476.080014
5387.973449,296.082377,689.485948,9252.574275
5387.973772,1554.432478,1072.533697,8734.430116
5387.974095,1998.556043,1378.971896,9474.636058
5387.974418,148.041188,689.485948,9326.594869
5387.974741,-296.082377,-229.828649,10066.800811
5387.975063,666.185348,-383.047749,9474.636058
5387.975386,74.020594,-153.219100,9474.636058
5387.975709,-962.267725,-1302.362347,10140.821405
5387.976032,-2294.638420,-2068.457845,10807.006753
5387.976355,-1110.308913,-2757.943793,9696.697840
5387.976678,-2220.617826,-2528.115143,9326.594869
5387.977000,-3256.906145,-2451.505594,9474.636058
5387.977323,-4145.153275,-3983.696590,11251.130318
5387.977646,-4663.297435,-4060.306139,10214.842000
5387.977969,-2960.823768,-3830.477490,9030.512492
5387.978292,-2664.741391,-4060.306139,8512.368333
5387.978614,-4885.359217,-4060.306139,10140.821405
5387.978937,-5107.421000,-4366.744339,12435.459826
5387.979260,-4811.338623,-4213.525239,10288.862594
5387.979583,-3256.906145,-4519.963438,9770.718434
5387.979906,-2072.576638,-3830.477490,8142.265362
5387.980229,-2220.617826,-4519.963438,10807.006753
5387.980551,-222.061783,-3370.820191,10288.862594
5387.980874,518.144159,-2145.067394,9770.718434
5387.981197,1036.288319,-2451.505594,8808.450710
5387.981520,1406.391290,-2528.115143,9548.656652
5387.981843,518.144159,-2451.505594,9992.780217
5387.982165,518.144159,-995.924147,10658.965565
5387.982488,-1036.288319,-1915.238745,9844.739029
5387.982811,-1332.370696,-1838.629195,10807.006753
5387.983134,-1110.308913,-1838.629195,9918.759623
5387.983457,-1480.411884,-1608.800546,9252.574275
5387.983780,-2368.659014,-842.705048,8660.409521
5387.984102,-4219.173869,-1149.143247,8290.306550
5387.984425,-3849.070898,-1072.533697,8586.388927
5387.984748,-3256.906145,-842.705048,7624.121203
5387.985071,-4145.153275,-766.095498,7328.038826
5387.985394,-5329.482782,-1302.362347,8438.347739
5387.985717,-6143.709319,-1838.629195,9400.615463
5387.986039,-4737.318029,-1072.533697,9104.533087
5387.986362,-4441.235652,-306.438199,8734.430116
5387.986685,-3552.988522,-306.438199,8364.327145
5387.987008,-3330.926739,-995.924147,9918.759623
5387.987331,-2368.659014,919.314598,8956.491898
5387.987653,296.082377,1302.362347,8512.368333
5387.987976,0.000000,1685.410096,8290.306550
5387.988299,-222.061783,1608.800546,9474.636058
5387.988622,1406.391290,1838.629195,9918.759623
5387.988945,2664.741391,2145.067394,9104.533087
5387.989268,1702.473667,2681.334243,7994.224174
5387.989590,592.164754,1072.533697,8956.491898
5387.989913,-1258.350101,306.438199,10140.821405
5387.990236,-888.247130,689.485948,8808.450710
5387.990559,-592.164754,0.000000,7920.203579
5387.990882,-2960.823768,-229.828649,8734.430116
5387.991204,-4885.359217,-1225.752797,10066.800811
5387.991527,-5181.441594,-1455.581446,9474.636058
5387.991850,-5255.462188,-2221.676944,7994.224174
5387.992173,-5699.585753,-2374.896044,8438.347739
5387.992496,-5329.482782,-2604.724693,8956.491898
5387.992819,-4071.132681,-2298.286494,10732.986159
5387.993141,-3997.112087,-1838.629195,9030.512492
5387.993464,-4441.235652,-3064.381992,8808.450710
5387.993787,-4663.297435,-3370.820191,9696.697840
5387.994110,-4219.173869,-3524.039291,9918.759623
5387.994433,-4145.153275,-2987.772442,9474.636058
5387.994755,-1184.329507,-1991.848295,8808.450710
5387.995078,0.000000,-2911.162892,9252.574275
5387.995401,-148.041188,-2451.505594,9474.636058
5387.995724,0.000000,-2374.896044,10436.903782
5387.996047,0.000000,-1072.533697,9992.780217
5387.996370,-888.247130,-1378.971896,10288.862594
5387.996692,-740.205942,-3140.991542,11029.068536
5387.997015,148.041188,-3217.601092,10436.903782
5387.997338,0.000000,-2374.896044,8956.491898
5387.997661,-1258.350101,-2374.896044,9474.636058
5387.997984,-2516.700203,-3294.210641,9918.759623
5387.998307,-2812.782580,-3294.210641,9030.512492
5387.998629,-1332.370696,-3753.867940,7698.141797
5387.998952,-2664.741391,-3217.601092,7476.080014
5387.999275,-4663.297435,-3983.696590,9178.553681
5387.999598,-4663.297435,-4060.306139,9770.718434
5387.999921,-3256.906145,-3524.039291,9696.697840
5388.000243,-3182.885551,-2911.162892,9030.512492
5388.000566,-4811.338623,-2451.505594,10214.842000
5388.000889,-4219.173869,-3064.381992,11029.068536
5388.001212,-1850.514855,-2451.505594,10140.821405
5388.001535,-1480.411884,-1838.629195,8734.430116
5388.001858,-2368.659014,-2451.505594,9696.697840
5388.002180,-2590.720797,-3217.601092,10658.965565
5388.002503,-1998.556043,-2451.505594,9770.718434
5388.002826,-740.205942,-1915.238745,8068.244768
5388.003149,-666.185348,-1072.533697,8882.471304
5388.003472,-1554.432478,-1685.410096,11103.089130
5388.003794,-1406.391290,-1149.143247,10732.986159
5388.004117,148.041188,0.000000,9474.636058
5388.004440,0.000000,459.657299,8734.430116
5388.004763,-1702.473667,-306.438199,10066.800811
5388.005086,-2738.761985,-1532.190996,10584.944971
5388.005409,-3256.906145,-1455.581446,9030.512492
5388.005731,-3256.906145,-766.095498,7031.956449
5388.006054,-2812.782580,-766.095498,7254.018232
5388.006377,-2738.761985,-1685.410096,8216.285956
5388.006700,-2886.803174,-766.095498,8142.265362
5388.007023,-2516.700203,0.000000,7772.162391
5388.007346,-2368.659014,-766.095498,7994.224174
5388.007668,-2590.720797,-1455.581446,8956.491898
5388.007991,-2146.597232,-689.485948,9474.636058
5388.008314,-1702.473667,383.047749,10436.903782
5388.008637,-2220.617826,0.000000,9992.780217
5388.008960,-2072.576638,-536.266849,10510.924376
5388.009282,-1480.411884,-1072.533697,9474.636058
5388.009605,-1184.329507,-383.047749,8438.347739
5388.009928,-1184.329507,76.609550,7920.203579
5388.010251,-666.185348,153.219100,7846.182985
5388.010574,370.102971,-229.828649,7920.203579
5388.010897,296.082377,612.876398,7846.182985
5388.011219,-666.185348,76.609550,8882.471304
5388.011542,-2886.803174,-689.485948,10288.862594
5388.011865,-2738.761985,-1302.362347,10881.027347
5388.012188,-2516.700203,-1838.629195,10436.903782
5388.012511,-3627.009116,-2068.457845,9548.656652
5388.012833,-4663.297435,-1991.848295,9178.553681
5388.013156,-4959.379811,-2757.943793,8956.491898
5388.013479,-3478.967927,-2451.505594,7920.203579
5388.013802,-2590.720797,-1532.190996,6587.832884
5388.014125,-2516.700203,-1455.581446,7254.018232
5388.014448,-1628.453072,-1072.533697,8882.471304
5388.014770,-1258.350101,-383.047749,9252.574275
5388.015093,74.020594,76.609550,9474.636058
5388.015416,0.000000,0.000000,10658.965565
5388.015739,-1702.473667,-995.924147,11621.233289
5388.016062,-1628.453072,-1378.971896,12213.398043
5388.016384,-1554.432478,-2145.067394,11251.130318
5388.016707,-2590.720797,-2681.334243,9548.656652
5388.017030,-4589.276840,-4213.525239,9474.636058
5388.017353,-4441.235652,-5362.668486,9548.656652
5388.017676,-3923.091493,-4826.401637,7772.162391
5388.017999,-3330.926739,-4366.744339,6587.832884
5388.018321,-3478.967927,-3447.429741,7920.203579
5388.018644,-2368.659014,-3217.601092,9474.636058
5388.018967,-1702.473667,-1685.410096,9474.636058
5388.019290,0.000000,-1225.752797,10362.883188
5388.019613,-370.102971,-383.047749,10881.027347
5388.019936,-1036.288319,-1378.971896,12879.583391
5388.020258,-1628.453072,-1149.143247,12287.418637
5388.020581,-1258.350101,-1455.581446,11029.068536
5388.020904,-2294.638420,-2145.067394,9622.677246
5388.021227,-3997.112087,-3677.258390,8956.491898
5388.021550,-4145.153275,-5132.839837,8290.306550
5388.021872,-3478.967927,-4443.353888,6661.853478
5388.022195,-3923.091493,-4136.915689,5773.606348
5388.022518,-3923.091493,-3830.477490,6957.935855
5388.022841,-3849.070898,-3524.039291,8364.327145
5388.023164,-2072.576638,-1838.629195,8956.491898
5388.023487,-962.267725,-229.828649,9104.533087
5388.023809,-962.267725,-153.219100,10436.903782
5388.024132,-814.226536,229.828649,11843.295072
5388.024455,-962.267725,-153.219100,11991.336260
5388.024778,-1332.370696,0.000000,10807.006753
5388.025101,-2146.597232,-612.876398,10510.924376
5388.025423,-2812.782580,-1915.238745,10214.842000
5388.025746,-2664.741391,-2298.286494,9178.553681
5388.026069,-1850.514855,-1608.800546,7179.997637
5388.026392,-2442.679609,-1532.190996,6883.915261
5388.026715,-1998.556043,-1838.629195,7476.080014
5388.027038,222.061783,-995.924147,7328.038826
5388.027360,1480.411884,229.828649,8660.409521
5388.027683,888.247130,1072.533697,9548.656652
5388.028006,444.123565,995.924147,11399.171507
5388.028329,666.185348,1685.410096,11843.295072
5388.028652,1110.308913,2374.896044,12139.377449
5388.028975,814.226536,1838.629195,11695.253884
5388.029297,222.061783,1302.362347,11399.171507
5388.029620,1110.308913,1762.019645,10510.924376
5388.029943,2146.597232,1608.800546,8660.409521
5388.030266,1110.308913,1225.752797,6513.812290
5388.030589,0.000000,919.314598,6217.729913
5388.030911,-592.164754,229.828649,5699.585753
5388.031234,-1184.329507,536.266849,6069.688724
5388.031557,-740.205942,1302.362347,5921.647536
5388.031880,-2146.597232,383.047749,7031.956449
5388.032203,-4219.173869,0.000000,8882.471304
5388.032526,-4071.132681,153.219100,10066.800811
5388.032848,-4145.153275,0.000000,10140.821405
5388.033171,-4811.338623,76.609550,9326.594869
5388.033494,-5699.585753,-1072.533697,9918.759623
5388.033817,-5699.585753,-1225.752797,9548.656652
5388.034140,-4885.359217,-1302.362347,8068.244768
5388.034462,-4737.318029,-1608.800546,7031.956449
5388.034785,-5551.544565,-2374.896044,7550.100608
5388.035108,-5477.523971,-3217.601092,8512.368333
5388.035431,-5033.400406,-2757.943793,8438.347739
5388.035754,-4367.215058,-2451.505594,9178.553681
5388.036077,-5107.421000,-3140.991542,9770.718434
5388.036399,-5625.565159,-3677.258390,11843.295072
5388.036722,-4959.379811,-3830.477490,12065.356855
5388.037045,-4071.132681,-2987.772442,11843.295072
5388.037368,-4737.318029,-3064.381992,11325.150913
5388.037691,-5033.400406,-4060.306139,11769.274478
5388.038013,-4737.318029,-4519.963438,11251.130318
5388.038336,-3478.967927,-4519.963438,9548.656652
5388.038659,-4589.276840,-5515.887586,7772.162391
5388.038982,-4959.379811,-5898.935335,9400.615463
5388.039305,-5255.462188,-6511.811733,9622.677246
5388.039628,-4071.132681,-6281.983084,8660.409521
5388.039950,-2738.761985,-5822.325785,8512.368333
5388.040273,-2294.638420,-4979.620737,9770.718434
5388.040596,-1110.308913,-4366.744339,10807.006753
5388.040919,592.164754,-3370.820191,11177.109724
5388.041242,1480.411884,-2298.286494,10955.047942
5388.041565,1332.370696,-2145.067394,11177.109724
5388.041887,1036.288319,-2451.505594,11991.336260
5388.042210,1554.432478,-2681.334243,11547.212695
5388.042533,888.247130,-2451.505594,9622.677246
5388.042856,0.000000,-3140.991542,8734.430116
5388.043179,-592.164754,-3140.991542,8808.450710
5388.043501,-518.144159,-3524.039291,8142.265362
5388.043824,0.000000,-2528.115143,6957.935855
5388.044147,222.061783,-1991.848295,6661.853478
5388.044470,-444.123565,-1455.581446,7698.141797
5388.044793,444.123565,-306.438199,8734.430116
5388.045116,1998.556043,1608.800546,9252.574275
5388.045438,2072.576638,2987.772442,9918.759623
5388.045761,962.267725,2528.115143,10807.006753
5388.046084,0.000000,2068.457845,12065.356855
5388.046407,0.000000,1915.238745,11029.068536
5388.046730,-1258.350101,1225.752797,9104.533087
5388.047052,-3330.926739,153.219100,8808.450710
5388.047375,-4367.215058,-536.266849,8068.244768
5388.047698,-5181.441594,-1149.143247,7105.977043
5388.048021,-3997.112087,0.000000,6069.688724
5388.048344,-3849.070898,842.705048,5625.565159
5388.048667,-4293.194464,1378.971896,6735.874072
5388.048989,-2368.659014,2374.896044,7994.224174
5388.049312,-962.267725,4213.525239,9104.533087
5388.049635,-740.205942,4749.792088,9474.636058
5388.049958,-2368.659014,4060.306139,11621.233289
5388.050281,-2664.741391,3140.991542,12213.398043
5388.050604,-2590.720797,2681.334243,10955.047942
5388.050926,-3997.112087,1455.581446,9252.574275
5388.051249,-5773.606348,-612.876398,8586.388927
5388.051572,-6883.915261,-2451.505594,7402.059420
5388.051895,-6143.709319,-1762.019645,5403.503377
5388.052218,-4811.338623,-1991.848295,4515.256246
5388.052540,-3552.988522,-1072.533697,5033.400406
5388.052863,-4441.235652,-1225.752797,7476.080014
5388.053186,-3849.070898,-689.485948,9252.574275
5388.053509,-1628.453072,0.000000,9474.636058
5388.053832,-1702.473667,766.095498,10732.986159
5388.054155,-1628.453072,536.266849,12879.583391
5388.054477,-2146.597232,-1302.362347,13693.809927
5388.054800,-1554.432478,-1838.629195,10807.006753
5388.055123,-1850.514855,-2528.115143,8586.388927
5388.055446,-2664.741391,-4290.134789,8882.471304
5388.055769,-3701.029710,-5515.887586,8734.430116
5388.056091,-2590.720797,-5898.935335,7402.059420
5388.056414,-1554.432478,-5286.058936,6439.791695
5388.056737,-1554.432478,-5898.935335,7624.121203
5388.057060,-1850.514855,-5822.325785,9622.677246
5388.057383,-148.041188,-4826.401637,10732.986159
5388.057706,74.020594,-3907.087040,11843.295072
5388.058028,444.123565,-2757.943793,13027.624579
5388.058351,740.205942,-2911.162892,14804.118840
5388.058674,2072.576638,-2834.553343,13767.830521
5388.058997,1702.473667,-2221.676944,11917.315666
5388.059320,592.164754,-3983.696590,10362.883188
5388.059642,-444.123565,-4826.401637,10214.842000
5388.059965,-370.102971,-4519.963438,8586.388927
5388.060288,-444.123565,-4443.353888,7476.080014
5388.060611,-2368.659014,-4443.353888,7105.977043
5388.060934,-4071.132681,-4903.011187,8068.244768
5388.061257,-3330.926739,-4826.401637,7698.141797
5388.061579,-3108.864956,-4290.134789,8068.244768
5388.061902,-3034.844362,-2911.162892,8808.450710
5388.062225,-2886.803174,-2374.896044,10214.842000
5388.062548,-2812.782580,-1838.629195,11695.253884
5388.062871,-2590.720797,-766.095498,11769.274478
5388.063194,-3034.844362,-383.047749,9844.739029
5388.063516,-3478.967927,-919.314598,9474.636058
5388.063839,-3108.864956,-1225.752797,9252.574275
5388.064162,-2886.803174,-1225.752797,8068.244768
5388.064485,-2146.597232,-919.314598,7179.997637
5388.064808,-3775.050304,-612.876398,6809.894666
5388.065130,-5625.565159,-1838.629195,7476.080014
5388.065453,-5107.421000,-2374.896044,7846.182985
5388.065776,-5107.421000,-842.705048,7698.141797
5388.066099,-2812.782580,-919.314598,7994.224174
5388.066422,-3627.009116,0.000000,9400.615463
5388.066745,-3923.091493,306.438199,11547.212695
5388.067067,-3108.864956,919.314598,11325.150913
5388.067390,-2812.782580,766.095498,9178.553681
5388.067713,-3256.906145,536.266849,9770.718434
5388.068036,-2294.638420,766.095498,9622.677246
5388.068359,-1554.432478,995.924147,9104.533087
5388.068681,-740.205942,1455.581446,8142.265362
5388.069004,-2146.597232,229.828649,7402.059420
5388.069327,-4737.318029,-689.485948,8216.285956
5388.069650,-3775.050304,-306.438199,8142.265362
5388.069973,-2590.720797,76.609550,8216.285956
5388.070296,-2368.659014,-842.705048,9326.594869
5388.070618,-3108.864956,-689.485948,10066.800811
5388.070941,-2886.803174,-1072.533697,9844.739029
5388.071264,-1110.308913,0.000000,8734.430116
5388.071587,-1628.453072,-306.438199,8142.265362
5388.071910,-148.041188,-536.266849,8438.347739
5388.072232,0.000000,-306.438199,9252.574275
5388.072555,1406.391290,229.828649,7772.162391
5388.072878,2664.741391,995.924147,7476.080014
5388.073200,2072.576638,612.876398,7846.182985
5388.073523,1258.350101,76.609550,10066.800811
5388.073846,518.144159,229.828649,11251.130318
5388.074168,518.144159,536.266849,11621.233289
5388.074491,-444.123565,383.047749,10658.965565
5388.074814,-444.123565,-1225.752797,10510.924376
5388.075136,0.000000,-1455.581446,9474.636058
5388.075459,-370.102971,-1225.752797,8882.471304
5388.075782,-1406.391290,-1072.533697,8956.491898
5388.076105,-2294.638420,-2374.896044,8882.471304
5388.076427,-2368.659014,-2528.115143,8882.471304
5388.076750,-1776.494261,-2298.286494,8290.306550
5388.077073,-2072.576638,-1532.190996,9548.656652
5388.077395,-2590.720797,-2451.505594,10807.006753
5388.077718,-3108.864956,-1608.800546,10807.006753
5388.078041,0.000000,-766.095498,9844.739029
5388.078363,370.102971,-536.266849,9474.636058
5388.078686,-1036.288319,-536.266849,10214.842000
5388.079009,-1036.288319,-842.705048,10807.006753
5388.079331,592.164754,-1072.533697,9252.574275
5388.079654,2368.659014,-153.219100,7698.141797
5388.079977,1184.329507,-306.438199,8956.491898
5388.080299,-1924.535449,-2451.505594,9696.697840
5388.080622,-1850.514855,-2757.943793,9844.739029
5388.080945,-1036.288319,-2451.505594,8734.430116
5388.081267,-962.267725,-1915.238745,8290.306550
5388.081590,-2664.741391,-2451.505594,9992.780217
5388.081913,-3849.070898,-1991.848295,10955.047942
5388.082235,-2072.576638,-1608.800546,9918.759623
5388.082558,-2442.679609,-229.828649,7772.162391
5388.082881,-1998.556043,-1302.362347,8142.265362
5388.083204,-1850.514855,-842.705048,10288.862594
5388.083526,-1998.556043,-995.924147,9474.636058
5388.083849,-1184.329507,-612.876398,7772.162391
5388.084172,-592.164754,-995.924147,7846.182985
5388.084494,-1036.288319,-995.924147,10140.821405
5388.084817,-1480.411884,-766.095498,10881.027347
5388.085140,-1184.329507,-612.876398,10584.944971
5388.085462,0.000000,-459.657299,10140.821405
5388.085785,-296.082377,-1149.143247,9918.759623
5388.086108,0.000000,-766.095498,11399.171507
5388.086430,-1406.391290,689.485948,11695.253884
5388.086753,-740.205942,1455.581446,10658.965565
5388.087076,888.247130,1685.410096,9400.615463
5388.087398,3627.009116,2298.286494,7994.224174
5388.087721,3182.885551,2528.115143,8734.430116
5388.088044,444.123565,3064.381992,7846.182985
5388.088366,296.082377,2298.286494,9918.759623
5388.088689,1332.370696,1991.848295,7846.182985
5388.089012,592.164754,2298.286494,8586.388927
5388.089334,-666.185348,2145.067394,8068.244768
5388.089657,-1480.411884,1762.019645,8734.430116
5388.089980,-1702.473667,1225.752797,9252.574275
5388.090303,444.123565,2145.067394,8808.450710
5388.090625,0.000000,1915.238745,8216.285956
5388.090948,-1776.494261,2451.505594,8068.244768
5388.091271,-1628.453072,2528.115143,9474.636058
5388.091593,1554.432478,3294.210641,8142.265362
5388.091916,2960.823768,4366.744339,7105.977043
5388.092239,1554.432478,4519.963438,8364.327145
5388.092561,222.061783,2681.334243,10214.842000
5388.092884,0.000000,2681.334243,8882.471304
5388.093207,2072.576638,3677.258390,6883.915261
5388.093529,1554.432478,3294.210641,7920.203579
5388.093852,-1702.473667,2221.676944,9252.574275
5388.094175,-1258.350101,1302.362347,9622.677246
5388.094497,0.000000,995.924147,8438.347739
5388.094820,666.185348,1915.238745,8438.347739
5388.095143,-1702.473667,1302.362347,9918.759623
5388.095465,-2146.597232,459.657299,11103.089130
5388.095788,0.000000,919.314598,10584.944971
5388.096111,2146.597232,1991.848295,7772.162391
5388.096433,1554.432478,1915.238745,9548.656652
5388.096756,370.102971,1378.971896,10807.006753
5388.097079,518.144159,842.705048,10807.006753
5388.097402,2072.576638,1685.410096,9474.636058
5388.097724,2146.597232,919.314598,8734.430116
5388.098047,-518.144159,153.219100,10881.027347
5388.098370,-1554.432478,-536.266849,11251.130318
5388.098692,-740.205942,-612.876398,9844.739029
5388.099015,1036.288319,-459.657299,7624.121203
5388.099338,518.144159,0.000000,7994.224174
5388.099660,0.000000,0.000000,9918.759623
5388.099983,-148.041188,-612.876398,9622.677246
5388.100306,-148.041188,-612.876398,7328.038826
5388.100628,370.102971,-842.705048,6587.832884
5388.100951,-370.102971,-842.705048,9474.636058
5388.101274,-2146.597232,-1915.238745,10732.986159
5388.101596,-1628.453072,-995.924147,9992.780217
5388.101919,-888.247130,-1838.629195,8438.347739
5388.102242,-222.061783,-1532.190996,9030.512492
5388.102564,-1184.329507,-1762.019645,10066.800811
5388.102887,-592.164754,-1991.848295,9252.574275
5388.103210,-444.123565,-1762.019645,9844.739029
5388.103532,-222.061783,-1685.410096,8882.471304
5388.103855,74.020594,-2298.286494,11399.171507
5388.104178,0.000000,-1378.971896,10140.821405
5388.104501,-592.164754,-1302.362347,10214.842000
5388.104823,222.061783,-2145.067394,9918.759623
5388.105146,370.102971,-1225.752797,11399.171507
5388.105469,370.102971,459.657299,11325.150913
5388.105791,148.041188,0.000000,11325.150913
5388.106114,-1480.411884,-842.705048,10584.944971
5388.106437,-814.226536,-536.266849,9474.636058
5388.106759,0.000000,0.000000,9474.636058
5388.107082,-888.247130,689.485948,9918.759623
5388.107405,-1776.494261,536.266849,9770.718434
5388.107727,-1776.494261,459.657299,9770.718434
5388.108050,-296.082377,1378.971896,9474.636058
5388.108373,444.123565,2221.676944,8068.244768
5388.108695,-1628.453072,1378.971896,8512.368333
5388.109018,-740.205942,1455.581446,9104.533087
5388.109341,592.164754,1991.848295,8438.347739
5388.109663,1110.308913,3064.381992,7328.038826
5388.109986,-222.061783,2987.772442,7920.203579
5388.110309,-1702.473667,2528.115143,7920.203579
5388.110631,-814.226536,2451.505594,8068.244768
5388.110954,1850.514855,3983.696590,5625.565159
5388.111277,-1184.329507,3294.210641,9030.512492
5388.111600,0.000000,3294.210641,7476.080014
5388.111922,-1480.411884,2604.724693,11325.150913
5388.112245,1258.350101,3600.648841,7179.997637
5388.112568,2072.576638,3217.601092,8216.285956
5388.112890,148.041188,3370.820191,8808.450710
5388.113213,-518.144159,1991.848295,11621.233289
5388.113536,0.000000,2221.676944,9548.656652
5388.113858,1554.432478,2374.896044,8142.265362
5388.114181,1184.329507,2298.286494,9252.574275
5388.114504,-1480.411884,2068.457845,10288.862594
5388.114826,-222.061783,1532.190996,10881.027347
5388.115149,1628.453072,2068.457845,8734.430116
5388.115472,2960.823768,3140.991542,7402.059420
5388.115794,962.267725,2451.505594,9696.697840
