#time,accel_x,accel_y,accel_z
2009.122903,888.247130,1149.143247,9474.636058
2009.123224,0.000000,459.657299,8808.450710
2009.123546,-518.144159,689.485948,9548.656652
2009.123868,0.000000,612.876398,10066.800811
2009.124190,148.041188,459.657299,9400.615463
2009.124512,0.000000,766.095498,9400.615463
2009.124834,-814.226536,-919.314598,9474.636058
2009.125156,-1332.370696,153.219100,9474.636058
2009.125477,-444.123565,76.609550,9474.636058
2009.125799,-518.144159,383.047749,9474.636058
2009.126121,-1110.308913,306.438199,9252.574275
2009.126443,-814.226536,383.047749,9252.574275
2009.126765,444.123565,229.828649,9474.636058
2009.127087,888.247130,1225.752797,8734.430116
2009.127409,-148.041188,459.657299,8512.368333
2009.127730,0.000000,689.485948,9252.574275
2009.128052,296.082377,612.876398,9474.636058
2009.128374,222.061783,536.266849,8882.471304
2009.128696,0.000000,229.828649,8882.471304
2009.129018,-666.185348,306.438199,9178.553681
2009.129340,-222.061783,306.438199,9918.759623
2009.129662,518.144159,306.438199,9548.656652
2009.129983,-370.102971,766.095498,9178.553681
2009.130305,-888.247130,612.876398,9400.615463
2009.130627,148.041188,919.314598,9918.759623
2009.130949,1702.473667,1455.581446,9770.718434
2009.131271,814.226536,919.314598,8882.471304
2009.131593,-296.082377,919.314598,9252.574275
2009.131915,962.267725,766.095498,10214.842000
2009.132236,962.267725,1532.190996,9474.636058
2009.132558,814.226536,995.924147,9178.553681
2009.132880,-370.102971,612.876398,9326.594869
2009.133202,-814.226536,919.314598,9252.574275
2009.133524,592.164754,1149.143247,9104.533087
2009.133846,666.185348,1225.752797,9030.512492
2009.134168,74.020594,306.438199,8956.491898
2009.134490,0.000000,1302.362347,9400.615463
2009.134811,1850.514855,2145.067394,9178.553681
2009.135133,2590.720797,2221.676944,9104.533087
2009.135455,1480.411884,1685.410096,8882.471304
2009.135777,1258.350101,2374.896044,9622.677246
2009.136099,2368.659014,2911.162892,9252.574275
2009.136421,2738.761985,2068.457845,9400.615463
2009.136743,2516.700203,2068.457845,9918.759623
2009.137064,888.247130,2145.067394,9474.636058
2009.137386,1776.494261,2528.115143,9918.759623
2009.137708,2960.823768,2451.505594,9548.656652
2009.138030,2590.720797,2757.943793,9622.677246
2009.138352,2368.659014,3677.258390,9770.718434
2009.138674,2516.700203,3830.477490,9030.512492
2009.138996,4737.318029,3907.087040,9030.512492
2009.139317,4663.297435,3753.867940,8660.409521
2009.139639,2738.761985,3907.087040,8438.347739
2009.139961,3256.906145,4060.306139,8956.491898
2009.140283,3701.029710,3983.696590,8734.430116
2009.140605,3404.947333,3830.477490,8438.347739
2009.140927,2516.700203,3983.696590,8660.409521
2009.141249,1258.350101,3677.258390,8364.327145
2009.141570,1924.535449,3600.648841,8142.265362
2009.141892,1850.514855,3140.991542,8882.471304
2009.142214,1036.288319,3140.991542,9474.636058
2009.142536,0.000000,3370.820191,9474.636058
2009.142858,814.226536,3294.210641,9326.594869
2009.143180,1924.535449,2221.676944,9252.574275
2009.143502,592.164754,2528.115143,8882.471304
2009.143823,-296.082377,2451.505594,9400.615463
2009.144145,518.144159,2528.115143,9252.574275
2009.144467,1628.453072,2604.724693,8956.491898
2009.144789,2072.576638,2681.334243,9104.533087
2009.145111,1332.370696,2757.943793,9474.636058
2009.145433,1554.432478,3217.601092,8956.491898
2009.145755,3552.988522,3140.991542,9030.512492
2009.146076,2664.741391,2528.115143,9474.636058
2009.146398,1406.391290,1838.629195,10658.965565
2009.146720,296.082377,1532.190996,10362.883188
2009.147042,1406.391290,1072.533697,9770.718434
2009.147364,962.267725,689.485948,9696.697840
2009.147686,-666.185348,0.000000,9844.739029
2009.148008,148.041188,612.876398,9844.739029
2009.148330,2294.638420,1378.971896,9844.739029
2009.148651,3108.864956,1915.238745,9178.553681
2009.148973,2812.782580,2298.286494,9030.512492
2009.149295,2294.638420,2528.115143,8586.388927
2009.149617,3627.009116,2757.943793,8290.306550
2009.149939,4145.153275,2374.896044,8438.347739
2009.150261,3330.926739,2834.553343,8808.450710
2009.150583,2146.597232,2681.334243,9326.594869
2009.150904,2368.659014,2145.067394,9622.677246
2009.151226,2590.720797,1608.800546,9844.739029
2009.151548,814.226536,459.657299,9770.718434
2009.151870,-1110.308913,306.438199,10362.883188
2009.152192,-740.205942,383.047749,10510.924376
2009.152514,666.185348,0.000000,8660.409521
2009.152836,296.082377,76.609550,9400.615463
2009.153157,148.041188,1225.752797,9400.615463
2009.153479,-444.123565,1608.800546,9178.553681
2009.153801,2368.659014,2374.896044,7846.182985
2009.154123,3330.926739,2911.162892,7994.224174
2009.154445,4515.256246,4749.792088,8882.471304
2009.154767,4663.297435,5439.278036,9474.636058
2009.155089,6587.832884,6052.154434,9178.553681
2009.155410,6957.935855,5209.449386,9622.677246
2009.155732,4885.359217,4213.525239,8808.450710
2009.156054,3182.885551,3983.696590,10362.883188
2009.156376,2590.720797,3447.429741,10584.944971
2009.156698,962.267725,2145.067394,10955.047942
2009.157020,-962.267725,1532.190996,10658.965565
2009.157342,-3552.988522,306.438199,9770.718434
2009.157663,-3256.906145,842.705048,8216.285956
2009.157985,-1480.411884,2298.286494,8956.491898
2009.158307,-222.061783,3447.429741,9400.615463
2009.158629,962.267725,4366.744339,8660.409521
2009.158951,2886.803174,5669.106685,7105.977043
2009.159273,5995.668130,7354.516781,7254.018232
2009.159595,5403.503377,7124.688131,7698.141797
2009.159916,3552.988522,5975.544884,8808.450710
2009.160238,3775.050304,5132.839837,8290.306550
2009.160560,4219.173869,4443.353888,8216.285956
2009.160882,3108.864956,3830.477490,8660.409521
2009.161204,518.144159,2451.505594,9844.739029
2009.161526,-1480.411884,1378.971896,10066.800811
2009.161848,74.020594,842.705048,10066.800811
2009.162170,0.000000,536.266849,10214.842000
2009.162491,-1184.329507,1378.971896,10584.944971
2009.162813,-1036.288319,1762.019645,10955.047942
2009.163135,1406.391290,2834.553343,10140.821405
2009.163457,4663.297435,3753.867940,9992.780217
2009.163779,3775.050304,4060.306139,9252.574275
2009.164101,3997.112087,5286.058936,9400.615463
2009.164423,5921.647536,5975.544884,9326.594869
2009.164744,5699.585753,4903.011187,8216.285956
2009.165066,3775.050304,3294.210641,8216.285956
2009.165388,1628.453072,1991.848295,8142.265362
2009.165710,74.020594,1608.800546,9474.636058
2009.166032,1184.329507,766.095498,9770.718434
2009.166354,444.123565,-153.219100,9622.677246
2009.166676,-1776.494261,0.000000,9104.533087
2009.166997,-962.267725,842.705048,9622.677246
2009.167319,0.000000,229.828649,9844.739029
2009.167641,2516.700203,612.876398,9030.512492
2009.167963,2368.659014,2068.457845,9400.615463
2009.168285,2886.803174,3983.696590,10658.965565
2009.168607,4219.173869,3983.696590,9548.656652
2009.168929,5329.482782,3753.867940,7920.203579
2009.169250,4737.318029,4213.525239,8956.491898
2009.169572,2442.679609,3370.820191,8882.471304
2009.169894,1628.453072,2221.676944,8142.265362
2009.170216,3404.947333,1608.800546,7772.162391
2009.170538,1776.494261,1302.362347,9252.574275
2009.170860,-1036.288319,766.095498,11103.089130
2009.171182,-2072.576638,536.266849,10732.986159
2009.171503,148.041188,842.705048,10214.842000
2009.171825,148.041188,153.219100,8660.409521
2009.172147,-518.144159,459.657299,9474.636058
2009.172469,518.144159,2221.676944,10362.883188
2009.172791,2812.782580,3600.648841,10066.800811
2009.173113,2664.741391,2451.505594,8364.327145
2009.173435,1332.370696,3217.601092,7550.100608
2009.173757,888.247130,3140.991542,8068.244768
2009.174078,1480.411884,3677.258390,7772.162391
2009.174400,2294.638420,2987.772442,8216.285956
2009.174722,1258.350101,2451.505594,8734.430116
2009.175044,-962.267725,1915.238745,9548.656652
2009.175366,-1480.411884,1149.143247,8068.244768
2009.175688,74.020594,306.438199,8364.327145
2009.176010,370.102971,383.047749,10288.862594
2009.176331,592.164754,1455.581446,11621.233289
2009.176653,1924.535449,2298.286494,12731.542202
2009.176975,3108.864956,2145.067394,10510.924376
2009.177297,4663.297435,2604.724693,9696.697840
2009.177619,4589.276840,3907.087040,9918.759623
2009.177941,3849.070898,4826.401637,10955.047942
2009.178263,4367.215058,3294.210641,9474.636058
2009.178584,4959.379811,3907.087040,9918.759623
2009.178906,3182.885551,3370.820191,7476.080014
2009.179228,1554.432478,2834.553343,6587.832884
2009.179550,2294.638420,3370.820191,8438.347739
2009.179871,2738.761985,2451.505594,8216.285956
2009.180193,1480.411884,2451.505594,9400.615463
2009.180514,1406.391290,2451.505594,9030.512492
2009.180836,1628.453072,2374.896044,8290.306550
2009.181157,1702.473667,2911.162892,9178.553681
2009.181479,1776.494261,2681.334243,9992.780217
2009.181800,592.164754,2681.334243,10881.027347
2009.182122,2442.679609,3447.429741,9622.677246
2009.182443,3404.947333,3447.429741,8364.327145
2009.182765,2738.761985,3064.381992,8512.368333
2009.183086,1406.391290,4979.620737,9622.677246
2009.183408,1998.556043,3983.696590,8142.265362
2009.183729,4219.173869,3447.429741,7772.162391
2009.184051,3182.885551,3524.039291,7920.203579
2009.184372,1332.370696,3447.429741,9030.512492
2009.184694,-296.082377,2987.772442,9622.677246
2009.185015,-74.020594,2145.067394,8290.306550
2009.185337,1258.350101,689.485948,8216.285956
2009.185658,-296.082377,1838.629195,9696.697840
2009.185980,-1776.494261,1915.238745,9696.697840
2009.186301,-814.226536,1072.533697,9622.677246
2009.186623,-666.185348,1532.190996,10140.821405
2009.186944,-1036.288319,919.314598,10436.903782
2009.187266,-1110.308913,1455.581446,9622.677246
2009.187587,0.000000,1685.410096,9400.615463
2009.187908,1184.329507,1455.581446,11177.109724
2009.188230,-518.144159,1532.190996,9178.553681
2009.188551,-444.123565,153.219100,9474.636058
2009.188873,-370.102971,1149.143247,8734.430116
2009.189194,-222.061783,229.828649,8660.409521
2009.189516,-370.102971,153.219100,9844.739029
2009.189837,-518.144159,-1762.019645,10066.800811
2009.190159,-1554.432478,-612.876398,9400.615463
2009.190480,-814.226536,-919.314598,9696.697840
2009.190802,-2368.659014,-1685.410096,9178.553681
2009.191123,-2368.659014,-1685.410096,9474.636058
2009.191445,-2368.659014,-1378.971896,8660.409521
2009.191766,-518.144159,-229.828649,8808.450710
2009.192088,-740.205942,-459.657299,8660.409521
2009.192409,-888.247130,-1302.362347,7920.203579
2009.192731,-222.061783,-1302.362347,7994.224174
2009.193052,1332.370696,0.000000,8438.347739
2009.193374,1406.391290,0.000000,9326.594869
2009.193695,666.185348,-1991.848295,8956.491898
2009.194017,-888.247130,-1608.800546,9474.636058
2009.194338,1924.535449,-689.485948,9548.656652
2009.194660,2220.617826,-919.314598,11177.109724
2009.194981,1036.288319,-1149.143247,10510.924376
2009.195303,148.041188,-1455.581446,11177.109724
2009.195624,1184.329507,-536.266849,10584.944971
2009.195945,2590.720797,-383.047749,10066.800811
2009.196267,1036.288319,-766.095498,9474.636058
2009.196588,-1850.514855,-612.876398,10214.842000
2009.196910,-814.226536,76.609550,11325.150913
2009.197231,-74.020594,-1685.410096,8956.491898
2009.197553,-1480.411884,-1532.190996,8364.327145
2009.197874,-3108.864956,-153.219100,8364.327145
2009.198196,-2738.761985,0.000000,7994.224174
2009.198517,0.000000,383.047749,7994.224174
2009.198839,518.144159,383.047749,7772.162391
2009.199160,-1332.370696,919.314598,8808.450710
2009.199482,-1998.556043,1915.238745,8808.450710
2009.199803,1332.370696,1225.752797,8956.491898
2009.200125,3108.864956,1915.238745,10214.842000
2009.200446,1628.453072,2374.896044,10436.903782
2009.200768,74.020594,2987.772442,10066.800811
2009.201089,2368.659014,3294.210641,9770.718434
2009.201411,3478.967927,2528.115143,8068.244768
2009.201732,2442.679609,2221.676944,9474.636058
2009.202054,74.020594,3830.477490,10881.027347
2009.202375,-814.226536,2987.772442,9696.697840
2009.202697,1406.391290,1991.848295,8438.347739
2009.203018,1554.432478,2221.676944,8956.491898
2009.203340,-1702.473667,3447.429741,9252.574275
2009.203661,-3034.844362,3447.429741,7254.018232
2009.203982,0.000000,1762.019645,8364.327145
2009.204304,0.000000,2298.286494,8142.265362
2009.204625,-2146.597232,1685.410096,9252.574275
2009.204947,-3923.091493,1838.629195,9622.677246
2009.205268,-3997.112087,919.314598,8068.244768
2009.205590,-1628.453072,306.438199,8882.471304
2009.205911,-2664.741391,306.438199,9252.574275
2009.206233,-3182.885551,229.828649,9696.697840
2009.206554,-2368.659014,919.314598,8586.388927
2009.206876,-296.082377,0.000000,8734.430116
2009.207197,888.247130,842.705048,9474.636058
2009.207519,0.000000,689.485948,10362.883188
2009.207840,518.144159,1378.971896,10584.944971
2009.208162,2294.638420,1149.143247,9030.512492
2009.208483,2590.720797,689.485948,8660.409521
2009.208805,1258.350101,612.876398,10066.800811
2009.209126,1258.350101,612.876398,10658.965565
2009.209448,888.247130,0.000000,9104.533087
2009.209769,1554.432478,-229.828649,9474.636058
2009.210091,222.061783,-1302.362347,10140.821405
2009.210412,-1036.288319,-1225.752797,9474.636058
2009.210734,-444.123565,-1378.971896,7994.224174
2009.211055,222.061783,-1838.629195,7476.080014
2009.211377,-370.102971,-1532.190996,10066.800811
2009.211698,370.102971,-1225.752797,10436.903782
2009.212019,1110.308913,-1072.533697,9252.574275
2009.212341,1332.370696,-1532.190996,7550.100608
2009.212662,0.000000,-689.485948,9400.615463
2009.212984,0.000000,-1149.143247,10288.862594
2009.213305,888.247130,-1302.362347,9696.697840
2009.213627,0.000000,-2145.067394,8956.491898
2009.213948,-1924.535449,-2911.162892,9918.759623
2009.214270,-2738.761985,-2604.724693,10288.862594
2009.214591,-2738.761985,-2987.772442,10436.903782
2009.214913,-1554.432478,-2068.457845,10436.903782
2009.215234,-2960.823768,-2834.553343,9696.697840
2009.215556,-2664.741391,-1378.971896,10288.862594
2009.215877,-888.247130,-1838.629195,9770.718434
2009.216199,888.247130,0.000000,9474.636058
2009.216520,1332.370696,612.876398,9326.594869
2009.216842,-740.205942,689.485948,8808.450710
2009.217163,1628.453072,1225.752797,9104.533087
2009.217485,3849.070898,1762.019645,8660.409521
2009.217806,1332.370696,2451.505594,8216.285956
2009.218128,0.000000,1532.190996,8882.471304
2009.218449,-444.123565,1225.752797,8068.244768
2009.218771,592.164754,1762.019645,7994.224174
2009.219092,1036.288319,2068.457845,9326.594869
2009.219414,-2072.576638,1991.848295,9252.574275
2009.219735,-1850.514855,2451.505594,8808.450710
2009.220056,-740.205942,2068.457845,8734.430116
2009.220378,740.205942,2221.676944,8808.450710
2009.220699,-1332.370696,1149.143247,9474.636058
2009.221021,-2738.761985,2451.505594,9844.739029
2009.221342,-518.144159,2834.553343,9770.718434
2009.221664,148.041188,2374.896044,8882.471304
2009.221985,-888.247130,2374.896044,8734.430116
2009.222307,-2738.761985,1838.629195,9030.512492
2009.222628,-2664.741391,1838.629195,8216.285956
2009.222950,-592.164754,1838.629195,8142.265362
2009.223271,-1036.288319,2068.457845,9400.615463
2009.223593,-2886.803174,1762.019645,8882.471304
2009.223914,-3034.844362,1762.019645,8438.347739
2009.224236,592.164754,2068.457845,8068.244768
2009.224557,1184.329507,1378.971896,9030.512492
2009.224879,-592.164754,1072.533697,9548.656652
2009.225200,-1406.391290,1225.752797,9770.718434
2009.225522,666.185348,1302.362347,9104.533087
2009.225843,1924.535449,689.485948,9326.594869
2009.226165,1554.432478,1072.533697,9474.636058
2009.226486,0.000000,1532.190996,9992.780217
2009.226808,1628.453072,1455.581446,9844.739029
2009.227129,4145.153275,1225.752797,9696.697840
2009.227451,3849.070898,1225.752797,9622.677246
2009.227772,1702.473667,2451.505594,10066.800811
2009.228093,592.164754,1532.190996,9400.615463
2009.228415,3478.967927,0.000000,7994.224174
2009.228736,2516.700203,383.047749,8808.450710
2009.229058,370.102971,766.095498,10658.965565
2009.229379,-962.267725,-459.657299,10436.903782
2009.229701,-888.247130,-1532.190996,8734.430116
2009.230022,444.123565,-1915.238745,8216.285956
2009.230344,-1480.411884,-1532.190996,9696.697840
2009.230665,-2368.659014,-1149.143247,9918.759623
2009.230987,-2960.823768,-2528.115143,7476.080014
2009.231308,-518.144159,-2068.457845,6735.874072
2009.231630,-1702.473667,-1225.752797,9474.636058
2009.231951,-2812.782580,-306.438199,10732.986159
2009.232273,-740.205942,-1762.019645,10066.800811
2009.232594,2072.576638,-383.047749,9548.656652
2009.232916,1332.370696,-536.266849,11029.068536
2009.233237,296.082377,-459.657299,11177.109724
2009.233559,740.205942,-536.266849,9326.594869
2009.233880,1332.370696,-153.219100,9622.677246
2009.234202,1406.391290,229.828649,11251.130318
2009.234523,-592.164754,-1149.143247,11695.253884
2009.234845,0.000000,-459.657299,10881.027347
2009.235166,0.000000,383.047749,9030.512492
2009.235488,-666.185348,-153.219100,9252.574275
2009.235809,-1554.432478,-306.438199,9770.718434
2009.236130,-1702.473667,153.219100,8290.306550
2009.236452,148.041188,1532.190996,8734.430116
2009.236773,-1554.432478,1149.143247,7105.977043
2009.237095,-2738.761985,-383.047749,7624.121203
2009.237416,-1110.308913,0.000000,8808.450710
2009.237738,-666.185348,1532.190996,7772.162391
2009.238059,-1480.411884,1838.629195,9104.533087
2009.238381,-1258.350101,919.314598,8734.430116
2009.238702,-962.267725,76.609550,7698.141797
2009.239024,518.144159,1915.238745,7402.059420
2009.239345,0.000000,1302.362347,9400.615463
2009.239667,-2072.576638,995.924147,9548.656652
2009.239988,-1406.391290,306.438199,9918.759623
2009.240310,0.000000,842.705048,9400.615463
2009.240631,740.205942,2145.067394,10436.903782
2009.240953,-962.267725,1838.629195,10658.965565
2009.241274,-1332.370696,1685.410096,9474.636058
2009.241596,592.164754,1685.410096,9252.574275
2009.241917,296.082377,1149.143247,8956.491898
2009.242239,-2072.576638,1072.533697,8586.388927
2009.242560,-2590.720797,229.828649,8734.430116
2009.242882,-2146.597232,842.705048,9326.594869
2009.243203,-222.061783,842.705048,9622.677246
2009.243525,-740.205942,1149.143247,8956.491898
2009.243846,-1036.288319,919.314598,7772.162391
2009.244167,0.000000,1455.581446,7476.080014
2009.244489,3034.844362,1455.581446,8808.450710
2009.244810,3478.967927,2145.067394,9400.615463
2009.245132,1924.535449,1455.581446,9770.718434
2009.245453,1184.329507,1532.190996,10214.842000
2009.245775,3627.009116,1608.800546,9252.574275
2009.246096,3108.864956,1225.752797,8882.471304
2009.246418,2664.741391,1149.143247,10140.821405
2009.246739,-592.164754,995.924147,9770.718434
2009.247061,1110.308913,766.095498,8142.265362
2009.247382,2368.659014,0.000000,8586.388927
2009.247704,0.000000,76.609550,9474.636058
2009.248025,-2590.720797,0.000000,10436.903782
2009.248347,-814.226536,-383.047749,8586.388927
2009.248668,1480.411884,-689.485948,9400.615463
2009.248990,1110.308913,-536.266849,9474.636058
2009.249311,-1628.453072,-459.657299,9252.574275
2009.249633,-962.267725,-306.438199,9178.553681
2009.249954,962.267725,-536.266849,7994.224174
2009.250276,1480.411884,-919.314598,9252.574275
2009.250597,518.144159,-612.876398,10140.821405
2009.250919,-2146.597232,-1149.143247,10436.903782
2009.251240,-518.144159,-1762.019645,9696.697840
2009.251562,296.082377,-2298.286494,8882.471304
2009.251883,-1258.350101,-1149.143247,10732.986159
2009.252205,-2738.761985,-995.924147,10362.883188
2009.252526,-1776.494261,-1225.752797,9844.739029
2009.252847,1184.329507,-612.876398,8438.347739
2009.253169,0.000000,-229.828649,9622.677246
2009.253490,-2368.659014,-306.438199,10436.903782
2009.253812,-2146.597232,0.000000,10436.903782
2009.254133,0.000000,-76.609550,8142.265362
2009.254455,222.061783,0.000000,8956.491898
2009.254776,-1258.350101,766.095498,9770.718434
2009.255098,-2072.576638,536.266849,8364.327145
2009.255419,-1036.288319,995.924147,7476.080014
2009.255741,0.000000,-306.438199,7402.059420
2009.256062,-1480.411884,536.266849,9474.636058
2009.256384,-1850.514855,1915.238745,9622.677246
2009.256705,0.000000,1072.533697,9326.594869
2009.257027,222.061783,536.266849,8290.306550
2009.257348,-1332.370696,459.657299,8364.327145
2009.257670,-148.041188,1378.971896,9770.718434
2009.257991,-1332.370696,2068.457845,8068.244768
2009.258313,-148.041188,536.266849,9178.553681
2009.258634,74.020594,1302.362347,9400.615463
2009.258956,-1702.473667,1455.581446,9326.594869
2009.259277,-1406.391290,1302.362347,9770.718434
2009.259599,-1776.494261,612.876398,8956.491898
2009.259920,-2146.597232,689.485948,9104.533087
2009.260242,-1850.514855,153.219100,8734.430116
2009.260563,-1554.432478,1149.143247,9622.677246
2009.260884,222.061783,1838.629195,10140.821405
2009.261206,74.020594,1072.533697,8660.409521
2009.261527,-370.102971,842.705048,8956.491898
2009.261849,888.247130,1455.581446,9104.533087
2009.262170,2590.720797,2451.505594,8956.491898
2009.262492,1554.432478,2451.505594,8882.471304
2009.262813,2812.782580,1915.238745,8660.409521
2009.263135,1702.473667,1378.971896,7624.121203
2009.263456,3552.988522,2145.067394,8290.306550
2009.263778,1406.391290,1302.362347,9030.512492
2009.264099,74.020594,766.095498,9030.512492
2009.264421,1110.308913,0.000000,9326.594869
2009.264742,2812.782580,1302.362347,8956.491898
2009.265064,2812.782580,842.705048,11621.233289
2009.265385,-222.061783,0.000000,8956.491898
2009.265707,740.205942,-383.047749,9400.615463
2009.266028,2072.576638,842.705048,9252.574275
2009.266350,962.267725,766.095498,9326.594869
2009.266671,0.000000,0.000000,9622.677246
2009.266993,444.123565,-995.924147,9400.615463
2009.267314,814.226536,153.219100,9844.739029
2009.267636,0.000000,-995.924147,11029.068536
2009.267957,-2368.659014,-1685.410096,9992.780217
2009.268279,-4293.194464,-2298.286494,9474.636058
2009.268600,-3182.885551,-1838.629195,9178.553681
2009.268921,-1924.535449,-2221.676944,9030.512492
2009.269243,-2220.617826,-1838.629195,9178.553681
2009.269564,-3108.864956,-1762.019645,9844.739029
2009.269886,-1998.556043,-689.485948,10362.883188
2009.270207,-740.205942,-1225.752797,9622.677246
2009.270529,148.041188,-689.485948,9474.636058
2009.270850,0.000000,766.095498,9474.636058
2009.271172,-1036.288319,995.924147,8586.388927
2009.271493,1258.350101,1072.533697,9548.656652
2009.271815,2220.617826,1072.533697,9104.533087
2009.272136,2072.576638,1302.362347,8438.347739
2009.272458,0.000000,1532.190996,8216.285956
2009.272779,1702.473667,1608.800546,9918.759623
2009.273101,2294.638420,1149.143247,9918.759623
2009.273422,222.061783,459.657299,9918.759623
2009.273744,-1776.494261,689.485948,9252.574275
2009.274065,-1850.514855,536.266849,9252.574275
2009.274387,-1480.411884,383.047749,8290.306550
2009.274708,-592.164754,383.047749,9178.553681
2009.275030,-2664.741391,612.876398,9474.636058
2009.275351,-3923.091493,536.266849,9104.533087
2009.275673,-2516.700203,459.657299,7624.121203
2009.275994,-1924.535449,0.000000,7105.977043
2009.276316,-2812.782580,612.876398,9030.512492
2009.276637,-4663.297435,766.095498,8956.491898
2009.276958,-2442.679609,0.000000,9326.594869
2009.277280,0.000000,383.047749,8068.244768
2009.277601,-1110.308913,229.828649,8882.471304
2009.277923,-1480.411884,1072.533697,9992.780217
2009.278244,-1258.350101,766.095498,9400.615463
2009.278566,2368.659014,612.876398,9622.677246
2009.278887,2072.576638,1225.752797,10288.862594
2009.279209,814.226536,1838.629195,11473.192101
2009.279530,222.061783,1455.581446,10881.027347
2009.279852,1924.535449,1072.533697,9474.636058
2009.280173,3997.112087,1378.971896,9326.594869
2009.280495,1776.494261,2068.457845,10140.821405
2009.280816,2812.782580,2451.505594,9252.574275
2009.281138,2960.823768,1685.410096,8364.327145
2009.281459,3701.029710,1532.190996,8956.491898
2009.281781,666.185348,383.047749,8660.409521
2009.282102,1628.453072,1455.581446,9178.553681
2009.282424,666.185348,1149.143247,9326.594869
2009.282745,1110.308913,1608.800546,7550.100608
2009.283067,0.000000,-459.657299,8438.347739
2009.283388,-1332.370696,766.095498,7698.141797
2009.283709,-1184.329507,1072.533697,9030.512492
2009.284031,-814.226536,-383.047749,8290.306550
2009.284352,-1406.391290,-1225.752797,9326.594869
2009.284674,-1702.473667,-612.876398,10288.862594
2009.284995,-1332.370696,459.657299,10955.047942
2009.285317,-1184.329507,-612.876398,9548.656652
2009.285638,-1702.473667,-1455.581446,8142.265362
2009.285960,-2220.617826,-1302.362347,9548.656652
2009.286281,-1258.350101,0.000000,10807.006753
2009.286603,-1036.288319,-536.266849,10214.842000
2009.286924,-222.061783,-1225.752797,9326.594869
2009.287246,0.000000,-229.828649,10436.903782
2009.287567,-592.164754,229.828649,9844.739029
2009.287889,666.185348,459.657299,9770.718434
2009.288210,-888.247130,0.000000,9104.533087
2009.288531,0.000000,229.828649,9474.636058
2009.288853,-296.082377,536.266849,8882.471304
2009.289174,888.247130,306.438199,8512.368333
2009.289496,740.205942,842.705048,8660.409521
2009.289817,-518.144159,995.924147,9474.636058
2009.290139,0.000000,536.266849,10214.842000
2009.290460,1110.308913,1378.971896,8882.471304
2009.290782,962.267725,919.314598,9030.512492
2009.291103,-222.061783,842.705048,9030.512492
2009.291425,-1036.288319,842.705048,9474.636058
2009.291746,222.061783,842.705048,8216.285956
2009.292068,888.247130,1455.581446,9548.656652
2009.292389,-1184.329507,1838.629195,8586.388927
2009.292710,-1332.370696,995.924147,9104.533087
2009.293032,74.020594,1762.019645,8068.244768
2009.293353,1110.308913,1685.410096,9474.636058
2009.293675,-444.123565,1378.971896,9622.677246
2009.293996,-2812.782580,0.000000,8956.491898
2009.294318,-1480.411884,536.266849,9474.636058
2009.294639,-1110.308913,-153.219100,8290.306550
2009.294961,-1332.370696,-766.095498,9696.697840
2009.295282,-2738.761985,689.485948,9474.636058
2009.295604,-2368.659014,229.828649,9326.594869
2009.295925,666.185348,383.047749,8512.368333
2009.296247,0.000000,-229.828649,7846.182985
2009.296568,-1110.308913,1378.971896,10066.800811
2009.296889,-1406.391290,766.095498,11029.068536
2009.297211,1480.411884,459.657299,10362.883188
2009.297532,2368.659014,0.000000,9252.574275
2009.297854,1924.535449,1455.581446,9770.718434
2009.298175,222.061783,1378.971896,10881.027347
2009.298497,1702.473667,1149.143247,10584.944971
2009.298818,2220.617826,0.000000,9326.594869
2009.299140,1776.494261,1302.362347,9548.656652
2009.299461,0.000000,153.219100,10214.842000
2009.299783,-296.082377,383.047749,8808.450710
2009.300104,2072.576638,-459.657299,9104.533087
2009.300426,814.226536,306.438199,9474.636058
2009.300747,-2368.659014,0.000000,9770.718434
2009.301069,-3182.885551,-153.219100,7920.203579
2009.301390,592.164754,383.047749,7846.182985
2009.301711,1184.329507,1915.238745,8216.285956
2009.302033,-666.185348,1072.533697,8142.265362
2009.302354,-1110.308913,0.000000,7698.141797
2009.302676,-296.082377,459.657299,7624.121203
2009.302997,370.102971,0.000000,7994.224174
2009.303319,0.000000,-689.485948,8956.491898
2009.303640,-1702.473667,76.609550,11177.109724
2009.303962,-1036.288319,0.000000,9548.656652
2009.304283,1184.329507,153.219100,9992.780217
2009.304605,740.205942,-995.924147,9474.636058
2009.304926,-814.226536,0.000000,10955.047942
2009.305248,-1110.308913,459.657299,10362.883188
2009.305569,1406.391290,0.000000,10288.862594
2009.305890,1702.473667,0.000000,10658.965565
2009.306212,0.000000,229.828649,10510.924376
2009.306533,296.082377,1608.800546,10362.883188
2009.306855,740.205942,766.095498,8586.388927
2009.307176,1628.453072,995.924147,9252.574275
2009.307498,740.205942,612.876398,9326.594869
2009.307819,-592.164754,919.314598,8956.491898
2009.308141,-370.102971,766.095498,7772.162391
2009.308462,-888.247130,153.219100,8808.450710
2009.308784,-370.102971,153.219100,9400.615463
2009.309105,-1258.350101,689.485948,8512.368333
2009.309427,888.247130,1608.800546,9030.512492
2009.309748,1036.288319,1991.848295,8808.450710
2009.310070,-370.102971,1302.362347,9474.636058
2009.310391,0.000000,612.876398,9252.574275
2009.310712,0.000000,1685.410096,9770.718434
2009.311034,-1258.350101,1302.362347,8586.388927
2009.311355,-1184.329507,306.438199,8808.450710
2009.311677,-592.164754,459.657299,9178.553681
2009.311998,-962.267725,1149.143247,9770.718434
2009.312320,-1480.411884,1378.971896,9474.636058
2009.312641,-2146.597232,459.657299,9474.636058
2009.312963,-1332.370696,76.609550,9326.594869
2009.313284,-518.144159,612.876398,9474.636058
2009.313606,888.247130,1532.190996,9474.636058
2009.313927,-1480.411884,766.095498,9696.697840
2009.314249,-1258.350101,0.000000,10066.800811
2009.314570,-666.185348,153.219100,10584.944971
2009.314891,-148.041188,612.876398,9252.574275
2009.315213,-592.164754,689.485948,8882.471304
2009.315534,-740.205942,536.266849,8734.430116
2009.315856,-1406.391290,995.924147,9326.594869
2009.316177,888.247130,919.314598,8438.347739
2009.316499,0.000000,76.609550,7846.182985
2009.316820,-1702.473667,306.438199,8068.244768
2009.317142,-1850.514855,153.219100,8586.388927
2009.317463,74.020594,383.047749,8956.491898
2009.317785,666.185348,153.219100,9474.636058
2009.318106,-740.205942,383.047749,7624.121203
2009.318428,-1924.535449,0.000000,9326.594869
2009.318749,666.185348,689.485948,9696.697840
2009.319070,1776.494261,-995.924147,9030.512492
2009.319392,1036.288319,-459.657299,9104.533087
2009.319713,-740.205942,76.609550,9844.739029
2009.320035,-370.102971,-229.828649,9770.718434
2009.320356,2368.659014,-919.314598,8734.430116
2009.320678,2590.720797,-459.657299,8956.491898
2009.320999,0.000000,76.609550,10140.821405
2009.321321,-962.267725,-153.219100,11103.089130
2009.321642,1628.453072,-995.924147,10436.903782
2009.321964,2072.576638,-1302.362347,9252.574275
2009.322285,-370.102971,-689.485948,9770.718434
2009.322607,-2516.700203,0.000000,10436.903782
2009.322928,-518.144159,-1608.800546,9474.636058
2009.323250,1184.329507,-1532.190996,9474.636058
2009.323571,74.020594,-612.876398,10362.883188
2009.323892,-3182.885551,-153.219100,10140.821405
2009.324214,-1480.411884,-306.438199,9548.656652
2009.324535,1184.329507,-612.876398,8660.409521
2009.324857,740.205942,229.828649,9696.697840
2009.325178,-1184.329507,1608.800546,10214.842000
2009.325500,-592.164754,1532.190996,9622.677246
2009.325821,3256.906145,1455.581446,7772.162391
2009.326143,2960.823768,1378.971896,7550.100608
2009.326464,740.205942,2604.724693,9252.574275
2009.326786,222.061783,2681.334243,8956.491898
2009.327107,1036.288319,1762.019645,7772.162391
2009.327429,2146.597232,1991.848295,8808.450710
2009.327750,0.000000,1455.581446,8956.491898
2009.328071,-1776.494261,1685.410096,9104.533087
2009.328393,-2294.638420,1378.971896,7624.121203
2009.328714,-370.102971,1072.533697,8068.244768
2009.329036,-1998.556043,995.924147,9770.718434
2009.329357,-3330.926739,1532.190996,9474.636058
2009.329679,-2886.803174,1225.752797,8586.388927
2009.330000,-296.082377,1762.019645,7920.203579
2009.330322,-666.185348,1378.971896,9252.574275
2009.330643,-1332.370696,1532.190996,10658.965565
2009.330965,-1628.453072,1685.410096,10584.944971
2009.331286,-888.247130,995.924147,8438.347739
2009.331608,222.061783,1225.752797,10066.800811
2009.331929,-1036.288319,1302.362347,9474.636058
2009.332251,-1776.494261,229.828649,10288.862594
2009.332572,-1332.370696,766.095498,8142.265362
2009.332893,518.144159,229.828649,9622.677246
2009.333215,-296.082377,76.609550,9770.718434
2009.333536,-444.123565,842.705048,9548.656652
2009.333858,444.123565,1225.752797,9104.533087
2009.334179,1480.411884,536.266849,8364.327145
2009.334501,444.123565,536.266849,8290.306550
2009.334822,1110.308913,306.438199,8290.306550
2009.335144,1554.432478,1608.800546,7994.224174
2009.335465,1406.391290,919.314598,7772.162391
2009.335787,592.164754,0.000000,8068.244768
2009.336108,0.000000,-306.438199,8364.327145
2009.336430,1998.556043,689.485948,8290.306550
2009.336751,444.123565,153.219100,9400.615463
2009.337072,74.020594,-689.485948,10436.903782
2009.337394,-1184.329507,-1608.800546,9918.759623
2009.337715,370.102971,-919.314598,11029.068536
2009.338037,74.020594,-1455.581446,11177.109724
2009.338358,-1258.350101,-1991.848295,10510.924376
2009.338680,-740.205942,-2221.676944,10658.965565
2009.339001,962.267725,-1608.800546,11103.089130
2009.339323,1036.288319,-1225.752797,10658.965565
2009.339644,0.000000,-1149.143247,10510.924376
2009.339966,-1036.288319,-2068.457845,10288.862594
2009.340287,-370.102971,-1532.190996,9104.533087
2009.340609,148.041188,-1378.971896,8364.327145
2009.340930,222.061783,-612.876398,8882.471304
2009.341251,-1332.370696,0.000000,9326.594869
2009.341573,-740.205942,0.000000,8882.471304
2009.341894,666.185348,-306.438199,9030.512492
2009.342216,222.061783,-306.438199,8808.450710
2009.342537,-1036.288319,-306.438199,8660.409521
2009.342859,-1406.391290,0.000000,10214.842000
2009.343180,0.000000,536.266849,10214.842000
2009.343502,888.247130,995.924147,9992.780217
2009.343823,-370.102971,995.924147,9030.512492
2009.344145,-962.267725,612.876398,7920.203579
2009.344466,444.123565,1915.238745,8512.368333
2009.344788,1776.494261,2221.676944,9252.574275
2009.345109,962.267725,2298.286494,9548.656652
2009.345431,-1184.329507,2068.457845,8734.430116
2009.345752,740.205942,2681.334243,8808.450710
2009.346073,2664.741391,2604.724693,8660.409521
2009.346395,1480.411884,2451.505594,8512.368333
2009.346716,-518.144159,2681.334243,9696.697840
2009.347038,-1480.411884,1991.848295,9326.594869
2009.347359,-222.061783,1762.019645,8660.409521
2009.347681,-296.082377,689.485948,8512.368333
2009.348002,-2072.576638,995.924147,9622.677246
2009.348324,-4589.276840,1685.410096,10362.883188
2009.348645,-3108.864956,0.000000,9178.553681
2009.348967,-1406.391290,0.000000,9474.636058
2009.349288,-2516.700203,1532.190996,8290.306550
2009.349610,-3849.070898,1072.533697,8438.347739
2009.349931,-3034.844362,1608.800546,8216.285956
2009.350252,222.061783,1149.143247,8586.388927
2009.350574,-148.041188,1225.752797,9030.512492
2009.350895,-1110.308913,1762.019645,9326.594869
2009.351217,-518.144159,1302.362347,9104.533087
2009.351538,1628.453072,1225.752797,8364.327145
2009.351860,2368.659014,1302.362347,9474.636058
2009.352181,1998.556043,1915.238745,10288.862594
2009.352503,592.164754,1915.238745,10066.800811
2009.352824,2664.741391,1225.752797,8660.409521
2009.353146,2368.659014,536.266849,8290.306550
2009.353467,2294.638420,0.000000,9400.615463
2009.353789,1406.391290,1532.190996,11325.150913
2009.354110,2442.679609,229.828649,9696.697840
2009.354431,2738.761985,-383.047749,9474.636058
2009.354753,518.144159,-1072.533697,7698.141797
2009.355074,444.123565,-383.047749,9992.780217
2009.355396,-444.123565,459.657299,10066.800811
2009.355717,148.041188,-1149.143247,8364.327145
2009.356039,518.144159,-1225.752797,9326.594869
2009.356360,-962.267725,-229.828649,9178.553681
2009.356682,-1924.535449,-536.266849,10436.903782
2009.357003,-2146.597232,-2221.676944,9400.615463
2009.357325,-1110.308913,-1762.019645,8734.430116
2009.357646,-740.205942,-459.657299,9696.697840
2009.357968,-888.247130,-459.657299,9844.739029
2009.358289,-222.061783,-842.705048,9696.697840
2009.358611,0.000000,-1225.752797,8956.491898
2009.358932,-296.082377,-1149.143247,9400.615463
2009.359253,0.000000,-842.705048,10362.883188
2009.359575,-148.041188,-689.485948,9474.636058
2009.359896,148.041188,-536.266849,9326.594869
2009.360218,222.061783,-766.095498,7994.224174
2009.360539,-740.205942,-229.828649,8956.491898
2009.360861,370.102971,689.485948,9252.574275
2009.361182,0.000000,919.314598,9030.512492
2009.361504,222.061783,689.485948,8956.491898
2009.361825,74.020594,1072.533697,8734.430116
2009.362147,296.082377,1532.190996,9400.615463
2009.362468,222.061783,2298.286494,9770.718434
2009.362790,-1776.494261,229.828649,8068.244768
2009.363111,-1850.514855,153.219100,8290.306550
2009.363432,-222.061783,689.485948,9844.739029
2009.363754,-518.144159,1225.752797,9474.636058
2009.364075,-1480.411884,76.609550,9474.636058
2009.364397,-2220.617826,689.485948,10140.821405
2009.364718,-1776.494261,612.876398,9326.594869
2009.365040,-740.205942,995.924147,9474.636058
2009.365361,-1258.350101,1302.362347,8808.450710
2009.365683,-1998.556043,1225.752797,9326.594869
2009.366004,-1332.370696,1608.800546,9474.636058
2009.366326,148.041188,995.924147,7994.224174
2009.366647,-148.041188,1225.752797,8512.368333
2009.366969,-2368.659014,1915.238745,8438.347739
2009.367290,-1702.473667,1915.238745,8586.388927
2009.367612,444.123565,1302.362347,8808.450710
2009.367933,-148.041188,1072.533697,8808.450710
2009.368254,-1554.432478,1225.752797,9474.636058
2009.368576,-3256.906145,0.000000,8438.347739
2009.368897,-1554.432478,0.000000,8882.471304
2009.369219,-592.164754,-612.876398,9252.574275
2009.369540,-666.185348,1225.752797,9844.739029
2009.369862,-1184.329507,1685.410096,10807.006753
2009.370183,1258.350101,1608.800546,9474.636058
2009.370505,4367.215058,1685.410096,9918.759623
2009.370826,3775.050304,2068.457845,8216.285956
2009.371148,2294.638420,2528.115143,9474.636058
2009.371469,2442.679609,2068.457845,9326.594869
2009.371791,3849.070898,1225.752797,8290.306550
2009.372112,3256.906145,995.924147,9178.553681
2009.372433,1184.329507,995.924147,8882.471304
2009.372755,-1036.288319,0.000000,7920.203579
2009.373076,962.267725,-612.876398,8290.306550
2009.373398,1480.411884,-459.657299,9252.574275
2009.373719,74.020594,229.828649,10955.047942
2009.374041,-1924.535449,-919.314598,10140.821405
2009.374362,-1036.288319,-1225.752797,8364.327145
2009.374684,666.185348,-1225.752797,9030.512492
2009.375005,296.082377,-689.485948,10362.883188
2009.375327,-1184.329507,-536.266849,11399.171507
2009.375648,-888.247130,-1072.533697,9696.697840
2009.375970,740.205942,-766.095498,8956.491898
2009.376291,-666.185348,-995.924147,9474.636058
2009.376612,-2442.679609,-1532.190996,9696.697840
2009.376934,-2738.761985,-1685.410096,9770.718434
2009.377255,-1628.453072,-1532.190996,9918.759623
2009.377577,-814.226536,-1838.629195,9548.656652
2009.377898,-1628.453072,-1685.410096,10288.862594
2009.378220,-2738.761985,0.000000,10214.842000
2009.378541,-222.061783,-153.219100,8808.450710
2009.378863,1258.350101,-229.828649,8438.347739
2009.379184,1036.288319,459.657299,9400.615463
2009.379506,1036.288319,1378.971896,10362.883188
2009.379827,1036.288319,1149.143247,8734.430116
2009.380149,1332.370696,0.000000,7994.224174
2009.380470,1184.329507,612.876398,8882.471304
2009.380792,-518.144159,842.705048,9992.780217
2009.381113,-222.061783,1225.752797,9104.533087
2009.381434,962.267725,766.095498,7476.080014
2009.381756,518.144159,1455.581446,8512.368333
2009.382077,-814.226536,1608.800546,9104.533087
2009.382399,-1036.288319,1838.629195,10881.027347
2009.382720,-296.082377,1838.629195,9844.739029
2009.383042,-1184.329507,842.705048,9104.533087
2009.383363,-2368.659014,1455.581446,9696.697840
2009.383684,-2738.761985,766.095498,10066.800811
2009.384006,-3108.864956,995.924147,8068.244768
2009.384327,-3034.844362,459.657299,7698.141797
2009.384649,-3330.926739,76.609550,8808.450710
2009.384970,-4737.318029,689.485948,9548.656652
2009.385291,-3034.844362,689.485948,7846.182985
2009.385613,-2220.617826,306.438199,7846.182985
2009.385934,-2220.617826,1072.533697,8882.471304
2009.386256,-666.185348,1225.752797,9178.553681
2009.386577,2072.576638,1991.848295,8956.491898
2009.386898,2960.823768,3064.381992,8808.450710
2009.387220,2072.576638,2221.676944,9474.636058
2009.387541,2590.720797,1991.848295,10066.800811
2009.387863,3849.070898,2987.772442,10436.903782
2009.388184,4441.235652,2451.505594,10140.821405
2009.388505,3108.864956,2145.067394,10288.862594
2009.388827,1554.432478,1685.410096,9474.636058
2009.389148,2738.761985,842.705048,9104.533087
2009.389470,3182.885551,1762.019645,9326.594869
2009.389791,666.185348,842.705048,9400.615463
2009.390112,0.000000,459.657299,8882.471304
2009.390434,1184.329507,612.876398,8290.306550
2009.390755,2368.659014,919.314598,9252.574275
2009.391077,296.082377,0.000000,9326.594869
2009.391398,-2368.659014,-919.314598,8290.306550
2009.391719,-370.102971,-459.657299,9104.533087
2009.392041,222.061783,-306.438199,9178.553681
2009.392362,-592.164754,-1149.143247,9474.636058
2009.392684,-2368.659014,-1762.019645,9326.594869
2009.393005,-2738.761985,-1608.800546,8142.265362
2009.393326,-962.267725,-1838.629195,9104.533087
2009.393648,-1554.432478,-2145.067394,10732.986159
2009.393969,-2960.823768,-2068.457845,11251.130318
2009.394291,-3330.926739,-2451.505594,10214.842000
2009.394612,-666.185348,-1302.362347,9696.697840
2009.394934,1110.308913,-1455.581446,9844.739029
2009.395255,-740.205942,-383.047749,9918.759623
2009.395576,-1702.473667,-995.924147,9474.636058
2009.395898,518.144159,-306.438199,9918.759623
2009.396219,1184.329507,-153.219100,9400.615463
2009.396541,1036.288319,-153.219100,9696.697840
2009.396862,-592.164754,459.657299,8734.430116
2009.397183,-518.144159,229.828649,8290.306550
2009.397505,888.247130,76.609550,9474.636058
2009.397826,1258.350101,1072.533697,9696.697840
2009.398148,-444.123565,1149.143247,9844.739029
2009.398469,-1332.370696,766.095498,7698.141797
2009.398790,0.000000,536.266849,7550.100608
2009.399112,740.205942,766.095498,8660.409521
2009.399433,-666.185348,995.924147,9844.739029
2009.399755,-1850.514855,1378.971896,9622.677246
2009.400076,-1702.473667,229.828649,8586.388927
2009.400397,-1554.432478,689.485948,8882.471304
2009.400719,-2442.679609,766.095498,10066.800811
2009.401040,-3997.112087,919.314598,9696.697840
2009.401362,-3256.906145,459.657299,8364.327145
2009.401683,-1406.391290,383.047749,7550.100608
2009.402004,-1406.391290,842.705048,9104.533087
2009.402326,-1998.556043,1455.581446,9622.677246
2009.402647,-2368.659014,1685.410096,9548.656652
2009.402969,148.041188,842.705048,8438.347739
2009.403290,444.123565,459.657299,7550.100608
2009.403611,-370.102971,1838.629195,10584.944971
2009.403933,740.205942,2374.896044,10881.027347
2009.404254,1406.391290,1838.629195,9252.574275
2009.404576,3034.844362,1378.971896,8142.265362
2009.404897,2294.638420,1608.800546,8956.491898
2009.405218,666.185348,2451.505594,9992.780217
2009.405540,2220.617826,1991.848295,8882.471304
2009.405861,3330.926739,1302.362347,7624.121203
2009.406183,2516.700203,2221.676944,9400.615463
2009.406504,1480.411884,3064.381992,9770.718434
2009.406825,2146.597232,2451.505594,9030.512492
2009.407147,2812.782580,1915.238745,7031.956449
2009.407468,1036.288319,1608.800546,7994.224174
2009.407790,-518.144159,1149.143247,9918.759623
2009.408111,296.082377,612.876398,9844.739029
2009.408432,296.082377,-459.657299,8734.430116
2009.408754,-296.082377,-153.219100,9252.574275
2009.409075,-2368.659014,-153.219100,9992.780217
2009.409397,-1258.350101,-995.924147,9918.759623
2009.409718,222.061783,-766.095498,9252.574275
2009.410039,0.000000,-689.485948,8882.471304
2009.410361,-740.205942,383.047749,10510.924376
2009.410682,0.000000,0.000000,9696.697840
2009.411004,1332.370696,-76.609550,9844.739029
2009.411325,296.082377,-459.657299,7994.224174
2009.411646,-1110.308913,0.000000,8512.368333
2009.411968,1110.308913,-306.438199,9030.512492
2009.412289,222.061783,-1072.533697,9326.594869
2009.412611,222.061783,153.219100,9252.574275
2009.412932,-1184.329507,-995.924147,9400.615463
2009.413254,-1924.535449,-536.266849,9400.615463
2009.413575,-222.061783,-2145.067394,8586.388927
2009.413896,-518.144159,-229.828649,10881.027347
2009.414218,-1998.556043,-612.876398,10362.883188
2009.414539,-2072.576638,-919.314598,9844.739029
2009.414861,-370.102971,-612.876398,8364.327145
2009.415182,1258.350101,842.705048,9400.615463
2009.415503,-1110.308913,1455.581446,8808.450710
2009.415825,-1702.473667,0.000000,8586.388927
2009.416146,222.061783,612.876398,8438.347739
2009.416468,296.082377,919.314598,8882.471304
2009.416789,-888.247130,766.095498,10214.842000
2009.417110,-2886.803174,-306.438199,9326.594869
2009.417432,-2442.679609,-842.705048,8882.471304
2009.417753,-1628.453072,-383.047749,8068.244768
2009.418075,-1924.535449,306.438199,9918.759623
2009.418396,-4145.153275,689.485948,9400.615463
2009.418717,-3775.050304,-612.876398,8586.388927
2009.419039,-814.226536,383.047749,8216.285956
2009.419360,0.000000,612.876398,9844.739029
2009.419682,-1332.370696,919.314598,9844.739029
2009.420003,-2146.597232,536.266849,10214.842000
2009.420324,0.000000,1608.800546,9326.594869
2009.420646,370.102971,1072.533697,8882.471304
2009.420967,0.000000,1149.143247,8586.388927
2009.421289,-518.144159,995.924147,9030.512492
2009.421610,0.000000,1838.629195,9474.636058
2009.421931,2368.659014,1455.581446,9400.615463
2009.422253,1702.473667,1378.971896,10066.800811
2009.422574,444.123565,1685.410096,10140.821405
2009.422896,518.144159,2298.286494,9326.594869
2009.423217,3701.029710,1685.410096,8216.285956
2009.423538,3330.926739,2451.505594,8882.471304
2009.423860,1776.494261,2604.724693,9770.718434
2009.424181,1554.432478,2221.676944,9770.718434
2009.424503,1998.556043,1685.410096,7920.203579
2009.424824,2294.638420,919.314598,7179.997637
2009.425145,888.247130,995.924147,9030.512492
2009.425467,-962.267725,842.705048,8734.430116
2009.425788,-296.082377,0.000000,7476.080014
2009.426110,592.164754,0.000000,7031.956449
2009.426431,-592.164754,-229.828649,9178.553681
2009.426752,-1702.473667,689.485948,11029.068536
2009.427074,-962.267725,-306.438199,8882.471304
2009.427395,1184.329507,0.000000,9400.615463
2009.427717,740.205942,0.000000,9252.574275
2009.428038,0.000000,229.828649,11399.171507
2009.428359,-148.041188,0.000000,11769.274478
2009.428681,296.082377,-995.924147,8882.471304
2009.429002,1184.329507,-459.657299,10140.821405
2009.429324,-592.164754,-459.657299,11103.089130
2009.429645,-1332.370696,-306.438199,11695.253884
2009.429966,-370.102971,-536.266849,9030.512492
2009.430288,-444.123565,-766.095498,8290.306550
2009.430609,-1924.535449,0.000000,10436.903782
2009.430931,-2294.638420,229.828649,10140.821405
2009.431252,-666.185348,-229.828649,8808.450710
2009.431574,-296.082377,-229.828649,7624.121203
2009.431895,-1776.494261,0.000000,8586.388927
2009.432216,-1776.494261,-536.266849,8734.430116
2009.432538,-592.164754,0.000000,8364.327145
2009.432859,-888.247130,459.657299,8068.244768
2009.433181,-444.123565,536.266849,9252.574275
2009.433502,-1110.308913,689.485948,9252.574275
2009.433823,0.000000,536.266849,8068.244768
2009.434145,-296.082377,536.266849,9622.677246
2009.434466,-1332.370696,536.266849,8882.471304
2009.434788,-592.164754,536.266849,9918.759623
2009.435109,296.082377,766.095498,9400.615463
2009.435430,1406.391290,1149.143247,10140.821405
2009.435752,-962.267725,1072.533697,9252.574275
2009.436073,-296.082377,536.266849,8808.450710
2009.436395,-814.226536,612.876398,9844.739029
2009.436716,-444.123565,612.876398,9474.636058
2009.437037,-1924.535449,-612.876398,10066.800811
2009.437359,-2368.659014,-306.438199,10066.800811
2009.437680,-2516.700203,-995.924147,9326.594869
2009.438002,-1776.494261,76.609550,8808.450710
2009.438323,-1480.411884,612.876398,9400.615463
2009.438644,-2294.638420,306.438199,8660.409521
2009.438966,-962.267725,383.047749,8956.491898
2009.439287,592.164754,612.876398,8364.327145
2009.439609,1776.494261,1838.629195,9474.636058
2009.439930,296.082377,766.095498,9918.759623
2009.440251,370.102971,1455.581446,10658.965565
2009.440573,3034.844362,1838.629195,9992.780217
2009.440894,3552.988522,1838.629195,9992.780217
2009.441216,2812.782580,1991.848295,9326.594869
2009.441537,592.164754,1685.410096,8956.491898
2009.441858,2294.638420,1838.629195,8882.471304
2009.442180,3256.906145,1838.629195,8586.388927
2009.442501,2072.576638,1685.410096,8364.327145
2009.442823,-222.061783,1685.410096,9770.718434
2009.443144,444.123565,1915.238745,9030.512492
2009.443465,2146.597232,306.438199,7772.162391
2009.443787,1036.288319,1225.752797,7772.162391
2009.444108,-1258.350101,1378.971896,8438.347739
2009.444430,-370.102971,919.314598,8734.430116
2009.444751,1184.329507,306.438199,8956.491898
2009.445072,0.000000,-919.314598,8438.347739
2009.445394,-1998.556043,0.000000,10140.821405
2009.445715,-3330.926739,-306.438199,10066.800811
2009.446037,-2220.617826,-1149.143247,9992.780217
2009.446358,370.102971,-1149.143247,9844.739029
2009.446679,-444.123565,-383.047749,10288.862594
2009.447001,-1702.473667,383.047749,10881.027347
2009.447322,-814.226536,-919.314598,9918.759623
2009.447644,1702.473667,-306.438199,10732.986159
2009.447965,518.144159,-229.828649,10658.965565
2009.448286,-666.185348,0.000000,11547.212695
2009.448608,-1036.288319,-229.828649,11029.068536
2009.448929,962.267725,-689.485948,8438.347739
2009.449251,148.041188,-306.438199,8438.347739
2009.449572,-1332.370696,-612.876398,8512.368333
2009.449894,-2664.741391,-229.828649,8586.388927
2009.450215,-518.144159,536.266849,8586.388927
2009.450536,592.164754,0.000000,8586.388927
2009.450858,-592.164754,0.000000,8956.491898
2009.451179,-1332.370696,306.438199,8068.244768
2009.451501,-518.144159,766.095498,7476.080014
2009.451822,666.185348,0.000000,7772.162391
2009.452143,-148.041188,76.609550,8068.244768
2009.452465,-666.185348,1072.533697,8734.430116
2009.452786,-1036.288319,1378.971896,9178.553681
2009.453108,148.041188,459.657299,8142.265362
2009.453429,518.144159,536.266849,10140.821405
2009.453750,-444.123565,1608.800546,10436.903782
2009.454072,-518.144159,995.924147,10066.800811
2009.454393,-666.185348,0.000000,8290.306550
2009.454715,-592.164754,689.485948,9474.636058
2009.455036,-1628.453072,919.314598,10214.842000
2009.455357,-1406.391290,766.095498,10140.821405
2009.455679,370.102971,689.485948,9400.615463
2009.456000,148.041188,459.657299,8734.430116
2009.456322,-888.247130,766.095498,10140.821405
2009.456643,-740.205942,766.095498,11325.150913
2009.456964,-1184.329507,0.000000,9548.656652
2009.457286,-444.123565,229.828649,8142.265362
2009.457607,74.020594,459.657299,7920.203579
2009.457929,-518.144159,842.705048,9474.636058
2009.458250,814.226536,995.924147,9178.553681
2009.458571,222.061783,1532.190996,9844.739029
2009.458893,1110.308913,612.876398,8660.409521
2009.459214,592.164754,1072.533697,9548.656652
2009.459536,2146.597232,2451.505594,9474.636058
2009.459857,2368.659014,2681.334243,10066.800811
2009.460178,222.061783,1532.190996,8660.409521
2009.460500,-74.020594,842.705048,8290.306550
2009.460821,1258.350101,1532.190996,8586.388927
2009.461143,518.144159,1378.971896,8808.450710
2009.461464,-148.041188,76.609550,9178.553681
2009.461785,-1924.535449,-153.219100,9252.574275
2009.462107,-814.226536,383.047749,8808.450710
2009.462428,0.000000,76.609550,8586.388927
2009.462750,-1776.494261,-153.219100,8142.265362
2009.463071,-2590.720797,-995.924147,9030.512492
2009.463392,-1036.288319,0.000000,9474.636058
2009.463714,370.102971,0.000000,9104.533087
2009.464035,592.164754,0.000000,9622.677246
2009.464357,-1406.391290,-383.047749,9622.677246
2009.464678,-222.061783,-383.047749,9030.512492
2009.464999,740.205942,76.609550,9326.594869
2009.465321,814.226536,-842.705048,9918.759623
2009.465642,-814.226536,-1378.971896,10881.027347
2009.465964,-2664.741391,-1608.800546,10140.821405
2009.466285,-592.164754,-1532.190996,10362.883188
2009.466606,-740.205942,-1991.848295,10214.842000
2009.466928,-1258.350101,-842.705048,10140.821405
2009.467249,-1776.494261,-459.657299,9918.759623
2009.467571,-222.061783,0.000000,9326.594869
2009.467892,1702.473667,-229.828649,8586.388927
2009.468214,962.267725,612.876398,8512.368333
2009.468535,-592.164754,919.314598,8882.471304
2009.468856,-296.082377,383.047749,9104.533087
2009.469178,1258.350101,459.657299,8290.306550
2009.469499,1850.514855,919.314598,8364.327145
2009.469821,444.123565,995.924147,8290.306550
2009.470142,-962.267725,1455.581446,6957.935855
2009.470463,1332.370696,842.705048,8660.409521
2009.470785,1258.350101,766.095498,8734.430116
2009.471106,0.000000,1225.752797,10288.862594
2009.471428,-1702.473667,1149.143247,10436.903782
2009.471749,222.061783,1225.752797,10362.883188
2009.472070,2146.597232,995.924147,8882.471304
2009.472392,-592.164754,229.828649,9104.533087
2009.472713,-2294.638420,1455.581446,11177.109724
2009.473035,-2294.638420,229.828649,9030.512492
2009.473356,-740.205942,0.000000,8438.347739
2009.473677,-740.205942,842.705048,10214.842000
2009.473999,-3108.864956,1302.362347,12065.356855
2009.474320,-3256.906145,229.828649,9696.697840
2009.474642,-740.205942,0.000000,8512.368333
2009.474963,0.000000,1149.143247,9548.656652
2009.475284,-2072.576638,1838.629195,9918.759623
2009.475606,-2072.576638,995.924147,9030.512492
2009.475927,888.247130,1225.752797,7179.997637
2009.476249,1924.535449,2068.457845,7772.162391
2009.476570,1258.350101,1991.848295,9992.780217
2009.476891,1702.473667,2221.676944,11473.192101
2009.477213,2368.659014,2374.896044,8586.388927
2009.477534,3256.906145,2145.067394,9030.512492
2009.477856,1776.494261,1378.971896,7476.080014
2009.478177,148.041188,1915.238745,9030.512492
2009.478498,592.164754,1302.362347,6883.915261
2009.478820,370.102971,459.657299,8068.244768
2009.479141,740.205942,1378.971896,8512.368333
2009.479463,-740.205942,919.314598,10436.903782
2009.479784,-370.102971,842.705048,9178.553681
2009.480105,0.000000,-229.828649,8808.450710
2009.480427,148.041188,0.000000,7772.162391
2009.480748,-740.205942,-383.047749,9622.677246
2009.481070,0.000000,153.219100,10807.006753
2009.481391,0.000000,-919.314598,9548.656652
2009.481712,-666.185348,-153.219100,9474.636058
2009.482027,-444.123565,-612.876398,10584.944971
2009.482349,-1554.432478,-1149.143247,11325.150913
2009.482670,666.185348,-1762.019645,10658.965565
2009.482992,222.061783,-1608.800546,10658.965565
2009.483313,-444.123565,-1455.581446,10510.924376
2009.483635,-518.144159,-1072.533697,10510.924376
2009.483956,1628.453072,0.000000,9918.759623
2009.484277,888.247130,229.828649,9252.574275
2009.484599,0.000000,-766.095498,9400.615463
2009.484920,296.082377,-1608.800546,9992.780217
2009.485242,1110.308913,-383.047749,9548.656652
2009.485563,-444.123565,-306.438199,9844.739029
2009.485885,-1480.411884,-229.828649,9178.553681
2009.486206,-2812.782580,-1072.533697,7624.121203
2009.486528,-1036.288319,-612.876398,7179.997637
2009.486849,-222.061783,0.000000,8290.306550
2009.487171,-1480.411884,766.095498,7772.162391
2009.487492,-1702.473667,0.000000,9104.533087
2009.487813,-740.205942,536.266849,7846.182985
2009.488135,1184.329507,689.485948,8660.409521
2009.488456,74.020594,1762.019645,9326.594869
2009.488778,-1702.473667,536.266849,9178.553681
2009.489099,0.000000,229.828649,8512.368333
2009.489421,962.267725,383.047749,8438.347739
2009.489742,592.164754,1532.190996,9770.718434
2009.490064,-740.205942,1302.362347,9992.780217
2009.490385,-1702.473667,612.876398,9992.780217
2009.490706,74.020594,383.047749,9252.574275
2009.491028,0.000000,1225.752797,10362.883188
2009.491349,-1628.453072,76.609550,10881.027347
2009.491671,-2590.720797,536.266849,9548.656652
2009.491992,-296.082377,1225.752797,9326.594869
2009.492314,-222.061783,1072.533697,9622.677246
2009.492635,-1332.370696,1455.581446,8882.471304
2009.492957,-2442.679609,1532.190996,10066.800811
2009.493278,-1036.288319,689.485948,9252.574275
2009.493599,-148.041188,919.314598,8142.265362
2009.493921,0.000000,459.657299,9030.512492
2009.494242,-1332.370696,842.705048,9474.636058
2009.494564,-1850.514855,919.314598,8586.388927
2009.494885,1332.370696,1685.410096,7624.121203
2009.495207,1702.473667,1915.238745,8586.388927
2009.495528,222.061783,2145.067394,9030.512492
2009.495850,74.020594,1991.848295,8660.409521
2009.496171,3478.967927,1991.848295,7402.059420
2009.496493,3997.112087,1838.629195,7254.018232
2009.496814,2072.576638,1838.629195,9474.636058
2009.497135,222.061783,1302.362347,9474.636058
2009.497457,1184.329507,612.876398,8364.327145
2009.497778,1702.473667,383.047749,7846.182985
2009.498100,888.247130,-459.657299,10140.821405
2009.498421,-1258.350101,-306.438199,10066.800811
2009.498743,-962.267725,-153.219100,10658.965565
2009.499064,814.226536,-1149.143247,9474.636058
2009.499386,-444.123565,-1225.752797,10288.862594
2009.499707,-1480.411884,-459.657299,11547.212695
2009.500028,-1036.288319,-459.657299,9844.739029
2009.500350,1702.473667,0.000000,9474.636058
2009.500671,962.267725,-306.438199,9474.636058
2009.500993,-444.123565,-1149.143247,9770.718434
2009.501314,-222.061783,-612.876398,11325.150913
2009.501636,-1036.288319,-689.485948,10140.821405
2009.501957,0.000000,-1532.190996,8512.368333
2009.502279,74.020594,-1302.362347,8734.430116
2009.502600,-814.226536,612.876398,10214.842000
2009.502922,-370.102971,-536.266849,8512.368333
2009.503243,0.000000,-1608.800546,8216.285956
2009.503564,74.020594,0.000000,8660.409521
2009.503886,-666.185348,842.705048,10881.027347
2009.504207,444.123565,1072.533697,9770.718434
2009.504529,1776.494261,995.924147,8734.430116
2009.504850,518.144159,1072.533697,7550.100608
2009.505172,0.000000,1149.143247,8438.347739
2009.505493,-592.164754,1378.971896,8882.471304
2009.505815,-296.082377,229.828649,8438.347739
2009.506136,-740.205942,76.609550,8882.471304
2009.506457,-2442.679609,76.609550,8660.409521
2009.506779,-2072.576638,459.657299,9844.739029
2009.507100,-1036.288319,536.266849,9030.512492
2009.507422,-2368.659014,459.657299,7698.141797
2009.507743,-2220.617826,76.609550,7624.121203
2009.508065,-2590.720797,919.314598,8364.327145
2009.508386,-666.185348,1762.019645,10288.862594
2009.508708,-1850.514855,612.876398,9992.780217
2009.509029,-1998.556043,0.000000,9622.677246
2009.509351,-740.205942,536.266849,9770.718434
2009.509672,370.102971,1149.143247,9400.615463
2009.509993,0.000000,1225.752797,10955.047942
2009.510315,222.061783,995.924147,10066.800811
2009.510636,-444.123565,842.705048,8956.491898
2009.510958,740.205942,1072.533697,9474.636058
2009.511279,1110.308913,1225.752797,10066.800811
2009.511601,0.000000,383.047749,10288.862594
2009.511922,0.000000,995.924147,9844.739029
2009.512244,518.144159,1225.752797,9992.780217
2009.512565,2368.659014,1532.190996,10436.903782
2009.512886,814.226536,1302.362347,8734.430116
2009.513208,-592.164754,1072.533697,8290.306550
2009.513529,444.123565,1225.752797,8660.409521
2009.513851,518.144159,536.266849,8364.327145
2009.514172,888.247130,1149.143247,8364.327145
2009.514494,-962.267725,995.924147,8512.368333
2009.514815,-962.267725,536.266849,7920.203579
2009.515137,-592.164754,-153.219100,7550.100608
2009.515458,740.205942,536.266849,9548.656652
2009.515780,-592.164754,536.266849,8734.430116
2009.516101,-814.226536,229.828649,8364.327145
2009.516422,1332.370696,383.047749,8660.409521
2009.516744,2812.782580,689.485948,8808.450710
2009.517065,148.041188,76.609550,10288.862594
2009.517387,-444.123565,-383.047749,10436.903782
2009.517708,-148.041188,-383.047749,9400.615463
2009.518030,1036.288319,-459.657299,9770.718434
2009.518351,-370.102971,-689.485948,10881.027347
2009.518673,-1406.391290,-1072.533697,9696.697840
2009.518994,-296.082377,-153.219100,9770.718434
2009.519315,1184.329507,536.266849,9400.615463
2009.519637,148.041188,-612.876398,11177.109724
2009.519958,-814.226536,-306.438199,10584.944971
2009.520280,-888.247130,-153.219100,9400.615463
2009.520601,2590.720797,306.438199,8808.450710
2009.520923,1184.329507,383.047749,9622.677246
2009.521244,148.041188,306.438199,9770.718434
2009.521566,148.041188,1072.533697,10510.924376
2009.521887,1258.350101,1072.533697,7698.141797
2009.522208,1258.350101,0.000000,7846.182985
2009.522530,148.041188,536.266849,8734.430116
2009.522851,-1776.494261,919.314598,9326.594869
2009.523173,-814.226536,1149.143247,8660.409521
2009.523494,-592.164754,536.266849,8142.265362
2009.523816,-1184.329507,919.314598,8216.285956
2009.524137,-1998.556043,1532.190996,9400.615463
2009.524459,-1628.453072,1685.410096,9622.677246
2009.524780,444.123565,842.705048,8586.388927
2009.525102,0.000000,1072.533697,8956.491898
2009.525423,-1184.329507,2145.067394,10732.986159
2009.525744,-1110.308913,1455.581446,10066.800811
2009.526066,-888.247130,459.657299,9030.512492
2009.526387,-148.041188,1072.533697,8734.430116
2009.526709,-1554.432478,1455.581446,9918.759623
2009.527030,-1776.494261,689.485948,9400.615463
2009.527352,-370.102971,612.876398,8068.244768
2009.527673,-148.041188,842.705048,8586.388927
2009.527995,-1332.370696,1685.410096,10288.862594
2009.528316,-2220.617826,612.876398,9104.533087
2009.528637,-148.041188,229.828649,8734.430116
2009.528959,1332.370696,1225.752797,8512.368333
2009.529280,0.000000,459.657299,9326.594869
2009.529602,-148.041188,842.705048,11251.130318
2009.529923,666.185348,766.095498,9844.739029
2009.530245,1036.288319,229.828649,8956.491898
2009.530566,1110.308913,842.705048,9326.594869
2009.530888,0.000000,229.828649,9474.636058
2009.531209,1036.288319,1225.752797,10658.965565
2009.531531,1554.432478,995.924147,9252.574275
2009.531852,740.205942,-383.047749,10066.800811
2009.532173,-222.061783,229.828649,9030.512492
2009.532495,444.123565,612.876398,9104.533087
2009.532816,1480.411884,612.876398,8438.347739
2009.533138,0.000000,689.485948,7846.182985
2009.533459,-814.226536,-306.438199,7772.162391
2009.533781,888.247130,-919.314598,8438.347739
2009.534102,444.123565,0.000000,8882.471304
2009.534424,-1110.308913,-459.657299,9178.553681
2009.534745,-1628.453072,-995.924147,9548.656652
2009.535066,-888.247130,-1302.362347,8216.285956
2009.535388,296.082377,-536.266849,8438.347739
2009.535709,-296.082377,0.000000,9400.615463
2009.536031,-1924.535449,0.000000,9622.677246
2009.536352,74.020594,-919.314598,9622.677246
2009.536674,2072.576638,-383.047749,9030.512492
2009.536995,2072.576638,76.609550,10436.903782
2009.537317,-370.102971,306.438199,11843.295072
2009.537638,-444.123565,76.609550,11917.315666
2009.537960,1036.288319,-919.314598,10140.821405
2009.538281,1184.329507,229.828649,9474.636058
2009.538602,-444.123565,76.609550,10658.965565
2009.538924,-1332.370696,-229.828649,10658.965565
2009.539245,-370.102971,-689.485948,8808.450710
2009.539567,592.164754,0.000000,9770.718434
2009.539888,-666.185348,1225.752797,10584.944971
2009.540210,-2664.741391,766.095498,9252.574275
2009.540531,-1184.329507,0.000000,7105.977043
2009.540853,740.205942,1302.362347,7476.080014
2009.541174,296.082377,1685.410096,8068.244768
2009.541495,-2516.700203,766.095498,7994.224174
2009.541817,-1702.473667,842.705048,7994.224174
2009.542138,74.020594,459.657299,6735.874072
2009.542460,222.061783,2068.457845,9400.615463
2009.542781,-740.205942,1532.190996,9622.677246
2009.543103,-1480.411884,536.266849,8956.491898
2009.543424,222.061783,1378.971896,7772.162391
2009.543746,814.226536,1225.752797,9252.574275
2009.544067,-740.205942,1302.362347,10510.924376
2009.544389,-1554.432478,1378.971896,9400.615463
2009.544710,-518.144159,1685.410096,9400.615463
2009.545031,2368.659014,1302.362347,9770.718434
2009.545353,-148.041188,1302.362347,11029.068536
2009.545674,-1184.329507,459.657299,10584.944971
2009.545996,-1554.432478,229.828649,9844.739029
2009.546317,-222.061783,842.705048,8364.327145
2009.546639,-296.082377,0.000000,9474.636058
2009.546960,-1406.391290,459.657299,10362.883188
2009.547282,-2072.576638,1149.143247,9474.636058
2009.547603,-370.102971,0.000000,7698.141797
2009.547924,592.164754,536.266849,9104.533087
2009.548246,-1036.288319,995.924147,10584.944971
2009.548567,-222.061783,1455.581446,9400.615463
2009.548889,1776.494261,919.314598,7920.203579
2009.549210,2368.659014,1838.629195,7698.141797
2009.549532,370.102971,1685.410096,9474.636058
2009.549853,222.061783,1915.238745,9696.697840
2009.550175,2072.576638,1532.190996,7772.162391
2009.550496,2368.659014,1225.752797,7624.121203
2009.550817,666.185348,842.705048,9104.533087
2009.551139,-814.226536,0.000000,10140.821405
2009.551460,296.082377,-153.219100,9844.739029
2009.551782,0.000000,-536.266849,8512.368333
2009.552103,-370.102971,-1072.533697,8068.244768
2009.552425,-666.185348,306.438199,10955.047942
2009.552746,666.185348,-306.438199,10214.842000
2009.553068,1850.514855,-306.438199,9770.718434
2009.553389,1258.350101,0.000000,9178.553681
2009.553711,-296.082377,-383.047749,9326.594869
2009.554032,1776.494261,0.000000,9104.533087
2009.554353,1924.535449,-229.828649,10066.800811
2009.554675,666.185348,-306.438199,9548.656652
2009.554996,0.000000,-383.047749,9844.739029
2009.555318,-1702.473667,-995.924147,9252.574275
2009.555639,-518.144159,-1838.629195,8956.491898
2009.555961,-1702.473667,-2451.505594,8660.409521
2009.556282,-2886.803174,-1915.238745,9252.574275
2009.556604,-3108.864956,-1532.190996,11029.068536
2009.556925,-1554.432478,-383.047749,11991.336260
2009.557246,0.000000,-689.485948,10362.883188
2009.557568,-1036.288319,-153.219100,9622.677246
2009.557889,-962.267725,536.266849,9030.512492
2009.558211,592.164754,1072.533697,10066.800811
2009.558532,2442.679609,1838.629195,9104.533087
2009.558854,2220.617826,2145.067394,8808.450710
2009.559175,1036.288319,2604.724693,9104.533087
2009.559497,296.082377,1685.410096,7031.956449
2009.559818,2220.617826,2145.067394,7994.224174
2009.560140,0.000000,1685.410096,9474.636058
2009.560461,-2294.638420,1455.581446,10066.800811
2009.560782,-1998.556043,612.876398,8068.244768
2009.561104,-666.185348,536.266849,7772.162391
2009.561425,-1628.453072,612.876398,8438.347739
2009.561747,-4219.173869,-76.609550,9178.553681
2009.562068,-4219.173869,842.705048,8956.491898
2009.562390,-2072.576638,1455.581446,8660.409521
2009.562711,-1036.288319,842.705048,8808.450710
2009.563033,-2516.700203,1149.143247,9400.615463
2009.563354,-3330.926739,1378.971896,9030.512492
2009.563675,-1184.329507,1225.752797,8216.285956
2009.563997,-370.102971,1378.971896,9104.533087
2009.564318,-740.205942,2068.457845,10140.821405
2009.564640,-222.061783,1991.848295,9326.594869
2009.564961,1924.535449,2145.067394,9992.780217
2009.565283,3849.070898,1915.238745,9474.636058
2009.565604,2368.659014,1532.190996,10584.944971
2009.565926,1036.288319,1991.848295,11621.233289
2009.566247,1702.473667,1838.629195,10584.944971
2009.566569,2516.700203,842.705048,8734.430116
2009.566890,2516.700203,1762.019645,10140.821405
2009.567211,518.144159,1532.190996,9548.656652
2009.567533,-962.267725,919.314598,9252.574275
2009.567854,518.144159,229.828649,7402.059420
2009.568176,0.000000,-153.219100,7254.018232
2009.568497,-1184.329507,995.924147,8438.347739
2009.568819,-2590.720797,919.314598,7254.018232
2009.569140,-370.102971,229.828649,7402.059420
2009.569462,1406.391290,306.438199,7550.100608
2009.569783,-222.061783,306.438199,8808.450710
2009.570104,-1036.288319,612.876398,9622.677246
2009.570426,888.247130,-229.828649,9104.533087
2009.570747,2368.659014,-689.485948,8882.471304
2009.571069,1332.370696,0.000000,11103.089130
2009.571390,-814.226536,0.000000,11769.274478
2009.571712,962.267725,-1225.752797,11103.089130
2009.572033,1702.473667,-1225.752797,9770.718434
2009.572355,888.247130,-1378.971896,10362.883188
2009.572676,-148.041188,-919.314598,10584.944971
2009.572998,-814.226536,-766.095498,11029.068536
2009.573319,888.247130,-1149.143247,9400.615463
2009.573640,814.226536,-1685.410096,7846.182985
2009.573962,-888.247130,-383.047749,8734.430116
2009.574283,-2072.576638,-153.219100,10584.944971
2009.574605,-1998.556043,-1072.533697,7550.100608
2009.574926,-518.144159,-1149.143247,8068.244768
2009.575248,-1554.432478,76.609550,9400.615463
2009.575569,-2368.659014,0.000000,9548.656652
2009.575891,-1036.288319,-153.219100,8586.388927
2009.576212,370.102971,-612.876398,7254.018232
2009.576533,74.020594,1072.533697,8882.471304
2009.576855,-1850.514855,536.266849,9622.677246
2009.577176,-518.144159,689.485948,9918.759623
2009.577498,1184.329507,383.047749,8956.491898
2009.577819,222.061783,842.705048,8438.347739
2009.578141,-666.185348,1072.533697,9844.739029
2009.578462,-592.164754,1225.752797,10955.047942
2009.578784,222.061783,1225.752797,9252.574275
2009.579105,296.082377,1532.190996,8438.347739
2009.579426,-592.164754,1762.019645,9548.656652
2009.579748,-1258.350101,1685.410096,10658.965565
2009.580069,-296.082377,1532.190996,9474.636058
2009.580391,-1036.288319,766.095498,8290.306550
2009.580712,-2146.597232,1838.629195,8142.265362
2009.581034,-1776.494261,1455.581446,8660.409521
2009.581355,-814.226536,1762.019645,9474.636058
2009.581677,-1036.288319,1608.800546,8216.285956
2009.581998,-1628.453072,1072.533697,8364.327145
2009.582320,-2442.679609,1225.752797,9474.636058
2009.582641,-1184.329507,1838.629195,9770.718434
2009.582962,-1110.308913,459.657299,9548.656652
2009.583284,-814.226536,612.876398,9252.574275
2009.583605,-1998.556043,383.047749,9992.780217
2009.583927,-1702.473667,0.000000,8734.430116
2009.584248,518.144159,919.314598,9252.574275
2009.584570,592.164754,1685.410096,8882.471304
2009.584891,370.102971,1378.971896,9474.636058
2009.585213,1628.453072,2374.896044,8364.327145
2009.585534,3849.070898,2145.067394,8438.347739
2009.585856,2812.782580,1838.629195,7846.182985
2009.586177,740.205942,766.095498,7698.141797
2009.586499,1406.391290,1225.752797,9474.636058
2009.586820,2590.720797,842.705048,9030.512492
2009.587142,1702.473667,1149.143247,8882.471304
2009.587463,370.102971,-459.657299,9030.512492
2009.587785,-222.061783,-383.047749,9178.553681
2009.588106,666.185348,-919.314598,8438.347739
2009.588428,1554.432478,-612.876398,9104.533087
2009.588749,0.000000,-229.828649,11029.068536
2009.589071,-1480.411884,-306.438199,11843.295072
2009.589392,0.000000,-995.924147,9622.677246
2009.589714,1110.308913,-995.924147,8956.491898
2009.590035,0.000000,-153.219100,8512.368333
2009.590357,-1924.535449,-612.876398,10066.800811
2009.590678,-592.164754,-689.485948,10362.883188
2009.591000,518.144159,-1915.238745,9178.553681
2009.591321,-666.185348,-919.314598,10436.903782
2009.591643,-2960.823768,-995.924147,10807.006753
2009.591964,-3256.906145,-2145.067394,9400.615463
2009.592286,-370.102971,-1685.410096,8068.244768
2009.592608,0.000000,-1072.533697,9030.512492
2009.592929,-1036.288319,459.657299,10288.862594
2009.593251,-1332.370696,306.438199,9696.697840
2009.593572,1628.453072,306.438199,7846.182985
2009.593894,2368.659014,1072.533697,7105.977043
2009.594215,0.000000,1378.971896,8586.388927
2009.594537,-222.061783,1991.848295,10584.944971
2009.594858,1406.391290,766.095498,8882.471304
2009.595180,1628.453072,766.095498,8512.368333
2009.595501,148.041188,919.314598,8734.430116
2009.595823,-2368.659014,842.705048,8660.409521
2009.596144,-1702.473667,689.485948,8660.409521
2009.596466,74.020594,1225.752797,9178.553681
2009.596787,-592.164754,689.485948,9696.697840
2009.597109,-1924.535449,842.705048,10658.965565
2009.597430,-2664.741391,1455.581446,9622.677246
2009.597752,74.020594,612.876398,8660.409521
2009.598073,-962.267725,229.828649,8660.409521
2009.598395,-2812.782580,919.314598,9252.574275
2009.598716,-2368.659014,1991.848295,9992.780217
2009.599038,-962.267725,766.095498,8364.327145
2009.599359,0.000000,1149.143247,8068.244768
2009.599681,-1258.350101,689.485948,9474.636058
2009.600002,-3552.988522,459.657299,9252.574275
2009.600324,-2812.782580,459.657299,9104.533087
2009.600645,0.000000,0.000000,8364.327145
2009.600967,-962.267725,612.876398,9326.594869
2009.601288,-2072.576638,1302.362347,9696.697840
2009.601610,0.000000,1302.362347,10436.903782
2009.601931,1776.494261,995.924147,8882.471304
2009.602253,1480.411884,919.314598,8512.368333
2009.602574,1184.329507,2068.457845,9992.780217
2009.602896,2442.679609,2451.505594,10066.800811
2009.603217,2368.659014,1072.533697,8660.409521
2009.603539,3256.906145,1225.752797,8956.491898
2009.603860,1776.494261,1838.629195,9474.636058
2009.604182,1258.350101,1378.971896,9696.697840
2009.604504,1702.473667,842.705048,8882.471304
2009.604825,1924.535449,612.876398,7550.100608
2009.605147,1110.308913,536.266849,9474.636058
2009.605468,518.144159,459.657299,10066.800811
2009.605790,962.267725,-306.438199,9030.512492
2009.606111,1776.494261,-383.047749,9696.697840
2009.606433,296.082377,306.438199,8882.471304
2009.606754,-1036.288319,-306.438199,10584.944971
2009.607076,888.247130,0.000000,9474.636058
2009.607397,0.000000,-229.828649,9252.574275
2009.607719,-296.082377,-383.047749,9104.533087
2009.608040,-2220.617826,-1532.190996,8734.430116
2009.608362,-1184.329507,-536.266849,7550.100608
2009.608683,-1480.411884,-383.047749,10955.047942
2009.609005,-1998.556043,-766.095498,10881.027347
2009.609326,-1628.453072,-1991.848295,10510.924376
2009.609648,592.164754,-383.047749,10140.821405
2009.609969,1702.473667,612.876398,9918.759623
2009.610291,444.123565,459.657299,10066.800811
2009.610612,0.000000,306.438199,9844.739029
2009.610934,1110.308913,766.095498,9326.594869
2009.611255,1184.329507,842.705048,9030.512492
2009.611577,444.123565,1378.971896,9770.718434
2009.611898,-814.226536,612.876398,10881.027347
2009.612220,-518.144159,229.828649,8364.327145
2009.612541,0.000000,-229.828649,5921.647536
2009.612863,-1702.473667,459.657299,7994.224174
2009.613184,-3552.988522,766.095498,8882.471304
2009.613506,-3108.864956,76.609550,8290.306550
2009.613827,-1776.494261,0.000000,7624.121203
2009.614149,-1332.370696,689.485948,7254.018232
2009.614470,-3182.885551,842.705048,9622.677246
2009.614792,-3330.926739,0.000000,8956.491898
2009.615113,-1184.329507,0.000000,9844.739029
2009.615435,-444.123565,919.314598,9474.636058
2009.615756,-1258.350101,919.314598,10066.800811
2009.616078,-2516.700203,383.047749,8956.491898
2009.616400,-1184.329507,612.876398,8956.491898
2009.616721,1332.370696,1378.971896,9104.533087
2009.617043,2072.576638,1532.190996,10214.842000
2009.617364,148.041188,1302.362347,11547.212695
2009.617686,444.123565,1455.581446,9992.780217
2009.618007,2442.679609,612.876398,9622.677246
2009.618329,2442.679609,1455.581446,9326.594869
2009.618650,0.000000,1378.971896,9400.615463
2009.618972,148.041188,1149.143247,9178.553681
2009.619293,1776.494261,919.314598,7772.162391
2009.619615,2220.617826,612.876398,9104.533087
2009.619936,0.000000,612.876398,11769.274478
2009.620258,-2442.679609,919.314598,10881.027347
2009.620579,-888.247130,-229.828649,8068.244768
2009.620901,592.164754,0.000000,7698.141797
2009.621222,74.020594,536.266849,7846.182985
2009.621544,-666.185348,1225.752797,9548.656652
2009.621865,0.000000,1991.848295,8364.327145
2009.622187,3034.844362,766.095498,7402.059420
2009.622508,1628.453072,689.485948,7698.141797
2009.622830,148.041188,842.705048,9770.718434
2009.623151,1184.329507,919.314598,10807.006753
2009.623473,1702.473667,383.047749,9474.636058
2009.623794,2812.782580,153.219100,9104.533087
2009.624116,888.247130,229.828649,9474.636058
2009.624437,-814.226536,612.876398,9474.636058
2009.624759,74.020594,-536.266849,8364.327145
2009.625080,444.123565,-1378.971896,9696.697840
2009.625402,-222.061783,-459.657299,10436.903782
2009.625723,-888.247130,-153.219100,10658.965565
2009.626045,0.000000,153.219100,10436.903782
2009.626366,222.061783,-612.876398,8882.471304
2009.626688,-962.267725,-459.657299,9178.553681
2009.627009,-1258.350101,229.828649,10436.903782
2009.627331,-1406.391290,0.000000,10288.862594
2009.627652,-2146.597232,-612.876398,8808.450710
2009.627974,-814.226536,0.000000,9474.636058
2009.628296,-1924.535449,0.000000,10288.862594
2009.628617,-2294.638420,306.438199,10658.965565
2009.628939,-1480.411884,-153.219100,8882.471304
2009.629260,-1924.535449,-229.828649,8068.244768
2009.629582,-592.164754,1302.362347,9104.533087
2009.629903,-888.247130,766.095498,9326.594869
2009.630225,592.164754,1762.019645,9326.594869
2009.630546,0.000000,1455.581446,7550.100608
2009.630868,-296.082377,1685.410096,7772.162391
2009.631189,222.061783,1455.581446,9030.512492
2009.631511,814.226536,1762.019645,9030.512492
2009.631832,222.061783,1072.533697,8364.327145
2009.632154,-592.164754,536.266849,7402.059420
2009.632475,-1702.473667,459.657299,8290.306550
2009.632797,-666.185348,766.095498,9030.512492
2009.633118,-666.185348,842.705048,9770.718434
2009.633440,-2220.617826,536.266849,9178.553681
2009.633761,-962.267725,-76.609550,8734.430116
2009.634083,-148.041188,459.657299,9622.677246
2009.634404,814.226536,1532.190996,10066.800811
2009.634726,-1184.329507,689.485948,10288.862594
2009.635047,-1850.514855,459.657299,10214.842000
2009.635369,-148.041188,306.438199,9622.677246
2009.635690,962.267725,919.314598,9178.553681
2009.636012,296.082377,995.924147,9696.697840
2009.636333,-962.267725,689.485948,10288.862594
2009.636655,370.102971,0.000000,9326.594869
2009.636976,592.164754,306.438199,9622.677246
2009.637298,370.102971,919.314598,10510.924376
2009.637619,-1332.370696,459.657299,10140.821405
2009.637941,1110.308913,919.314598,8068.244768
2009.638262,2590.720797,1685.410096,8586.388927
2009.638584,3182.885551,2604.724693,8586.388927
2009.638905,370.102971,919.314598,7846.182985
2009.639227,666.185348,1455.581446,8882.471304
2009.639548,2220.617826,1532.190996,8808.450710
2009.639870,2072.576638,1225.752797,8364.327145
2009.640192,666.185348,1378.971896,9696.697840
2009.640513,-1036.288319,919.314598,7254.018232
2009.640835,592.164754,919.314598,7550.100608
2009.641156,1332.370696,229.828649,8142.265362
2009.641478,-666.185348,0.000000,9030.512492
2009.641799,-1628.453072,-459.657299,9030.512492
2009.642121,-1036.288319,0.000000,10658.965565
2009.642442,1258.350101,0.000000,11251.130318
2009.642764,888.247130,306.438199,11251.130318
2009.643085,0.000000,0.000000,9474.636058
2009.643407,-592.164754,-766.095498,9696.697840
2009.643728,444.123565,-76.609550,8956.491898
2009.644050,888.247130,0.000000,9548.656652
2009.644371,-592.164754,-459.657299,10658.965565
2009.644693,-2886.803174,-995.924147,8956.491898
2009.645014,-2368.659014,-689.485948,9400.615463
2009.645336,-518.144159,-919.314598,9252.574275
2009.645657,-1554.432478,-1378.971896,9770.718434
2009.645979,-3182.885551,-1072.533697,8808.450710
2009.646300,-2738.761985,-536.266849,9326.594869
2009.646622,-518.144159,-306.438199,9030.512492
2009.646943,-1332.370696,-1072.533697,9696.697840
2009.647265,-1554.432478,229.828649,10066.800811
2009.647586,-592.164754,459.657299,10214.842000
2009.647908,814.226536,1225.752797,9252.574275
2009.648229,1184.329507,1149.143247,9622.677246
2009.648551,888.247130,536.266849,9622.677246
2009.648872,-296.082377,1149.143247,8512.368333
2009.649194,-518.144159,766.095498,7550.100608
2009.649515,444.123565,1072.533697,8586.388927
2009.649837,518.144159,1455.581446,9770.718434
2009.650158,370.102971,1991.848295,9770.718434
2009.650480,0.000000,1455.581446,8142.265362
2009.650801,-592.164754,1225.752797,7772.162391
2009.651123,-148.041188,612.876398,8068.244768
2009.651444,0.000000,1225.752797,10214.842000
2009.651766,-370.102971,1225.752797,9326.594869
2009.652087,-1332.370696,76.609550,8882.471304
2009.652409,-1258.350101,-383.047749,9104.533087
2009.652731,-1924.535449,306.438199,9252.574275
2009.653052,-888.247130,612.876398,9326.594869
2009.653374,-1480.411884,306.438199,8142.265362
2009.653695,-1332.370696,1302.362347,9030.512492
2009.654017,-592.164754,1455.581446,9992.780217
2009.654338,962.267725,1378.971896,10362.883188
2009.654660,1036.288319,1378.971896,9474.636058
2009.654981,74.020594,1225.752797,8956.491898
2009.655303,0.000000,1685.410096,9918.759623
2009.655624,2072.576638,1302.362347,10288.862594
2009.655946,2368.659014,1762.019645,10658.965565
2009.656267,1702.473667,2298.286494,9400.615463
2009.656589,666.185348,1532.190996,9104.533087
2009.656910,1184.329507,1378.971896,8142.265362
2009.657232,1406.391290,1072.533697,8364.327145
2009.657553,444.123565,536.266849,8808.450710
2009.657875,-1480.411884,919.314598,8882.471304
2009.658196,-666.185348,689.485948,8290.306550
2009.658518,1258.350101,536.266849,8512.368333
2009.658839,1850.514855,1149.143247,8216.285956
2009.659161,0.000000,1608.800546,7994.224174
2009.659482,370.102971,1302.362347,8142.265362
2009.659804,1850.514855,1149.143247,9030.512492
2009.660125,1406.391290,766.095498,10510.924376
2009.660447,666.185348,536.266849,9918.759623
2009.660768,-1110.308913,-536.266849,9178.553681
2009.661090,-592.164754,-612.876398,10510.924376
2009.661411,444.123565,-689.485948,11177.109724
2009.661733,0.000000,-766.095498,11177.109724
2009.662054,-1480.411884,-766.095498,9030.512492
2009.662376,-2442.679609,-1302.362347,10066.800811
2009.662697,-370.102971,-919.314598,10214.842000
2009.663019,-592.164754,-1378.971896,10807.006753
2009.663340,-2886.803174,-1915.238745,9252.574275
2009.663662,-2368.659014,-1762.019645,8586.388927
2009.663983,-1110.308913,-536.266849,9474.636058
2009.664305,-370.102971,-842.705048,8808.450710
2009.664627,-1036.288319,-766.095498,9474.636058
2009.664948,-2368.659014,-229.828649,7772.162391
2009.665270,-296.082377,229.828649,8142.265362
2009.665591,1258.350101,-229.828649,8216.285956
2009.665913,296.082377,0.000000,9474.636058
2009.666234,-370.102971,842.705048,9918.759623
2009.666556,666.185348,612.876398,10658.965565
2009.666877,2072.576638,153.219100,9252.574275
2009.667199,1258.350101,0.000000,9474.636058
2009.667520,-444.123565,842.705048,10214.842000
2009.667842,74.020594,1225.752797,9474.636058
2009.668163,814.226536,689.485948,8512.368333
2009.668485,222.061783,306.438199,8808.450710
2009.668806,-1110.308913,612.876398,9474.636058
2009.669128,-2368.659014,-383.047749,8512.368333
2009.669449,-1850.514855,306.438199,9696.697840
2009.669771,-1258.350101,-383.047749,9104.533087
2009.670092,-1998.556043,153.219100,9400.615463
2009.670414,-2072.576638,1532.190996,8660.409521
2009.670735,-592.164754,1838.629195,8364.327145
2009.671057,296.082377,1685.410096,8290.306550
2009.671378,-1110.308913,1149.143247,8660.409521
2009.671700,-518.144159,1608.800546,10955.047942
2009.672021,-1776.494261,1225.752797,10436.903782
2009.672343,0.000000,612.876398,9326.594869
2009.672664,666.185348,919.314598,9696.697840
2009.672986,0.000000,2451.505594,10436.903782
2009.673307,222.061783,1685.410096,8882.471304
2009.673629,592.164754,459.657299,8586.388927
2009.673950,1036.288319,1072.533697,9548.656652
2009.674272,0.000000,1378.971896,10066.800811
2009.674593,148.041188,2068.457845,11473.192101
2009.674915,1332.370696,1685.410096,9918.759623
2009.675236,1258.350101,1608.800546,9400.615463
2009.675558,666.185348,1532.190996,7402.059420
2009.675879,592.164754,1532.190996,7179.997637
2009.676201,-592.164754,995.924147,7698.141797
2009.676523,-592.164754,995.924147,7402.059420
2009.676844,0.000000,842.705048,7698.141797
2009.677166,-888.247130,153.219100,8216.285956
2009.677487,-222.061783,0.000000,9178.553681
2009.677809,-592.164754,-383.047749,9326.594869
2009.678130,-444.123565,0.000000,9770.718434
2009.678452,0.000000,-229.828649,9770.718434
2009.678773,0.000000,229.828649,10510.924376
2009.679095,888.247130,0.000000,9844.739029
2009.679416,444.123565,-612.876398,9252.574275
2009.679738,-370.102971,-1072.533697,11547.212695
2009.680059,814.226536,-383.047749,12361.439231
2009.680381,1184.329507,-612.876398,10362.883188
2009.680702,222.061783,-995.924147,9326.594869
2009.681024,0.000000,-1302.362347,9622.677246
2009.681345,-148.041188,-536.266849,10288.862594
2009.681667,1110.308913,-306.438199,9548.656652
2009.681988,-962.267725,-1149.143247,9178.553681
2009.682310,-814.226536,-306.438199,9622.677246
2009.682631,518.144159,383.047749,8808.450710
2009.682953,1406.391290,536.266849,8586.388927
2009.683274,518.144159,1378.971896,8586.388927
2009.683596,-1628.453072,-306.438199,8142.265362
2009.683917,-296.082377,0.000000,8808.450710
2009.684239,666.185348,536.266849,7994.224174
2009.684560,518.144159,842.705048,8512.368333
2009.684882,-518.144159,1378.971896,8216.285956
2009.685203,-1184.329507,919.314598,8438.347739
2009.685525,592.164754,995.924147,8734.430116
2009.685846,592.164754,842.705048,9474.636058
2009.686168,-1184.329507,1685.410096,9548.656652
2009.686489,-1776.494261,1302.362347,9400.615463
2009.686811,-518.144159,1685.410096,10214.842000
2009.687132,1036.288319,1302.362347,9326.594869
2009.687454,-370.102971,1915.238745,9400.615463
2009.687776,-2516.700203,2757.943793,9918.759623
2009.688097,-1332.370696,1072.533697,9844.739029
2009.688419,-592.164754,383.047749,8956.491898
2009.688740,-814.226536,766.095498,8808.450710
2009.689062,-3256.906145,1072.533697,10066.800811
2009.689383,-4367.215058,-153.219100,9474.636058
2009.689705,-1998.556043,-229.828649,8068.244768
2009.690026,-592.164754,0.000000,9622.677246
2009.690348,-1924.535449,1149.143247,9622.677246
2009.690669,-3182.885551,766.095498,9622.677246
2009.690991,814.226536,1149.143247,9400.615463
2009.691312,2368.659014,1762.019645,8956.491898
2009.691634,592.164754,1532.190996,8808.450710
2009.691955,-740.205942,1455.581446,9104.533087
2009.692277,1110.308913,1532.190996,9030.512492
2009.692598,3330.926739,689.485948,8660.409521
2009.692920,2442.679609,536.266849,9622.677246
2009.693241,888.247130,995.924147,10288.862594
2009.693563,-444.123565,-229.828649,8882.471304
2009.693884,1850.514855,0.000000,8216.285956
2009.694206,1406.391290,-919.314598,9696.697840
2009.694527,-148.041188,612.876398,10214.842000
2009.694849,0.000000,0.000000,8660.409521
2009.695170,2294.638420,0.000000,7994.224174
2009.695492,1998.556043,0.000000,9104.533087
2009.695813,1110.308913,-306.438199,10214.842000
2009.696135,0.000000,-536.266849,9400.615463
2009.696456,666.185348,306.438199,9252.574275
2009.696778,1184.329507,-842.705048,8660.409521
2009.697099,592.164754,-1072.533697,9844.739029
2009.697421,-1184.329507,-612.876398,10658.965565
2009.697742,-2220.617826,-919.314598,9992.780217
2009.698064,-1406.391290,-2068.457845,9770.718434
2009.698386,-2146.597232,-1685.410096,9770.718434
2009.698707,-2442.679609,-766.095498,10584.944971
2009.699029,-1776.494261,-689.485948,10436.903782
2009.699350,-370.102971,-153.219100,9844.739029
2009.699672,148.041188,0.000000,8586.388927
2009.699993,-666.185348,306.438199,10658.965565
2009.700315,962.267725,1455.581446,10066.800811
2009.700636,666.185348,919.314598,8068.244768
2009.700958,1110.308913,2681.334243,8586.388927
2009.701279,814.226536,1302.362347,8216.285956
2009.701601,0.000000,1072.533697,8364.327145
2009.701922,1110.308913,2681.334243,8660.409521
2009.702244,592.164754,2068.457845,7105.977043
2009.702565,222.061783,1685.410096,8068.244768
2009.702887,-148.041188,1915.238745,7772.162391
2009.703208,222.061783,2604.724693,9104.533087
2009.703530,0.000000,2221.676944,9104.533087
2009.703851,-1554.432478,1149.143247,8956.491898
2009.704173,-1850.514855,1302.362347,8882.471304
2009.704494,0.000000,2451.505594,10140.821405
2009.704816,-1110.308913,1685.410096,9474.636058
2009.705137,-1702.473667,1225.752797,9844.739029
2009.705459,-2590.720797,1302.362347,9474.636058
2009.705780,-2220.617826,1072.533697,8364.327145
2009.706102,-1480.411884,1149.143247,9400.615463
2009.706423,-3552.988522,229.828649,9474.636058
2009.706745,-3775.050304,459.657299,9400.615463
2009.707066,-1702.473667,536.266849,9992.780217
2009.707388,518.144159,612.876398,9696.697840
2009.707709,-888.247130,459.657299,9918.759623
2009.708031,-1554.432478,766.095498,9326.594869
2009.708352,888.247130,76.609550,9622.677246
2009.708674,1554.432478,459.657299,8808.450710
2009.708996,1258.350101,536.266849,9252.574275
2009.709317,740.205942,1072.533697,9030.512492
2009.709639,444.123565,459.657299,8068.244768
2009.709960,2146.597232,153.219100,7402.059420
2009.710282,2294.638420,383.047749,8882.471304
2009.710603,-370.102971,1762.019645,9178.553681
2009.710925,0.000000,76.609550,8660.409521
2009.711246,1924.535449,0.000000,7772.162391
2009.711568,2590.720797,229.828649,8068.244768
2009.711889,296.082377,0.000000,8586.388927
2009.712211,-1110.308913,-689.485948,10066.800811
2009.712532,296.082377,-766.095498,10510.924376
2009.712854,1110.308913,-1455.581446,10288.862594
2009.713175,0.000000,-1378.971896,10362.883188
2009.713497,-1924.535449,-842.705048,10436.903782
2009.713818,-1332.370696,-995.924147,9548.656652
2009.714140,1036.288319,-1532.190996,9326.594869
2009.714461,740.205942,-1072.533697,10807.006753
2009.714783,-1036.288319,-612.876398,11251.130318
2009.715104,-1406.391290,-766.095498,10066.800811
2009.715426,1776.494261,-995.924147,8512.368333
2009.715747,2072.576638,-383.047749,9474.636058
2009.716069,-740.205942,766.095498,10658.965565
2009.716390,-1628.453072,0.000000,10955.047942
2009.716712,888.247130,-153.219100,8438.347739
2009.717033,1184.329507,-459.657299,7179.997637
2009.717355,-148.041188,995.924147,10288.862594
2009.717676,-2516.700203,536.266849,10732.986159
2009.717998,-1036.288319,-153.219100,8808.450710
2009.718319,962.267725,0.000000,8512.368333
2009.718641,-888.247130,1455.581446,9548.656652
2009.718962,-2072.576638,1762.019645,9252.574275
2009.719284,-1332.370696,1762.019645,7994.224174
2009.719606,2294.638420,1455.581446,7105.977043
2009.719927,148.041188,1915.238745,8142.265362
2009.720249,-1776.494261,2604.724693,9252.574275
2009.720570,-518.144159,1838.629195,9400.615463
2009.720892,444.123565,1302.362347,6957.935855
2009.721213,518.144159,1378.971896,7328.038826
2009.721535,-1480.411884,1915.238745,10140.821405
2009.721856,-1480.411884,2221.676944,10066.800811
2009.722178,-518.144159,1838.629195,9252.574275
2009.722499,1924.535449,1532.190996,7846.182985
2009.722821,-962.267725,1838.629195,10066.800811
2009.723142,-2442.679609,1762.019645,9696.697840
2009.723464,-1850.514855,383.047749,10066.800811
2009.723785,-296.082377,766.095498,9104.533087
2009.724107,-1332.370696,766.095498,10214.842000
2009.724428,-3256.906145,1685.410096,11843.295072
2009.724750,-1554.432478,842.705048,10436.903782
2009.725071,-888.247130,-995.924147,8438.347739
2009.725393,-518.144159,153.219100,9326.594869
2009.725714,-2442.679609,536.266849,10214.842000
2009.726036,-2664.741391,-153.219100,9622.677246
2009.726357,-518.144159,0.000000,8586.388927
2009.726679,74.020594,0.000000,8364.327145
2009.727000,-222.061783,-153.219100,9474.636058
2009.727322,1110.308913,1378.971896,9178.553681
2009.727643,4071.132681,1225.752797,8660.409521
2009.727965,4219.173869,1685.410096,8290.306550
2009.728286,2220.617826,1532.190996,8438.347739
2009.728608,1924.535449,995.924147,8808.450710
2009.728929,2220.617826,1302.362347,9178.553681
2009.729251,1702.473667,229.828649,8068.244768
2009.729572,1036.288319,-306.438199,8660.409521
2009.729894,-444.123565,0.000000,9770.718434
2009.730216,296.082377,-459.657299,10066.800811
2009.730537,-444.123565,-842.705048,10436.903782
2009.730859,-2146.597232,-1762.019645,9696.697840
2009.731180,-1406.391290,-1838.629195,9030.512492
2009.731502,370.102971,-842.705048,9844.739029
2009.731823,444.123565,1455.581446,12361.439231
2009.732145,-444.123565,-766.095498,10288.862594
2009.732466,-2072.576638,-1991.848295,8956.491898
2009.732788,-370.102971,-612.876398,9400.615463
2009.733109,-592.164754,-919.314598,9326.594869
2009.733431,-148.041188,-536.266849,9696.697840
2009.733752,-888.247130,0.000000,9696.697840
2009.734074,888.247130,0.000000,8956.491898
2009.734395,888.247130,0.000000,9844.739029
2009.734717,370.102971,-919.314598,8216.285956
2009.735038,-740.205942,153.219100,9622.677246
2009.735360,148.041188,766.095498,9844.739029
2009.735681,1924.535449,76.609550,9252.574275
2009.736003,3034.844362,1991.848295,9992.780217
2009.736324,666.185348,2298.286494,8512.368333
2009.736646,0.000000,1225.752797,8438.347739
2009.736967,888.247130,1762.019645,8586.388927
2009.737289,1480.411884,1915.238745,8808.450710
2009.737610,666.185348,2145.067394,10066.800811
2009.737932,-1110.308913,2145.067394,9770.718434
2009.738253,-962.267725,1072.533697,7624.121203
2009.738575,74.020594,306.438199,7698.141797
2009.738896,-2146.597232,1455.581446,9474.636058
2009.739218,-3256.906145,842.705048,9548.656652
2009.739539,-2664.741391,1455.581446,10732.986159
2009.739861,518.144159,995.924147,7846.182985
2009.740182,-592.164754,995.924147,8586.388927
2009.740504,-2812.782580,1532.190996,9474.636058
2009.740826,-2812.782580,689.485948,9030.512492
2009.741147,-666.185348,1072.533697,8808.450710
2009.741469,74.020594,1378.971896,8660.409521
2009.741790,-740.205942,1762.019645,9252.574275
2009.742112,-2664.741391,1455.581446,8142.265362
2009.742433,-148.041188,1685.410096,6883.915261
2009.742755,1702.473667,1149.143247,7105.977043
2009.743076,74.020594,1455.581446,9474.636058
2009.743398,-1332.370696,1302.362347,10881.027347
2009.743719,-740.205942,1072.533697,9770.718434
2009.744041,2072.576638,459.657299,9474.636058
2009.744362,296.082377,0.000000,9918.759623
2009.744684,-444.123565,919.314598,11399.171507
2009.745005,148.041188,1378.971896,11621.233289
2009.745327,2516.700203,76.609550,8438.347739
2009.745648,2220.617826,0.000000,8808.450710
2009.745970,518.144159,1455.581446,10658.965565
2009.746291,-1110.308913,689.485948,10362.883188
2009.746613,962.267725,-383.047749,8586.388927
2009.746934,1924.535449,-842.705048,8290.306550
2009.747256,296.082377,153.219100,9474.636058
2009.747577,-1480.411884,536.266849,10732.986159
2009.747899,74.020594,0.000000,8290.306550
2009.748220,1776.494261,-842.705048,6735.874072
2009.748542,-296.082377,-229.828649,8956.491898
2009.748863,-1036.288319,229.828649,11029.068536
2009.749185,-1184.329507,-1302.362347,9548.656652
2009.749506,666.185348,-1225.752797,8512.368333
2009.749828,296.082377,-1455.581446,8142.265362
2009.750149,-2886.803174,229.828649,11547.212695
2009.750471,-1110.308913,-306.438199,9696.697840
2009.750793,666.185348,-1762.019645,8216.285956
2009.751114,1110.308913,0.000000,9178.553681
2009.751436,-888.247130,383.047749,9474.636058
2009.751757,-518.144159,612.876398,10510.924376
2009.752079,1184.329507,0.000000,9696.697840
2009.752400,1110.308913,-612.876398,7920.203579
2009.752722,-518.144159,229.828649,8956.491898
2009.753043,-888.247130,842.705048,9400.615463
2009.753365,-592.164754,-153.219100,9326.594869
2009.753686,-962.267725,-536.266849,8956.491898
2009.754008,-814.226536,-536.266849,9474.636058
2009.754329,-2812.782580,-766.095498,9104.533087
2009.754651,-1406.391290,76.609550,10066.800811
2009.754972,74.020594,-459.657299,9104.533087
2009.755294,-2072.576638,0.000000,9844.739029
2009.755615,-1406.391290,306.438199,9992.780217
2009.755937,-592.164754,919.314598,9770.718434
2009.756258,1258.350101,1685.410096,8512.368333
2009.756580,-370.102971,995.924147,8068.244768
2009.756901,-518.144159,2221.676944,9992.780217
2009.757223,666.185348,1762.019645,10510.924376
2009.757544,1184.329507,1838.629195,9178.553681
2009.757866,592.164754,383.047749,8512.368333
2009.758187,-1702.473667,919.314598,9474.636058
2009.758509,-1554.432478,1149.143247,9696.697840
2009.758830,1036.288319,842.705048,8290.306550
2009.759152,740.205942,842.705048,9030.512492
2009.759473,-1184.329507,1762.019645,9030.512492
2009.759795,-740.205942,2068.457845,8290.306550
2009.760116,962.267725,2221.676944,7698.141797
2009.760438,1036.288319,1838.629195,9178.553681
2009.760759,-1184.329507,2145.067394,8808.450710
2009.761081,-296.082377,1762.019645,9474.636058
2009.761403,518.144159,1302.362347,8216.285956
2009.761724,666.185348,919.314598,9326.594869
2009.762046,-740.205942,1762.019645,10066.800811
2009.762367,-2812.782580,76.609550,9104.533087
2009.762689,-1258.350101,76.609550,9474.636058
2009.763010,-296.082377,0.000000,9178.553681
2009.763332,-1406.391290,0.000000,9844.739029
2009.763653,-2368.659014,383.047749,10066.800811
2009.763975,-1110.308913,-153.219100,9770.718434
2009.764296,1258.350101,306.438199,9622.677246
2009.764618,666.185348,459.657299,8734.430116
2009.764939,-888.247130,383.047749,8808.450710
2009.765261,-962.267725,0.000000,8956.491898
2009.765582,74.020594,0.000000,8660.409521
2009.765904,1036.288319,-383.047749,8068.244768
2009.766225,74.020594,-842.705048,7994.224174
2009.766547,-1850.514855,-383.047749,9030.512492
2009.766868,-962.267725,-1302.362347,9178.553681
2009.767190,370.102971,-2604.724693,8512.368333
2009.767511,-1332.370696,-2298.286494,10066.800811
2009.767833,-3775.050304,-1838.629195,10881.027347
2009.768154,-2886.803174,-2451.505594,9770.718434
2009.768476,-1036.288319,-3294.210641,8882.471304
2009.768797,-1998.556043,-3064.381992,8068.244768
2009.769119,-3849.070898,-2911.162892,11547.212695
2009.769440,-3775.050304,-3064.381992,11029.068536
2009.769762,-2960.823768,-3983.696590,9400.615463
2009.770083,-2146.597232,-3447.429741,9918.759623
2009.770405,-3775.050304,-2987.772442,10807.006753
2009.770726,-4293.194464,-2604.724693,10362.883188
2009.771048,-2442.679609,-3370.820191,8808.450710
2009.771369,-2516.700203,-3753.867940,9326.594869
2009.771691,-3404.947333,-2757.943793,10807.006753
2009.772013,-3627.009116,-2451.505594,10584.944971
2009.772334,-1184.329507,-2757.943793,8512.368333
2009.772656,-1258.350101,-2757.943793,8364.327145
2009.772977,-3404.947333,-2451.505594,9918.759623
2009.773299,-2590.720797,-2374.896044,9548.656652
2009.773620,-1850.514855,-1762.019645,7105.977043
2009.773942,-962.267725,-1302.362347,7402.059420
2009.774263,-2368.659014,-1838.629195,8882.471304
2009.774585,-4071.132681,-1685.410096,9474.636058
2009.774906,-2368.659014,-1685.410096,8216.285956
2009.775228,-1554.432478,-1608.800546,8660.409521
2009.775549,-2294.638420,-383.047749,9992.780217
2009.775871,-3108.864956,-842.705048,10140.821405
2009.776192,-2664.741391,-1532.190996,10066.800811
2009.776514,-1258.350101,-459.657299,9178.553681
2009.776835,-2960.823768,-1149.143247,8586.388927
2009.777157,-3330.926739,-536.266849,8808.450710
2009.777478,-1702.473667,-459.657299,9474.636058
2009.777800,-1554.432478,-306.438199,10140.821405
2009.778121,-1776.494261,-153.219100,10214.842000
2009.778443,-2812.782580,-919.314598,8956.491898
2009.778764,-3627.009116,-842.705048,7772.162391
2009.779086,-2590.720797,-306.438199,7994.224174
2009.779407,-1036.288319,-459.657299,8364.327145
2009.779729,-2220.617826,0.000000,9770.718434
2009.780050,-2664.741391,229.828649,9474.636058
2009.780372,-2368.659014,-383.047749,8586.388927
2009.780693,-518.144159,-536.266849,8586.388927
2009.781015,-1406.391290,0.000000,8660.409521
2009.781336,-1554.432478,306.438199,10807.006753
2009.781658,0.000000,383.047749,9918.759623
2009.781979,-444.123565,-383.047749,8512.368333
2009.782301,-2294.638420,-459.657299,9992.780217
2009.782623,-4441.235652,-1685.410096,8586.388927
2009.782944,-3034.844362,-1838.629195,8586.388927
2009.783266,-1554.432478,-1915.238745,9178.553681
2009.783587,-2738.761985,-1225.752797,9844.739029
2009.783909,-3775.050304,-1685.410096,10510.924376
2009.784230,-3404.947333,-1378.971896,9030.512492
2009.784552,-1628.453072,-1608.800546,7846.182985
2009.784873,-1332.370696,-1762.019645,7328.038826
2009.785195,-2368.659014,-2068.457845,9474.636058
2009.785516,-666.185348,-306.438199,11251.130318
2009.785837,518.144159,-612.876398,9474.636058
2009.786159,74.020594,-1685.410096,8290.306550
2009.786480,-1850.514855,-1915.238745,9400.615463
2009.786802,-3552.988522,-2681.334243,9474.636058
2009.787123,-2516.700203,-3064.381992,9104.533087
2009.787445,-1406.391290,-2604.724693,9474.636058
2009.787766,-2738.761985,-2604.724693,9918.759623
2009.788088,-4071.132681,-3524.039291,10066.800811
2009.788409,-3404.947333,-3447.429741,9178.553681
2009.788731,-1554.432478,-3064.381992,10066.800811
2009.789052,-2812.782580,-3140.991542,10066.800811
2009.789374,-4441.235652,-3370.820191,10362.883188
2009.789695,-1924.535449,-2374.896044,9548.656652
2009.790017,-592.164754,-2987.772442,8216.285956
2009.790338,-1332.370696,-2221.676944,8660.409521
2009.790660,-3256.906145,-2374.896044,9770.718434
2009.790981,-3330.926739,-2374.896044,9178.553681
2009.791303,-1406.391290,-2681.334243,7550.100608
2009.791624,-2886.803174,-3677.258390,7772.162391
2009.791946,-5477.523971,-3447.429741,8216.285956
2009.792267,-5107.421000,-3677.258390,8512.368333
2009.792589,-2516.700203,-3753.867940,9178.553681
2009.792910,-1406.391290,-4136.915689,9400.615463
2009.793232,-3330.926739,-3140.991542,10288.862594
2009.793553,-2960.823768,-2374.896044,10584.944971
2009.793875,-444.123565,-1762.019645,10732.986159
2009.794196,370.102971,-2145.067394,10288.862594
2009.794518,-518.144159,-842.705048,11325.150913
2009.794839,-1628.453072,-919.314598,10140.821405
2009.795161,-962.267725,-919.314598,8142.265362
2009.795482,0.000000,-1225.752797,8438.347739
2009.795804,-1406.391290,-1072.533697,9622.677246
2009.796125,-3182.885551,-919.314598,9844.739029
2009.796446,-3330.926739,-1378.971896,7920.203579
2009.796768,-1184.329507,-1685.410096,7476.080014
2009.797089,-1776.494261,-1225.752797,8364.327145
2009.797411,-4071.132681,-1608.800546,9326.594869
2009.797732,-3701.029710,-1685.410096,10140.821405
2009.798054,-3108.864956,-1991.848295,8882.471304
2009.798375,-2294.638420,-1915.238745,9104.533087
2009.798697,-2442.679609,-995.924147,9252.574275
2009.799018,-2886.803174,-306.438199,8956.491898
2009.799340,-740.205942,0.000000,8512.368333
2009.799661,296.082377,919.314598,9030.512492
2009.799983,-444.123565,1225.752797,9252.574275
2009.800304,-1184.329507,1072.533697,9030.512492
2009.800626,-592.164754,1149.143247,7920.203579
2009.800947,0.000000,536.266849,7994.224174
2009.801269,-1850.514855,-76.609550,8512.368333
2009.801590,-3627.009116,-153.219100,9474.636058
2009.801912,-3849.070898,-919.314598,9474.636058
2009.802233,-3478.967927,-2068.457845,8068.244768
2009.802555,-4219.173869,-2068.457845,9252.574275
2009.802876,-4737.318029,-1991.848295,10658.965565
2009.803198,-3923.091493,-1532.190996,10584.944971
2009.803519,-814.226536,-612.876398,9474.636058
2009.803841,-888.247130,-766.095498,9622.677246
2009.804162,-1110.308913,0.000000,9844.739029
2009.804484,-1036.288319,536.266849,9474.636058
2009.804805,296.082377,153.219100,7846.182985
2009.805127,666.185348,-306.438199,8216.285956
2009.805448,-1924.535449,-1072.533697,8586.388927
2009.805770,-2294.638420,-1991.848295,9548.656652
2009.806091,-2146.597232,-2451.505594,9252.574275
2009.806413,-2368.659014,-2987.772442,8734.430116
2009.806734,-3923.091493,-2911.162892,9622.677246
2009.807055,-4885.359217,-3370.820191,10362.883188
2009.807377,-3330.926739,-3447.429741,10584.944971
2009.807698,-2442.679609,-3064.381992,9992.780217
2009.808020,-2812.782580,-2834.553343,10066.800811
2009.808341,-3627.009116,-2451.505594,10436.903782
2009.808663,-2812.782580,-1225.752797,9696.697840
2009.808984,0.000000,-1378.971896,8808.450710
2009.809306,-1480.411884,-1762.019645,7772.162391
2009.809627,-2960.823768,-2068.457845,7698.141797
2009.809949,-2368.659014,-2298.286494,7698.141797
2009.810270,-1554.432478,-3447.429741,7698.141797
2009.810592,-2812.782580,-3830.477490,8364.327145
2009.810913,-3182.885551,-4290.134789,9178.553681
2009.811235,-4219.173869,-4749.792088,9696.697840
2009.811556,-2442.679609,-4596.572988,9844.739029
2009.811878,-1332.370696,-3753.867940,10658.965565
2009.812199,-2072.576638,-2757.943793,11769.274478
2009.812521,-1850.514855,-2145.067394,11769.274478
2009.812842,1036.288319,-995.924147,11473.192101
2009.813164,2368.659014,-459.657299,10584.944971
2009.813485,296.082377,0.000000,10436.903782
2009.813807,-1258.350101,-153.219100,9548.656652
2009.814128,-666.185348,0.000000,8956.491898
2009.814450,-1184.329507,-1302.362347,7031.956449
2009.814771,-3182.885551,-1991.848295,7402.059420
2009.815093,-5625.565159,-2757.943793,7920.203579
2009.815414,-6587.832884,-2987.772442,7550.100608
2009.815736,-5181.441594,-3447.429741,7402.059420
2009.816057,-5329.482782,-3447.429741,8364.327145
2009.816379,-5477.523971,-2451.505594,9992.780217
2009.816700,-4515.256246,-1685.410096,10066.800811
2009.817022,-962.267725,-306.438199,9918.759623
2009.817343,1258.350101,612.876398,9992.780217
2009.817664,222.061783,1149.143247,10066.800811
2009.817986,1480.411884,1762.019645,9548.656652
2009.818307,2368.659014,1838.629195,9178.553681
2009.818629,1480.411884,919.314598,8808.450710
2009.818950,0.000000,459.657299,9104.533087
2009.819272,-1554.432478,306.438199,8290.306550
2009.819593,-888.247130,306.438199,7624.121203
2009.819915,-370.102971,0.000000,7920.203579
2009.820236,-1924.535449,-153.219100,8142.265362
2009.820558,-2960.823768,-229.828649,8660.409521
2009.820879,-2590.720797,-842.705048,9326.594869
2009.821201,-666.185348,-1149.143247,9622.677246
2009.821522,-1998.556043,-306.438199,10584.944971
2009.821844,-3034.844362,0.000000,10732.986159
2009.822165,-1998.556043,0.000000,10881.027347
2009.822487,-1258.350101,-306.438199,9622.677246
2009.822808,-1480.411884,-153.219100,8734.430116
2009.823130,-2220.617826,-229.828649,8512.368333
2009.823451,-2664.741391,-306.438199,7920.203579
2009.823773,-1628.453072,-536.266849,6809.894666
2009.824094,-1554.432478,-766.095498,7402.059420
2009.824416,-2812.782580,-919.314598,8068.244768
2009.824737,-3923.091493,-1455.581446,8660.409521
2009.825059,-2368.659014,-1991.848295,8290.306550
2009.825380,-1924.535449,-3064.381992,9400.615463
2009.825702,-2590.720797,-2221.676944,9992.780217
2009.826023,-4145.153275,-1838.629195,11325.150913
2009.826345,-2886.803174,-2451.505594,11103.089130
2009.826666,-1998.556043,-2911.162892,9992.780217
2009.826988,-2516.700203,-2681.334243,10881.027347
2009.827309,-3701.029710,-2528.115143,10955.047942
2009.827631,-3552.988522,-2528.115143,10066.800811
2009.827952,-2368.659014,-2987.772442,8438.347739
2009.828273,-3182.885551,-3064.381992,8808.450710
2009.828595,-4441.235652,-3447.429741,9178.553681
2009.828916,-4293.194464,-3600.648841,8586.388927
2009.829238,-2516.700203,-3677.258390,8808.450710
2009.829559,-2442.679609,-3830.477490,9178.553681
2009.829881,-4293.194464,-4366.744339,10214.842000
2009.830202,-3552.988522,-3140.991542,10214.842000
2009.830524,-2368.659014,-3524.039291,9474.636058
2009.830845,-1776.494261,-3600.648841,9548.656652
2009.831167,-2368.659014,-2987.772442,10658.965565
2009.831488,-3627.009116,-3217.601092,10362.883188
2009.831810,-2960.823768,-3140.991542,9030.512492
2009.832131,-2220.617826,-3370.820191,8734.430116
2009.832453,-3478.967927,-3370.820191,9548.656652
2009.832774,-4441.235652,-3447.429741,9326.594869
2009.833096,-3034.844362,-3217.601092,8586.388927
2009.833417,-148.041188,-2451.505594,8512.368333
2009.833739,-962.267725,-1991.848295,9178.553681
2009.834060,-1776.494261,-1532.190996,9992.780217
2009.834382,-296.082377,-1225.752797,10510.924376
2009.834703,814.226536,-919.314598,9548.656652
2009.835025,740.205942,-459.657299,9844.739029
2009.835346,-1258.350101,-153.219100,9992.780217
2009.835668,-1924.535449,-612.876398,9400.615463
2009.835989,-888.247130,-1072.533697,8290.306550
2009.836311,-962.267725,-1149.143247,8142.265362
2009.836632,-2738.761985,-995.924147,7920.203579
2009.836954,-3997.112087,-536.266849,8586.388927
2009.837275,-2368.659014,-1225.752797,7994.224174
2009.837597,-962.267725,-1608.800546,7994.224174
2009.837918,-2294.638420,-842.705048,9252.574275
2009.838240,-2590.720797,0.000000,10436.903782
2009.838561,-888.247130,153.219100,11325.150913
2009.838882,0.000000,536.266849,10510.924376
2009.839204,0.000000,536.266849,10436.903782
2009.839525,-962.267725,1378.971896,10436.903782
2009.839847,-1036.288319,1762.019645,9326.594869
2009.840168,222.061783,1685.410096,9326.594869
2009.840490,-888.247130,1532.190996,9400.615463
2009.840811,-3552.988522,842.705048,8882.471304
2009.841133,-4589.276840,0.000000,7031.956449
2009.841454,-4145.153275,-1149.143247,6365.771101
2009.841776,-5033.400406,-1608.800546,6291.750507
2009.842097,-6883.915261,-1608.800546,7402.059420
2009.842419,-6735.874072,-2221.676944,8364.327145
2009.842740,-5033.400406,-2528.115143,7920.203579
2009.843062,-3478.967927,-1991.848295,8956.491898
2009.843383,-2442.679609,-1225.752797,10362.883188
2009.843705,-2072.576638,0.000000,11695.253884
2009.844026,-222.061783,0.000000,11325.150913
2009.844348,1776.494261,919.314598,11473.192101
2009.844669,370.102971,459.657299,10584.944971
2009.844991,-592.164754,-306.438199,10362.883188
2009.845312,-962.267725,-995.924147,9474.636058
2009.845634,-296.082377,-1838.629195,8512.368333
2009.845955,-2146.597232,-2451.505594,7994.224174
2009.846277,-3330.926739,-3294.210641,8364.327145
2009.846598,-3997.112087,-3140.991542,8956.491898
2009.846920,-4293.194464,-4366.744339,7254.018232
2009.847241,-3997.112087,-4290.134789,8586.388927
2009.847563,-4145.153275,-4366.744339,9474.636058
2009.847884,-4145.153275,-4136.915689,10288.862594
2009.848206,-2812.782580,-3600.648841,10066.800811
2009.848527,-1480.411884,-3217.601092,9696.697840
2009.848849,-888.247130,-1608.800546,11399.171507
2009.849170,-814.226536,-1608.800546,11769.274478
2009.849491,518.144159,-2298.286494,10066.800811
2009.849813,1554.432478,-2221.676944,8216.285956
2009.850134,-148.041188,-2451.505594,7550.100608
2009.850456,-1332.370696,-3140.991542,8660.409521
2009.850777,-1554.432478,-2987.772442,8660.409521
2009.851099,-1110.308913,-3677.258390,7179.997637
2009.851420,-370.102971,-2987.772442,8734.430116
2009.851742,-1924.535449,-2834.553343,10436.903782
2009.852063,-3108.864956,-3524.039291,11177.109724
2009.852385,-1184.329507,-2911.162892,10436.903782
2009.852706,-2146.597232,-2681.334243,10658.965565
2009.853028,-2886.803174,-2681.334243,10807.006753
2009.853349,-3256.906145,-2374.896044,11177.109724
2009.853671,0.000000,-689.485948,9918.759623
2009.853992,0.000000,-536.266849,9548.656652
2009.854314,-3182.885551,-995.924147,8438.347739
2009.854635,-3404.947333,-1532.190996,8364.327145
2009.854957,-2516.700203,-1072.533697,6809.894666
2009.855278,-2812.782580,-1532.190996,6069.688724
2009.855600,-3404.947333,-2374.896044,7105.977043
2009.855921,-5699.585753,-1762.019645,8734.430116
2009.856243,-4737.318029,-1915.238745,9474.636058
2009.856564,-4367.215058,-3600.648841,8438.347739
2009.856886,-5033.400406,-3064.381992,9252.574275
2009.857207,-4811.338623,-1685.410096,11325.150913
2009.857529,-3034.844362,-919.314598,11325.150913
2009.857850,-148.041188,-306.438199,12065.356855
2009.858172,-1628.453072,-76.609550,11029.068536
2009.858493,-2664.741391,383.047749,11251.130318
2009.858815,-1554.432478,76.609550,9326.594869
2009.859136,-222.061783,-306.438199,7328.038826
2009.859458,-296.082377,0.000000,8438.347739
2009.859779,-2738.761985,76.609550,9696.697840
2009.860100,-3923.091493,-766.095498,8660.409521
2009.860422,-3034.844362,-1915.238745,7254.018232
2009.860743,-3404.947333,-2451.505594,6957.935855
2009.861065,-5403.503377,-2221.676944,9030.512492
2009.861386,-4441.235652,-1838.629195,10732.986159
2009.861708,-1776.494261,-1378.971896,10510.924376
2009.862029,-148.041188,-919.314598,10436.903782
2009.862351,-2738.761985,-1149.143247,9474.636058
2009.862672,-2368.659014,-766.095498,8808.450710
2009.862994,-296.082377,-459.657299,9030.512492
2009.863315,888.247130,-306.438199,9178.553681
2009.863637,-518.144159,-689.485948,9622.677246
2009.863958,-2442.679609,-1302.362347,8660.409521
2009.864280,-1998.556043,-1762.019645,7772.162391
2009.864601,-1480.411884,-1685.410096,7624.121203
2009.864923,-2294.638420,-2068.457845,8734.430116
2009.865244,-3330.926739,-2451.505594,9548.656652
2009.865566,-2812.782580,-1762.019645,9252.574275
2009.865887,0.000000,-1991.848295,9770.718434
2009.866209,-444.123565,-2221.676944,9770.718434
2009.866530,-2368.659014,-1532.190996,10881.027347
2009.866852,-1110.308913,-766.095498,11103.089130
2009.867173,370.102971,-1685.410096,10510.924376
2009.867495,-666.185348,-919.314598,9696.697840
2009.867816,148.041188,-459.657299,9844.739029
2009.868138,-1480.411884,0.000000,8808.450710
2009.868459,-444.123565,-919.314598,6291.750507
2009.868781,0.000000,-1378.971896,7476.080014
2009.869102,-1332.370696,76.609550,9400.615463
2009.869424,-2072.576638,-229.828649,10288.862594
2009.869745,-1480.411884,-689.485948,9252.574275
2009.870067,-296.082377,-995.924147,9474.636058
2009.870388,-2368.659014,-1149.143247,9918.759623
2009.870709,-3330.926739,-689.485948,11473.192101
2009.871031,-1924.535449,-612.876398,10436.903782
2009.871352,-1258.350101,-1378.971896,8808.450710
2009.871674,-2146.597232,-229.828649,10066.800811
2009.871995,-3849.070898,-689.485948,9918.759623
2009.872317,-3034.844362,-1149.143247,9400.615463
2009.872638,-740.205942,-153.219100,7402.059420
2009.872960,-1110.308913,306.438199,7846.182985
2009.873281,-2072.576638,842.705048,8216.285956
2009.873603,-1480.411884,1225.752797,7105.977043
2009.873924,1406.391290,306.438199,5107.421000
2009.874246,1702.473667,536.266849,7550.100608
2009.874567,-2072.576638,229.828649,9104.533087
2009.874889,-1924.535449,-766.095498,11251.130318
2009.875210,444.123565,76.609550,11103.089130
2009.875532,1036.288319,-995.924147,9992.780217
2009.875853,-2516.700203,-1608.800546,10955.047942
2009.876175,-3552.988522,-995.924147,9400.615463
2009.876496,-1406.391290,-919.314598,8586.388927
2009.876818,1776.494261,-536.266849,9252.574275
2009.877139,-296.082377,536.266849,10732.986159
2009.877461,-1258.350101,612.876398,9548.656652
2009.877782,148.041188,229.828649,8956.491898
2009.878104,3108.864956,842.705048,8290.306550
2009.878425,370.102971,689.485948,9252.574275
2009.878747,-592.164754,919.314598,10140.821405
2009.879068,-666.185348,76.609550,8808.450710
2009.879390,0.000000,-995.924147,8290.306550
2009.879711,-148.041188,-766.095498,9992.780217
2009.880033,-1776.494261,-919.314598,10288.862594
2009.880354,-1924.535449,-612.876398,9400.615463
2009.880676,-370.102971,0.000000,10140.821405
2009.880997,888.247130,536.266849,10140.821405
2009.881318,148.041188,459.657299,9474.636058
2009.881640,-1184.329507,1915.238745,8068.244768
2009.881961,0.000000,1685.410096,8216.285956
2009.882283,1924.535449,1991.848295,7698.141797
2009.882604,2072.576638,1608.800546,8882.471304
2009.882926,666.185348,2298.286494,9474.636058
2009.883247,1184.329507,2451.505594,8808.450710
2009.883569,518.144159,1302.362347,8364.327145
2009.883890,0.000000,766.095498,8808.450710
2009.884212,-1628.453072,383.047749,11325.150913
2009.884533,-2886.803174,1072.533697,9400.615463
2009.884855,-1554.432478,612.876398,9030.512492
2009.885176,-1776.494261,0.000000,8586.388927
2009.885498,-2072.576638,536.266849,8734.430116
2009.885819,-1850.514855,1378.971896,8586.388927
2009.886141,222.061783,1455.581446,8290.306550
2009.886462,1036.288319,2068.457845,8956.491898
2009.886784,1110.308913,1838.629195,9104.533087
2009.887105,1480.411884,2604.724693,11251.130318
2009.887427,2442.679609,2911.162892,9104.533087
2009.887748,2072.576638,1915.238745,8142.265362
2009.888070,1998.556043,995.924147,9622.677246
2009.888391,0.000000,1991.848295,9918.759623
2009.888713,370.102971,1302.362347,9548.656652
2009.889034,444.123565,995.924147,9104.533087
2009.889356,-592.164754,612.876398,9992.780217
2009.889677,-444.123565,689.485948,11029.068536
2009.889999,-370.102971,306.438199,9474.636058
2009.890320,962.267725,1225.752797,9622.677246
2009.890641,-444.123565,766.095498,8512.368333
2009.890963,-1184.329507,536.266849,7920.203579
2009.891284,0.000000,689.485948,9252.574275
2009.891606,222.061783,612.876398,6957.935855
2009.891927,-370.102971,536.266849,7476.080014
2009.892248,-518.144159,612.876398,8142.265362
2009.892570,-148.041188,-76.609550,9178.553681
2009.892891,148.041188,-383.047749,8438.347739
2009.893213,0.000000,-1149.143247,8068.244768
2009.893534,-1406.391290,0.000000,9474.636058
2009.893856,-814.226536,-306.438199,9622.677246
2009.894177,1850.514855,-153.219100,9178.553681
2009.894498,2664.741391,-536.266849,9474.636058
2009.894820,370.102971,459.657299,10510.924376
2009.895141,-296.082377,0.000000,11547.212695
2009.895463,2146.597232,-766.095498,10584.944971
2009.895784,888.247130,-995.924147,10732.986159
2009.896105,-740.205942,-459.657299,11399.171507
2009.896427,-2738.761985,-995.924147,10584.944971
2009.896748,-1332.370696,-1378.971896,8512.368333
2009.897070,740.205942,-1455.581446,8290.306550
2009.897391,-1406.391290,229.828649,9474.636058
2009.897713,-4071.132681,0.000000,10658.965565
2009.898034,-1998.556043,-919.314598,8808.450710
2009.898355,518.144159,-306.438199,8956.491898
2009.898677,0.000000,612.876398,9400.615463
2009.898998,-2368.659014,229.828649,9252.574275
2009.899320,-1554.432478,153.219100,8512.368333
2009.899641,1554.432478,919.314598,7476.080014
2009.899962,1628.453072,1685.410096,7994.224174
2009.900284,-296.082377,2374.896044,9844.739029
2009.900605,-1258.350101,1302.362347,8882.471304
2009.900927,962.267725,1302.362347,7476.080014
2009.901248,2368.659014,1378.971896,8438.347739
2009.901570,74.020594,2068.457845,9030.512492
2009.901891,-1628.453072,2145.067394,9548.656652
2009.902212,-740.205942,1225.752797,8364.327145
2009.902534,1554.432478,1608.800546,9474.636058
2009.902855,-592.164754,1455.581446,9326.594869
2009.903177,-2442.679609,1685.410096,10584.944971
2009.903498,-1480.411884,1302.362347,9326.594869
2009.903819,-444.123565,689.485948,8364.327145
2009.904141,-592.164754,995.924147,9104.533087
2009.904462,-2294.638420,1225.752797,10362.883188
2009.904784,-3034.844362,919.314598,9104.533087
2009.905105,-1036.288319,383.047749,7772.162391
2009.905426,888.247130,612.876398,8734.430116
2009.905748,-518.144159,1302.362347,9918.759623
2009.906069,-814.226536,2298.286494,11177.109724
2009.906391,1554.432478,1455.581446,9622.677246
2009.906712,3849.070898,1455.581446,8216.285956
2009.907034,1924.535449,383.047749,8734.430116
2009.907355,1110.308913,1915.238745,10214.842000
2009.907676,1554.432478,1685.410096,10288.862594
2009.907998,2368.659014,459.657299,9104.533087
2009.908319,2368.659014,536.266849,10066.800811
2009.908641,592.164754,919.314598,9326.594869
2009.908962,814.226536,1302.362347,9622.677246
2009.909283,1850.514855,1072.533697,9474.636058
2009.909605,2146.597232,536.266849,8290.306550
2009.909926,518.144159,383.047749,8734.430116
2009.910248,0.000000,689.485948,7846.182985
2009.910569,962.267725,383.047749,7920.203579
2009.910891,888.247130,0.000000,7994.224174
2009.911212,0.000000,0.000000,9326.594869
2009.911533,-1480.411884,-536.266849,10584.944971
2009.911855,-1480.411884,-383.047749,9770.718434
2009.912176,-888.247130,-1991.848295,8808.450710
2009.912498,-666.185348,-1225.752797,8882.471304
2009.912819,-1702.473667,-306.438199,9104.533087
2009.913140,-962.267725,-229.828649,10066.800811
2009.913462,444.123565,-229.828649,9030.512492
2009.913783,-592.164754,-306.438199,9474.636058
2009.914105,-888.247130,919.314598,11325.150913
2009.914426,-1184.329507,0.000000,11251.130318
2009.914748,962.267725,0.000000,9918.759623
2009.915069,-444.123565,-766.095498,9400.615463
2009.915390,-1406.391290,0.000000,10140.821405
2009.915712,-1258.350101,229.828649,11177.109724
2009.916033,-1554.432478,-536.266849,9400.615463
2009.916355,-2516.700203,-1149.143247,8734.430116
2009.916676,-2960.823768,-1378.971896,9918.759623
2009.916997,-1998.556043,-383.047749,9696.697840
2009.917319,-1406.391290,306.438199,9918.759623
2009.917640,-1332.370696,459.657299,8956.491898
2009.917962,-2664.741391,153.219100,8142.265362
2009.918283,-296.082377,1072.533697,6883.915261
2009.918605,1110.308913,1149.143247,7476.080014
2009.918926,-1036.288319,1685.410096,8586.388927
2009.919247,-2146.597232,459.657299,8216.285956
2009.919569,-814.226536,689.485948,7994.224174
2009.919890,518.144159,919.314598,8660.409521
2009.920212,-888.247130,459.657299,8364.327145
2009.920533,-2368.659014,0.000000,7994.224174
2009.920854,-2146.597232,229.828649,10066.800811
2009.921176,-222.061783,306.438199,9104.533087
2009.921497,-592.164754,-383.047749,10066.800811
2009.921819,-1258.350101,383.047749,11029.068536
2009.922140,-1406.391290,689.485948,11473.192101
2009.922462,888.247130,459.657299,9770.718434
2009.922783,3330.926739,459.657299,9474.636058
2009.923104,1776.494261,1608.800546,9918.759623
2009.923426,-740.205942,2374.896044,9622.677246
2009.923747,1332.370696,1149.143247,8956.491898
2009.924069,3182.885551,842.705048,8290.306550
2009.924390,2368.659014,919.314598,9104.533087
2009.924711,296.082377,1532.190996,10658.965565
2009.925033,-370.102971,995.924147,9252.574275
2009.925354,1480.411884,-612.876398,7476.080014
2009.925676,2220.617826,459.657299,9178.553681
2009.925997,-370.102971,2068.457845,9030.512492
2009.926318,-592.164754,995.924147,9030.512492
2009.926640,2368.659014,536.266849,7994.224174
2009.926961,4071.132681,1838.629195,8808.450710
2009.927283,2072.576638,2757.943793,10140.821405
2009.927604,296.082377,2298.286494,8956.491898
2009.927926,1110.308913,1072.533697,7476.080014
2009.928247,3256.906145,1225.752797,7550.100608
2009.928568,1480.411884,2068.457845,9918.759623
2009.928890,-666.185348,1838.629195,10732.986159
2009.929211,-1332.370696,306.438199,9030.512492
