#time,accel_x,accel_y,accel_z
4689.036305,148.041188,459.657299,9326.594869
4689.036620,296.082377,1378.971896,9400.615463
4689.036934,0.000000,689.485948,8956.491898
4689.037248,74.020594,689.485948,9400.615463
4689.037563,0.000000,766.095498,9474.636058
4689.037877,0.000000,766.095498,9326.594869
4689.038192,74.020594,306.438199,9400.615463
4689.038506,370.102971,612.876398,9252.574275
4689.038820,296.082377,919.314598,9400.615463
4689.039135,222.061783,842.705048,9178.553681
4689.039449,0.000000,919.314598,9178.553681
4689.039763,0.000000,842.705048,9474.636058
4689.040078,222.061783,766.095498,9474.636058
4689.040392,0.000000,995.924147,9178.553681
4689.040707,0.000000,306.438199,9400.615463
4689.041021,0.000000,1072.533697,9178.553681
4689.041335,0.000000,689.485948,9252.574275
4689.041650,0.000000,766.095498,9400.615463
4689.041964,0.000000,766.095498,9400.615463
4689.042278,0.000000,689.485948,9326.594869
4689.042593,74.020594,766.095498,9326.594869
4689.042907,0.000000,842.705048,8956.491898
4689.043222,296.082377,1072.533697,9326.594869
4689.043536,74.020594,383.047749,8956.491898
4689.043850,74.020594,766.095498,9178.553681
4689.044165,74.020594,612.876398,9400.615463
4689.044479,222.061783,919.314598,9326.594869
4689.044793,148.041188,689.485948,9474.636058
4689.045108,296.082377,1072.533697,9474.636058
4689.045422,74.020594,1225.752797,8956.491898
4689.045737,296.082377,995.924147,9030.512492
4689.046051,888.247130,1378.971896,9104.533087
4689.046365,148.041188,1455.581446,9104.533087
4689.046680,444.123565,1149.143247,9326.594869
4689.046994,296.082377,1149.143247,9252.574275
4689.047309,592.164754,1225.752797,9326.594869
4689.047623,740.205942,1685.410096,9548.656652
4689.047937,666.185348,1455.581446,9696.697840
4689.048252,1036.288319,2068.457845,9252.574275
4689.048566,1110.308913,1455.581446,9326.594869
4689.048880,888.247130,1532.190996,9252.574275
4689.049195,1406.391290,1838.629195,9474.636058
4689.049509,1332.370696,1532.190996,9400.615463
4689.049824,1480.411884,1762.019645,9326.594869
4689.050138,1776.494261,1991.848295,9548.656652
4689.050452,2146.597232,2145.067394,9622.677246
4689.050767,2072.576638,2145.067394,9696.697840
4689.051081,2368.659014,2528.115143,9548.656652
4689.051395,2368.659014,2528.115143,9696.697840
4689.051710,2294.638420,2451.505594,9548.656652
4689.052024,2442.679609,2987.772442,9622.677246
4689.052339,2886.803174,2834.553343,9474.636058
4689.052653,3034.844362,3600.648841,9326.594869
4689.052967,3034.844362,3217.601092,9178.553681
4689.053282,3478.967927,4136.915689,8882.471304
4689.053596,3256.906145,4366.744339,8882.471304
4689.053911,3849.070898,4519.963438,9178.553681
4689.054225,3849.070898,4519.963438,8956.491898
4689.054539,3849.070898,4443.353888,8956.491898
4689.054854,3849.070898,4903.011187,8808.450710
4689.055168,3330.926739,4826.401637,8438.347739
4689.055482,3034.844362,4903.011187,8438.347739
4689.055797,2960.823768,4290.134789,8660.409521
4689.056111,2442.679609,4060.306139,9030.512492
4689.056426,1998.556043,3907.087040,8882.471304
4689.056740,1332.370696,3447.429741,8660.409521
4689.057054,814.226536,3370.820191,8808.450710
4689.057369,444.123565,3140.991542,8882.471304
4689.057683,74.020594,3140.991542,8660.409521
4689.057997,0.000000,2834.553343,8808.450710
4689.058312,-592.164754,2298.286494,8882.471304
4689.058626,0.000000,2145.067394,9030.512492
4689.058941,-222.061783,2221.676944,9104.533087
4689.059255,74.020594,2298.286494,9326.594869
4689.059569,740.205942,2298.286494,10066.800811
4689.059884,1110.308913,1685.410096,10214.842000
4689.060198,1184.329507,1532.190996,10658.965565
4689.060513,1258.350101,1225.752797,10807.006753
4689.060827,1110.308913,766.095498,10584.944971
4689.061141,1332.370696,919.314598,10732.986159
4689.061456,1850.514855,1149.143247,10955.047942
4689.061770,2368.659014,1532.190996,11029.068536
4689.062084,2664.741391,1532.190996,10140.821405
4689.062399,3404.947333,2068.457845,9696.697840
4689.062713,3330.926739,2451.505594,9252.574275
4689.063028,3923.091493,3140.991542,8438.347739
4689.063342,4071.132681,3217.601092,8364.327145
4689.063656,3775.050304,3064.381992,8364.327145
4689.063971,3256.906145,2987.772442,8142.265362
4689.064285,2812.782580,2528.115143,7476.080014
4689.064599,2664.741391,2221.676944,7105.977043
4689.064914,2368.659014,2068.457845,7920.203579
4689.065228,2146.597232,2528.115143,9400.615463
4689.065543,2146.597232,1991.848295,9326.594869
4689.065857,2072.576638,1762.019645,9474.636058
4689.066171,2072.576638,1838.629195,9844.739029
4689.066486,2294.638420,2068.457845,10066.800811
4689.066800,2442.679609,2068.457845,10214.842000
4689.067115,2368.659014,2298.286494,10584.944971
4689.067429,2368.659014,2604.724693,10436.903782
4689.067743,2590.720797,2681.334243,9844.739029
4689.068058,3182.885551,3217.601092,9104.533087
4689.068372,3775.050304,4060.306139,8364.327145
4689.068686,4811.338623,4903.011187,8216.285956
4689.069001,4885.359217,6281.983084,7994.224174
4689.069315,4959.379811,6511.811733,7624.121203
4689.069630,4589.276840,6205.373534,7698.141797
4689.069944,3034.844362,5056.230287,7772.162391
4689.070258,1110.308913,4213.525239,8216.285956
4689.070573,-222.061783,3064.381992,9474.636058
4689.070887,-2072.576638,1762.019645,10436.903782
4689.071201,-3478.967927,-76.609550,10362.883188
4689.071516,-4737.318029,-1072.533697,10288.862594
4689.071830,-4367.215058,-536.266849,10807.006753
4689.072145,-3108.864956,76.609550,11399.171507
4689.072459,-814.226536,1915.238745,11843.295072
4689.072773,2294.638420,2757.943793,11399.171507
4689.073088,4811.338623,4749.792088,10288.862594
4689.073402,6365.771101,6205.373534,8290.306550
4689.073717,7254.018232,7737.564530,7772.162391
4689.074031,7402.059420,8963.317327,8142.265362
4689.074345,7179.997637,7048.078582,8142.265362
4689.074660,6661.853478,6894.859482,8734.430116
4689.074974,4737.318029,4749.792088,7994.224174
4689.075288,2960.823768,3294.210641,7179.997637
4689.075603,1036.288319,2681.334243,8068.244768
4689.075917,0.000000,2298.286494,9474.636058
4689.076232,0.000000,1838.629195,9696.697840
4689.076546,-814.226536,0.000000,9622.677246
4689.076860,-1554.432478,-919.314598,9992.780217
4689.077175,-1924.535449,-459.657299,9400.615463
4689.077489,-1184.329507,459.657299,8882.471304
4689.077803,296.082377,1762.019645,9474.636058
4689.078118,1850.514855,1991.848295,10288.862594
4689.078432,2664.741391,2911.162892,10436.903782
4689.078747,4293.194464,3753.867940,9992.780217
4689.079061,4219.173869,3447.429741,9844.739029
4689.079375,3404.947333,2298.286494,9474.636058
4689.079690,3775.050304,1991.848295,9474.636058
4689.080004,4145.153275,2374.896044,8734.430116
4689.080318,4515.256246,3140.991542,9400.615463
4689.080633,4145.153275,2834.553343,9474.636058
4689.080947,4367.215058,3600.648841,8808.450710
4689.081262,4441.235652,3753.867940,7920.203579
4689.081576,4293.194464,4060.306139,8956.491898
4689.081890,3849.070898,2298.286494,8068.244768
4689.082205,3256.906145,1762.019645,7328.038826
4689.082519,2886.803174,2451.505594,8142.265362
4689.082834,2368.659014,2604.724693,9104.533087
4689.083148,1924.535449,2451.505594,9844.739029
4689.083462,1332.370696,1685.410096,10658.965565
4689.083777,962.267725,1378.971896,11991.336260
4689.084091,592.164754,1225.752797,10584.944971
4689.084405,592.164754,766.095498,9622.677246
4689.084720,1184.329507,2221.676944,9622.677246
4689.085034,2442.679609,3983.696590,9844.739029
4689.085349,3701.029710,5286.058936,9252.574275
4689.085663,4145.153275,6281.983084,8512.368333
4689.085977,4145.153275,6128.763984,7698.141797
4689.086292,5551.544565,7048.078582,7179.997637
4689.086606,6217.729913,6741.640382,6883.915261
4689.086920,5181.441594,6665.030833,8364.327145
4689.087235,3478.967927,5132.839837,9030.512492
4689.087549,814.226536,3370.820191,8956.491898
4689.087864,-1628.453072,2757.943793,9474.636058
4689.088178,-4071.132681,842.705048,10140.821405
4689.088492,-4663.297435,-766.095498,11177.109724
4689.088807,-4367.215058,-1608.800546,12509.480420
4689.089121,-3552.988522,-2068.457845,12213.398043
4689.089436,-2516.700203,-536.266849,11621.233289
4689.089750,-592.164754,1072.533697,9770.718434
4689.090064,2664.741391,3907.087040,8364.327145
4689.090379,6587.832884,8197.221829,8512.368333
4689.090693,9104.533087,10035.851024,8068.244768
4689.091007,9770.718434,9959.241474,7402.059420
4689.091322,9030.512492,9039.926876,5921.647536
4689.091636,6957.935855,7584.345430,5699.585753
4689.091951,3775.050304,6205.373534,5699.585753
4689.092265,222.061783,3370.820191,7179.997637
4689.092579,-2368.659014,459.657299,9548.656652
4689.092894,-3849.070898,-919.314598,11473.192101
4689.093208,-5033.400406,-2681.334243,11251.130318
4689.093522,-4737.318029,-4136.915689,10066.800811
4689.093836,-3404.947333,-3064.381992,10955.047942
4689.094150,-962.267725,-919.314598,12509.480420
4689.094465,1998.556043,1072.533697,12287.418637
4689.094779,4589.276840,1762.019645,10955.047942
4689.095093,5477.523971,2298.286494,9030.512492
4689.095407,5995.668130,4596.572988,7846.182985
4689.095721,5847.626942,6205.373534,8068.244768
4689.096036,6439.791695,5515.887586,8882.471304
4689.096350,5847.626942,3830.477490,9474.636058
4689.096664,5921.647536,1685.410096,9030.512492
4689.096978,4737.318029,1915.238745,7920.203579
4689.097292,2738.761985,2451.505594,8882.471304
4689.097607,1258.350101,1991.848295,8956.491898
4689.097921,1110.308913,842.705048,9844.739029
4689.098235,-592.164754,-1225.752797,10658.965565
4689.098549,-2146.597232,-2374.896044,10436.903782
4689.098863,-3701.029710,-1149.143247,10066.800811
4689.099178,-4441.235652,-2145.067394,10288.862594
4689.099492,-3478.967927,-2221.676944,9770.718434
4689.099806,-1776.494261,-766.095498,9918.759623
4689.100120,888.247130,76.609550,8808.450710
4689.100434,2590.720797,3907.087040,8660.409521
4689.100749,3404.947333,4749.792088,8734.430116
4689.101063,4441.235652,4596.572988,7994.224174
4689.101377,4737.318029,4826.401637,6735.874072
4689.101691,3701.029710,4136.915689,7105.977043
4689.102005,1702.473667,4443.353888,7920.203579
4689.102320,444.123565,3830.477490,9252.574275
4689.102634,0.000000,1455.581446,9844.739029
4689.102948,-1258.350101,0.000000,10214.842000
4689.103262,-2590.720797,-1991.848295,9844.739029
4689.103576,-3997.112087,-1532.190996,10066.800811
4689.103891,-3256.906145,-919.314598,9992.780217
4689.104205,-2664.741391,-306.438199,11029.068536
4689.104519,-1776.494261,-229.828649,11029.068536
4689.104833,-1480.411884,-1072.533697,9104.533087
4689.105147,-1702.473667,-153.219100,8586.388927
4689.105462,-592.164754,1149.143247,8586.388927
4689.105776,2220.617826,3294.210641,9844.739029
4689.106090,4219.173869,3447.429741,10140.821405
4689.106404,4737.318029,2834.553343,9992.780217
4689.106718,4219.173869,4060.306139,9918.759623
4689.107032,3552.988522,2911.162892,8438.347739
4689.107347,2812.782580,2451.505594,9252.574275
4689.107661,1406.391290,1685.410096,8956.491898
4689.107975,-1184.329507,383.047749,8216.285956
4689.108289,-2590.720797,0.000000,8734.430116
4689.108603,-3849.070898,-1225.752797,8068.244768
4689.108918,-4071.132681,-1225.752797,8734.430116
4689.109232,-3108.864956,-536.266849,8512.368333
4689.109546,-3034.844362,-995.924147,8512.368333
4689.109860,-2664.741391,229.828649,10436.903782
4689.110174,-2220.617826,-842.705048,9696.697840
4689.110489,-1258.350101,-766.095498,8586.388927
4689.110803,-1258.350101,-689.485948,8512.368333
4689.111117,-2072.576638,766.095498,9474.636058
4689.111431,-888.247130,1532.190996,9548.656652
4689.111745,1258.350101,-306.438199,9326.594869
4689.112060,2812.782580,1532.190996,10436.903782
4689.112374,2960.823768,612.876398,9252.574275
4689.112688,1628.453072,1685.410096,9474.636058
4689.113002,1184.329507,1455.581446,9918.759623
4689.113316,1036.288319,0.000000,10584.944971
4689.113631,666.185348,-612.876398,10732.986159
4689.113945,-888.247130,-1991.848295,10807.006753
4689.114259,-2516.700203,-1991.848295,10362.883188
4689.114573,-2516.700203,-1685.410096,10066.800811
4689.114887,-444.123565,-1302.362347,10658.965565
4689.115202,888.247130,0.000000,10510.924376
4689.115516,2294.638420,1149.143247,10214.842000
4689.115830,2220.617826,2451.505594,9326.594869
4689.116144,2146.597232,2911.162892,7846.182985
4689.116458,2442.679609,2145.067394,6735.874072
4689.116773,2442.679609,2221.676944,5921.647536
4689.117087,814.226536,2298.286494,7920.203579
4689.117401,-666.185348,2068.457845,9030.512492
4689.117715,-1480.411884,1072.533697,8956.491898
4689.118029,-1480.411884,-383.047749,9326.594869
4689.118344,-1480.411884,-1608.800546,8734.430116
4689.118658,-1998.556043,-536.266849,8956.491898
4689.118972,-1258.350101,689.485948,10288.862594
4689.119286,-740.205942,536.266849,10807.006753
4689.119600,0.000000,0.000000,10066.800811
4689.119915,296.082377,-1378.971896,8660.409521
4689.120229,-370.102971,306.438199,9548.656652
4689.120543,222.061783,1455.581446,9696.697840
4689.120857,1850.514855,1532.190996,9030.512492
4689.121171,3108.864956,2451.505594,10140.821405
4689.121486,3775.050304,1991.848295,10584.944971
4689.121800,3849.070898,3370.820191,10658.965565
4689.122114,3034.844362,2604.724693,8734.430116
4689.122428,2442.679609,2298.286494,9474.636058
4689.122742,1036.288319,1608.800546,8956.491898
4689.123057,-666.185348,459.657299,8956.491898
4689.123371,-1850.514855,1149.143247,8956.491898
4689.123685,-1850.514855,306.438199,8882.471304
4689.123999,-1480.411884,842.705048,8956.491898
4689.124313,-1184.329507,1149.143247,8808.450710
4689.124628,-888.247130,459.657299,8734.430116
4689.124942,-444.123565,1838.629195,9178.553681
4689.125256,0.000000,1225.752797,8734.430116
4689.125570,148.041188,1149.143247,8364.327145
4689.125884,0.000000,2221.676944,8142.265362
4689.126199,-962.267725,1149.143247,9030.512492
4689.126513,-962.267725,2528.115143,10584.944971
4689.126827,296.082377,919.314598,9252.574275
4689.127141,1628.453072,1225.752797,9696.697840
4689.127455,1406.391290,2145.067394,9474.636058
4689.127770,666.185348,2451.505594,9474.636058
4689.128084,296.082377,2528.115143,9400.615463
4689.128398,-740.205942,1149.143247,8512.368333
4689.128712,-1258.350101,766.095498,7846.182985
4689.129026,-2368.659014,-383.047749,7624.121203
4689.129341,-3701.029710,153.219100,8586.388927
4689.129655,-4367.215058,-153.219100,10140.821405
4689.129969,-3256.906145,-1685.410096,10288.862594
4689.130283,-1332.370696,-1302.362347,10436.903782
4689.130597,-888.247130,-459.657299,10362.883188
4689.130912,-592.164754,995.924147,10807.006753
4689.131226,148.041188,459.657299,9844.739029
4689.131540,1332.370696,-306.438199,8438.347739
4689.131854,1184.329507,0.000000,8956.491898
4689.132168,444.123565,153.219100,9400.615463
4689.132483,0.000000,1685.410096,9992.780217
4689.132797,888.247130,919.314598,10140.821405
4689.133111,2220.617826,153.219100,10658.965565
4689.133425,2886.803174,-995.924147,9844.739029
4689.133739,1554.432478,-766.095498,9326.594869
4689.134054,1184.329507,1072.533697,8882.471304
4689.134368,296.082377,612.876398,8956.491898
4689.134682,-222.061783,0.000000,9030.512492
4689.134996,-592.164754,-1149.143247,8290.306550
4689.135310,-1406.391290,-766.095498,8882.471304
4689.135625,-1850.514855,229.828649,9548.656652
4689.135939,-592.164754,-1149.143247,8882.471304
4689.136253,1480.411884,229.828649,9622.677246
4689.136567,2960.823768,0.000000,8956.491898
4689.136881,2886.803174,2298.286494,10288.862594
4689.137196,3330.926739,3600.648841,9622.677246
4689.137510,3478.967927,2911.162892,8956.491898
4689.137824,2960.823768,3294.210641,8142.265362
4689.138138,1628.453072,1378.971896,7550.100608
4689.138452,592.164754,2145.067394,8882.471304
4689.138767,-518.144159,1378.971896,9844.739029
4689.139081,-1332.370696,383.047749,9992.780217
4689.139395,-666.185348,76.609550,9474.636058
4689.139709,-1036.288319,153.219100,9918.759623
4689.140023,-1702.473667,995.924147,9326.594869
4689.140338,-2220.617826,612.876398,8438.347739
4689.140652,-1998.556043,383.047749,7920.203579
4689.140966,-2664.741391,76.609550,8882.471304
4689.141280,-2886.803174,153.219100,9326.594869
4689.141594,-3182.885551,919.314598,9992.780217
4689.141909,-1702.473667,-229.828649,9400.615463
4689.142223,518.144159,1532.190996,11103.089130
4689.142537,2072.576638,1838.629195,11399.171507
4689.142851,2442.679609,1532.190996,10288.862594
4689.143165,2960.823768,3140.991542,9104.533087
4689.143480,2516.700203,2757.943793,8290.306550
4689.143794,2368.659014,3140.991542,8660.409521
4689.144108,1480.411884,2681.334243,8364.327145
4689.144422,0.000000,1915.238745,9844.739029
4689.144736,296.082377,1225.752797,10436.903782
4689.145051,74.020594,0.000000,10510.924376
4689.145365,-1332.370696,0.000000,9252.574275
4689.145679,-1110.308913,-995.924147,8882.471304
4689.145993,-888.247130,1838.629195,8586.388927
4689.146307,-2886.803174,1915.238745,9030.512492
4689.146622,-1480.411884,0.000000,7328.038826
4689.146936,-1406.391290,612.876398,6735.874072
4689.147250,-2886.803174,0.000000,6883.915261
4689.147564,-2294.638420,2068.457845,8586.388927
4689.147878,-1480.411884,1149.143247,8512.368333
4689.148193,-888.247130,-1072.533697,9844.739029
4689.148507,1628.453072,-1072.533697,9770.718434
4689.148821,1332.370696,229.828649,10288.862594
4689.149135,888.247130,306.438199,11473.192101
4689.149449,1332.370696,919.314598,10362.883188
4689.149764,1924.535449,919.314598,10066.800811
4689.150078,1332.370696,-1455.581446,9696.697840
4689.150392,222.061783,229.828649,9474.636058
4689.150706,-814.226536,0.000000,9992.780217
4689.151020,592.164754,-229.828649,9622.677246
4689.151335,2072.576638,842.705048,9770.718434
4689.151649,2368.659014,-612.876398,11103.089130
4689.151963,2442.679609,1225.752797,10436.903782
4689.152277,3108.864956,2221.676944,8808.450710
4689.152591,2368.659014,1608.800546,7846.182985
4689.152906,2590.720797,2145.067394,6661.853478
4689.153220,1554.432478,1378.971896,8068.244768
4689.153534,1258.350101,2451.505594,8660.409521
4689.153848,1184.329507,2757.943793,8290.306550
4689.154162,518.144159,1378.971896,9844.739029
4689.154477,814.226536,919.314598,9548.656652
4689.154791,1332.370696,1302.362347,8438.347739
4689.155105,1554.432478,1225.752797,9252.574275
4689.155419,0.000000,76.609550,9326.594869
4689.155733,-740.205942,1455.581446,9918.759623
4689.156048,-1258.350101,76.609550,8364.327145
4689.156362,-2220.617826,306.438199,8734.430116
4689.156676,-2442.679609,919.314598,9844.739029
4689.156990,-2146.597232,76.609550,9770.718434
4689.157304,-370.102971,1378.971896,9474.636058
4689.157619,592.164754,1225.752797,9030.512492
4689.157933,0.000000,1838.629195,10140.821405
4689.158247,222.061783,2145.067394,10362.883188
4689.158561,444.123565,1991.848295,9030.512492
4689.158875,0.000000,2221.676944,8364.327145
4689.159190,-444.123565,842.705048,8364.327145
4689.159504,-1258.350101,1149.143247,9770.718434
4689.159818,-1406.391290,1072.533697,10214.842000
4689.160132,-888.247130,229.828649,9770.718434
4689.160446,-740.205942,0.000000,9770.718434
4689.160761,-1036.288319,229.828649,11177.109724
4689.161075,-518.144159,1378.971896,11177.109724
4689.161389,-148.041188,919.314598,9400.615463
4689.161703,0.000000,536.266849,8512.368333
4689.162017,-444.123565,153.219100,8512.368333
4689.162332,-1258.350101,842.705048,8734.430116
4689.162646,-888.247130,2068.457845,8882.471304
4689.162960,-222.061783,842.705048,8438.347739
4689.163274,888.247130,919.314598,9622.677246
4689.163588,1332.370696,1149.143247,9104.533087
4689.163903,1036.288319,1838.629195,8808.450710
4689.164217,1776.494261,1838.629195,8882.471304
4689.164531,1998.556043,1608.800546,8290.306550
4689.164845,1332.370696,1149.143247,8290.306550
4689.165159,0.000000,-383.047749,8068.244768
4689.165474,-1258.350101,1072.533697,9696.697840
4689.165788,-1258.350101,1302.362347,10288.862594
4689.166102,-592.164754,-1149.143247,9918.759623
4689.166416,-296.082377,-1532.190996,9104.533087
4689.166730,-740.205942,-2221.676944,9252.574275
4689.167045,-518.144159,459.657299,9770.718434
4689.167359,-1110.308913,612.876398,9326.594869
4689.167673,-666.185348,-536.266849,9252.574275
4689.167987,-74.020594,153.219100,8808.450710
4689.168301,-592.164754,0.000000,8956.491898
4689.168616,222.061783,1072.533697,8438.347739
4689.168930,-222.061783,306.438199,8438.347739
4689.169244,592.164754,-1685.410096,10362.883188
4689.169558,1702.473667,536.266849,10510.924376
4689.169872,1850.514855,689.485948,11029.068536
4689.170187,1480.411884,153.219100,10436.903782
4689.170501,1702.473667,229.828649,9474.636058
4689.170815,1628.453072,612.876398,9918.759623
4689.171129,1628.453072,766.095498,9474.636058
4689.171443,222.061783,1685.410096,9252.574275
4689.171758,-740.205942,536.266849,9622.677246
4689.172072,-296.082377,153.219100,9992.780217
4689.172386,740.205942,1532.190996,9178.553681
4689.172700,1184.329507,995.924147,8734.430116
4689.173014,1406.391290,2145.067394,9030.512492
4689.173328,592.164754,2681.334243,8660.409521
4689.173643,1036.288319,1838.629195,7846.182985
4689.173957,0.000000,2068.457845,6883.915261
4689.174271,-962.267725,1455.581446,7105.977043
4689.174585,-1924.535449,2145.067394,8438.347739
4689.174899,-2368.659014,1685.410096,8956.491898
4689.175214,-1850.514855,0.000000,9474.636058
4689.175528,-1332.370696,-153.219100,9178.553681
4689.175842,-1184.329507,-919.314598,8660.409521
4689.176156,-814.226536,1455.581446,9770.718434
4689.176470,-1184.329507,1378.971896,9622.677246
4689.176785,-222.061783,459.657299,10807.006753
4689.177099,74.020594,229.828649,10584.944971
4689.177413,-814.226536,229.828649,10214.842000
4689.177727,-1110.308913,1072.533697,10362.883188
4689.178041,-148.041188,306.438199,8734.430116
4689.178356,1480.411884,919.314598,9474.636058
4689.178670,2146.597232,919.314598,10288.862594
4689.178984,1924.535449,2145.067394,10807.006753
4689.179298,2072.576638,1838.629195,10140.821405
4689.179612,1406.391290,1532.190996,8734.430116
4689.179927,0.000000,1608.800546,9178.553681
4689.180241,-1554.432478,-766.095498,8290.306550
4689.180555,-1702.473667,0.000000,8290.306550
4689.180869,-1258.350101,153.219100,7179.997637
4689.181183,-1776.494261,0.000000,8142.265362
4689.181498,-518.144159,-153.219100,7624.121203
4689.181812,296.082377,76.609550,8216.285956
4689.182126,518.144159,1915.238745,10288.862594
4689.182440,1998.556043,1149.143247,9622.677246
4689.182754,1110.308913,306.438199,9992.780217
4689.183069,2220.617826,-919.314598,9030.512492
4689.183383,1332.370696,1225.752797,9252.574275
4689.183697,740.205942,842.705048,9474.636058
4689.184011,592.164754,-383.047749,9844.739029
4689.184325,1628.453072,766.095498,10881.027347
4689.184640,2812.782580,1225.752797,10362.883188
4689.184954,1850.514855,1149.143247,9918.759623
4689.185268,370.102971,1532.190996,9474.636058
4689.185582,0.000000,1072.533697,8808.450710
4689.185896,-148.041188,1378.971896,8808.450710
4689.186211,-2220.617826,0.000000,8290.306550
4689.186525,-3256.906145,-842.705048,9622.677246
4689.186839,-3478.967927,153.219100,9622.677246
4689.187153,-3108.864956,-536.266849,9696.697840
4689.187467,-1776.494261,-229.828649,9474.636058
4689.187782,-740.205942,-842.705048,9252.574275
4689.188096,-74.020594,1149.143247,10807.006753
4689.188410,370.102971,2681.334243,9030.512492
4689.188724,962.267725,2145.067394,9104.533087
4689.189038,1628.453072,766.095498,9474.636058
4689.189353,1258.350101,1225.752797,8956.491898
4689.189667,962.267725,2451.505594,9474.636058
4689.189981,1036.288319,1915.238745,9252.574275
4689.190295,1110.308913,1762.019645,9474.636058
4689.190609,1110.308913,1685.410096,9326.594869
4689.190924,666.185348,1072.533697,8290.306550
4689.191238,-296.082377,2374.896044,8956.491898
4689.191552,-814.226536,919.314598,7624.121203
4689.191866,-1480.411884,1532.190996,8660.409521
4689.192180,-1480.411884,612.876398,8808.450710
4689.192495,-1628.453072,229.828649,9622.677246
4689.192809,-2220.617826,0.000000,9400.615463
4689.193123,-1332.370696,0.000000,9326.594869
4689.193437,74.020594,76.609550,8808.450710
4689.193751,1406.391290,536.266849,8438.347739
4689.194066,1628.453072,2528.115143,11103.089130
4689.194380,1480.411884,3677.258390,11399.171507
4689.194694,2294.638420,995.924147,9844.739029
4689.195008,2590.720797,1225.752797,8068.244768
4689.195322,1110.308913,1225.752797,8438.347739
4689.195637,148.041188,2374.896044,9918.759623
4689.195951,-1184.329507,1762.019645,9548.656652
4689.196265,-1258.350101,-1149.143247,9844.739029
4689.196582,-444.123565,-995.924147,9918.759623
4689.196897,-962.267725,-1149.143247,9326.594869
4689.197211,-740.205942,766.095498,9400.615463
4689.197525,-148.041188,2068.457845,9622.677246
4689.197839,370.102971,919.314598,9548.656652
4689.198153,74.020594,0.000000,9326.594869
4689.198467,-370.102971,-306.438199,7846.182985
4689.198782,-222.061783,919.314598,8068.244768
4689.199096,740.205942,1532.190996,8216.285956
4689.199410,1258.350101,2451.505594,9548.656652
4689.199724,2146.597232,1455.581446,10732.986159
4689.200038,3404.947333,1225.752797,10288.862594
4689.200352,2590.720797,1915.238745,9696.697840
4689.200667,2294.638420,0.000000,8512.368333
4689.200981,1332.370696,1149.143247,8068.244768
4689.201295,518.144159,995.924147,8882.471304
4689.201609,518.144159,842.705048,9400.615463
4689.201923,-518.144159,1608.800546,10214.842000
4689.202238,-592.164754,-689.485948,9030.512492
4689.202552,148.041188,-536.266849,7846.182985
4689.202866,1184.329507,612.876398,8438.347739
4689.203180,1258.350101,1915.238745,11177.109724
4689.203494,1258.350101,1762.019645,11547.212695
4689.203808,814.226536,0.000000,9770.718434
4689.204123,370.102971,-1225.752797,8216.285956
4689.204437,-1628.453072,153.219100,8882.471304
4689.204751,-3552.988522,1685.410096,11325.150913
4689.205065,-2664.741391,383.047749,9548.656652
4689.205379,-444.123565,-612.876398,9474.636058
4689.205694,-592.164754,-1378.971896,10584.944971
4689.206008,-1554.432478,-383.047749,9474.636058
4689.206322,-1850.514855,2374.896044,8956.491898
4689.206636,-1480.411884,1149.143247,7698.141797
4689.206950,-1332.370696,1608.800546,9030.512492
4689.207264,-740.205942,0.000000,8734.430116
4689.207579,-666.185348,76.609550,8290.306550
4689.207893,-2072.576638,1378.971896,7772.162391
4689.208207,-1702.473667,306.438199,8808.450710
4689.208521,518.144159,1302.362347,10140.821405
4689.208835,2516.700203,1225.752797,9844.739029
4689.209149,2886.803174,1762.019645,9844.739029
4689.209464,2368.659014,2681.334243,10288.862594
4689.209778,1998.556043,2298.286494,8660.409521
4689.210092,2664.741391,2987.772442,8364.327145
4689.210406,2590.720797,1302.362347,7920.203579
4689.210720,814.226536,1532.190996,9696.697840
4689.211035,-518.144159,2221.676944,10584.944971
4689.211349,-814.226536,1302.362347,8956.491898
4689.211663,-518.144159,919.314598,8734.430116
4689.211977,-1184.329507,-842.705048,8586.388927
4689.212291,-1036.288319,1072.533697,10140.821405
4689.212605,-1406.391290,1225.752797,9548.656652
4689.212920,-1924.535449,0.000000,9252.574275
4689.213234,-2368.659014,-995.924147,9030.512492
4689.213548,-2368.659014,-1225.752797,9770.718434
4689.213862,-2738.761985,766.095498,10732.986159
4689.214176,-2368.659014,-459.657299,9770.718434
4689.214491,-592.164754,-1149.143247,9326.594869
4689.214805,74.020594,76.609550,9770.718434
4689.215119,0.000000,306.438199,9622.677246
4689.215433,444.123565,2528.115143,9548.656652
4689.215747,1184.329507,919.314598,8586.388927
4689.216061,888.247130,919.314598,8660.409521
4689.216376,518.144159,1149.143247,8586.388927
4689.216690,0.000000,76.609550,8512.368333
4689.217004,-222.061783,1149.143247,9252.574275
4689.217318,296.082377,-689.485948,9400.615463
4689.217632,1332.370696,306.438199,10066.800811
4689.217946,2294.638420,0.000000,9104.533087
4689.218261,2738.761985,842.705048,9696.697840
4689.218575,3108.864956,2221.676944,9474.636058
4689.218889,2664.741391,1532.190996,9622.677246
4689.219203,2960.823768,2068.457845,9178.553681
4689.219517,2886.803174,1072.533697,7920.203579
4689.219832,888.247130,153.219100,8660.409521
4689.220146,-888.247130,-995.924147,8660.409521
4689.220460,-962.267725,-306.438199,9770.718434
4689.220774,-296.082377,995.924147,10510.924376
4689.221088,444.123565,0.000000,9992.780217
4689.221402,370.102971,689.485948,9770.718434
4689.221717,518.144159,76.609550,7920.203579
4689.222031,-222.061783,766.095498,8364.327145
4689.222345,-1702.473667,1455.581446,8512.368333
4689.222659,-2072.576638,229.828649,8660.409521
4689.222973,-1702.473667,612.876398,9844.739029
4689.223288,-1850.514855,-306.438199,10066.800811
4689.223602,-814.226536,459.657299,10807.006753
4689.223916,444.123565,1072.533697,9844.739029
4689.224230,962.267725,1149.143247,9474.636058
4689.224544,2146.597232,2911.162892,10881.027347
4689.224858,3034.844362,1838.629195,9918.759623
4689.225173,2146.597232,2374.896044,9030.512492
4689.225487,296.082377,2068.457845,7698.141797
4689.225801,-2368.659014,2528.115143,9030.512492
4689.226115,-2072.576638,2374.896044,9400.615463
4689.226429,-370.102971,919.314598,8956.491898
4689.226743,888.247130,995.924147,8882.471304
4689.227058,444.123565,612.876398,9030.512492
4689.227372,-740.205942,2987.772442,9474.636058
4689.227686,0.000000,3064.381992,8956.491898
4689.228000,814.226536,2298.286494,9030.512492
4689.228314,740.205942,1608.800546,7772.162391
4689.228629,-962.267725,0.000000,7105.977043
4689.228943,-2146.597232,1915.238745,8216.285956
4689.229257,-1036.288319,2221.676944,9326.594869
4689.229571,-222.061783,1225.752797,10732.986159
4689.229885,1554.432478,0.000000,9992.780217
4689.230199,1258.350101,919.314598,10066.800811
4689.230514,888.247130,2681.334243,9918.759623
4689.230828,888.247130,842.705048,8438.347739
4689.231142,1554.432478,383.047749,8660.409521
4689.231456,0.000000,-766.095498,8956.491898
4689.231770,-1480.411884,-229.828649,9770.718434
4689.232084,-2146.597232,153.219100,9104.533087
4689.232399,-2294.638420,-1225.752797,9474.636058
4689.232713,-592.164754,306.438199,10584.944971
4689.233027,0.000000,-766.095498,9326.594869
4689.233341,148.041188,-1149.143247,9770.718434
4689.233655,-518.144159,-842.705048,9696.697840
4689.233970,-666.185348,-306.438199,9326.594869
4689.234284,148.041188,229.828649,8142.265362
4689.234598,222.061783,-842.705048,8512.368333
4689.234912,-296.082377,459.657299,11177.109724
4689.235226,0.000000,-229.828649,10881.027347
4689.235540,740.205942,-919.314598,9844.739029
4689.235855,370.102971,-919.314598,9400.615463
4689.236169,1258.350101,-612.876398,9178.553681
4689.236483,1406.391290,1915.238745,10510.924376
4689.236797,1258.350101,689.485948,9474.636058
4689.237111,1776.494261,76.609550,8068.244768
4689.237426,296.082377,459.657299,8068.244768
4689.237740,-1480.411884,76.609550,7846.182985
4689.238054,-1628.453072,1838.629195,7920.203579
4689.238368,-740.205942,0.000000,7994.224174
4689.238682,444.123565,-995.924147,9474.636058
4689.238996,296.082377,-536.266849,9696.697840
4689.239311,-518.144159,0.000000,10362.883188
4689.239625,0.000000,1302.362347,9474.636058
4689.239939,1258.350101,459.657299,7994.224174
4689.240253,1480.411884,995.924147,9474.636058
4689.240567,1110.308913,1302.362347,10362.883188
4689.240881,-296.082377,1762.019645,9918.759623
4689.241196,-740.205942,1072.533697,9770.718434
4689.241510,0.000000,153.219100,9104.533087
4689.241824,518.144159,1378.971896,9992.780217
4689.242138,962.267725,919.314598,9622.677246
4689.242452,1036.288319,2451.505594,10288.862594
4689.242767,296.082377,1532.190996,9548.656652
4689.243081,-296.082377,995.924147,8142.265362
4689.243395,-1258.350101,842.705048,7105.977043
4689.243709,-2516.700203,459.657299,8216.285956
4689.244023,-3404.947333,1838.629195,9474.636058
4689.244337,-2590.720797,536.266849,9252.574275
4689.244652,-1258.350101,0.000000,9770.718434
4689.244966,370.102971,0.000000,8956.491898
4689.245280,370.102971,1455.581446,9622.677246
4689.245594,1184.329507,3370.820191,9252.574275
4689.245908,1998.556043,3524.039291,9252.574275
4689.246223,2590.720797,3370.820191,9622.677246
4689.246537,2220.617826,1455.581446,8142.265362
4689.246851,888.247130,1991.848295,8808.450710
4689.247165,592.164754,2374.896044,9252.574275
4689.247479,888.247130,1762.019645,9548.656652
4689.247793,2368.659014,2068.457845,10362.883188
4689.248108,1998.556043,153.219100,10288.862594
4689.248422,1628.453072,1455.581446,11177.109724
4689.248736,592.164754,1685.410096,9770.718434
4689.249050,0.000000,536.266849,8142.265362
4689.249364,222.061783,1149.143247,7254.018232
4689.249678,-666.185348,1225.752797,8290.306550
4689.249993,-1110.308913,1149.143247,8956.491898
4689.250307,-1332.370696,76.609550,8734.430116
4689.250621,-1184.329507,0.000000,9104.533087
4689.250935,-444.123565,229.828649,9178.553681
4689.251249,222.061783,459.657299,9918.759623
4689.251564,666.185348,1072.533697,10807.006753
4689.251878,1184.329507,383.047749,10658.965565
4689.252192,0.000000,383.047749,8808.450710
4689.252506,-814.226536,-459.657299,8586.388927
4689.252820,-666.185348,459.657299,9474.636058
4689.253134,-888.247130,1378.971896,9992.780217
4689.253449,0.000000,-306.438199,10510.924376
4689.253763,296.082377,-383.047749,10066.800811
4689.254077,370.102971,-1072.533697,9104.533087
4689.254391,-148.041188,919.314598,10288.862594
4689.254705,148.041188,689.485948,9252.574275
4689.255020,148.041188,-766.095498,8734.430116
4689.255334,370.102971,0.000000,9178.553681
4689.255648,-592.164754,0.000000,8956.491898
4689.255962,-1554.432478,612.876398,9400.615463
4689.256276,-888.247130,306.438199,8364.327145
4689.256590,370.102971,383.047749,8882.471304
4689.256905,2146.597232,1149.143247,9400.615463
4689.257219,2442.679609,766.095498,9474.636058
4689.257533,2294.638420,1838.629195,10066.800811
4689.257847,2368.659014,1762.019645,9474.636058
4689.258161,1998.556043,1991.848295,9992.780217
4689.258475,1776.494261,842.705048,8808.450710
4689.258790,0.000000,153.219100,8586.388927
4689.259104,-814.226536,1608.800546,9030.512492
4689.259418,-1628.453072,-153.219100,8734.430116
4689.259732,-962.267725,153.219100,9770.718434
4689.260046,-296.082377,-306.438199,9104.533087
4689.260361,-1184.329507,612.876398,9622.677246
4689.260675,-1406.391290,1378.971896,9400.615463
4689.260989,-1628.453072,306.438199,8734.430116
4689.261303,-1554.432478,1072.533697,9400.615463
4689.261617,-888.247130,76.609550,8290.306550
4689.261931,-1998.556043,459.657299,8068.244768
4689.262246,-1776.494261,459.657299,8660.409521
4689.262560,-1332.370696,1149.143247,10658.965565
4689.262874,666.185348,1762.019645,10362.883188
4689.263188,2146.597232,536.266849,9696.697840
4689.263502,2072.576638,1762.019645,9992.780217
4689.263816,2146.597232,1838.629195,9400.615463
4689.264131,2368.659014,2374.896044,9474.636058
4689.264445,1850.514855,2298.286494,8512.368333
4689.264759,296.082377,842.705048,8438.347739
4689.265073,-370.102971,1762.019645,10140.821405
4689.265387,0.000000,1149.143247,9474.636058
4689.265702,444.123565,1072.533697,10066.800811
4689.266016,888.247130,919.314598,9252.574275
4689.266330,592.164754,842.705048,8364.327145
4689.266644,814.226536,2528.115143,8216.285956
4689.266958,74.020594,2681.334243,9252.574275
4689.267272,-518.144159,1608.800546,9770.718434
4689.267587,-1184.329507,536.266849,7624.121203
4689.267901,-1332.370696,536.266849,7698.141797
4689.268215,-1924.535449,1302.362347,8586.388927
4689.268529,-1406.391290,-229.828649,8956.491898
4689.268843,296.082377,0.000000,9326.594869
4689.269158,74.020594,153.219100,10066.800811
4689.269472,148.041188,689.485948,10288.862594
4689.269786,222.061783,2145.067394,10584.944971
4689.270100,1406.391290,-383.047749,9400.615463
4689.270414,2368.659014,919.314598,9696.697840
4689.270728,888.247130,612.876398,9474.636058
4689.271043,-444.123565,-612.876398,8956.491898
4689.271357,-148.041188,153.219100,8586.388927
4689.271671,370.102971,536.266849,9696.697840
4689.271985,1628.453072,842.705048,10584.944971
4689.272299,1258.350101,306.438199,9400.615463
4689.272613,74.020594,1149.143247,9992.780217
4689.272928,296.082377,76.609550,9696.697840
4689.273242,444.123565,153.219100,9548.656652
4689.273556,0.000000,-1532.190996,8216.285956
4689.273870,-1332.370696,-1149.143247,9326.594869
4689.274184,-2368.659014,1149.143247,10066.800811
4689.274499,-1998.556043,-612.876398,9770.718434
4689.274813,222.061783,0.000000,9252.574275
4689.275127,1480.411884,0.000000,9844.739029
4689.275441,740.205942,1149.143247,10140.821405
4689.275755,592.164754,3217.601092,9030.512492
4689.276069,1184.329507,1149.143247,8734.430116
4689.276384,1480.411884,919.314598,9030.512492
4689.276698,-148.041188,306.438199,7994.224174
4689.277012,-1628.453072,1072.533697,8660.409521
4689.277326,-2072.576638,1608.800546,8586.388927
4689.277640,-1628.453072,306.438199,8808.450710
4689.277955,0.000000,153.219100,10066.800811
4689.278269,666.185348,229.828649,9252.574275
4689.278583,-296.082377,1991.848295,10288.862594
4689.278897,-888.247130,2911.162892,9400.615463
4689.279211,0.000000,1838.629195,8660.409521
4689.279525,814.226536,1072.533697,7846.182985
4689.279840,0.000000,919.314598,8290.306550
4689.280154,-962.267725,2451.505594,9104.533087
4689.280468,-962.267725,2145.067394,9104.533087
4689.280782,-592.164754,1838.629195,10510.924376
4689.281096,296.082377,1685.410096,9992.780217
4689.281410,518.144159,536.266849,9252.574275
4689.281725,0.000000,1608.800546,9770.718434
4689.282039,-296.082377,1532.190996,9770.718434
4689.282353,0.000000,1608.800546,10214.842000
4689.282667,148.041188,76.609550,9992.780217
4689.282981,-1406.391290,229.828649,9992.780217
4689.283296,-1480.411884,1455.581446,9178.553681
4689.283610,-1480.411884,689.485948,7846.182985
4689.283924,-1184.329507,1378.971896,9030.512492
4689.284238,370.102971,306.438199,9030.512492
4689.284552,222.061783,689.485948,9548.656652
4689.284866,296.082377,1302.362347,8956.491898
4689.285181,370.102971,306.438199,8808.450710
4689.285495,666.185348,1455.581446,9400.615463
4689.285809,814.226536,0.000000,9030.512492
4689.286123,296.082377,1225.752797,9178.553681
4689.286437,1110.308913,612.876398,9178.553681
4689.286752,1850.514855,153.219100,9252.574275
4689.287066,2664.741391,1072.533697,9474.636058
4689.287380,3552.988522,536.266849,9326.594869
4689.287694,2368.659014,2451.505594,11843.295072
4689.288008,2294.638420,536.266849,10436.903782
4689.288322,2072.576638,459.657299,9326.594869
4689.288637,888.247130,-229.828649,9326.594869
4689.288951,-814.226536,-1225.752797,8660.409521
4689.289265,-1850.514855,1149.143247,9178.553681
4689.289579,-1924.535449,-153.219100,8660.409521
4689.289893,-1110.308913,-306.438199,9104.533087
4689.290207,0.000000,-995.924147,9400.615463
4689.290522,518.144159,-766.095498,9400.615463
4689.290836,0.000000,1762.019645,9400.615463
4689.291150,-814.226536,153.219100,8808.450710
4689.291464,148.041188,-229.828649,8956.491898
4689.291778,0.000000,-459.657299,9474.636058
4689.292093,-1110.308913,-766.095498,10140.821405
4689.292407,-1480.411884,306.438199,9178.553681
4689.292721,74.020594,-766.095498,7254.018232
4689.293035,1406.391290,1608.800546,10510.924376
4689.293349,3330.926739,2374.896044,11103.089130
4689.293663,3034.844362,2145.067394,10066.800811
4689.293978,2886.803174,2068.457845,9178.553681
4689.294292,1406.391290,995.924147,8586.388927
4689.294606,814.226536,2221.676944,8882.471304
4689.294920,-148.041188,536.266849,7476.080014
4689.295234,-1628.453072,1072.533697,8438.347739
4689.295548,-2146.597232,689.485948,9252.574275
4689.295863,-2590.720797,536.266849,10362.883188
4689.296177,-1554.432478,0.000000,8734.430116
4689.296491,-962.267725,-536.266849,8734.430116
4689.296805,-1480.411884,1378.971896,9770.718434
4689.297119,-962.267725,1149.143247,8808.450710
4689.297433,-592.164754,1838.629195,7920.203579
4689.297748,0.000000,1685.410096,7476.080014
4689.298062,-814.226536,612.876398,8956.491898
4689.298376,-1036.288319,2298.286494,9844.739029
4689.298690,-518.144159,842.705048,9844.739029
4689.299004,370.102971,612.876398,9918.759623
4689.299318,1036.288319,-306.438199,9252.574275
4689.299632,296.082377,842.705048,10955.047942
4689.299947,296.082377,2298.286494,10214.842000
4689.300261,370.102971,995.924147,8956.491898
4689.300575,74.020594,919.314598,9770.718434
4689.300889,-222.061783,76.609550,8660.409521
4689.301203,-1110.308913,1685.410096,9696.697840
4689.301517,-1258.350101,842.705048,8660.409521
4689.301831,-1036.288319,536.266849,9474.636058
4689.302146,0.000000,459.657299,9844.739029
4689.302460,1110.308913,459.657299,8882.471304
4689.302774,-666.185348,2374.896044,9918.759623
4689.303088,0.000000,229.828649,9770.718434
4689.303402,1628.453072,1378.971896,9178.553681
4689.303716,2294.638420,1608.800546,8512.368333
4689.304030,1332.370696,-306.438199,8364.327145
4689.304345,740.205942,1762.019645,9252.574275
4689.304659,888.247130,1149.143247,9474.636058
4689.304973,1998.556043,1838.629195,9696.697840
4689.305287,1554.432478,1225.752797,8586.388927
4689.305601,1110.308913,-612.876398,9622.677246
4689.305915,1184.329507,1608.800546,10066.800811
4689.306229,296.082377,1608.800546,9400.615463
4689.306544,74.020594,-306.438199,8216.285956
4689.306858,-666.185348,-689.485948,7179.997637
4689.307172,-1702.473667,612.876398,8882.471304
4689.307486,-1110.308913,2221.676944,9474.636058
4689.307800,-370.102971,1072.533697,8956.491898
4689.308114,296.082377,-766.095498,9696.697840
4689.308428,1406.391290,-689.485948,9178.553681
4689.308743,1628.453072,2068.457845,10732.986159
4689.309057,1036.288319,1532.190996,10584.944971
4689.309371,1332.370696,306.438199,9400.615463
4689.309685,1554.432478,-306.438199,9252.574275
4689.309999,-148.041188,-229.828649,10066.800811
4689.310313,-1332.370696,2221.676944,10584.944971
4689.310627,-1110.308913,153.219100,9252.574275
4689.310942,0.000000,-536.266849,9548.656652
4689.311256,370.102971,-383.047749,9030.512492
4689.311570,0.000000,612.876398,9992.780217
4689.311884,-592.164754,2528.115143,9548.656652
4689.312198,-592.164754,612.876398,8438.347739
4689.312512,148.041188,612.876398,8512.368333
4689.312826,0.000000,-153.219100,8068.244768
4689.313141,-962.267725,919.314598,8882.471304
4689.313455,-1110.308913,2298.286494,9104.533087
4689.313769,0.000000,1532.190996,9400.615463
4689.314083,1702.473667,1838.629195,9992.780217
4689.314397,2368.659014,766.095498,9326.594869
4689.314711,2294.638420,2068.457845,9474.636058
4689.315025,1628.453072,2451.505594,9104.533087
4689.315340,962.267725,2145.067394,9326.594869
4689.315654,1554.432478,1685.410096,9400.615463
4689.315968,1184.329507,0.000000,8142.265362
4689.316282,-370.102971,1072.533697,8882.471304
4689.316596,-1480.411884,1532.190996,9992.780217
4689.316910,-1110.308913,1072.533697,10584.944971
4689.317224,296.082377,306.438199,10584.944971
4689.317539,148.041188,-536.266849,9622.677246
4689.317853,148.041188,459.657299,8808.450710
4689.318167,-1184.329507,1608.800546,8438.347739
4689.318481,-1110.308913,2145.067394,8290.306550
4689.318795,74.020594,1149.143247,8290.306550
4689.319109,-296.082377,0.000000,8438.347739
4689.319423,-1702.473667,766.095498,9696.697840
4689.319738,-2294.638420,919.314598,10214.842000
4689.320052,-1628.453072,536.266849,10288.862594
4689.320366,444.123565,-1378.971896,9400.615463
4689.320680,444.123565,-536.266849,10436.903782
4689.320994,-592.164754,459.657299,10881.027347
4689.321308,222.061783,919.314598,9178.553681
4689.321622,814.226536,2834.553343,8068.244768
4689.321937,1332.370696,995.924147,7624.121203
4689.322251,740.205942,2221.676944,9178.553681
4689.322565,814.226536,2374.896044,8438.347739
4689.322879,1110.308913,1378.971896,8734.430116
4689.323193,1480.411884,1225.752797,9326.594869
4689.323507,1036.288319,-689.485948,8216.285956
4689.323821,1036.288319,1225.752797,9770.718434
4689.324135,370.102971,2298.286494,10436.903782
4689.324450,74.020594,995.924147,10066.800811
4689.324764,666.185348,-536.266849,9030.512492
4689.325078,-296.082377,-1915.238745,8438.347739
4689.325392,-2072.576638,536.266849,9844.739029
4689.325706,-1628.453072,-229.828649,9474.636058
4689.326020,-814.226536,0.000000,10362.883188
4689.326334,444.123565,-76.609550,10436.903782
4689.326649,222.061783,-153.219100,10807.006753
4689.326963,-222.061783,842.705048,9992.780217
4689.327277,-296.082377,0.000000,8142.265362
4689.327591,0.000000,689.485948,8660.409521
4689.327905,-222.061783,153.219100,8734.430116
4689.328219,-2294.638420,383.047749,8956.491898
4689.328533,-2146.597232,919.314598,9474.636058
4689.328848,-1628.453072,-153.219100,9030.512492
4689.329162,-666.185348,229.828649,9696.697840
4689.329476,518.144159,0.000000,9474.636058
4689.329790,592.164754,383.047749,10214.842000
4689.330104,740.205942,1225.752797,10658.965565
4689.330418,1110.308913,229.828649,8512.368333
4689.330732,1036.288319,1378.971896,8956.491898
4689.331047,740.205942,383.047749,8068.244768
4689.331361,444.123565,1455.581446,9030.512492
4689.331675,592.164754,1685.410096,9400.615463
4689.331989,1332.370696,612.876398,9326.594869
4689.332303,2442.679609,1685.410096,8956.491898
4689.332617,2368.659014,1072.533697,9030.512492
4689.332931,1924.535449,3217.601092,9918.759623
4689.333246,1406.391290,2451.505594,9548.656652
4689.333560,518.144159,1225.752797,9104.533087
4689.333874,-222.061783,153.219100,8882.471304
4689.334188,-1184.329507,-919.314598,7698.141797
4689.334502,-2368.659014,995.924147,9030.512492
4689.334816,-1850.514855,842.705048,9400.615463
4689.335130,-1184.329507,1455.581446,10584.944971
4689.335445,0.000000,383.047749,9104.533087
4689.335759,-592.164754,0.000000,9104.533087
4689.336073,-1332.370696,2451.505594,9548.656652
4689.336387,-592.164754,612.876398,7920.203579
4689.336701,444.123565,2451.505594,8290.306550
4689.337015,0.000000,995.924147,8882.471304
4689.337329,-148.041188,612.876398,9992.780217
4689.337644,-296.082377,1991.848295,9918.759623
4689.337958,-296.082377,153.219100,10214.842000
4689.338272,222.061783,383.047749,9474.636058
4689.338586,962.267725,0.000000,9622.677246
4689.338900,1924.535449,1532.190996,10955.047942
4689.339214,1924.535449,2221.676944,9474.636058
4689.339528,888.247130,1302.362347,9104.533087
4689.339843,296.082377,383.047749,7476.080014
4689.340157,-222.061783,1915.238745,9030.512492
4689.340471,-370.102971,2681.334243,9326.594869
4689.340785,-740.205942,383.047749,9474.636058
4689.341099,-666.185348,-766.095498,9326.594869
4689.341413,-296.082377,-1532.190996,8882.471304
4689.341727,0.000000,536.266849,8586.388927
4689.342042,-1184.329507,2145.067394,9770.718434
4689.342356,-444.123565,689.485948,8660.409521
4689.342670,888.247130,1762.019645,8956.491898
4689.342984,962.267725,459.657299,9178.553681
4689.343298,-518.144159,459.657299,9178.553681
4689.343612,-740.205942,995.924147,9030.512492
4689.343926,0.000000,0.000000,9400.615463
4689.344241,962.267725,459.657299,10288.862594
4689.344555,1702.473667,-306.438199,10436.903782
4689.344869,1850.514855,229.828649,10881.027347
4689.345183,962.267725,1072.533697,10584.944971
4689.345497,370.102971,842.705048,9918.759623
4689.345811,296.082377,76.609550,8734.430116
4689.346125,-148.041188,-919.314598,8586.388927
4689.346440,-1924.535449,-383.047749,9030.512492
4689.346754,-2516.700203,306.438199,8956.491898
4689.347068,-2072.576638,-919.314598,9474.636058
4689.347382,-370.102971,842.705048,11621.233289
4689.347696,444.123565,0.000000,9844.739029
4689.348010,666.185348,76.609550,9844.739029
4689.348324,222.061783,0.000000,9030.512492
4689.348639,0.000000,306.438199,7994.224174
4689.348953,444.123565,1072.533697,7846.182985
4689.349267,666.185348,0.000000,7328.038826
4689.349581,-296.082377,2528.115143,10214.842000
4689.349895,666.185348,1378.971896,9104.533087
4689.350209,1998.556043,2068.457845,9326.594869
4689.350523,2960.823768,1072.533697,9326.594869
4689.350838,2664.741391,536.266849,10362.883188
4689.351152,2812.782580,2374.896044,10955.047942
4689.351466,2886.803174,1302.362347,9548.656652
4689.351780,740.205942,2068.457845,9696.697840
4689.352094,0.000000,-383.047749,8142.265362
4689.352408,-814.226536,2068.457845,9104.533087
4689.352722,-2146.597232,3064.381992,9548.656652
4689.353036,-814.226536,0.000000,9548.656652
4689.353351,-518.144159,153.219100,9104.533087
4689.353665,-962.267725,-1072.533697,8956.491898
4689.353979,-1998.556043,1149.143247,9696.697840
4689.354293,-1924.535449,2757.943793,9030.512492
4689.354607,-1332.370696,0.000000,8734.430116
4689.354921,0.000000,612.876398,9770.718434
4689.355235,-518.144159,459.657299,9030.512492
4689.355550,-1776.494261,306.438199,9474.636058
4689.355864,-888.247130,1378.971896,8734.430116
4689.356178,-296.082377,1302.362347,9548.656652
4689.356492,1184.329507,2068.457845,10807.006753
4689.356806,1480.411884,1149.143247,9030.512492
4689.357120,1258.350101,1762.019645,9622.677246
4689.357434,1184.329507,1838.629195,9548.656652
4689.357749,592.164754,1838.629195,9030.512492
4689.358063,666.185348,995.924147,7994.224174
4689.358377,-296.082377,689.485948,8586.388927
4689.358691,-1480.411884,1455.581446,9622.677246
4689.359005,-1702.473667,229.828649,9474.636058
4689.359319,-296.082377,1072.533697,8586.388927
4689.359633,888.247130,536.266849,8882.471304
4689.359948,296.082377,842.705048,9918.759623
4689.360262,962.267725,1608.800546,9178.553681
4689.360576,814.226536,689.485948,9400.615463
4689.360890,814.226536,1149.143247,9548.656652
4689.361204,1184.329507,842.705048,9326.594869
4689.361518,962.267725,0.000000,9696.697840
4689.361832,814.226536,1072.533697,9622.677246
4689.362147,666.185348,536.266849,9696.697840
4689.362461,1184.329507,459.657299,9622.677246
4689.362775,1036.288319,0.000000,9548.656652
4689.363089,1110.308913,1149.143247,9844.739029
4689.363403,740.205942,1302.362347,9844.739029
4689.363717,74.020594,842.705048,9622.677246
4689.364031,222.061783,306.438199,8586.388927
4689.364346,-1110.308913,-383.047749,8364.327145
4689.364660,-1628.453072,0.000000,8734.430116
4689.364974,-1628.453072,-459.657299,8068.244768
4689.365288,-814.226536,459.657299,9474.636058
4689.365602,0.000000,612.876398,9326.594869
4689.365916,148.041188,919.314598,9548.656652
4689.366230,518.144159,1378.971896,9622.677246
4689.366545,74.020594,-76.609550,8586.388927
4689.366859,-370.102971,536.266849,8734.430116
4689.367173,-592.164754,-995.924147,7920.203579
4689.367487,-1850.514855,76.609550,9474.636058
4689.367801,-1554.432478,0.000000,10362.883188
4689.368115,-592.164754,-842.705048,9252.574275
4689.368429,370.102971,76.609550,10658.965565
4689.368744,1036.288319,0.000000,10510.924376
4689.369058,1184.329507,2221.676944,9770.718434
4689.369372,1110.308913,1991.848295,8956.491898
4689.369686,1036.288319,842.705048,8808.450710
4689.370000,888.247130,1915.238745,8882.471304
4689.370314,0.000000,229.828649,8660.409521
4689.370628,-814.226536,1991.848295,9178.553681
4689.370943,-592.164754,1225.752797,9030.512492
4689.371257,-444.123565,1608.800546,10140.821405
4689.371571,740.205942,842.705048,8956.491898
4689.371885,666.185348,0.000000,8290.306550
4689.372199,0.000000,2374.896044,9400.615463
4689.372513,-296.082377,1378.971896,9400.615463
4689.372827,-592.164754,1915.238745,9696.697840
4689.373142,-1184.329507,0.000000,8364.327145
4689.373456,-1480.411884,-229.828649,8882.471304
4689.373770,-2442.679609,995.924147,10510.924376
4689.374084,-1924.535449,-229.828649,9918.759623
4689.374398,-740.205942,306.438199,9770.718434
4689.374712,-370.102971,612.876398,9326.594869
4689.375026,370.102971,459.657299,8956.491898
4689.375341,888.247130,2757.943793,8290.306550
4689.375655,0.000000,2757.943793,8956.491898
4689.375969,1184.329507,2528.115143,9474.636058
4689.376283,592.164754,919.314598,8956.491898
4689.376597,-592.164754,-612.876398,9178.553681
4689.376911,-592.164754,-995.924147,8068.244768
4689.377225,-296.082377,689.485948,9252.574275
4689.377540,592.164754,919.314598,9992.780217
4689.377854,1924.535449,1915.238745,10288.862594
4689.378168,2220.617826,2221.676944,9622.677246
4689.378482,1998.556043,536.266849,9104.533087
4689.378796,1924.535449,1608.800546,8290.306550
4689.379110,2368.659014,1225.752797,7772.162391
4689.379424,1776.494261,1378.971896,8882.471304
4689.379739,740.205942,2068.457845,10362.883188
4689.380053,666.185348,612.876398,10807.006753
4689.380367,1036.288319,459.657299,10066.800811
4689.380681,666.185348,-229.828649,9030.512492
4689.380995,-222.061783,306.438199,9104.533087
4689.381309,370.102971,919.314598,8956.491898
4689.381623,222.061783,0.000000,9844.739029
4689.381937,-296.082377,0.000000,9844.739029
4689.382252,-1406.391290,-612.876398,8512.368333
4689.382566,-2294.638420,76.609550,9474.636058
4689.382880,-2368.659014,1149.143247,9474.636058
4689.383194,-370.102971,306.438199,9178.553681
4689.383508,592.164754,306.438199,9474.636058
4689.383822,1406.391290,0.000000,8364.327145
4689.384136,888.247130,2451.505594,9104.533087
4689.384451,1258.350101,2911.162892,9104.533087
4689.384765,2072.576638,1455.581446,8512.368333
4689.385079,1702.473667,1991.848295,9696.697840
4689.385393,666.185348,-306.438199,10214.842000
4689.385707,0.000000,766.095498,10436.903782
4689.386021,-1110.308913,-306.438199,9178.553681
4689.386335,-222.061783,-536.266849,8882.471304
4689.386650,666.185348,1608.800546,9770.718434
4689.386964,148.041188,766.095498,8660.409521
4689.387278,-370.102971,1455.581446,9474.636058
4689.387592,-740.205942,1302.362347,7994.224174
4689.387906,-962.267725,383.047749,8216.285956
4689.388220,-1184.329507,153.219100,7920.203579
4689.388534,-2146.597232,0.000000,8364.327145
4689.388849,-2368.659014,536.266849,10288.862594
4689.389163,-1332.370696,-459.657299,10807.006753
4689.389477,-518.144159,-306.438199,10362.883188
4689.389791,0.000000,-1149.143247,8882.471304
4689.390105,370.102971,153.219100,9252.574275
4689.390419,740.205942,2528.115143,9030.512492
4689.390733,2072.576638,1685.410096,9326.594869
4689.391048,2294.638420,2451.505594,9918.759623
4689.391362,1776.494261,459.657299,8956.491898
4689.391676,296.082377,1762.019645,9474.636058
4689.391990,-370.102971,1149.143247,8882.471304
4689.392304,-148.041188,383.047749,9474.636058
4689.392618,518.144159,612.876398,9474.636058
4689.392932,888.247130,306.438199,10140.821405
4689.393247,444.123565,1302.362347,10510.924376
4689.393561,0.000000,842.705048,8734.430116
4689.393875,-444.123565,766.095498,8068.244768
4689.394189,-1258.350101,995.924147,8068.244768
4689.394503,-1554.432478,1455.581446,9844.739029
4689.394817,-1850.514855,995.924147,9548.656652
4689.395131,-1332.370696,-689.485948,9400.615463
4689.395446,-1406.391290,0.000000,8808.450710
4689.395760,-666.185348,153.219100,8512.368333
4689.396074,-296.082377,1532.190996,9030.512492
4689.396388,148.041188,2221.676944,9918.759623
4689.396702,1332.370696,1532.190996,10140.821405
4689.397016,1702.473667,1455.581446,9548.656652
4689.397331,592.164754,306.438199,7254.018232
4689.397645,-222.061783,76.609550,8068.244768
4689.397959,-518.144159,1302.362347,9844.739029
4689.398273,962.267725,1685.410096,11547.212695
4689.398587,2664.741391,536.266849,10955.047942
4689.398901,3034.844362,-306.438199,10066.800811
4689.399215,2072.576638,536.266849,9992.780217
4689.399530,1480.411884,2451.505594,9030.512492
4689.399844,2146.597232,1608.800546,8660.409521
4689.400158,1776.494261,1378.971896,8808.450710
4689.400472,74.020594,919.314598,9622.677246
4689.400786,-1850.514855,1455.581446,10066.800811
4689.401100,-1776.494261,306.438199,8882.471304
4689.401414,-1702.473667,0.000000,9326.594869
4689.401729,-1554.432478,-459.657299,9326.594869
4689.402043,-1554.432478,-1455.581446,9548.656652
4689.402357,-1258.350101,1149.143247,9844.739029
4689.402671,-740.205942,0.000000,9326.594869
4689.402985,-962.267725,536.266849,8660.409521
4689.403299,-1406.391290,612.876398,7476.080014
4689.403614,-1702.473667,766.095498,8216.285956
4689.403928,-1332.370696,2068.457845,9178.553681
4689.404242,222.061783,689.485948,9326.594869
4689.404556,888.247130,766.095498,9918.759623
4689.404870,1554.432478,919.314598,8882.471304
4689.405184,1702.473667,2374.896044,8586.388927
4689.405498,2146.597232,2528.115143,8438.347739
4689.405813,1184.329507,2145.067394,10362.883188
4689.406127,2146.597232,1072.533697,9178.553681
4689.406441,1702.473667,766.095498,8142.265362
4689.406755,592.164754,1072.533697,9326.594869
4689.407069,0.000000,919.314598,9326.594869
4689.407383,296.082377,1149.143247,10436.903782
4689.407697,1850.514855,-229.828649,10288.862594
4689.408012,814.226536,383.047749,10140.821405
4689.408326,0.000000,306.438199,10214.842000
4689.408640,888.247130,306.438199,8438.347739
4689.408954,740.205942,1685.410096,8216.285956
4689.409268,444.123565,76.609550,9474.636058
4689.409582,-1406.391290,919.314598,9992.780217
4689.409897,-2072.576638,536.266849,9770.718434
4689.410211,-1776.494261,-1532.190996,9178.553681
4689.410525,-1110.308913,-229.828649,9844.739029
4689.410839,-1184.329507,-1378.971896,9770.718434
4689.411153,-1110.308913,-459.657299,9474.636058
4689.411467,-1850.514855,2221.676944,10362.883188
4689.411781,-518.144159,1149.143247,10362.883188
4689.412096,740.205942,1838.629195,8808.450710
4689.412410,1110.308913,-919.314598,6661.853478
4689.412724,-888.247130,383.047749,8364.327145
4689.413038,-1554.432478,2145.067394,7994.224174
4689.413352,-888.247130,842.705048,9326.594869
4689.413666,962.267725,1302.362347,9400.615463
4689.413980,1776.494261,306.438199,9474.636058
4689.414295,1924.535449,2068.457845,10288.862594
4689.414609,1998.556043,2528.115143,8512.368333
4689.414923,1702.473667,1608.800546,8882.471304
4689.415237,1036.288319,689.485948,9326.594869
4689.415551,592.164754,766.095498,8882.471304
4689.415865,-740.205942,1685.410096,9770.718434
4689.416180,-666.185348,536.266849,9030.512492
4689.416494,-888.247130,842.705048,9400.615463
4689.416808,444.123565,-1072.533697,8808.450710
4689.417122,222.061783,-229.828649,9474.636058
4689.417436,-740.205942,1455.581446,11399.171507
4689.417750,-962.267725,76.609550,9474.636058
4689.418064,-1258.350101,842.705048,9474.636058
4689.418379,-1332.370696,-1072.533697,8660.409521
4689.418693,-1332.370696,-153.219100,9178.553681
4689.419007,-1036.288319,1608.800546,9400.615463
4689.419321,0.000000,0.000000,9992.780217
4689.419635,1110.308913,1915.238745,11473.192101
4689.419949,3256.906145,0.000000,10436.903782
4689.420264,3182.885551,1685.410096,10436.903782
4689.420578,3182.885551,2528.115143,9400.615463
4689.420892,2886.803174,2374.896044,8808.450710
4689.421206,2442.679609,2987.772442,8734.430116
4689.421520,1776.494261,306.438199,6957.935855
4689.421834,592.164754,1608.800546,8438.347739
4689.422148,-296.082377,1532.190996,9252.574275
4689.422463,-1998.556043,306.438199,8734.430116
4689.422777,-1332.370696,612.876398,9178.553681
4689.423091,-1036.288319,-1149.143247,9178.553681
4689.423405,-1554.432478,1532.190996,9918.759623
4689.423719,-1332.370696,-76.609550,7476.080014
4689.424033,-1628.453072,-306.438199,7328.038826
4689.424347,-1110.308913,1378.971896,7772.162391
4689.424662,-1406.391290,766.095498,8586.388927
4689.424976,-1480.411884,1915.238745,10288.862594
4689.425290,-444.123565,-153.219100,9252.574275
4689.425604,814.226536,766.095498,10288.862594
4689.425918,2368.659014,919.314598,9178.553681
4689.426232,2442.679609,229.828649,9844.739029
4689.426547,2220.617826,2834.553343,12139.377449
4689.426861,2368.659014,842.705048,10732.986159
4689.427175,2516.700203,1149.143247,10140.821405
4689.427489,2146.597232,0.000000,9178.553681
4689.427803,0.000000,766.095498,9622.677246
4689.428117,-814.226536,2145.067394,10214.842000
4689.428431,-370.102971,689.485948,9252.574275
4689.428746,0.000000,1225.752797,9992.780217
4689.429060,444.123565,-995.924147,9104.533087
4689.429374,0.000000,1532.190996,9696.697840
4689.429688,-888.247130,1991.848295,8660.409521
4689.430002,-962.267725,1302.362347,7846.182985
4689.430316,-814.226536,2604.724693,8512.368333
4689.430630,-1258.350101,0.000000,7846.182985
4689.430945,-2072.576638,1838.629195,9844.739029
4689.431259,-1924.535449,1302.362347,7698.141797
4689.431573,-2368.659014,306.438199,8586.388927
4689.431887,-814.226536,689.485948,9474.636058
4689.432201,0.000000,-229.828649,9474.636058
4689.432515,518.144159,2298.286494,10584.944971
4689.432830,962.267725,612.876398,9474.636058
4689.433144,888.247130,1072.533697,8364.327145
4689.433458,814.226536,919.314598,8142.265362
4689.433772,0.000000,-229.828649,7624.121203
4689.434086,-666.185348,1685.410096,9992.780217
4689.434400,370.102971,459.657299,10436.903782
4689.434714,1554.432478,1685.410096,11843.295072
4689.435029,2072.576638,-995.924147,9326.594869
4689.435343,962.267725,-1915.238745,8068.244768
4689.435657,296.082377,995.924147,9474.636058
4689.435971,-222.061783,1685.410096,10288.862594
4689.436285,0.000000,1762.019645,10436.903782
4689.436599,-666.185348,-2145.067394,8882.471304
4689.436913,-1850.514855,-919.314598,9770.718434
4689.437228,-2072.576638,0.000000,9548.656652
4689.437542,-1332.370696,0.000000,9030.512492
4689.437856,-444.123565,76.609550,8956.491898
4689.438170,518.144159,-229.828649,9770.718434
4689.438484,962.267725,1608.800546,10807.006753
4689.438798,0.000000,1072.533697,9918.759623
4689.439113,-222.061783,459.657299,8364.327145
4689.439427,222.061783,1225.752797,7920.203579
4689.439741,-592.164754,383.047749,8438.347739
4689.440055,-592.164754,1072.533697,9474.636058
4689.440369,-148.041188,306.438199,8586.388927
4689.440683,444.123565,383.047749,8808.450710
4689.440997,888.247130,689.485948,8364.327145
4689.441312,222.061783,995.924147,9104.533087
4689.441626,370.102971,1378.971896,9400.615463
4689.441940,888.247130,842.705048,9252.574275
4689.442254,-222.061783,1149.143247,10214.842000
4689.442568,0.000000,-1225.752797,8216.285956
4689.442882,-740.205942,-536.266849,8808.450710
4689.443196,-1036.288319,383.047749,9844.739029
4689.443511,-518.144159,-153.219100,10510.924376
4689.443825,0.000000,766.095498,10436.903782
4689.444139,1184.329507,-1685.410096,7920.203579
4689.444453,1702.473667,1685.410096,10140.821405
4689.444767,1480.411884,2604.724693,10658.965565
4689.445081,1702.473667,1685.410096,9474.636058
4689.445396,2146.597232,2298.286494,9030.512492
4689.445710,1406.391290,842.705048,8882.471304
4689.446024,888.247130,2374.896044,10510.924376
4689.446338,962.267725,919.314598,9252.574275
4689.446652,592.164754,1072.533697,10658.965565
4689.446966,592.164754,1149.143247,10436.903782
4689.447280,1184.329507,1225.752797,9474.636058
4689.447595,1036.288319,3064.381992,10214.842000
4689.447909,1258.350101,1762.019645,9030.512492
4689.448223,888.247130,2451.505594,8586.388927
4689.448537,0.000000,1608.800546,7550.100608
4689.448851,-2442.679609,1455.581446,8364.327145
4689.449165,-3108.864956,2451.505594,8734.430116
4689.449480,-2590.720797,766.095498,8290.306550
4689.449794,-1628.453072,1685.410096,9918.759623
4689.450108,-592.164754,229.828649,8290.306550
4689.450422,-1184.329507,0.000000,8956.491898
4689.450736,-1998.556043,689.485948,8364.327145
4689.451050,-1406.391290,2068.457845,8734.430116
4689.451364,-370.102971,3600.648841,9252.574275
4689.451679,74.020594,1378.971896,8808.450710
4689.451993,0.000000,1072.533697,8956.491898
4689.452307,0.000000,1149.143247,8364.327145
4689.452621,1036.288319,1455.581446,9770.718434
4689.452935,2294.638420,2221.676944,10214.842000
4689.453249,2294.638420,766.095498,10510.924376
4689.453563,2146.597232,1762.019645,11917.315666
4689.453878,2664.741391,1149.143247,11103.089130
4689.454192,1628.453072,689.485948,10214.842000
4689.454506,1406.391290,-229.828649,8808.450710
4689.454820,814.226536,-306.438199,8364.327145
4689.455134,-518.144159,2221.676944,9030.512492
4689.455448,-370.102971,306.438199,8586.388927
4689.455763,0.000000,383.047749,9326.594869
4689.456077,592.164754,-229.828649,8586.388927
4689.456391,444.123565,76.609550,8438.347739
4689.456705,0.000000,1378.971896,8956.491898
4689.457019,-148.041188,76.609550,9030.512492
4689.457333,0.000000,306.438199,9696.697840
4689.457647,0.000000,-1149.143247,8290.306550
4689.457962,-1110.308913,-459.657299,8956.491898
4689.458276,-1628.453072,459.657299,9622.677246
4689.458590,-518.144159,0.000000,9844.739029
4689.458904,962.267725,766.095498,10288.862594
4689.459218,962.267725,-919.314598,9104.533087
4689.459532,1036.288319,-612.876398,8512.368333
4689.459846,1036.288319,842.705048,9622.677246
4689.460161,444.123565,1378.971896,9548.656652
4689.460475,-222.061783,612.876398,9030.512492
4689.460789,-962.267725,-1149.143247,8660.409521
4689.461103,-1628.453072,-153.219100,9474.636058
4689.461417,-1924.535449,-689.485948,9326.594869
4689.461731,-1702.473667,-766.095498,10288.862594
4689.462046,-1332.370696,-1685.410096,9326.594869
4689.462360,-518.144159,-229.828649,10066.800811
4689.462674,-518.144159,1072.533697,9918.759623
4689.462988,296.082377,0.000000,8956.491898
4689.463302,592.164754,1685.410096,9696.697840
4689.463616,296.082377,612.876398,8734.430116
4689.463930,0.000000,1685.410096,9030.512492
4689.464245,-296.082377,1149.143247,8734.430116
4689.464559,296.082377,766.095498,10140.821405
4689.464873,222.061783,1455.581446,9548.656652
4689.465187,296.082377,842.705048,9326.594869
4689.465501,-296.082377,1685.410096,9104.533087
4689.465815,0.000000,1378.971896,9030.512492
4689.466129,74.020594,1149.143247,9622.677246
4689.466444,444.123565,1608.800546,9178.553681
4689.466758,-444.123565,689.485948,7550.100608
4689.467072,-2146.597232,1072.533697,8142.265362
4689.467386,-2294.638420,459.657299,8068.244768
4689.467700,-1702.473667,689.485948,8734.430116
4689.468014,0.000000,1149.143247,9474.636058
4689.468329,444.123565,1072.533697,10214.842000
4689.468643,592.164754,2145.067394,10066.800811
4689.468957,518.144159,229.828649,8882.471304
4689.469271,296.082377,1225.752797,9326.594869
4689.469585,0.000000,1149.143247,9178.553681
4689.469899,-370.102971,1225.752797,9400.615463
4689.470213,-740.205942,1532.190996,9400.615463
4689.470528,0.000000,153.219100,9918.759623
4689.470842,888.247130,536.266849,11251.130318
4689.471156,1480.411884,0.000000,9844.739029
4689.471470,1406.391290,612.876398,8512.368333
4689.471784,296.082377,1685.410096,8882.471304
4689.472098,962.267725,1455.581446,9400.615463
4689.472413,1924.535449,2221.676944,9622.677246
4689.472727,1776.494261,995.924147,9252.574275
4689.473041,222.061783,842.705048,8734.430116
4689.473355,222.061783,1838.629195,9474.636058
4689.473669,666.185348,1762.019645,9548.656652
4689.473983,2072.576638,2451.505594,10214.842000
4689.474297,2368.659014,0.000000,9400.615463
4689.474612,888.247130,842.705048,8956.491898
4689.474926,518.144159,1532.190996,8586.388927
4689.475240,-370.102971,1915.238745,9622.677246
4689.475554,-518.144159,842.705048,9104.533087
4689.475868,0.000000,-995.924147,8734.430116
4689.476182,-1776.494261,1225.752797,8956.491898
4689.476496,-1850.514855,0.000000,8882.471304
4689.476811,-1628.453072,766.095498,10214.842000
4689.477125,-296.082377,0.000000,9548.656652
4689.477439,148.041188,76.609550,10288.862594
4689.477753,-888.247130,995.924147,9696.697840
4689.478067,-1110.308913,76.609550,8068.244768
4689.478381,-222.061783,612.876398,8364.327145
4689.478696,222.061783,919.314598,8364.327145
4689.479010,-962.267725,1149.143247,9548.656652
4689.479324,-1110.308913,1378.971896,10066.800811
4689.479638,148.041188,689.485948,9474.636058
4689.479952,1554.432478,766.095498,9844.739029
4689.480266,2368.659014,153.219100,9252.574275
4689.480580,1850.514855,1991.848295,9474.636058
4689.480895,1036.288319,2451.505594,10214.842000
4689.481209,666.185348,1838.629195,8734.430116
4689.481523,888.247130,1378.971896,9474.636058
4689.481837,296.082377,-995.924147,8364.327145
4689.482151,-1036.288319,842.705048,9474.636058
4689.482465,-1332.370696,1149.143247,9030.512492
4689.482779,-222.061783,0.000000,8512.368333
4689.483094,814.226536,536.266849,9474.636058
4689.483408,1554.432478,-229.828649,8512.368333
4689.483722,0.000000,2451.505594,9400.615463
4689.484036,0.000000,1762.019645,8808.450710
4689.484350,296.082377,1838.629195,9622.677246
4689.484664,1110.308913,536.266849,9622.677246
4689.484979,444.123565,-1072.533697,9326.594869
4689.485293,-962.267725,536.266849,9326.594869
4689.485607,-1184.329507,-229.828649,8734.430116
4689.485921,74.020594,0.000000,9844.739029
4689.486235,1258.350101,919.314598,10807.006753
4689.486549,1628.453072,766.095498,10658.965565
4689.486863,1406.391290,1915.238745,10658.965565
4689.487178,962.267725,919.314598,9178.553681
4689.487492,1184.329507,919.314598,9474.636058
4689.487806,1036.288319,229.828649,9400.615463
4689.488120,0.000000,689.485948,10288.862594
4689.488434,-148.041188,1838.629195,9770.718434
4689.488748,-740.205942,689.485948,8660.409521
4689.489062,-740.205942,842.705048,9474.636058
4689.489377,-666.185348,0.000000,8438.347739
4689.489691,-518.144159,689.485948,8734.430116
4689.490005,-962.267725,1149.143247,8438.347739
4689.490319,-1184.329507,-153.219100,8364.327145
4689.490633,-2368.659014,766.095498,9548.656652
4689.490947,-2220.617826,-766.095498,8956.491898
4689.491262,-2146.597232,536.266849,9770.718434
4689.491576,-1554.432478,-1225.752797,9474.636058
4689.491890,-888.247130,-1455.581446,9474.636058
4689.492204,370.102971,383.047749,8734.430116
4689.492518,1184.329507,1149.143247,9178.553681
4689.492832,1998.556043,3370.820191,9400.615463
4689.493146,1776.494261,2451.505594,8956.491898
4689.493461,1184.329507,1685.410096,9030.512492
4689.493775,1480.411884,1455.581446,8956.491898
4689.494089,518.144159,306.438199,8808.450710
4689.494403,-518.144159,919.314598,9770.718434
4689.494717,-222.061783,-536.266849,9326.594869
4689.495032,444.123565,1072.533697,10140.821405
4689.495346,296.082377,-306.438199,8808.450710
4689.495660,-740.205942,153.219100,9474.636058
4689.495975,-1554.432478,1149.143247,10066.800811
4689.496289,-1036.288319,383.047749,9178.553681
4689.496603,0.000000,766.095498,9696.697840
4689.496918,-444.123565,-1072.533697,8512.368333
4689.497232,-1332.370696,0.000000,9252.574275
4689.497546,-1258.350101,612.876398,9178.553681
4689.497861,0.000000,995.924147,9030.512492
4689.498175,1036.288319,1685.410096,9104.533087
4689.498489,1406.391290,459.657299,9400.615463
4689.498804,740.205942,1991.848295,9104.533087
4689.499118,592.164754,1685.410096,9104.533087
4689.499432,592.164754,1302.362347,9178.553681
4689.499747,962.267725,612.876398,9474.636058
4689.500061,148.041188,0.000000,9252.574275
4689.500375,0.000000,766.095498,9030.512492
4689.500690,296.082377,0.000000,8882.471304
4689.501004,592.164754,1378.971896,9474.636058
4689.501318,1924.535449,1072.533697,9326.594869
4689.501633,1702.473667,1225.752797,9326.594869
4689.501947,1036.288319,2221.676944,9474.636058
4689.502262,592.164754,1455.581446,9400.615463
4689.502576,592.164754,2221.676944,9474.636058
4689.502890,74.020594,-229.828649,8660.409521
4689.503205,-1332.370696,0.000000,9622.677246
4689.503519,-1406.391290,766.095498,9844.739029
4689.503833,-740.205942,383.047749,9844.739029
4689.504148,-148.041188,1225.752797,9696.697840
4689.504462,222.061783,0.000000,8364.327145
4689.504776,518.144159,1915.238745,8586.388927
4689.505091,222.061783,2451.505594,8882.471304
4689.505405,148.041188,2068.457845,9548.656652
4689.505719,444.123565,766.095498,8660.409521
4689.506034,0.000000,-612.876398,8512.368333
4689.506348,-1628.453072,1455.581446,10955.047942
4689.506662,-1554.432478,842.705048,10288.862594
4689.506977,-888.247130,-306.438199,9326.594869
4689.507291,222.061783,-459.657299,8438.347739
4689.507605,296.082377,612.876398,8882.471304
4689.507920,-370.102971,2604.724693,10214.842000
4689.508234,0.000000,1915.238745,9104.533087
4689.508548,444.123565,1915.238745,8438.347739
4689.508863,592.164754,536.266849,7772.162391
4689.509177,-444.123565,76.609550,8216.285956
4689.509491,-1776.494261,995.924147,9178.553681
4689.509806,148.041188,689.485948,8438.347739
4689.510120,666.185348,1915.238745,9696.697840
4689.510435,814.226536,-76.609550,10288.862594
4689.510749,1184.329507,0.000000,9844.739029
4689.511063,888.247130,1762.019645,9326.594869
4689.511378,1110.308913,766.095498,8956.491898
4689.511692,1406.391290,1225.752797,9622.677246
4689.512006,1184.329507,-919.314598,9326.594869
4689.512321,148.041188,-153.219100,10288.862594
4689.512635,-296.082377,1378.971896,10436.903782
4689.512949,-370.102971,-153.219100,9992.780217
4689.513264,740.205942,536.266849,9696.697840
4689.513578,1702.473667,459.657299,9474.636058
4689.513892,2072.576638,1532.190996,9992.780217
4689.514207,1332.370696,1685.410096,9178.553681
4689.514521,-222.061783,1455.581446,8882.471304
4689.514835,-888.247130,1149.143247,8586.388927
4689.515150,-1406.391290,536.266849,7994.224174
4689.515464,-1850.514855,919.314598,9252.574275
4689.515778,-2072.576638,-383.047749,9400.615463
4689.516093,-1258.350101,306.438199,9400.615463
4689.516407,-1036.288319,0.000000,8882.471304
4689.516721,-814.226536,612.876398,9104.533087
4689.517036,-1480.411884,842.705048,9548.656652
4689.517350,-666.185348,689.485948,9030.512492
4689.517665,666.185348,1685.410096,8586.388927
4689.517979,1184.329507,1225.752797,7772.162391
4689.518293,-370.102971,995.924147,8660.409521
4689.518608,-296.082377,1378.971896,8956.491898
4689.518922,666.185348,766.095498,9622.677246
4689.519236,1850.514855,1455.581446,10658.965565
4689.519551,2294.638420,459.657299,11029.068536
4689.519865,2442.679609,766.095498,10436.903782
4689.520179,2220.617826,1149.143247,9992.780217
4689.520494,1998.556043,919.314598,8660.409521
4689.520808,1036.288319,1225.752797,7698.141797
4689.521122,444.123565,76.609550,7698.141797
4689.521437,0.000000,2528.115143,10214.842000
4689.521751,740.205942,1915.238745,11769.274478
4689.522065,1110.308913,0.000000,11029.068536
4689.522380,2220.617826,-919.314598,8808.450710
4689.522694,814.226536,-689.485948,8290.306550
4689.523008,-740.205942,1915.238745,9104.533087
4689.523323,-2220.617826,1991.848295,8512.368333
4689.523637,-666.185348,76.609550,8364.327145
4689.523951,-370.102971,383.047749,7179.997637
4689.524266,-2960.823768,76.609550,8068.244768
4689.524580,-3923.091493,383.047749,9252.574275
4689.524894,-3108.864956,-229.828649,8290.306550
4689.525209,-1628.453072,76.609550,10658.965565
4689.525523,-370.102971,-1532.190996,9696.697840
4689.525838,-1184.329507,-383.047749,9918.759623
4689.526152,814.226536,766.095498,9400.615463
4689.526466,1332.370696,2604.724693,8808.450710
4689.526781,1110.308913,3217.601092,9400.615463
4689.527095,740.205942,-536.266849,9030.512492
4689.527409,814.226536,1685.410096,8882.471304
4689.527724,962.267725,1378.971896,9696.697840
4689.528038,1480.411884,1225.752797,10955.047942
4689.528352,1702.473667,1149.143247,10658.965565
4689.528667,1776.494261,-383.047749,10066.800811
4689.528981,1628.453072,1915.238745,9918.759623
4689.529295,1480.411884,1608.800546,9326.594869
4689.529610,888.247130,1378.971896,9104.533087
4689.529924,1702.473667,1455.581446,6957.935855
4689.530238,-296.082377,919.314598,8586.388927
4689.530553,-1480.411884,1762.019645,9622.677246
4689.530867,-1110.308913,919.314598,9474.636058
4689.531181,-444.123565,536.266849,10584.944971
4689.531496,148.041188,0.000000,9400.615463
4689.531810,444.123565,459.657299,8438.347739
4689.532124,148.041188,919.314598,9178.553681
4689.532439,-148.041188,1685.410096,9252.574275
4689.532753,0.000000,1608.800546,8734.430116
4689.533068,-740.205942,459.657299,7994.224174
4689.533382,-1850.514855,383.047749,8586.388927
4689.533696,-2368.659014,919.314598,9992.780217
4689.534011,-1332.370696,-459.657299,10214.842000
4689.534325,666.185348,-766.095498,9400.615463
4689.534639,888.247130,0.000000,10214.842000
4689.534954,740.205942,1072.533697,9770.718434
4689.535268,740.205942,2145.067394,8438.347739
4689.535582,1406.391290,2604.724693,8364.327145
4689.535897,1332.370696,2604.724693,9474.636058
4689.536211,1776.494261,1915.238745,9030.512492
4689.536525,518.144159,689.485948,9326.594869
4689.536840,0.000000,-306.438199,9400.615463
4689.537154,-148.041188,536.266849,10584.944971
4689.537468,74.020594,76.609550,9474.636058
4689.537783,666.185348,536.266849,9770.718434
4689.538097,592.164754,1072.533697,9770.718434
4689.538411,592.164754,1762.019645,9622.677246
4689.538726,666.185348,2068.457845,8216.285956
4689.539040,518.144159,919.314598,7328.038826
4689.539354,-370.102971,919.314598,8734.430116
4689.539669,-1184.329507,1378.971896,9548.656652
4689.539983,-148.041188,995.924147,9178.553681
4689.540297,666.185348,1225.752797,10955.047942
4689.540612,592.164754,-229.828649,10658.965565
4689.540926,666.185348,1149.143247,9696.697840
4689.541241,74.020594,1225.752797,8734.430116
4689.541555,0.000000,383.047749,8290.306550
4689.541869,148.041188,1302.362347,8512.368333
4689.542184,-740.205942,612.876398,9400.615463
4689.542498,-2368.659014,1072.533697,10881.027347
4689.542812,-1406.391290,0.000000,9326.594869
4689.543127,-370.102971,-153.219100,9326.594869
4689.543441,148.041188,-689.485948,9474.636058
4689.543755,0.000000,-229.828649,9474.636058
4689.544070,-666.185348,1072.533697,9104.533087
4689.544384,-222.061783,306.438199,8142.265362
4689.544698,-962.267725,1608.800546,8882.471304
4689.545013,-888.247130,536.266849,7994.224174
4689.545327,-1480.411884,-1225.752797,7698.141797
4689.545641,-3108.864956,-612.876398,10140.821405
4689.545956,-1850.514855,-1685.410096,11251.130318
4689.546270,-444.123565,-689.485948,10881.027347
4689.546584,814.226536,-2451.505594,9030.512492
4689.546899,814.226536,-1149.143247,9400.615463
4689.547213,444.123565,1915.238745,9918.759623
4689.547527,518.144159,1149.143247,9252.574275
4689.547842,2072.576638,1762.019645,9400.615463
4689.548156,1850.514855,-229.828649,8438.347739
4689.548470,1110.308913,0.000000,9622.677246
4689.548785,518.144159,1149.143247,9252.574275
4689.549099,148.041188,612.876398,9844.739029
4689.549414,814.226536,766.095498,11029.068536
4689.549728,1258.350101,-383.047749,9326.594869
4689.550042,1258.350101,612.876398,8660.409521
4689.550357,888.247130,1608.800546,7994.224174
4689.550671,-740.205942,2221.676944,7994.224174
4689.550985,-1554.432478,1378.971896,7846.182985
4689.551300,-1110.308913,76.609550,8068.244768
4689.551614,-2072.576638,1455.581446,9992.780217
4689.551928,-1628.453072,-689.485948,10066.800811
4689.552243,370.102971,459.657299,9252.574275
4689.552557,1258.350101,842.705048,8512.368333
4689.552871,1850.514855,1532.190996,9992.780217
4689.553186,1924.535449,2987.772442,10288.862594
4689.553500,1998.556043,1915.238745,8512.368333
4689.553814,1776.494261,3064.381992,9474.636058
4689.554129,666.185348,3064.381992,9548.656652
4689.554443,-370.102971,2298.286494,9474.636058
4689.554757,0.000000,1455.581446,9474.636058
4689.555072,148.041188,766.095498,9844.739029
4689.555386,-296.082377,766.095498,10584.944971
4689.555700,-296.082377,459.657299,9696.697840
4689.556015,222.061783,1532.190996,8660.409521
4689.556329,740.205942,2834.553343,9252.574275
4689.556644,1628.453072,2987.772442,9326.594869
4689.556958,1628.453072,2834.553343,8438.347739
4689.557272,518.144159,459.657299,7476.080014
4689.557587,-1036.288319,1685.410096,8586.388927
4689.557901,-518.144159,766.095498,7476.080014
4689.558215,-222.061783,612.876398,9770.718434
4689.558530,888.247130,1608.800546,10881.027347
4689.558844,814.226536,612.876398,9178.553681
4689.559158,296.082377,2221.676944,8438.347739
4689.559473,814.226536,1455.581446,7698.141797
4689.559787,0.000000,2145.067394,8586.388927
4689.560101,0.000000,842.705048,8808.450710
4689.560416,0.000000,612.876398,9030.512492
4689.560730,-1480.411884,229.828649,10584.944971
4689.561044,-1554.432478,-1072.533697,10362.883188
4689.561359,-148.041188,-306.438199,9474.636058
4689.561673,1036.288319,-919.314598,8734.430116
4689.561987,444.123565,306.438199,9622.677246
4689.562302,-1628.453072,1149.143247,10807.006753
4689.562616,-444.123565,-459.657299,9104.533087
4689.562930,1184.329507,1378.971896,8808.450710
4689.563245,-370.102971,-766.095498,8512.368333
4689.563559,-1776.494261,-689.485948,9548.656652
4689.563873,-2516.700203,-306.438199,8438.347739
4689.564188,-1924.535449,-2068.457845,10288.862594
4689.564502,74.020594,-995.924147,10807.006753
4689.564817,0.000000,-1378.971896,9770.718434
4689.565131,0.000000,-536.266849,10214.842000
4689.565445,0.000000,1532.190996,8808.450710
4689.565760,0.000000,1149.143247,8882.471304
4689.566074,0.000000,-1378.971896,8068.244768
4689.566388,0.000000,-766.095498,7624.121203
4689.566703,-1184.329507,1762.019645,9548.656652
4689.567017,-740.205942,536.266849,9844.739029
4689.567331,-518.144159,0.000000,9474.636058
4689.567646,666.185348,-2145.067394,10066.800811
4689.567960,814.226536,-612.876398,9918.759623
4689.568274,0.000000,1378.971896,9474.636058
4689.568589,0.000000,383.047749,8364.327145
4689.568903,1258.350101,1608.800546,8734.430116
4689.569217,1110.308913,919.314598,10214.842000
4689.569532,-592.164754,0.000000,9104.533087
4689.569846,-296.082377,1072.533697,9326.594869
4689.570160,-296.082377,0.000000,9770.718434
4689.570475,370.102971,1532.190996,10066.800811
4689.570789,1776.494261,766.095498,8956.491898
4689.571103,1332.370696,229.828649,9622.677246
4689.571418,1554.432478,1838.629195,9400.615463
4689.571732,666.185348,2068.457845,9474.636058
4689.572047,592.164754,2528.115143,9474.636058
4689.572361,0.000000,766.095498,8586.388927
4689.572675,-444.123565,229.828649,8808.450710
4689.572990,-888.247130,76.609550,8956.491898
4689.573304,0.000000,1149.143247,9474.636058
4689.573618,1184.329507,1915.238745,9104.533087
4689.573933,1924.535449,689.485948,8808.450710
4689.574247,518.144159,2298.286494,9770.718434
4689.574561,592.164754,2068.457845,9548.656652
4689.574876,888.247130,2451.505594,9844.739029
4689.575190,148.041188,1378.971896,9622.677246
4689.575504,-888.247130,-689.485948,8660.409521
4689.575819,-1332.370696,536.266849,9622.677246
4689.576133,-518.144159,536.266849,9548.656652
4689.576447,592.164754,1608.800546,9622.677246
4689.576762,962.267725,1072.533697,8734.430116
4689.577076,518.144159,1378.971896,8216.285956
4689.577390,814.226536,4366.744339,9770.718434
4689.577705,1554.432478,3370.820191,9474.636058
4689.578019,1850.514855,2374.896044,9474.636058
4689.578333,1184.329507,76.609550,7476.080014
4689.578648,-592.164754,1302.362347,9104.533087
4689.578962,-1110.308913,2221.676944,9400.615463
4689.579276,-222.061783,1225.752797,9030.512492
4689.579591,0.000000,1608.800546,9696.697840
4689.579905,296.082377,229.828649,9622.677246
4689.580220,-370.102971,2221.676944,10362.883188
4689.580534,-1110.308913,1762.019645,9622.677246
4689.580848,-518.144159,689.485948,8882.471304
4689.581163,0.000000,1455.581446,8660.409521
4689.581477,-888.247130,-153.219100,7994.224174
4689.581791,-1480.411884,1225.752797,9178.553681
4689.582106,-962.267725,612.876398,9696.697840
4689.582420,-1110.308913,842.705048,10510.924376
4689.582734,0.000000,919.314598,10214.842000
4689.583049,-148.041188,-536.266849,9178.553681
4689.583363,0.000000,0.000000,9474.636058
4689.583677,666.185348,1072.533697,8364.327145
4689.583992,0.000000,1608.800546,9104.533087
4689.584306,444.123565,153.219100,8290.306550
4689.584620,0.000000,229.828649,7772.162391
4689.584935,-740.205942,2145.067394,9474.636058
4689.585249,74.020594,612.876398,9918.759623
4689.585563,814.226536,612.876398,9622.677246
4689.585878,1184.329507,-766.095498,9474.636058
4689.586192,1480.411884,0.000000,9992.780217
4689.586506,1628.453072,1072.533697,9326.594869
4689.586821,814.226536,0.000000,8808.450710
4689.587135,1184.329507,1149.143247,8660.409521
4689.587449,1258.350101,459.657299,9178.553681
4689.587764,518.144159,689.485948,10066.800811
4689.588078,444.123565,153.219100,9770.718434
4689.588393,814.226536,-919.314598,9992.780217
4689.588707,962.267725,0.000000,10658.965565
4689.589021,740.205942,-766.095498,10066.800811
4689.589336,74.020594,0.000000,10362.883188
4689.589650,148.041188,-306.438199,9474.636058
4689.589964,222.061783,766.095498,9474.636058
4689.590279,-518.144159,1149.143247,8586.388927
4689.590593,-1776.494261,-766.095498,8364.327145
4689.590907,-2294.638420,0.000000,8808.450710
4689.591222,-2294.638420,0.000000,8956.491898
4689.591536,-962.267725,459.657299,9696.697840
4689.591850,-296.082377,0.000000,9252.574275
4689.592165,-666.185348,-536.266849,9178.553681
4689.592479,-888.247130,1838.629195,9474.636058
4689.592793,-296.082377,1225.752797,8660.409521
4689.593108,0.000000,1685.410096,7994.224174
4689.593422,-296.082377,536.266849,7105.977043
4689.593736,-962.267725,1225.752797,8660.409521
4689.594051,-1406.391290,2374.896044,9178.553681
4689.594365,-1036.288319,995.924147,9326.594869
4689.594679,444.123565,0.000000,10066.800811
4689.594994,1924.535449,0.000000,10214.842000
4689.595308,2368.659014,1149.143247,10362.883188
4689.595622,3034.844362,2068.457845,10066.800811
4689.595937,3478.967927,1532.190996,9770.718434
4689.596251,3034.844362,1991.848295,10214.842000
4689.596565,1036.288319,1225.752797,9104.533087
4689.596880,74.020594,2298.286494,9400.615463
4689.597194,-814.226536,1225.752797,9030.512492
4689.597508,-962.267725,612.876398,9992.780217
4689.597823,0.000000,229.828649,10288.862594
4689.598137,74.020594,-229.828649,9696.697840
4689.598451,-962.267725,919.314598,9474.636058
4689.598765,-1702.473667,536.266849,8882.471304
4689.599080,-1332.370696,1608.800546,8734.430116
4689.599394,-1480.411884,229.828649,7402.059420
4689.599708,-1480.411884,1072.533697,7772.162391
4689.600023,-1480.411884,2298.286494,8438.347739
4689.600337,0.000000,1685.410096,8882.471304
4689.600651,666.185348,2374.896044,8956.491898
4689.600966,1258.350101,919.314598,9474.636058
4689.601280,1702.473667,1225.752797,9696.697840
4689.601594,1406.391290,1838.629195,9622.677246
4689.601908,1406.391290,1455.581446,8808.450710
4689.602223,1258.350101,2221.676944,9030.512492
4689.602537,296.082377,536.266849,8956.491898
4689.602851,-592.164754,1532.190996,9474.636058
4689.603166,-740.205942,995.924147,9992.780217
4689.603480,-370.102971,229.828649,10584.944971
4689.603794,370.102971,383.047749,10288.862594
4689.604108,1184.329507,0.000000,9622.677246
4689.604423,740.205942,1608.800546,9696.697840
4689.604737,222.061783,1915.238745,8586.388927
4689.605051,-222.061783,1455.581446,8438.347739
4689.605366,74.020594,995.924147,7550.100608
4689.605680,-1258.350101,689.485948,8586.388927
4689.605994,-2294.638420,689.485948,10214.842000
4689.606309,-1924.535449,-459.657299,10140.821405
4689.606623,-592.164754,-459.657299,10658.965565
4689.606937,-148.041188,-1532.190996,10066.800811
4689.607251,-592.164754,-842.705048,8734.430116
4689.607566,-888.247130,612.876398,8882.471304
4689.607880,370.102971,766.095498,8808.450710
4689.608194,888.247130,2528.115143,9696.697840
4689.608509,666.185348,842.705048,9104.533087
4689.608823,0.000000,612.876398,9178.553681
4689.609137,-962.267725,1532.190996,9326.594869
4689.609452,0.000000,76.609550,9104.533087
4689.609766,518.144159,766.095498,9474.636058
4689.610080,370.102971,-689.485948,9696.697840
4689.610394,0.000000,-229.828649,9696.697840
4689.610709,-1184.329507,1225.752797,9844.739029
4689.611023,-1110.308913,459.657299,8438.347739
4689.611337,-740.205942,536.266849,8068.244768
4689.611652,0.000000,-612.876398,7846.182985
4689.611966,-1036.288319,1225.752797,9474.636058
4689.612280,-518.144159,995.924147,9548.656652
4689.612595,0.000000,-766.095498,8956.491898
4689.612909,814.226536,612.876398,9992.780217
4689.613223,1406.391290,0.000000,9178.553681
4689.613537,1258.350101,1762.019645,9770.718434
4689.613852,1628.453072,1072.533697,9400.615463
4689.614166,1924.535449,1378.971896,9770.718434
4689.614480,1924.535449,1915.238745,9770.718434
4689.614795,74.020594,76.609550,9030.512492
4689.615109,-740.205942,1302.362347,9326.594869
4689.615423,0.000000,306.438199,9326.594869
4689.615738,1110.308913,536.266849,10214.842000
4689.616052,1332.370696,306.438199,9844.739029
4689.616366,814.226536,689.485948,9400.615463
4689.616680,592.164754,2068.457845,8364.327145
4689.616995,1184.329507,2145.067394,8586.388927
4689.617309,296.082377,2681.334243,9622.677246
4689.617623,296.082377,995.924147,9252.574275
4689.617938,-370.102971,459.657299,8734.430116
4689.618252,-148.041188,1072.533697,8660.409521
4689.618566,0.000000,842.705048,9474.636058
4689.618880,296.082377,1685.410096,9622.677246
4689.619195,1184.329507,76.609550,8586.388927
4689.619509,814.226536,2221.676944,10214.842000
4689.619823,444.123565,2145.067394,10140.821405
4689.620138,0.000000,1915.238745,9400.615463
4689.620452,370.102971,1225.752797,7994.224174
4689.620766,-444.123565,766.095498,7772.162391
4689.621081,-1480.411884,1685.410096,8438.347739
4689.621395,-1258.350101,919.314598,9178.553681
4689.621709,-148.041188,1302.362347,9474.636058
4689.622023,518.144159,766.095498,9104.533087
4689.622338,0.000000,383.047749,9326.594869
4689.622652,-518.144159,766.095498,8142.265362
4689.622966,-814.226536,842.705048,8438.347739
4689.623281,-592.164754,2834.553343,10510.924376
4689.623595,0.000000,0.000000,8882.471304
4689.623909,-888.247130,-383.047749,8660.409521
4689.624224,-444.123565,-459.657299,9030.512492
4689.624538,-296.082377,306.438199,10658.965565
4689.624852,0.000000,1838.629195,10658.965565
4689.625166,1554.432478,0.000000,9104.533087
4689.625481,1850.514855,612.876398,9400.615463
4689.625795,1998.556043,842.705048,9474.636058
4689.626109,1110.308913,919.314598,9030.512492
4689.626424,740.205942,0.000000,8216.285956
4689.626738,-592.164754,0.000000,9178.553681
4689.627052,-1776.494261,76.609550,10214.842000
4689.627367,-1332.370696,-306.438199,9548.656652
4689.627681,-370.102971,-919.314598,9326.594869
4689.627995,0.000000,-1302.362347,9474.636058
4689.628309,-444.123565,-995.924147,9696.697840
4689.628624,0.000000,689.485948,9474.636058
4689.628938,0.000000,383.047749,8956.491898
4689.629252,148.041188,689.485948,9400.615463
4689.629567,-740.205942,0.000000,9178.553681
4689.629881,-962.267725,459.657299,9178.553681
4689.630195,-814.226536,612.876398,9400.615463
4689.630509,-1036.288319,-919.314598,9770.718434
4689.630824,-740.205942,-612.876398,10881.027347
4689.631138,-296.082377,-459.657299,8734.430116
4689.631452,222.061783,1762.019645,8956.491898
4689.631767,-592.164754,1685.410096,8808.450710
4689.632081,0.000000,919.314598,9178.553681
4689.632395,740.205942,1149.143247,8660.409521
4689.632710,74.020594,-76.609550,7550.100608
4689.633024,-444.123565,229.828649,8586.388927
4689.633338,-814.226536,766.095498,9770.718434
4689.633652,-148.041188,689.485948,10436.903782
4689.633967,1628.453072,1455.581446,10436.903782
4689.634281,2516.700203,-383.047749,8586.388927
4689.634595,1776.494261,383.047749,9104.533087
4689.634910,1924.535449,2451.505594,9030.512492
4689.635224,2886.803174,3983.696590,8216.285956
4689.635538,3034.844362,2834.553343,7846.182985
4689.635853,1850.514855,1072.533697,9326.594869
4689.636167,1258.350101,2451.505594,10214.842000
4689.636481,1184.329507,2221.676944,9992.780217
4689.636795,1258.350101,1685.410096,10436.903782
4689.637110,1480.411884,76.609550,9992.780217
4689.637424,1332.370696,536.266849,10510.924376
4689.637738,444.123565,1838.629195,9770.718434
4689.638053,74.020594,2528.115143,9252.574275
4689.638367,-518.144159,2298.286494,9770.718434
4689.638681,-962.267725,612.876398,8438.347739
4689.638996,-2072.576638,1302.362347,8290.306550
4689.639310,-2368.659014,1608.800546,8586.388927
4689.639624,-1998.556043,1072.533697,9104.533087
4689.639938,-740.205942,1378.971896,9400.615463
4689.640253,0.000000,842.705048,9326.594869
4689.640567,222.061783,1225.752797,9548.656652
4689.640881,-814.226536,2145.067394,9770.718434
4689.641196,-370.102971,1762.019645,8512.368333
4689.641510,0.000000,1378.971896,7550.100608
4689.641824,0.000000,995.924147,8142.265362
4689.642138,-666.185348,1608.800546,8882.471304
4689.642453,-444.123565,2068.457845,10140.821405
4689.642767,444.123565,2528.115143,10288.862594
4689.643081,2146.597232,1378.971896,9474.636058
4689.643396,1406.391290,153.219100,9474.636058
4689.643710,888.247130,1455.581446,8956.491898
4689.644024,740.205942,2145.067394,8808.450710
4689.644339,444.123565,1225.752797,8882.471304
4689.644653,444.123565,383.047749,8512.368333
4689.644967,-1406.391290,76.609550,9030.512492
4689.645281,-2368.659014,-229.828649,9252.574275
4689.645596,-1998.556043,0.000000,9622.677246
4689.645910,-1554.432478,-919.314598,10955.047942
4689.646224,-518.144159,-1991.848295,10732.986159
4689.646539,-222.061783,-1915.238745,10066.800811
4689.646853,-370.102971,-1378.971896,9252.574275
4689.647167,-370.102971,842.705048,10066.800811
4689.647482,0.000000,1532.190996,9844.739029
4689.647796,814.226536,229.828649,8290.306550
4689.648110,296.082377,229.828649,9474.636058
4689.648424,222.061783,-459.657299,9918.759623
4689.648739,0.000000,0.000000,10584.944971
4689.649053,370.102971,0.000000,9770.718434
4689.649367,1406.391290,-842.705048,9474.636058
4689.649682,740.205942,842.705048,10140.821405
4689.649996,296.082377,153.219100,8808.450710
4689.650310,-296.082377,1302.362347,8512.368333
4689.650625,-1110.308913,306.438199,8290.306550
4689.650939,-1258.350101,0.000000,8512.368333
4689.651253,-1258.350101,842.705048,9474.636058
4689.651567,-1258.350101,-383.047749,9474.636058
4689.651882,444.123565,229.828649,9252.574275
4689.652196,1480.411884,842.705048,8586.388927
4689.652510,1480.411884,919.314598,8364.327145
4689.652825,1258.350101,2298.286494,8882.471304
4689.653139,1258.350101,1991.848295,8734.430116
4689.653453,1850.514855,2298.286494,8956.491898
4689.653767,1554.432478,1532.190996,9326.594869
4689.654082,592.164754,1302.362347,10288.862594
4689.654396,222.061783,1378.971896,11177.109724
4689.654710,-518.144159,153.219100,9844.739029
4689.655025,962.267725,1072.533697,9400.615463
4689.655339,592.164754,842.705048,9326.594869
4689.655653,0.000000,1685.410096,9326.594869
4689.655968,370.102971,2604.724693,9178.553681
4689.656282,0.000000,2834.553343,9474.636058
4689.656596,148.041188,1991.848295,9474.636058
4689.656910,444.123565,306.438199,7624.121203
4689.657225,-1554.432478,1532.190996,8586.388927
4689.657539,-1036.288319,1455.581446,10140.821405
4689.657853,0.000000,2451.505594,10955.047942
4689.658168,1110.308913,612.876398,9844.739029
4689.658482,1184.329507,-153.219100,9104.533087
4689.658796,222.061783,3294.210641,9326.594869
4689.659111,296.082377,2834.553343,8808.450710
4689.659425,888.247130,2528.115143,8586.388927
4689.659739,148.041188,1302.362347,7772.162391
4689.660053,-814.226536,612.876398,9252.574275
4689.660368,-962.267725,1915.238745,9548.656652
4689.660682,-1332.370696,689.485948,9030.512492
4689.660996,-518.144159,306.438199,9178.553681
4689.661311,0.000000,0.000000,8512.368333
4689.661625,-1184.329507,689.485948,9844.739029
4689.661939,0.000000,919.314598,8734.430116
4689.662254,666.185348,1838.629195,9104.533087
4689.662568,0.000000,995.924147,8808.450710
4689.662882,0.000000,-229.828649,7550.100608
4689.663196,-370.102971,1991.848295,9622.677246
4689.663511,-296.082377,0.000000,10140.821405
4689.663825,592.164754,0.000000,10066.800811
4689.664139,2220.617826,-842.705048,9474.636058
4689.664454,1332.370696,-842.705048,9696.697840
4689.664768,1258.350101,1915.238745,10881.027347
4689.665082,1332.370696,76.609550,10214.842000
4689.665396,888.247130,0.000000,10140.821405
4689.665711,444.123565,0.000000,10066.800811
4689.666025,-1258.350101,-612.876398,9918.759623
4689.666339,-2664.741391,-306.438199,9252.574275
4689.666654,-2960.823768,-1762.019645,9178.553681
4689.666968,-2886.803174,-383.047749,10658.965565
4689.667282,-3330.926739,-1762.019645,10140.821405
4689.667597,-2146.597232,-1608.800546,7994.224174
4689.667911,-2146.597232,0.000000,8290.306550
4689.668225,-1554.432478,-306.438199,7920.203579
4689.668539,-1332.370696,1225.752797,8734.430116
4689.668854,-1332.370696,-306.438199,7476.080014
4689.669168,-1702.473667,-842.705048,8290.306550
4689.669482,-1184.329507,0.000000,9400.615463
4689.669797,0.000000,0.000000,9252.574275
4689.670111,3404.947333,842.705048,10140.821405
4689.670425,4589.276840,919.314598,10658.965565
4689.670740,4737.318029,1378.971896,10807.006753
4689.671054,4145.153275,1302.362347,9104.533087
4689.671368,3552.988522,2298.286494,8364.327145
4689.671682,2960.823768,2987.772442,9400.615463
4689.671997,2294.638420,1915.238745,9918.759623
4689.672311,148.041188,1302.362347,10658.965565
4689.672625,-888.247130,-689.485948,9622.677246
4689.672940,-370.102971,-306.438199,9622.677246
4689.673254,-148.041188,76.609550,8734.430116
4689.673568,-1258.350101,229.828649,8956.491898
4689.673883,-1702.473667,1838.629195,10140.821405
4689.674197,-1850.514855,2068.457845,9474.636058
4689.674511,-1332.370696,1915.238745,9622.677246
4689.674825,-1184.329507,383.047749,7476.080014
4689.675140,-1850.514855,-153.219100,7179.997637
4689.675454,-1924.535449,1532.190996,9030.512492
4689.675768,-1332.370696,2451.505594,10732.986159
4689.676083,592.164754,1762.019645,11177.109724
4689.676397,2368.659014,536.266849,10584.944971
4689.676711,2368.659014,2068.457845,9770.718434
4689.677026,1776.494261,2987.772442,8438.347739
4689.677340,1628.453072,4060.306139,8808.450710
4689.677654,814.226536,2681.334243,7772.162391
4689.677968,1110.308913,1455.581446,7920.203579
4689.678283,0.000000,2757.943793,9474.636058
4689.678597,-1776.494261,1838.629195,10066.800811
4689.678911,-1480.411884,766.095498,9178.553681
4689.679226,-296.082377,-153.219100,8808.450710
4689.679540,444.123565,0.000000,9770.718434
4689.679854,814.226536,383.047749,9400.615463
4689.680168,592.164754,1991.848295,8290.306550
4689.680483,962.267725,1915.238745,8512.368333
4689.680797,1036.288319,3370.820191,8956.491898
4689.681111,0.000000,2451.505594,9326.594869
4689.681426,148.041188,995.924147,8734.430116
4689.681740,444.123565,383.047749,9770.718434
4689.682054,1110.308913,0.000000,10955.047942
4689.682369,1110.308913,-306.438199,9622.677246
4689.682683,1110.308913,153.219100,9474.636058
4689.682997,888.247130,689.485948,9770.718434
4689.683311,1332.370696,689.485948,8734.430116
4689.683626,0.000000,842.705048,8512.368333
4689.683940,-1850.514855,-459.657299,8586.388927
4689.684254,-2368.659014,-229.828649,9104.533087
4689.684569,-2516.700203,-1072.533697,9474.636058
4689.684883,-1702.473667,-1608.800546,9770.718434
4689.685197,-148.041188,-995.924147,10214.842000
4689.685512,370.102971,-1149.143247,9696.697840
4689.685826,-222.061783,76.609550,9252.574275
4689.686140,148.041188,1072.533697,8142.265362
4689.686454,888.247130,1149.143247,8660.409521
4689.686769,1480.411884,1302.362347,9252.574275
4689.687083,1184.329507,0.000000,9252.574275
4689.687397,592.164754,612.876398,10955.047942
4689.687712,962.267725,-383.047749,12287.418637
4689.688026,2664.741391,0.000000,11843.295072
4689.688340,3256.906145,-459.657299,9622.677246
4689.688655,1998.556043,0.000000,9918.759623
4689.688969,370.102971,2068.457845,9992.780217
4689.689283,-222.061783,1991.848295,8660.409521
4689.689597,-1628.453072,766.095498,8364.327145
4689.689912,-370.102971,0.000000,7328.038826
4689.690226,-2220.617826,1455.581446,7179.997637
4689.690540,-2590.720797,1532.190996,7846.182985
4689.690855,-2220.617826,1378.971896,9326.594869
4689.691169,-1924.535449,612.876398,8660.409521
4689.691483,-666.185348,-1149.143247,8364.327145
4689.691797,-592.164754,1149.143247,8438.347739
4689.692112,-1480.411884,1685.410096,7994.224174
4689.692426,-666.185348,1532.190996,8142.265362
4689.692740,814.226536,3370.820191,10214.842000
4689.693055,1480.411884,0.000000,9252.574275
4689.693369,740.205942,689.485948,11325.150913
4689.693683,148.041188,766.095498,9992.780217
4689.693998,740.205942,842.705048,10288.862594
4689.694312,1850.514855,1225.752797,10955.047942
4689.694626,1850.514855,76.609550,10658.965565
4689.694940,1776.494261,1072.533697,10362.883188
4689.695255,1480.411884,2298.286494,9474.636058
4689.695569,222.061783,2374.896044,9548.656652
4689.695883,148.041188,1378.971896,8512.368333
4689.696198,-888.247130,306.438199,8364.327145
4689.696512,-1776.494261,1762.019645,10288.862594
4689.696826,-1850.514855,995.924147,9178.553681
4689.697141,-962.267725,995.924147,8586.388927
4689.697455,-740.205942,-995.924147,7328.038826
4689.697769,-1480.411884,919.314598,9030.512492
4689.698083,-740.205942,2451.505594,8734.430116
4689.698398,-296.082377,689.485948,8364.327145
4689.698712,0.000000,1532.190996,8956.491898
4689.699026,592.164754,689.485948,9178.553681
4689.699341,296.082377,1532.190996,9030.512492
4689.699655,1628.453072,1225.752797,8290.306550
4689.699969,2368.659014,1302.362347,9474.636058
4689.700284,3182.885551,1608.800546,11177.109724
4689.700598,3552.988522,1532.190996,9622.677246
4689.700912,2516.700203,2528.115143,9178.553681
4689.701227,2146.597232,1149.143247,8142.265362
4689.701541,1332.370696,2374.896044,8882.471304
4689.701855,1406.391290,1915.238745,9622.677246
4689.702170,740.205942,766.095498,9844.739029
4689.702484,-666.185348,-383.047749,10140.821405
4689.702798,-1332.370696,-1915.238745,9622.677246
4689.703113,-1110.308913,306.438199,10214.842000
4689.703427,222.061783,229.828649,9474.636058
4689.703741,0.000000,612.876398,9770.718434
4689.704056,-592.164754,689.485948,9696.697840
4689.704370,-370.102971,0.000000,8808.450710
4689.704684,-518.144159,2145.067394,10066.800811
4689.704999,-888.247130,229.828649,7994.224174
4689.705313,-1258.350101,1225.752797,9474.636058
4689.705627,-1628.453072,1455.581446,10140.821405
4689.705942,-740.205942,-229.828649,9770.718434
4689.706256,0.000000,153.219100,9770.718434
4689.706571,-962.267725,-536.266849,9696.697840
4689.706885,-1258.350101,1915.238745,10214.842000
4689.707199,-592.164754,1915.238745,8956.491898
4689.707514,-444.123565,995.924147,9622.677246
4689.707828,-148.041188,153.219100,9178.553681
4689.708142,148.041188,-383.047749,6883.915261
4689.708457,-666.185348,2298.286494,8068.244768
4689.708771,-1184.329507,1302.362347,8068.244768
4689.709085,148.041188,1608.800546,9326.594869
4689.709400,1480.411884,153.219100,8586.388927
4689.709714,1702.473667,-919.314598,8956.491898
4689.710028,518.144159,2145.067394,9104.533087
4689.710343,222.061783,536.266849,8290.306550
4689.710657,666.185348,1838.629195,9770.718434
4689.710971,0.000000,306.438199,10066.800811
4689.711286,-1332.370696,-1991.848295,9548.656652
4689.711600,-1924.535449,-995.924147,9400.615463
4689.711914,-2590.720797,-1378.971896,9548.656652
4689.712229,-2220.617826,-153.219100,11695.253884
4689.712543,-1480.411884,-2221.676944,10362.883188
4689.712857,-2146.597232,-2604.724693,9770.718434
4689.713172,-1480.411884,-612.876398,9696.697840
4689.713486,-1406.391290,459.657299,9030.512492
4689.713800,-1332.370696,842.705048,9326.594869
4689.714115,-1110.308913,-1608.800546,7698.141797
4689.714429,-1998.556043,-766.095498,9104.533087
4689.714743,-2072.576638,-306.438199,9400.615463
4689.715058,-2368.659014,-842.705048,9474.636058
4689.715372,-814.226536,-1072.533697,9104.533087
4689.715686,518.144159,-2528.115143,9030.512492
4689.716001,518.144159,459.657299,9918.759623
4689.716315,296.082377,383.047749,9844.739029
4689.716629,370.102971,0.000000,8734.430116
4689.716944,666.185348,153.219100,8808.450710
4689.717258,0.000000,-383.047749,9770.718434
4689.717572,-888.247130,689.485948,9400.615463
4689.717887,-888.247130,-229.828649,8290.306550
4689.718201,-740.205942,-1225.752797,9844.739029
4689.718515,-888.247130,-689.485948,10140.821405
4689.718830,-1406.391290,-1991.848295,9030.512492
4689.719144,-2294.638420,-919.314598,7698.141797
4689.719459,-2812.782580,-766.095498,7328.038826
4689.719773,-2738.761985,383.047749,9992.780217
4689.720087,-2368.659014,0.000000,10881.027347
4689.720402,-2812.782580,-2451.505594,9178.553681
4689.720716,-3627.009116,-2757.943793,7550.100608
4689.721030,-4441.235652,-2451.505594,8068.244768
4689.721345,-4515.256246,-383.047749,9918.759623
4689.721659,-3849.070898,-1225.752797,10066.800811
4689.721973,-2664.741391,-3217.601092,9474.636058
4689.722288,-2516.700203,-2451.505594,8956.491898
4689.722602,-1480.411884,-459.657299,8512.368333
4689.722916,0.000000,766.095498,8290.306550
4689.723231,148.041188,383.047749,9770.718434
4689.723545,0.000000,-612.876398,12361.439231
4689.723859,-592.164754,-1378.971896,11103.089130
4689.724174,-592.164754,-1608.800546,10066.800811
4689.724488,-1110.308913,-1915.238745,9474.636058
4689.724802,-2294.638420,-2298.286494,9770.718434
4689.725117,-3182.885551,-2068.457845,10362.883188
4689.725431,-3627.009116,-2451.505594,8956.491898
4689.725745,-3849.070898,-2221.676944,7031.956449
4689.726060,-2516.700203,-2451.505594,7105.977043
4689.726374,-2146.597232,-612.876398,7698.141797
4689.726688,-1554.432478,1149.143247,9548.656652
4689.727003,-2812.782580,76.609550,10436.903782
4689.727317,-2516.700203,-1762.019645,10436.903782
4689.727631,-2294.638420,-2451.505594,10066.800811
4689.727946,-3034.844362,-3064.381992,9178.553681
4689.728260,-2812.782580,-3983.696590,8216.285956
4689.728574,-4737.318029,-3217.601092,8142.265362
4689.728889,-4589.276840,-2451.505594,9918.759623
4689.729203,-2738.761985,-1378.971896,10436.903782
4689.729517,-1776.494261,-1532.190996,9622.677246
4689.729832,-740.205942,-2451.505594,8660.409521
4689.730146,0.000000,-766.095498,8216.285956
4689.730460,1036.288319,306.438199,7846.182985
4689.730775,1702.473667,76.609550,9474.636058
4689.731089,1702.473667,1149.143247,11917.315666
4689.731403,1406.391290,1149.143247,12213.398043
4689.731718,-814.226536,-689.485948,9770.718434
4689.732032,-3849.070898,-2221.676944,7846.182985
4689.732347,-4663.297435,-3907.087040,8364.327145
4689.732661,-3478.967927,-3064.381992,8290.306550
4689.732975,-3775.050304,-2757.943793,9622.677246
4689.733290,-3775.050304,-2374.896044,10732.986159
4689.733604,-3404.947333,-459.657299,9770.718434
4689.733918,-2516.700203,-383.047749,8808.450710
4689.734233,-1480.411884,-383.047749,8290.306550
4689.734547,-222.061783,306.438199,8586.388927
4689.734861,370.102971,306.438199,9474.636058
4689.735176,74.020594,1378.971896,9326.594869
4689.735490,-1406.391290,1455.581446,9548.656652
4689.735804,-1924.535449,-383.047749,9622.677246
4689.736119,-2516.700203,-383.047749,8364.327145
4689.736433,-3701.029710,-1532.190996,9326.594869
4689.736747,-4589.276840,-3064.381992,9474.636058
4689.737062,-5255.462188,-3830.477490,9252.574275
4689.737376,-4885.359217,-4290.134789,9104.533087
4689.737690,-3034.844362,-2374.896044,8882.471304
4689.738005,-1924.535449,-612.876398,9252.574275
4689.738319,-1110.308913,-612.876398,9696.697840
4689.738633,-370.102971,0.000000,10362.883188
4689.738948,1036.288319,689.485948,10510.924376
4689.739262,1850.514855,842.705048,9326.594869
4689.739576,370.102971,459.657299,9104.533087
4689.739891,-1554.432478,-766.095498,8956.491898
4689.740205,-3478.967927,-306.438199,8364.327145
4689.740519,-5033.400406,-2451.505594,7920.203579
4689.740834,-4959.379811,-3830.477490,8290.306550
4689.741148,-5033.400406,-4290.134789,8438.347739
4689.741462,-4959.379811,-3370.820191,8956.491898
4689.741777,-3775.050304,-2987.772442,9252.574275
4689.742091,-2664.741391,-2834.553343,9622.677246
4689.742405,-1184.329507,-2681.334243,10584.944971
4689.742720,962.267725,-919.314598,11473.192101
4689.743034,1406.391290,0.000000,10732.986159
4689.743348,1702.473667,-536.266849,9622.677246
4689.743663,1628.453072,-536.266849,10362.883188
4689.743977,1480.411884,-612.876398,11251.130318
4689.744291,1554.432478,76.609550,10807.006753
4689.744606,1036.288319,0.000000,9992.780217
4689.744920,-666.185348,-842.705048,9696.697840
4689.745235,-2664.741391,-1608.800546,8068.244768
4689.745549,-4885.359217,-1915.238745,6587.832884
4689.745863,-6069.688724,-2451.505594,6439.791695
4689.746178,-6883.915261,-2834.553343,7254.018232
4689.746492,-7105.977043,-3064.381992,9178.553681
4689.746806,-7105.977043,-4136.915689,9548.656652
4689.747121,-6661.853478,-4903.011187,9770.718434
4689.747435,-5255.462188,-5132.839837,9400.615463
4689.747749,-3108.864956,-3524.039291,9844.739029
4689.748064,-444.123565,-1608.800546,9548.656652
4689.748378,1924.535449,153.219100,10066.800811
4689.748692,3849.070898,1608.800546,10658.965565
4689.749007,5403.503377,2681.334243,10362.883188
4689.749321,5699.585753,3217.601092,9844.739029
4689.749635,5255.462188,2987.772442,9548.656652
4689.749950,3330.926739,2528.115143,9844.739029
4689.750264,1628.453072,1149.143247,10362.883188
4689.750578,-296.082377,-1225.752797,9696.697840
4689.750893,-3108.864956,-1762.019645,9178.553681
4689.751207,-5477.523971,-2604.724693,8364.327145
4689.751521,-7550.100608,-3140.991542,8142.265362
4689.751836,-8586.388927,-2757.943793,8438.347739
4689.752150,-8290.306550,-3677.258390,8512.368333
4689.752464,-7698.141797,-2834.553343,7994.224174
4689.752779,-6291.750507,-2604.724693,8364.327145
4689.753093,-4959.379811,-1685.410096,8068.244768
4689.753407,-3552.988522,229.828649,8734.430116
4689.753722,-2146.597232,612.876398,9178.553681
4689.754036,-370.102971,995.924147,9770.718434
4689.754350,1036.288319,995.924147,9622.677246
4689.754665,1184.329507,1225.752797,9548.656652
4689.754979,0.000000,842.705048,8808.450710
4689.755293,-1480.411884,-842.705048,9104.533087
4689.755608,-2664.741391,-1762.019645,9770.718434
4689.755922,-3182.885551,-2528.115143,10066.800811
4689.756236,-3182.885551,-3677.258390,9992.780217
4689.756551,-3256.906145,-3217.601092,10066.800811
4689.756865,-3256.906145,-3677.258390,9992.780217
4689.757179,-2590.720797,-3140.991542,10584.944971
4689.757494,-1702.473667,-2298.286494,9770.718434
4689.757808,-296.082377,-1762.019645,9622.677246
4689.758122,666.185348,-689.485948,9548.656652
4689.758437,888.247130,0.000000,9326.594869
4689.758751,740.205942,536.266849,9178.553681
4689.759066,740.205942,612.876398,9104.533087
4689.759380,-370.102971,76.609550,8660.409521
4689.759694,-1332.370696,-842.705048,8734.430116
4689.760009,-2442.679609,-1532.190996,8956.491898
4689.760323,-3997.112087,-2757.943793,8882.471304
4689.760637,-4959.379811,-3294.210641,8586.388927
4689.760952,-5403.503377,-3140.991542,8586.388927
4689.761266,-5329.482782,-2987.772442,8956.491898
4689.761580,-4959.379811,-3294.210641,8734.430116
4689.761895,-4145.153275,-2834.553343,9104.533087
4689.762209,-2368.659014,-1838.629195,9548.656652
4689.762523,-1184.329507,-1608.800546,9696.697840
4689.762838,0.000000,-1072.533697,9770.718434
4689.763152,888.247130,-153.219100,9548.656652
4689.763466,1554.432478,459.657299,9548.656652
4689.763781,1998.556043,919.314598,9178.553681
4689.764095,1480.411884,689.485948,8734.430116
4689.764409,1554.432478,995.924147,9548.656652
4689.764724,1480.411884,842.705048,9770.718434
4689.765038,222.061783,306.438199,10288.862594
4689.765352,-814.226536,-383.047749,10288.862594
4689.765667,-1480.411884,-995.924147,9696.697840
4689.765981,-1850.514855,-1302.362347,9474.636058
4689.766295,-2590.720797,-1149.143247,8956.491898
4689.766610,-2812.782580,-1378.971896,9178.553681
4689.766924,-2516.700203,-306.438199,9178.553681
4689.767238,-1628.453072,0.000000,9474.636058
4689.767553,-888.247130,536.266849,8956.491898
4689.767867,-370.102971,1302.362347,8882.471304
4689.768181,74.020594,1685.410096,8660.409521
4689.768496,222.061783,2451.505594,8216.285956
4689.768810,370.102971,2451.505594,8364.327145
4689.769124,0.000000,1838.629195,8438.347739
4689.769439,222.061783,1915.238745,9400.615463
4689.769753,-444.123565,1915.238745,9770.718434
4689.770067,-962.267725,1378.971896,9696.697840
4689.770382,-1184.329507,536.266849,9696.697840
4689.770696,-2146.597232,0.000000,9770.718434
4689.771010,-2738.761985,-306.438199,9400.615463
4689.771325,-3256.906145,-306.438199,9104.533087
4689.771639,-4071.132681,-306.438199,8882.471304
4689.771954,-4293.194464,-1225.752797,9030.512492
4689.772268,-4737.318029,-1225.752797,8660.409521
4689.772582,-5033.400406,-1532.190996,8438.347739
4689.772897,-5329.482782,-1838.629195,8290.306550
4689.773211,-5551.544565,-2221.676944,7846.182985
4689.773525,-6069.688724,-3064.381992,7994.224174
4689.773840,-6217.729913,-3064.381992,8808.450710
4689.774154,-5995.668130,-3524.039291,8808.450710
4689.774468,-5477.523971,-4136.915689,9400.615463
4689.774783,-4515.256246,-4136.915689,9252.574275
4689.775097,-3108.864956,-4060.306139,9548.656652
4689.775411,-2072.576638,-3600.648841,9992.780217
4689.775726,-740.205942,-3064.381992,10288.862594
4689.776040,0.000000,-2911.162892,10436.903782
4689.776354,962.267725,-2604.724693,10807.006753
4689.776669,1554.432478,-2374.896044,11029.068536
4689.776983,2072.576638,-2451.505594,10955.047942
4689.777297,1924.535449,-2451.505594,10955.047942
4689.777612,1332.370696,-2528.115143,10732.986159
4689.777926,370.102971,-2757.943793,10807.006753
4689.778240,-666.185348,-3064.381992,9992.780217
4689.778555,-1628.453072,-3140.991542,9548.656652
4689.778869,-3627.009116,-3524.039291,9030.512492
4689.779183,-4737.318029,-3830.477490,8808.450710
4689.779498,-5773.606348,-3983.696590,8364.327145
4689.779812,-6439.791695,-4596.572988,8068.244768
4689.780126,-6809.894666,-4519.963438,8290.306550
4689.780441,-6735.874072,-3677.258390,8068.244768
4689.780755,-6291.750507,-3677.258390,7624.121203
4689.781069,-5403.503377,-2451.505594,7550.100608
4689.781384,-5477.523971,-2451.505594,7179.997637
4689.781698,-4441.235652,-2298.286494,7624.121203
4689.782012,-3478.967927,-1915.238745,7772.162391
4689.782327,-2146.597232,-1608.800546,8512.368333
4689.782641,-888.247130,-1532.190996,9548.656652
4689.782955,148.041188,-1072.533697,10362.883188
4689.783270,1110.308913,-1378.971896,11251.130318
4689.783584,2146.597232,-842.705048,11177.109724
4689.783898,2368.659014,-689.485948,11029.068536
4689.784213,2516.700203,383.047749,10807.006753
4689.784527,3182.885551,1225.752797,10955.047942
4689.784842,3478.967927,1915.238745,10732.986159
4689.785156,3404.947333,2068.457845,10955.047942
4689.785470,2294.638420,1455.581446,10362.883188
4689.785785,1850.514855,2221.676944,9474.636058
4689.786099,296.082377,2451.505594,9474.636058
4689.786413,-1258.350101,1838.629195,9030.512492
4689.786728,-2812.782580,1378.971896,8734.430116
4689.787042,-4589.276840,229.828649,8438.347739
4689.787356,-5921.647536,-383.047749,7550.100608
4689.787671,-6587.832884,-919.314598,6883.915261
4689.787985,-7402.059420,-1302.362347,7105.977043
4689.788299,-7254.018232,-306.438199,7254.018232
4689.788614,-6291.750507,-229.828649,7402.059420
4689.788928,-4219.173869,0.000000,7846.182985
4689.789242,-2368.659014,995.924147,8734.430116
4689.789557,-1184.329507,2374.896044,8956.491898
4689.789871,592.164754,3294.210641,9178.553681
4689.790185,1554.432478,2374.896044,9326.594869
4689.790500,814.226536,1762.019645,10066.800811
4689.790814,666.185348,536.266849,9474.636058
4689.791128,0.000000,766.095498,8882.471304
4689.791443,-444.123565,0.000000,9252.574275
4689.791757,-814.226536,-1072.533697,9770.718434
4689.792071,-962.267725,-1225.752797,9992.780217
4689.792386,-1110.308913,-1915.238745,10732.986159
4689.792700,-1480.411884,-1225.752797,10955.047942
4689.793014,-1480.411884,-2068.457845,10214.842000
4689.793329,-1554.432478,-2834.553343,9770.718434
4689.793643,-2220.617826,-2834.553343,10140.821405
4689.793957,-2516.700203,-2757.943793,10732.986159
4689.794272,-3256.906145,-2298.286494,11251.130318
4689.794586,-3256.906145,-2298.286494,10807.006753
4689.794900,-3627.009116,-3064.381992,9622.677246
4689.795215,-4885.359217,-3753.867940,8068.244768
4689.795529,-6143.709319,-4443.353888,7031.956449
4689.795843,-6735.874072,-4060.306139,6587.832884
4689.796158,-5995.668130,-3983.696590,6587.832884
4689.796472,-6143.709319,-3983.696590,7772.162391
4689.796786,-6217.729913,-4749.792088,8364.327145
4689.797101,-4293.194464,-4903.011187,7994.224174
4689.797415,-2368.659014,-3294.210641,9178.553681
4689.797730,-518.144159,-3600.648841,9918.759623
4689.798044,1554.432478,-3907.087040,10658.965565
4689.798358,2516.700203,-3524.039291,10436.903782
4689.798673,3552.988522,-1991.848295,11621.233289
4689.798987,3849.070898,0.000000,12287.418637
4689.799301,3404.947333,-766.095498,10955.047942
4689.799616,3849.070898,-2068.457845,9770.718434
4689.799930,3404.947333,536.266849,11843.295072
4689.800244,74.020594,-306.438199,12509.480420
4689.800559,-2146.597232,-1838.629195,10214.842000
4689.800873,-4293.194464,-2604.724693,8438.347739
4689.801187,-6809.894666,-3753.867940,7476.080014
4689.801502,-8882.471304,-2987.772442,7476.080014
4689.801816,-10658.965565,-4136.915689,6661.853478
4689.802131,-11547.212695,-5515.887586,5847.626942
4689.802445,-10658.965565,-3524.039291,7105.977043
4689.802759,-9252.574275,-4136.915689,7476.080014
4689.803074,-6217.729913,-4136.915689,7698.141797
4689.803388,-2812.782580,-2068.457845,9474.636058
4689.803702,1036.288319,766.095498,11843.295072
4689.804017,4293.194464,3140.991542,12361.439231
4689.804331,7402.059420,2987.772442,11769.274478
4689.804645,9326.594869,3677.258390,11251.130318
4689.804960,8882.471304,5669.106685,10436.903782
4689.805274,6957.935855,5745.716235,10807.006753
4689.805588,3923.091493,4596.572988,10955.047942
4689.805903,-444.123565,1149.143247,10510.924376
4689.806217,-4145.153275,-1991.848295,9474.636058
4689.806532,-7402.059420,-2911.162892,7105.977043
4689.806846,-10658.965565,-4596.572988,5625.565159
4689.807160,-11991.336260,-5439.278036,5921.647536
4689.807475,-11621.233289,-4596.572988,6291.750507
4689.807789,-9030.512492,-2834.553343,8290.306550
4689.808103,-5995.668130,-1532.190996,8438.347739
4689.808418,-3182.885551,-383.047749,8290.306550
4689.808732,888.247130,306.438199,9104.533087
4689.809046,4367.215058,2757.943793,10140.821405
4689.809361,5773.606348,4443.353888,12657.521608
4689.809675,6365.771101,3753.867940,13471.748144
4689.809989,5847.626942,2145.067394,11029.068536
4689.810304,4737.318029,306.438199,10066.800811
4689.810618,3182.885551,919.314598,9770.718434
4689.810933,74.020594,153.219100,10510.924376
4689.811247,-2146.597232,-1685.410096,9622.677246
4689.811561,-3330.926739,-2068.457845,7550.100608
4689.811876,-3849.070898,-2451.505594,6809.894666
4689.812190,-5255.462188,-2068.457845,7550.100608
4689.812504,-6513.812290,-1378.971896,8216.285956
4689.812819,-5847.626942,-2528.115143,8290.306550
4689.813133,-5181.441594,-2911.162892,8364.327145
4689.813447,-4515.256246,-2987.772442,9400.615463
4689.813762,-3256.906145,-2987.772442,9400.615463
4689.814076,-1628.453072,-1455.581446,8882.471304
4689.814390,222.061783,-995.924147,8660.409521
4689.814705,1998.556043,0.000000,10214.842000
4689.815019,3923.091493,1149.143247,10288.862594
4689.815333,5773.606348,1608.800546,9696.697840
4689.815648,5033.400406,3217.601092,9474.636058
4689.815962,3256.906145,1838.629195,9622.677246
4689.816277,1406.391290,536.266849,10362.883188
4689.816591,-370.102971,-766.095498,9696.697840
4689.816905,-1776.494261,-2298.286494,9030.512492
4689.817220,-4293.194464,-2451.505594,10288.862594
4689.817534,-6069.688724,-3983.696590,10436.903782
4689.817848,-5847.626942,-3830.477490,9030.512492
4689.818163,-4885.359217,-2757.943793,8586.388927
4689.818477,-4293.194464,-2374.896044,7698.141797
4689.818791,-1702.473667,-153.219100,7772.162391
4689.819106,222.061783,1225.752797,9104.533087
4689.819420,1480.411884,2834.553343,10436.903782
4689.819734,2294.638420,2757.943793,8808.450710
4689.820049,2442.679609,1685.410096,7624.121203
4689.820363,3552.988522,2757.943793,8882.471304
4689.820678,3034.844362,3830.477490,10732.986159
4689.820992,2220.617826,3217.601092,11103.089130
4689.821306,1480.411884,1455.581446,9918.759623
4689.821621,-518.144159,766.095498,8956.491898
4689.821935,-2960.823768,612.876398,9252.574275
4689.822249,-2516.700203,-766.095498,7476.080014
4689.822564,-3256.906145,-995.924147,7328.038826
4689.822878,-4071.132681,-919.314598,8438.347739
4689.823192,-4071.132681,-383.047749,7994.224174
4689.823507,-2072.576638,612.876398,9326.594869
4689.823821,0.000000,1608.800546,9326.594869
4689.824135,1554.432478,2834.553343,10881.027347
4689.824450,2590.720797,842.705048,8512.368333
4689.824764,2886.803174,1991.848295,8438.347739
4689.825079,4219.173869,3830.477490,10066.800811
4689.825393,4737.318029,3140.991542,10362.883188
4689.825707,4293.194464,3140.991542,10732.986159
4689.826022,2442.679609,1762.019645,11177.109724
4689.826336,1406.391290,1685.410096,10362.883188
4689.826650,814.226536,1149.143247,11177.109724
4689.826965,-296.082377,-995.924147,11325.150913
4689.827279,74.020594,-536.266849,8956.491898
4689.827593,-1332.370696,-919.314598,6883.915261
4689.827908,-3701.029710,766.095498,7698.141797
