#time,accel_x,accel_y,accel_z
20509.609614,740.205942,2374.896044,8142.265362
20509.609937,1258.350101,2451.505594,7328.038826
20509.610261,1036.288319,3064.381992,7476.080014
20509.610585,444.123565,3370.820191,7624.121203
20509.610908,148.041188,3907.087040,7846.182985
20509.611232,0.000000,2911.162892,7772.162391
20509.611556,-518.144159,3140.991542,7698.141797
20509.611879,-1702.473667,2757.943793,8068.244768
20509.612203,-2294.638420,2451.505594,8438.347739
20509.612527,-2146.597232,1991.848295,9252.574275
20509.612850,-1776.494261,1685.410096,9696.697840
20509.613174,-1998.556043,1608.800546,9992.780217
20509.613497,-2146.597232,1608.800546,10288.862594
20509.613821,-1850.514855,1532.190996,10140.821405
20509.614145,-518.144159,1915.238745,9770.718434
20509.614468,444.123565,1685.410096,9770.718434
20509.614792,296.082377,1762.019645,9622.677246
20509.615116,518.144159,1991.848295,9030.512492
20509.615439,1258.350101,2298.286494,8438.347739
20509.615763,2368.659014,1532.190996,8956.491898
20509.616087,2072.576638,1378.971896,8734.430116
20509.616410,2664.741391,1378.971896,8808.450710
20509.616734,2664.741391,995.924147,9104.533087
20509.617057,3330.926739,995.924147,8882.471304
20509.617381,4145.153275,919.314598,9400.615463
20509.617705,3997.112087,842.705048,9104.533087
20509.618028,4219.173869,766.095498,8956.491898
20509.618352,5403.503377,1149.143247,9400.615463
20509.618676,5403.503377,1149.143247,9252.574275
20509.618999,4737.318029,1149.143247,9326.594869
20509.619323,4515.256246,995.924147,9030.512492
20509.619647,4737.318029,1378.971896,9252.574275
20509.619970,5033.400406,1685.410096,9770.718434
20509.620294,4737.318029,1915.238745,9622.677246
20509.620617,4145.153275,1608.800546,9770.718434
20509.620941,4145.153275,1532.190996,9696.697840
20509.621265,4885.359217,2068.457845,10214.842000
20509.621588,4737.318029,2221.676944,10732.986159
20509.621912,4737.318029,2681.334243,10658.965565
20509.622236,5181.441594,3753.867940,10658.965565
20509.622559,5255.462188,3830.477490,10436.903782
20509.622883,4737.318029,4673.182538,9918.759623
20509.623207,4811.338623,4060.306139,9252.574275
20509.623530,4145.153275,4213.525239,9104.533087
20509.623854,2886.803174,4290.134789,8364.327145
20509.624178,1406.391290,4519.963438,8142.265362
20509.624501,0.000000,3753.867940,7179.997637
20509.624825,-1184.329507,3600.648841,6587.832884
20509.625148,-2072.576638,2451.505594,5995.668130
20509.625472,-3182.885551,2451.505594,5699.585753
20509.625796,-4737.318029,2528.115143,4959.379811
20509.626119,-3997.112087,2911.162892,5699.585753
20509.626443,-3256.906145,2681.334243,6217.729913
20509.626767,-3552.988522,2604.724693,6365.771101
20509.627090,-3256.906145,2451.505594,7254.018232
20509.627414,-2812.782580,1838.629195,8586.388927
20509.627738,-2590.720797,689.485948,9844.739029
20509.628061,-2664.741391,-766.095498,11473.192101
20509.628385,-3034.844362,-1608.800546,12287.418637
20509.628708,-2516.700203,-2451.505594,13249.686362
20509.629032,-1702.473667,-2834.553343,13915.871710
20509.629356,-444.123565,-2911.162892,13989.892304
20509.629679,148.041188,-2221.676944,13175.665768
20509.630003,1776.494261,-2145.067394,11325.150913
20509.630327,3701.029710,-612.876398,9992.780217
20509.630650,5403.503377,689.485948,8956.491898
20509.630974,6143.709319,2221.676944,7846.182985
20509.631298,6439.791695,2681.334243,6883.915261
20509.631621,6735.874072,2451.505594,6143.709319
20509.631945,6439.791695,1838.629195,6883.915261
20509.632268,5181.441594,766.095498,8216.285956
20509.632592,3775.050304,0.000000,9770.718434
20509.632916,2664.741391,-1762.019645,11695.253884
20509.633239,962.267725,-3217.601092,12731.542202
20509.633563,0.000000,-4519.963438,11843.295072
20509.633887,222.061783,-5132.839837,10510.924376
20509.634210,1258.350101,-4443.353888,9474.636058
20509.634533,2886.803174,-1838.629195,8734.430116
20509.634856,5033.400406,1838.629195,7402.059420
20509.635180,6809.894666,3140.991542,5329.482782
20509.635503,6587.832884,5209.449386,4219.173869
20509.635826,6883.915261,5286.058936,3330.926739
20509.636149,6217.729913,4903.011187,4737.318029
20509.636472,4219.173869,4213.525239,7624.121203
20509.636796,1702.473667,3064.381992,10362.883188
20509.637119,-1332.370696,-459.657299,11843.295072
20509.637442,-4811.338623,-2604.724693,12657.521608
20509.637765,-6439.791695,-4213.525239,14508.036463
20509.638089,-5847.626942,-3830.477490,15396.283594
20509.638412,-4219.173869,-3217.601092,15766.386565
20509.638735,-2368.659014,-1072.533697,14359.995275
20509.639058,-370.102971,1608.800546,11399.171507
20509.639382,0.000000,3140.991542,8068.244768
20509.639705,1184.329507,5439.278036,5847.626942
20509.640028,1554.432478,5975.544884,4663.297435
20509.640351,666.185348,5975.544884,3478.967927
20509.640674,-1110.308913,5362.668486,3404.947333
20509.640998,-2442.679609,4749.792088,3997.112087
20509.641321,-3627.009116,2834.553343,4515.256246
20509.641644,-5773.606348,1838.629195,4737.318029
20509.641967,-5477.523971,919.314598,5995.668130
20509.642291,-5107.421000,229.828649,7402.059420
20509.642614,-4737.318029,-306.438199,7624.121203
20509.642937,-4737.318029,-995.924147,8956.491898
20509.643260,-4811.338623,-1608.800546,9992.780217
20509.643583,-4811.338623,-2451.505594,10214.842000
20509.643907,-2442.679609,-2528.115143,11103.089130
20509.644230,-1036.288319,-3140.991542,11917.315666
20509.644553,-814.226536,-2834.553343,12805.562797
20509.644876,814.226536,-2374.896044,13619.789333
20509.645200,3034.844362,-1838.629195,13175.665768
20509.645523,5403.503377,-1455.581446,12435.459826
20509.645846,5847.626942,-919.314598,11843.295072
20509.646169,5403.503377,-842.705048,10807.006753
20509.646493,4441.235652,-1072.533697,10066.800811
20509.646816,4145.153275,-1149.143247,9918.759623
20509.647139,3478.967927,-1991.848295,9622.677246
20509.647462,1998.556043,-2757.943793,9104.533087
20509.647785,296.082377,-2604.724693,8216.285956
20509.648109,0.000000,-2528.115143,8808.450710
20509.648432,-296.082377,-2451.505594,8068.244768
20509.648755,-666.185348,-1608.800546,6587.832884
20509.649078,-888.247130,-1608.800546,6957.935855
20509.649402,-1480.411884,-2221.676944,7254.018232
20509.649725,-1924.535449,-1838.629195,7698.141797
20509.650048,-1554.432478,-2451.505594,7920.203579
20509.650371,-740.205942,-2528.115143,8660.409521
20509.650695,0.000000,-1608.800546,9104.533087
20509.651018,962.267725,-1455.581446,9548.656652
20509.651341,2294.638420,-766.095498,10214.842000
20509.651664,3627.009116,-383.047749,9770.718434
20509.651987,4071.132681,919.314598,10362.883188
20509.652311,3034.844362,1608.800546,10214.842000
20509.652634,1628.453072,1455.581446,9696.697840
20509.652957,296.082377,612.876398,8808.450710
20509.653280,-666.185348,76.609550,9474.636058
20509.653604,-2146.597232,919.314598,9992.780217
20509.653927,-4145.153275,612.876398,9622.677246
20509.654250,-4885.359217,229.828649,9474.636058
20509.654573,-4441.235652,0.000000,9474.636058
20509.654896,-4811.338623,306.438199,8660.409521
20509.655220,-4885.359217,306.438199,8438.347739
20509.655543,-5329.482782,689.485948,7994.224174
20509.655866,-4737.318029,1072.533697,7698.141797
20509.656189,-5033.400406,153.219100,7476.080014
20509.656513,-4737.318029,-612.876398,8068.244768
20509.656836,-4071.132681,-306.438199,8882.471304
20509.657159,-2220.617826,-229.828649,9474.636058
20509.657482,-518.144159,229.828649,9992.780217
20509.657806,592.164754,459.657299,9104.533087
20509.658129,1924.535449,842.705048,8956.491898
20509.658452,3256.906145,1915.238745,9326.594869
20509.658775,3330.926739,1915.238745,8734.430116
20509.659098,1776.494261,995.924147,8586.388927
20509.659422,740.205942,-229.828649,7994.224174
20509.659745,0.000000,-766.095498,7624.121203
20509.660068,444.123565,-1225.752797,8364.327145
20509.660391,-222.061783,-1072.533697,8808.450710
20509.660715,-888.247130,-995.924147,8734.430116
20509.661038,-222.061783,-1378.971896,7994.224174
20509.661361,888.247130,-1608.800546,7105.977043
20509.661684,1554.432478,-1378.971896,8586.388927
20509.662008,888.247130,-689.485948,9992.780217
20509.662331,1480.411884,-1455.581446,9918.759623
20509.662654,1850.514855,-2528.115143,10658.965565
20509.662977,1998.556043,-2911.162892,11843.295072
20509.663300,1406.391290,-3140.991542,12435.459826
20509.663624,2220.617826,-3294.210641,13027.624579
20509.663947,2960.823768,-3677.258390,12287.418637
20509.664270,3256.906145,-1991.848295,12139.377449
20509.664593,2812.782580,-1302.362347,10881.027347
20509.664917,2590.720797,-229.828649,9622.677246
20509.665240,1998.556043,-459.657299,8364.327145
20509.665563,1036.288319,-229.828649,7105.977043
20509.665886,370.102971,76.609550,6587.832884
20509.666209,-740.205942,459.657299,6513.812290
20509.666533,-1554.432478,306.438199,5329.482782
20509.666856,-2294.638420,383.047749,4959.379811
20509.667179,-2812.782580,459.657299,5255.462188
20509.667502,-3404.947333,689.485948,6069.688724
20509.667826,-3256.906145,689.485948,6809.894666
20509.668149,-3478.967927,-229.828649,7698.141797
20509.668472,-4589.276840,-1378.971896,8660.409521
20509.668795,-5033.400406,-2451.505594,9770.718434
20509.669119,-4515.256246,-3064.381992,11029.068536
20509.669442,-3404.947333,-3753.867940,11621.233289
20509.669765,-2738.761985,-2681.334243,11843.295072
20509.670088,-1628.453072,-2068.457845,12435.459826
20509.670411,0.000000,-612.876398,13027.624579
20509.670735,1406.391290,153.219100,12065.356855
20509.671058,1554.432478,0.000000,10584.944971
20509.671381,444.123565,0.000000,9252.574275
20509.671704,148.041188,383.047749,8882.471304
20509.672028,-518.144159,612.876398,8586.388927
20509.672351,-1628.453072,-229.828649,7920.203579
20509.672674,-2664.741391,-766.095498,7179.997637
20509.672997,-3478.967927,0.000000,7031.956449
20509.673320,-2886.803174,-459.657299,7550.100608
20509.673644,-1924.535449,-459.657299,7179.997637
20509.673967,-1406.391290,-459.657299,7031.956449
20509.674290,-1184.329507,-383.047749,7402.059420
20509.674613,-518.144159,-612.876398,8364.327145
20509.674937,-148.041188,-919.314598,8956.491898
20509.675260,0.000000,-1762.019645,9326.594869
20509.675583,74.020594,-2068.457845,10066.800811
20509.675906,1702.473667,-1991.848295,10584.944971
20509.676230,2590.720797,-1838.629195,11547.212695
20509.676553,3923.091493,-766.095498,10955.047942
20509.676876,4515.256246,0.000000,9770.718434
20509.677199,4811.338623,0.000000,8364.327145
20509.677522,5033.400406,842.705048,8734.430116
20509.677846,4441.235652,1149.143247,8882.471304
20509.678169,3182.885551,766.095498,8586.388927
20509.678492,2072.576638,76.609550,8290.306550
20509.678815,1258.350101,-383.047749,8586.388927
20509.679139,0.000000,0.000000,9030.512492
20509.679462,-962.267725,-383.047749,9548.656652
20509.679785,-1702.473667,-1149.143247,9104.533087
20509.680108,-2368.659014,-1838.629195,8808.450710
20509.680432,-2368.659014,-1532.190996,9474.636058
20509.680755,-2738.761985,-1378.971896,9992.780217
20509.681078,-2812.782580,-1225.752797,9844.739029
20509.681401,-2294.638420,-1685.410096,9474.636058
20509.681724,-2368.659014,-1608.800546,9474.636058
20509.682048,-1702.473667,-842.705048,9474.636058
20509.682371,-518.144159,-383.047749,10140.821405
20509.682694,666.185348,0.000000,10066.800811
20509.683017,1036.288319,766.095498,9622.677246
20509.683341,1258.350101,1149.143247,8734.430116
20509.683664,1110.308913,1455.581446,8512.368333
20509.683987,0.000000,1302.362347,6957.935855
20509.684310,-1036.288319,766.095498,7624.121203
20509.684633,-2812.782580,-153.219100,7105.977043
20509.684957,-3701.029710,-536.266849,7105.977043
20509.685280,-3552.988522,-1149.143247,7994.224174
20509.685603,-4367.215058,-612.876398,7994.224174
20509.685926,-4441.235652,-995.924147,7698.141797
20509.686250,-3330.926739,-766.095498,7624.121203
20509.686573,-2072.576638,-919.314598,8364.327145
20509.686896,-1184.329507,-306.438199,9252.574275
20509.687219,-1036.288319,-842.705048,9548.656652
20509.687543,-1480.411884,-1302.362347,10362.883188
20509.687866,-1184.329507,-1991.848295,11029.068536
20509.688189,0.000000,-2604.724693,11103.089130
20509.688512,740.205942,-2834.553343,11325.150913
20509.688835,1110.308913,-2145.067394,11843.295072
20509.689159,1850.514855,-1378.971896,11843.295072
20509.689482,2886.803174,-1762.019645,10732.986159
20509.689805,3849.070898,-536.266849,9992.780217
20509.690128,2738.761985,0.000000,9548.656652
20509.690452,1628.453072,0.000000,8660.409521
20509.690775,1776.494261,-306.438199,8142.265362
20509.691098,1628.453072,0.000000,8364.327145
20509.691421,592.164754,-383.047749,8290.306550
20509.691745,-814.226536,-536.266849,7402.059420
20509.692068,-962.267725,-612.876398,6735.874072
20509.692391,-444.123565,-383.047749,6661.853478
20509.692714,-370.102971,-76.609550,6883.915261
20509.693037,-888.247130,-229.828649,7624.121203
20509.693361,-518.144159,-383.047749,7772.162391
20509.693684,-962.267725,-383.047749,8438.347739
20509.694007,-740.205942,-766.095498,9622.677246
20509.694330,-444.123565,-1838.629195,10510.924376
20509.694654,296.082377,-2221.676944,11621.233289
20509.694977,888.247130,-1762.019645,12435.459826
20509.695300,1258.350101,-995.924147,12213.398043
20509.695623,1924.535449,-612.876398,11843.295072
20509.695946,2516.700203,76.609550,10362.883188
20509.696270,1110.308913,-383.047749,9548.656652
20509.696593,148.041188,229.828649,9622.677246
20509.696916,-1406.391290,459.657299,8956.491898
20509.697239,-1998.556043,0.000000,7920.203579
20509.697563,-2294.638420,0.000000,7328.038826
20509.697886,-2516.700203,229.828649,7105.977043
20509.698209,-3997.112087,1072.533697,7179.997637
20509.698532,-3182.885551,1762.019645,7402.059420
20509.698856,-2368.659014,919.314598,6883.915261
20509.699179,-2368.659014,459.657299,7179.997637
20509.699502,-2960.823768,612.876398,7994.224174
20509.699825,-2738.761985,76.609550,8660.409521
20509.700148,-1998.556043,-459.657299,9622.677246
20509.700472,-2072.576638,-1532.190996,9770.718434
20509.700795,-2294.638420,-1455.581446,9918.759623
20509.701118,-1406.391290,-2604.724693,10955.047942
20509.701441,-148.041188,-1378.971896,11103.089130
20509.701765,2368.659014,-229.828649,10658.965565
20509.702088,3256.906145,383.047749,9548.656652
20509.702411,3478.967927,1532.190996,8586.388927
20509.702734,3849.070898,1915.238745,8142.265362
20509.703058,3478.967927,2145.067394,8364.327145
20509.703381,2294.638420,919.314598,7994.224174
20509.703704,888.247130,0.000000,8438.347739
20509.704027,296.082377,-612.876398,8734.430116
20509.704350,-444.123565,-1225.752797,8956.491898
20509.704674,-666.185348,-1762.019645,9178.553681
20509.704997,-740.205942,-1455.581446,8586.388927
20509.705320,-592.164754,-1455.581446,8734.430116
20509.705643,0.000000,-1072.533697,9030.512492
20509.705967,74.020594,-1225.752797,9400.615463
20509.706290,-222.061783,-1149.143247,10214.842000
20509.706613,-518.144159,-1378.971896,10732.986159
20509.706936,296.082377,-1915.238745,10732.986159
20509.707259,1258.350101,-2298.286494,10288.862594
20509.707583,1332.370696,-1225.752797,10881.027347
20509.707906,1406.391290,-383.047749,11103.089130
20509.708229,2664.741391,0.000000,9918.759623
20509.708552,2664.741391,306.438199,9252.574275
20509.708876,1924.535449,919.314598,8364.327145
20509.709199,518.144159,1072.533697,7920.203579
20509.709522,0.000000,536.266849,8364.327145
20509.709845,-888.247130,0.000000,7624.121203
20509.710169,-1702.473667,306.438199,7550.100608
20509.710492,-2738.761985,-536.266849,7476.080014
20509.710815,-3404.947333,0.000000,7698.141797
20509.711138,-2368.659014,153.219100,7994.224174
20509.711461,-2072.576638,383.047749,8142.265362
20509.711785,-2368.659014,0.000000,8142.265362
20509.712108,-2368.659014,0.000000,7846.182985
20509.712431,-2220.617826,0.000000,9178.553681
20509.712754,-2294.638420,-1378.971896,10732.986159
20509.713078,-2368.659014,-1915.238745,10510.924376
20509.713401,-1998.556043,-2604.724693,10658.965565
20509.713724,-1036.288319,-2451.505594,11029.068536
20509.714047,-518.144159,-1378.971896,12287.418637
20509.714371,888.247130,-536.266849,11251.130318
20509.714694,2368.659014,153.219100,10214.842000
20509.715017,3330.926739,919.314598,10362.883188
20509.715340,1776.494261,1532.190996,9474.636058
20509.715663,666.185348,842.705048,8512.368333
20509.715987,0.000000,229.828649,7994.224174
20509.716310,-740.205942,-153.219100,7624.121203
20509.716633,-1332.370696,-383.047749,7105.977043
20509.716956,-1702.473667,0.000000,7105.977043
20509.717280,-1776.494261,-383.047749,7031.956449
20509.717603,-1702.473667,-153.219100,6365.771101
20509.717926,-666.185348,0.000000,6661.853478
20509.718249,-296.082377,-229.828649,7920.203579
20509.718572,0.000000,0.000000,9104.533087
20509.718896,0.000000,-842.705048,10066.800811
20509.719219,0.000000,-1991.848295,10436.903782
20509.719542,592.164754,-2757.943793,10510.924376
20509.719865,592.164754,-2374.896044,10807.006753
20509.720189,1184.329507,-2298.286494,11843.295072
20509.720512,2146.597232,-2068.457845,11843.295072
20509.720835,2960.823768,-995.924147,10955.047942
20509.721158,3256.906145,-306.438199,10140.821405
20509.721482,2960.823768,229.828649,9474.636058
20509.721805,2516.700203,383.047749,9178.553681
20509.722128,1332.370696,229.828649,8438.347739
20509.722451,370.102971,536.266849,7920.203579
20509.722774,-518.144159,306.438199,7698.141797
20509.723098,-444.123565,153.219100,7698.141797
20509.723421,-1110.308913,536.266849,7772.162391
20509.723744,-1110.308913,612.876398,7402.059420
20509.724067,-1628.453072,459.657299,7772.162391
20509.724391,-1480.411884,306.438199,8216.285956
20509.724714,-1924.535449,-306.438199,8882.471304
20509.725037,-2812.782580,-689.485948,9400.615463
20509.725360,-3330.926739,-1225.752797,10066.800811
20509.725684,-2516.700203,-2298.286494,9992.780217
20509.726007,-1406.391290,-2145.067394,10436.903782
20509.726330,-2146.597232,-1149.143247,10732.986159
20509.726653,-1184.329507,-842.705048,10584.944971
20509.726976,1036.288319,536.266849,9992.780217
20509.727300,1776.494261,536.266849,8734.430116
20509.727623,1406.391290,1378.971896,8586.388927
20509.727946,740.205942,1838.629195,7994.224174
20509.728269,0.000000,536.266849,7476.080014
20509.728593,-814.226536,0.000000,7105.977043
20509.728916,-2368.659014,-612.876398,7402.059420
20509.729239,-2738.761985,-383.047749,7698.141797
20509.729562,-3182.885551,-919.314598,8438.347739
20509.729885,-2368.659014,-612.876398,8956.491898
20509.730209,-1776.494261,-842.705048,8586.388927
20509.730532,-1554.432478,-919.314598,8068.244768
20509.730855,-444.123565,-1072.533697,8512.368333
20509.731178,518.144159,-306.438199,10436.903782
20509.731502,666.185348,306.438199,10955.047942
20509.731825,148.041188,-1608.800546,11103.089130
20509.732148,296.082377,-2451.505594,10732.986159
20509.732471,666.185348,-2221.676944,11177.109724
20509.732795,740.205942,-1762.019645,11769.274478
20509.733118,1850.514855,-1455.581446,10658.965565
20509.733441,2220.617826,-995.924147,9622.677246
20509.733764,2368.659014,-459.657299,9252.574275
20509.734087,1554.432478,459.657299,7846.182985
20509.734411,962.267725,-153.219100,7772.162391
20509.734734,-296.082377,-536.266849,8364.327145
20509.735057,-962.267725,-689.485948,7772.162391
20509.735380,-1184.329507,-766.095498,7105.977043
20509.735704,-1258.350101,-2145.067394,7994.224174
20509.736027,-2960.823768,-1225.752797,7476.080014
20509.736350,-2516.700203,-842.705048,7179.997637
20509.736673,-1184.329507,-1302.362347,7254.018232
20509.736997,-592.164754,-1072.533697,8586.388927
20509.737320,-1110.308913,-919.314598,9252.574275
20509.737643,-1406.391290,-995.924147,10066.800811
20509.737967,-1258.350101,-2451.505594,10955.047942
20509.738290,-444.123565,-2681.334243,11103.089130
20509.738613,296.082377,-2681.334243,11769.274478
20509.738936,592.164754,-2145.067394,12213.398043
20509.739260,1628.453072,-1149.143247,11991.336260
20509.739583,2368.659014,-76.609550,11177.109724
20509.739906,2886.803174,76.609550,10362.883188
20509.740229,2516.700203,1072.533697,9400.615463
20509.740553,1406.391290,995.924147,8290.306550
20509.740876,296.082377,919.314598,7402.059420
20509.741199,-1184.329507,306.438199,7254.018232
20509.741522,-2664.741391,0.000000,7476.080014
20509.741846,-2738.761985,0.000000,7179.997637
20509.742169,-3108.864956,0.000000,7105.977043
20509.742492,-3627.009116,459.657299,6883.915261
20509.742815,-2960.823768,0.000000,6587.832884
20509.743139,-2220.617826,0.000000,7105.977043
20509.743462,-1776.494261,612.876398,8068.244768
20509.743785,-2146.597232,306.438199,9178.553681
20509.744108,-2146.597232,-995.924147,9770.718434
20509.744432,-1776.494261,-2221.676944,9992.780217
20509.744755,-518.144159,-2374.896044,11399.171507
20509.745078,0.000000,-2145.067394,11547.212695
20509.745401,0.000000,-1225.752797,11325.150913
20509.745725,2072.576638,-1149.143247,11177.109724
20509.746048,3478.967927,0.000000,10584.944971
20509.746371,3775.050304,459.657299,9474.636058
20509.746694,3182.885551,1225.752797,9178.553681
20509.747018,2812.782580,919.314598,9252.574275
20509.747341,2072.576638,766.095498,8364.327145
20509.747664,1110.308913,1225.752797,7846.182985
20509.747987,0.000000,-689.485948,7328.038826
20509.748311,-1184.329507,-153.219100,8068.244768
20509.748634,-1554.432478,-229.828649,7846.182985
20509.748957,-1406.391290,-536.266849,7624.121203
20509.749280,-2072.576638,-842.705048,7179.997637
20509.749604,-2220.617826,-842.705048,7994.224174
20509.749927,-1850.514855,-766.095498,8512.368333
20509.750250,-1702.473667,-1685.410096,9474.636058
20509.750573,-2294.638420,-2068.457845,10214.842000
20509.750897,-1998.556043,-2374.896044,10362.883188
20509.751220,-296.082377,-2068.457845,10362.883188
20509.751543,740.205942,-1608.800546,11473.192101
20509.751866,1110.308913,-1072.533697,11251.130318
20509.752190,1406.391290,-842.705048,10362.883188
20509.752513,3108.864956,-459.657299,10214.842000
20509.752836,1998.556043,0.000000,9178.553681
20509.753160,962.267725,0.000000,9030.512492
20509.753483,0.000000,-383.047749,8808.450710
20509.753806,-370.102971,-995.924147,8660.409521
20509.754129,-1332.370696,-1378.971896,8216.285956
20509.754453,-1850.514855,-919.314598,7698.141797
20509.754776,-1776.494261,-306.438199,7920.203579
20509.755099,-1924.535449,-383.047749,7846.182985
20509.755422,-962.267725,0.000000,7476.080014
20509.755746,-1036.288319,-689.485948,7476.080014
20509.756069,-1554.432478,-306.438199,8142.265362
20509.756392,-1924.535449,-689.485948,9326.594869
20509.756715,-1850.514855,-1991.848295,9622.677246
20509.757039,-2294.638420,-2681.334243,10066.800811
20509.757362,-2146.597232,-3064.381992,10658.965565
20509.757685,-1332.370696,-3677.258390,11399.171507
20509.758008,-370.102971,-2451.505594,11547.212695
20509.758332,888.247130,-1608.800546,11547.212695
20509.758655,2072.576638,-306.438199,11547.212695
20509.758978,2368.659014,383.047749,9992.780217
20509.759301,2442.679609,0.000000,9104.533087
20509.759625,1554.432478,306.438199,7994.224174
20509.759948,148.041188,306.438199,7920.203579
20509.760271,-222.061783,153.219100,7624.121203
20509.760594,-592.164754,76.609550,7698.141797
20509.760918,-1184.329507,229.828649,7476.080014
20509.761241,-2368.659014,76.609550,7254.018232
20509.761564,-2146.597232,0.000000,7254.018232
20509.761887,-1702.473667,0.000000,6587.832884
20509.762211,-814.226536,0.000000,7179.997637
20509.762534,-740.205942,-153.219100,9252.574275
20509.762857,-1554.432478,-459.657299,9474.636058
20509.763180,-1480.411884,-1225.752797,10288.862594
20509.763504,0.000000,-1991.848295,10584.944971
20509.763827,518.144159,-1991.848295,10807.006753
20509.764150,1258.350101,-1455.581446,11769.274478
20509.764473,2220.617826,0.000000,11325.150913
20509.764797,3256.906145,-612.876398,10510.924376
20509.765120,3256.906145,76.609550,10066.800811
20509.765443,2220.617826,1072.533697,9474.636058
20509.765766,1036.288319,612.876398,8734.430116
20509.766090,444.123565,-153.219100,7994.224174
20509.766413,-518.144159,536.266849,7550.100608
20509.766736,-1406.391290,-229.828649,8142.265362
20509.767059,-2516.700203,76.609550,7179.997637
20509.767383,-2442.679609,0.000000,7550.100608
20509.767706,-2368.659014,153.219100,8068.244768
20509.768029,-2516.700203,153.219100,7402.059420
20509.768352,-2590.720797,-76.609550,7624.121203
20509.768676,-1480.411884,-766.095498,8586.388927
20509.768999,-1332.370696,-383.047749,9104.533087
20509.769322,-2368.659014,-842.705048,9992.780217
20509.769646,-1850.514855,-2374.896044,10436.903782
20509.769969,-1110.308913,-2604.724693,10436.903782
20509.770292,148.041188,-2374.896044,11325.150913
20509.770615,1258.350101,-1225.752797,11991.336260
20509.770939,2664.741391,-536.266849,11843.295072
20509.771262,3627.009116,-306.438199,10584.944971
20509.771585,3552.988522,1072.533697,9770.718434
20509.771908,3034.844362,536.266849,8956.491898
20509.772232,1406.391290,612.876398,8512.368333
20509.772555,444.123565,0.000000,7772.162391
20509.772878,-666.185348,-383.047749,7920.203579
20509.773201,-2072.576638,-612.876398,7550.100608
20509.773525,-3108.864956,-919.314598,7105.977043
20509.773848,-3627.009116,-995.924147,7105.977043
20509.774171,-2590.720797,-919.314598,7402.059420
20509.774494,-2294.638420,-612.876398,7920.203579
20509.774818,-1850.514855,-459.657299,8586.388927
20509.775141,-1702.473667,-766.095498,8956.491898
20509.775464,-1332.370696,-1302.362347,9844.739029
20509.775787,-740.205942,-1838.629195,10658.965565
20509.776111,0.000000,-1685.410096,10140.821405
20509.776434,1258.350101,-995.924147,11547.212695
20509.776757,1998.556043,-1455.581446,12435.459826
20509.777080,2072.576638,-612.876398,11621.233289
20509.777404,2442.679609,-383.047749,10288.862594
20509.777727,2368.659014,0.000000,10066.800811
20509.778050,2146.597232,153.219100,9178.553681
20509.778373,1776.494261,842.705048,8882.471304
20509.778697,1036.288319,0.000000,7994.224174
20509.779020,-1258.350101,0.000000,7402.059420
20509.779343,-1924.535449,76.609550,7179.997637
20509.779666,-1184.329507,0.000000,7105.977043
20509.779990,-1702.473667,0.000000,7402.059420
20509.780313,-2590.720797,0.000000,6809.894666
20509.780636,-1924.535449,-459.657299,6957.935855
20509.780959,-1110.308913,-153.219100,7550.100608
20509.781283,-1332.370696,-153.219100,7994.224174
20509.781606,-1776.494261,-536.266849,9474.636058
20509.781929,-1702.473667,-1302.362347,10584.944971
20509.782252,-962.267725,-2068.457845,11103.089130
20509.782576,0.000000,-2145.067394,11399.171507
20509.782899,444.123565,-1455.581446,11917.315666
20509.783222,1184.329507,-459.657299,11547.212695
20509.783545,2960.823768,-689.485948,10955.047942
20509.783869,3849.070898,995.924147,10955.047942
20509.784192,2812.782580,1378.971896,9622.677246
20509.784515,1924.535449,1455.581446,8660.409521
20509.784839,666.185348,1072.533697,7994.224174
20509.785162,-518.144159,612.876398,7179.997637
20509.785485,-2072.576638,459.657299,7328.038826
20509.785808,-2516.700203,0.000000,6957.935855
20509.786132,-3182.885551,-459.657299,6883.915261
20509.786455,-3182.885551,0.000000,6735.874072
20509.786778,-2368.659014,0.000000,7179.997637
20509.787101,-1924.535449,229.828649,7920.203579
20509.787425,-1184.329507,153.219100,8142.265362
20509.787748,-370.102971,-306.438199,9030.512492
20509.788071,-1036.288319,-1225.752797,9622.677246
20509.788394,-888.247130,-1915.238745,10658.965565
20509.788718,-296.082377,-2221.676944,10732.986159
20509.789041,444.123565,-2451.505594,11769.274478
20509.789364,592.164754,-1838.629195,12361.439231
20509.789687,666.185348,-1072.533697,11695.253884
20509.790011,2294.638420,-1378.971896,10510.924376
20509.790334,2368.659014,-459.657299,9474.636058
20509.790657,2220.617826,1455.581446,9104.533087
20509.790980,1332.370696,1072.533697,8882.471304
20509.791304,222.061783,306.438199,7698.141797
20509.791627,-296.082377,153.219100,7328.038826
20509.791950,-1110.308913,0.000000,7254.018232
20509.792273,-1776.494261,-459.657299,7846.182985
20509.792597,-2146.597232,-383.047749,7994.224174
20509.792920,-1776.494261,-383.047749,7105.977043
20509.793243,-962.267725,-612.876398,7920.203579
20509.793566,-1110.308913,-383.047749,8068.244768
20509.793890,-1036.288319,-689.485948,8586.388927
20509.794213,-1036.288319,-766.095498,9844.739029
20509.794536,-814.226536,-1149.143247,10066.800811
20509.794859,-888.247130,-2145.067394,10140.821405
20509.795183,0.000000,-2528.115143,11103.089130
20509.795506,0.000000,-1991.848295,11177.109724
20509.795829,888.247130,-995.924147,11621.233289
20509.796152,1480.411884,-689.485948,10510.924376
20509.796476,1850.514855,-459.657299,9844.739029
20509.796799,1332.370696,306.438199,9474.636058
20509.797122,592.164754,383.047749,9030.512492
20509.797445,-518.144159,0.000000,7920.203579
20509.797769,-1036.288319,-766.095498,8068.244768
20509.798092,-1480.411884,-766.095498,7698.141797
20509.798415,-1258.350101,-842.705048,7550.100608
20509.798738,-1628.453072,-306.438199,8068.244768
20509.799062,-1258.350101,459.657299,8142.265362
20509.799385,444.123565,306.438199,7846.182985
20509.799708,1702.473667,229.828649,8142.265362
20509.800032,1850.514855,1302.362347,8438.347739
20509.800355,1036.288319,383.047749,9474.636058
20509.800678,370.102971,-306.438199,10066.800811
20509.801001,222.061783,-1455.581446,10066.800811
20509.801325,-370.102971,-1915.238745,10732.986159
20509.801648,-1554.432478,-2528.115143,10732.986159
20509.801971,-1184.329507,-2451.505594,11029.068536
20509.802294,-148.041188,-1532.190996,11177.109724
20509.802618,74.020594,-1225.752797,10510.924376
20509.802941,-222.061783,0.000000,9400.615463
20509.803264,-518.144159,306.438199,8438.347739
20509.803587,-592.164754,229.828649,8438.347739
20509.803911,-1628.453072,536.266849,7624.121203
20509.804234,-1554.432478,0.000000,7698.141797
20509.804557,-1554.432478,-1225.752797,7476.080014
20509.804880,-2072.576638,459.657299,7698.141797
20509.805204,-1998.556043,919.314598,7550.100608
20509.805527,-1036.288319,153.219100,6883.915261
20509.805850,-370.102971,76.609550,6883.915261
20509.806173,0.000000,459.657299,8438.347739
20509.806497,370.102971,842.705048,8956.491898
20509.806820,-296.082377,-229.828649,9548.656652
20509.807143,-814.226536,-766.095498,10436.903782
20509.807466,-518.144159,-1915.238745,10584.944971
20509.807790,518.144159,-2451.505594,11251.130318
20509.808113,296.082377,-2145.067394,12065.356855
20509.808436,296.082377,-995.924147,12435.459826
20509.808759,1036.288319,-1149.143247,11251.130318
20509.809083,1998.556043,-1072.533697,9992.780217
20509.809406,1480.411884,-536.266849,9844.739029
20509.809729,148.041188,306.438199,9030.512492
20509.810052,-1184.329507,-306.438199,7698.141797
20509.810376,-1184.329507,-919.314598,7476.080014
20509.810699,-1554.432478,-536.266849,7254.018232
20509.811022,-2146.597232,0.000000,7031.956449
20509.811345,-2738.761985,-229.828649,6809.894666
20509.811669,-1702.473667,0.000000,6661.853478
20509.811992,-666.185348,383.047749,6735.874072
20509.812315,-518.144159,0.000000,7624.121203
20509.812638,-814.226536,-536.266849,8512.368333
20509.812962,-1110.308913,-1072.533697,9474.636058
20509.813285,-1258.350101,-1915.238745,10288.862594
20509.813608,-1554.432478,-3447.429741,9992.780217
20509.813931,-740.205942,-3830.477490,10881.027347
20509.814255,-444.123565,-3907.087040,11547.212695
20509.814578,0.000000,-2451.505594,12139.377449
20509.814901,1554.432478,-1685.410096,11251.130318
20509.815225,2664.741391,-919.314598,10955.047942
20509.815548,2738.761985,153.219100,10436.903782
20509.815871,2516.700203,536.266849,9178.553681
20509.816194,1332.370696,536.266849,8290.306550
20509.816518,0.000000,-229.828649,7772.162391
20509.816841,-666.185348,-766.095498,7994.224174
20509.817164,-1480.411884,-689.485948,7846.182985
20509.817487,-2146.597232,-689.485948,7846.182985
20509.817811,-2960.823768,-536.266849,7402.059420
20509.818134,-2368.659014,-1149.143247,7105.977043
20509.818457,-1776.494261,-689.485948,7105.977043
20509.818780,-1406.391290,0.000000,7550.100608
20509.819104,-1554.432478,0.000000,8364.327145
20509.819427,-2220.617826,-153.219100,9030.512492
20509.819750,-1184.329507,-995.924147,9622.677246
20509.820073,0.000000,-1149.143247,9844.739029
20509.820397,-518.144159,-1072.533697,10214.842000
20509.820720,-148.041188,-536.266849,10955.047942
20509.821043,1036.288319,-229.828649,11325.150913
20509.821366,2812.782580,0.000000,10214.842000
20509.821690,2072.576638,76.609550,9474.636058
20509.822013,1480.411884,842.705048,9400.615463
20509.822336,1332.370696,1149.143247,9252.574275
20509.822659,814.226536,919.314598,8142.265362
20509.822983,222.061783,-229.828649,7105.977043
20509.823306,-1332.370696,0.000000,7476.080014
20509.823629,-1480.411884,76.609550,7846.182985
20509.823952,-740.205942,153.219100,8216.285956
20509.824276,-518.144159,229.828649,8068.244768
20509.824599,-1184.329507,76.609550,8068.244768
20509.824922,-1480.411884,383.047749,7920.203579
20509.825245,-666.185348,-383.047749,8438.347739
20509.825569,-592.164754,-1225.752797,9178.553681
20509.825892,-2294.638420,-995.924147,9918.759623
20509.826215,-2368.659014,-1915.238745,10362.883188
20509.826538,-1110.308913,-2911.162892,10807.006753
20509.826862,-592.164754,-2604.724693,11029.068536
20509.827185,-222.061783,-1915.238745,11547.212695
20509.827508,1332.370696,-1149.143247,11473.192101
20509.827831,2664.741391,-766.095498,10288.862594
20509.828155,3182.885551,459.657299,9474.636058
20509.828478,2590.720797,842.705048,9252.574275
20509.828801,1184.329507,459.657299,8290.306550
20509.829124,592.164754,153.219100,7179.997637
20509.829448,370.102971,-306.438199,7476.080014
20509.829771,-888.247130,0.000000,7476.080014
20509.830094,-2146.597232,-689.485948,6809.894666
20509.830418,-1924.535449,-536.266849,6809.894666
20509.830741,-1554.432478,-383.047749,7402.059420
20509.831064,-1998.556043,-229.828649,7698.141797
20509.831387,-1480.411884,-153.219100,8216.285956
20509.831711,-962.267725,-766.095498,9474.636058
20509.832034,-666.185348,-995.924147,10066.800811
20509.832357,-1850.514855,-1991.848295,10288.862594
20509.832680,-1776.494261,-2987.772442,10807.006753
20509.833004,0.000000,-2757.943793,11399.171507
20509.833327,370.102971,-2451.505594,12509.480420
20509.833650,222.061783,-1608.800546,12361.439231
20509.833973,740.205942,-1225.752797,11177.109724
20509.834297,1628.453072,-689.485948,10066.800811
20509.834620,2516.700203,766.095498,9474.636058
20509.834943,1036.288319,1608.800546,8216.285956
20509.835267,592.164754,229.828649,7772.162391
20509.835590,-814.226536,459.657299,6439.791695
20509.835913,-1184.329507,536.266849,6883.915261
20509.836237,-1850.514855,689.485948,7402.059420
20509.836560,-3108.864956,0.000000,7476.080014
20509.836883,-3330.926739,-306.438199,7179.997637
20509.837207,-2072.576638,-842.705048,6957.935855
20509.837530,-1628.453072,-766.095498,7254.018232
20509.837853,-2146.597232,-842.705048,8438.347739
20509.838177,-2220.617826,-1225.752797,8734.430116
20509.838500,-1776.494261,-1915.238745,9474.636058
20509.838823,-666.185348,-2451.505594,10066.800811
20509.839147,444.123565,-1685.410096,11029.068536
20509.839470,1924.535449,-1455.581446,11695.253884
20509.839793,2368.659014,-612.876398,11991.336260
20509.840117,4071.132681,229.828649,11177.109724
20509.840440,5033.400406,612.876398,10584.944971
20509.840763,4071.132681,689.485948,9918.759623
20509.841087,2738.761985,383.047749,8956.491898
20509.841410,1480.411884,1378.971896,9104.533087
20509.841733,222.061783,-306.438199,8364.327145
20509.842057,-1332.370696,-459.657299,8216.285956
20509.842380,-1702.473667,-766.095498,8142.265362
20509.842703,-3478.967927,-995.924147,7105.977043
20509.843027,-3330.926739,-459.657299,7624.121203
20509.843350,-2590.720797,-383.047749,7254.018232
20509.843673,-2220.617826,0.000000,7550.100608
20509.843997,-1776.494261,0.000000,8068.244768
20509.844320,-1480.411884,459.657299,8216.285956
20509.844643,-1184.329507,0.000000,9104.533087
20509.844967,-814.226536,-612.876398,9844.739029
20509.845290,296.082377,-1149.143247,10584.944971
20509.845613,222.061783,-1225.752797,10881.027347
20509.845937,0.000000,-766.095498,10807.006753
20509.846260,962.267725,-383.047749,11029.068536
20509.846583,1776.494261,0.000000,10288.862594
20509.846907,1554.432478,842.705048,8956.491898
20509.847230,962.267725,1225.752797,9770.718434
20509.847553,0.000000,995.924147,9770.718434
20509.847877,-1332.370696,383.047749,8734.430116
20509.848200,-2146.597232,-689.485948,7402.059420
20509.848523,-2812.782580,-536.266849,7254.018232
20509.848847,-3256.906145,-842.705048,7698.141797
20509.849170,-3182.885551,-459.657299,7328.038826
20509.849493,-2738.761985,-919.314598,6957.935855
20509.849817,-2294.638420,-536.266849,7105.977043
20509.850140,-2220.617826,-153.219100,7698.141797
20509.850463,-1628.453072,-612.876398,8586.388927
20509.850787,-370.102971,-1149.143247,9622.677246
20509.851110,0.000000,-1838.629195,10807.006753
20509.851433,518.144159,-1991.848295,11103.089130
20509.851757,1110.308913,-1915.238745,11103.089130
20509.852080,2442.679609,-1685.410096,11843.295072
20509.852403,3034.844362,-1532.190996,12287.418637
20509.852727,3552.988522,-766.095498,11325.150913
20509.853050,4145.153275,-153.219100,10510.924376
20509.853373,4145.153275,689.485948,10584.944971
20509.853697,1998.556043,1225.752797,9178.553681
20509.854020,666.185348,689.485948,7550.100608
20509.854343,0.000000,-459.657299,7402.059420
20509.854667,-1332.370696,-919.314598,7105.977043
20509.854990,-2590.720797,-459.657299,7031.956449
20509.855313,-2960.823768,-689.485948,7179.997637
20509.855637,-2960.823768,0.000000,7328.038826
20509.855960,-2072.576638,0.000000,6809.894666
20509.856283,-1184.329507,-306.438199,6809.894666
20509.856607,-592.164754,-919.314598,8660.409521
20509.856930,-1332.370696,0.000000,9474.636058
20509.857253,-1184.329507,-689.485948,10140.821405
20509.857577,-222.061783,-2298.286494,10510.924376
20509.857900,0.000000,-2528.115143,10807.006753
20509.858223,-148.041188,-2298.286494,11325.150913
20509.858547,962.267725,-1455.581446,12139.377449
20509.858870,2294.638420,-919.314598,11843.295072
20509.859193,2812.782580,-153.219100,11621.233289
20509.859517,2886.803174,919.314598,10436.903782
20509.859840,2368.659014,1072.533697,9326.594869
20509.860163,1480.411884,1378.971896,9178.553681
20509.860487,370.102971,995.924147,8438.347739
20509.860810,-1110.308913,919.314598,7328.038826
20509.861133,-1110.308913,0.000000,7328.038826
20509.861457,-2368.659014,306.438199,7624.121203
20509.861780,-3330.926739,383.047749,7920.203579
20509.862103,-3627.009116,0.000000,7328.038826
20509.862427,-2960.823768,-383.047749,6661.853478
20509.862750,-2442.679609,-383.047749,7179.997637
20509.863073,-2516.700203,229.828649,8068.244768
20509.863397,-2368.659014,-689.485948,9548.656652
20509.863720,-1924.535449,-1072.533697,9770.718434
20509.864043,-1184.329507,-1455.581446,9326.594869
20509.864367,-148.041188,-1302.362347,9844.739029
20509.864690,0.000000,-995.924147,10584.944971
20509.865013,1406.391290,-459.657299,11029.068536
20509.865337,2220.617826,76.609550,10436.903782
20509.865660,3404.947333,153.219100,10214.842000
20509.865983,2368.659014,383.047749,9622.677246
20509.866307,1332.370696,229.828649,8808.450710
20509.866630,518.144159,-229.828649,8808.450710
20509.866953,0.000000,-612.876398,8586.388927
20509.867277,0.000000,-229.828649,8586.388927
20509.867600,-370.102971,-536.266849,8216.285956
20509.867923,-888.247130,-153.219100,8364.327145
20509.868247,0.000000,-459.657299,8216.285956
20509.868570,222.061783,0.000000,7994.224174
20509.868893,74.020594,0.000000,8586.388927
20509.869217,74.020594,0.000000,8956.491898
20509.869540,-888.247130,-536.266849,9548.656652
20509.869863,-1702.473667,-1455.581446,9622.677246
20509.870187,-1332.370696,-2221.676944,9992.780217
20509.870510,-814.226536,-2987.772442,10214.842000
20509.870833,-1184.329507,-2757.943793,10881.027347
20509.871157,-740.205942,-1991.848295,11103.089130
20509.871480,962.267725,-1225.752797,10955.047942
20509.871803,2146.597232,-536.266849,10584.944971
20509.872127,2738.761985,-306.438199,9622.677246
20509.872450,2368.659014,1072.533697,9178.553681
20509.872773,1258.350101,766.095498,8660.409521
20509.873097,888.247130,0.000000,8216.285956
20509.873420,-296.082377,-306.438199,7772.162391
20509.873743,-1258.350101,-536.266849,7994.224174
20509.874067,-2368.659014,-689.485948,7846.182985
20509.874390,-1998.556043,-153.219100,7624.121203
20509.874713,-1776.494261,0.000000,7846.182985
20509.875037,-2294.638420,76.609550,7105.977043
20509.875360,-2146.597232,-536.266849,6883.915261
20509.875683,-1628.453072,0.000000,7846.182985
20509.876007,-2664.741391,-306.438199,9770.718434
20509.876330,-3108.864956,-1378.971896,9992.780217
20509.876653,-2368.659014,-2451.505594,10066.800811
20509.876977,-1406.391290,-2834.553343,10584.944971
20509.877300,-962.267725,-2068.457845,12065.356855
20509.877623,444.123565,-1608.800546,12435.459826
20509.877947,1480.411884,-1302.362347,10881.027347
20509.878270,1702.473667,0.000000,9770.718434
20509.878593,2072.576638,536.266849,9400.615463
20509.878917,1628.453072,1225.752797,8660.409521
20509.879240,1258.350101,536.266849,7772.162391
20509.879563,1332.370696,1378.971896,7698.141797
20509.879887,74.020594,842.705048,6883.915261
20509.880210,-370.102971,842.705048,6883.915261
20509.880533,-888.247130,842.705048,7624.121203
20509.880857,-1924.535449,459.657299,7698.141797
20509.881180,-2072.576638,76.609550,8068.244768
20509.881503,-1702.473667,-766.095498,8438.347739
20509.881827,-1332.370696,-766.095498,8660.409521
20509.882150,-2516.700203,-1685.410096,9104.533087
20509.882473,-3552.988522,-3217.601092,9400.615463
20509.882797,-1998.556043,-3064.381992,9992.780217
20509.883120,-666.185348,-2451.505594,10881.027347
20509.883443,444.123565,-2145.067394,11399.171507
20509.883767,1850.514855,-1532.190996,11399.171507
20509.884090,3182.885551,-766.095498,11029.068536
20509.884413,4737.318029,0.000000,10584.944971
20509.884737,4663.297435,1149.143247,9474.636058
20509.885060,3552.988522,1302.362347,9030.512492
20509.885383,1924.535449,536.266849,8438.347739
20509.885707,740.205942,-153.219100,8068.244768
20509.886030,-666.185348,-536.266849,7846.182985
20509.886353,-2590.720797,-536.266849,7846.182985
20509.886677,-3404.947333,-1378.971896,7624.121203
20509.887000,-2812.782580,-536.266849,7624.121203
20509.887323,-2960.823768,-689.485948,7550.100608
20509.887647,-3552.988522,-612.876398,7254.018232
20509.887970,-2812.782580,-459.657299,7624.121203
20509.888293,-1850.514855,0.000000,8216.285956
20509.888617,-1332.370696,0.000000,9326.594869
20509.888940,-1406.391290,-536.266849,9474.636058
20509.889263,-518.144159,-1608.800546,10288.862594
20509.889587,148.041188,-1532.190996,10436.903782
20509.889910,592.164754,-1608.800546,11547.212695
20509.890233,888.247130,-1149.143247,11547.212695
20509.890557,1776.494261,-536.266849,10658.965565
20509.890880,2738.761985,459.657299,10362.883188
20509.891203,2294.638420,383.047749,9992.780217
20509.891527,370.102971,229.828649,9474.636058
20509.891850,-740.205942,-1149.143247,7994.224174
20509.892173,-888.247130,-1072.533697,7402.059420
20509.892497,-1702.473667,-1378.971896,7328.038826
20509.892820,-2886.803174,-995.924147,7772.162391
20509.893143,-3256.906145,-383.047749,8216.285956
20509.893467,-3256.906145,-1072.533697,7179.997637
20509.893790,-2294.638420,-306.438199,7105.977043
20509.894113,-1850.514855,-1532.190996,7476.080014
20509.894437,-2442.679609,-1378.971896,8660.409521
20509.894760,-1998.556043,-1915.238745,10066.800811
20509.895083,-1406.391290,-2298.286494,10658.965565
20509.895407,-1036.288319,-2681.334243,10362.883188
20509.895730,148.041188,-2757.943793,10658.965565
20509.896053,1036.288319,-2757.943793,11177.109724
20509.896377,2590.720797,-1225.752797,12065.356855
20509.896700,3997.112087,0.000000,12361.439231
20509.897023,3997.112087,0.000000,10732.986159
20509.897347,3552.988522,306.438199,9474.636058
20509.897670,2590.720797,689.485948,8956.491898
20509.897993,1406.391290,536.266849,8142.265362
20509.898317,-592.164754,306.438199,7846.182985
20509.898640,-1110.308913,-766.095498,7698.141797
20509.898963,-2146.597232,-842.705048,7328.038826
20509.899287,-2516.700203,-536.266849,7031.956449
20509.899610,-2442.679609,0.000000,7402.059420
20509.899933,-1998.556043,0.000000,7772.162391
20509.900257,-1184.329507,153.219100,7772.162391
20509.900580,0.000000,153.219100,8068.244768
20509.900903,0.000000,76.609550,8808.450710
20509.901227,-740.205942,-153.219100,9770.718434
20509.901550,0.000000,-766.095498,10362.883188
20509.901873,1332.370696,-1532.190996,10807.006753
20509.902197,1184.329507,-1455.581446,11029.068536
20509.902520,962.267725,-766.095498,11547.212695
20509.902843,2146.597232,-383.047749,11103.089130
20509.903167,3775.050304,0.000000,11177.109724
20509.903490,3108.864956,536.266849,10140.821405
20509.903813,1924.535449,1685.410096,9030.512492
20509.904137,592.164754,1608.800546,8512.368333
20509.904460,0.000000,1149.143247,7846.182985
20509.904783,-1258.350101,919.314598,7105.977043
20509.905107,-2738.761985,153.219100,6809.894666
20509.905430,-3034.844362,536.266849,8290.306550
20509.905753,-3849.070898,459.657299,7624.121203
20509.906077,-4367.215058,0.000000,7476.080014
20509.906400,-3997.112087,-612.876398,6661.853478
20509.906723,-2442.679609,-689.485948,7105.977043
20509.907047,-2590.720797,-229.828649,9030.512492
20509.907370,-1924.535449,-1072.533697,9178.553681
20509.907693,-1628.453072,-1302.362347,9992.780217
20509.908017,-740.205942,-2298.286494,9918.759623
20509.908340,74.020594,-1608.800546,11399.171507
20509.908663,740.205942,-1991.848295,11695.253884
20509.908987,1776.494261,-1838.629195,11029.068536
20509.909310,3108.864956,-1302.362347,11251.130318
20509.909633,4367.215058,0.000000,11177.109724
20509.909957,2886.803174,0.000000,9400.615463
20509.910280,1776.494261,153.219100,8956.491898
20509.910603,666.185348,-842.705048,8660.409521
20509.910927,0.000000,-1532.190996,7994.224174
20509.911250,-740.205942,-1991.848295,8364.327145
20509.911573,-1702.473667,-1991.848295,8364.327145
20509.911897,-2516.700203,-1302.362347,8216.285956
20509.912220,-2294.638420,-1685.410096,7624.121203
20509.912543,-592.164754,-1915.238745,8068.244768
20509.912867,-888.247130,-536.266849,7846.182985
20509.913190,-888.247130,-1225.752797,8216.285956
20509.913513,-814.226536,-1378.971896,8956.491898
20509.913837,-592.164754,-1532.190996,9696.697840
20509.914160,-592.164754,-2145.067394,10584.944971
20509.914483,74.020594,-2374.896044,10214.842000
20509.914807,0.000000,-3064.381992,10436.903782
20509.915130,666.185348,-2757.943793,11251.130318
20509.915453,1702.473667,-1532.190996,11695.253884
20509.915777,2738.761985,-459.657299,11547.212695
20509.916100,3108.864956,0.000000,10732.986159
20509.916423,2664.741391,612.876398,9400.615463
20509.916747,1776.494261,1072.533697,8956.491898
20509.917070,444.123565,0.000000,8364.327145
20509.917393,-1258.350101,-229.828649,7476.080014
20509.917717,-2072.576638,383.047749,8216.285956
20509.918040,-3034.844362,536.266849,8290.306550
20509.918363,-3108.864956,76.609550,6957.935855
20509.918687,-3404.947333,0.000000,6587.832884
20509.919010,-3182.885551,612.876398,7179.997637
20509.919333,-2072.576638,1149.143247,7476.080014
20509.919657,-666.185348,1838.629195,8216.285956
20509.919980,-1406.391290,919.314598,8586.388927
20509.920303,-1332.370696,76.609550,9252.574275
20509.920627,-296.082377,0.000000,9844.739029
20509.920950,962.267725,-612.876398,10584.944971
20509.921273,1406.391290,0.000000,11843.295072
20509.921597,1480.411884,0.000000,11399.171507
20509.921920,2738.761985,-153.219100,10807.006753
20509.922243,2590.720797,766.095498,10288.862594
20509.922567,1850.514855,995.924147,9326.594869
20509.922890,444.123565,766.095498,8882.471304
20509.923213,-592.164754,383.047749,8142.265362
20509.923537,-1110.308913,0.000000,7031.956449
20509.923860,-2220.617826,76.609550,7105.977043
20509.924183,-3182.885551,383.047749,7550.100608
20509.924507,-3849.070898,0.000000,7698.141797
20509.924830,-2886.803174,0.000000,7772.162391
20509.925153,-1924.535449,-766.095498,7550.100608
20509.925477,-2294.638420,-995.924147,7624.121203
20509.925800,-1406.391290,-919.314598,8734.430116
20509.926123,-518.144159,-1149.143247,9696.697840
20509.926447,-814.226536,-1991.848295,10436.903782
20509.926770,-518.144159,-2987.772442,10362.883188
20509.927093,592.164754,-3294.210641,10732.986159
20509.927417,1702.473667,-3447.429741,11695.253884
20509.927740,2072.576638,-2221.676944,12657.521608
20509.928063,3627.009116,-1302.362347,12657.521608
20509.928387,4737.318029,-459.657299,11177.109724
20509.928710,4663.297435,0.000000,9844.739029
20509.929033,3478.967927,766.095498,9252.574275
20509.929357,1110.308913,0.000000,8882.471304
20509.929680,148.041188,-689.485948,8364.327145
20509.930003,-666.185348,-1149.143247,7402.059420
20509.930327,-2442.679609,-1685.410096,7254.018232
20509.930650,-4663.297435,-1455.581446,7476.080014
20509.930973,-4737.318029,-1302.362347,7772.162391
20509.931297,-3627.009116,-1838.629195,7698.141797
20509.931620,-3849.070898,-1378.971896,7254.018232
20509.931943,-2664.741391,-1072.533697,7550.100608
20509.932267,-2442.679609,-766.095498,8586.388927
20509.932590,-1850.514855,-995.924147,9548.656652
20509.932913,-444.123565,-919.314598,10362.883188
20509.933237,0.000000,-842.705048,10658.965565
20509.933560,370.102971,-536.266849,11029.068536
20509.933883,1924.535449,-919.314598,11843.295072
20509.934207,2368.659014,-612.876398,11547.212695
20509.934530,2442.679609,0.000000,11399.171507
20509.934853,2368.659014,919.314598,10807.006753
20509.935176,2220.617826,842.705048,9326.594869
20509.935499,740.205942,766.095498,8068.244768
20509.935823,-370.102971,383.047749,7772.162391
20509.936146,-1702.473667,306.438199,7772.162391
20509.936469,-2368.659014,0.000000,7254.018232
20509.936792,-2886.803174,229.828649,6883.915261
20509.937115,-2886.803174,689.485948,7105.977043
20509.937438,-3108.864956,689.485948,7031.956449
20509.937762,-2812.782580,919.314598,7105.977043
20509.938085,-1406.391290,76.609550,7105.977043
20509.938408,-1332.370696,689.485948,7698.141797
20509.938731,-2146.597232,0.000000,8512.368333
20509.939054,-1480.411884,-536.266849,9474.636058
20509.939377,-370.102971,-1378.971896,10436.903782
20509.939701,444.123565,-1225.752797,10881.027347
20509.940024,1554.432478,-689.485948,11991.336260
20509.940347,1998.556043,-536.266849,11769.274478
20509.940670,3330.926739,-306.438199,10732.986159
20509.940993,4441.235652,536.266849,10658.965565
20509.941316,4367.215058,1302.362347,10288.862594
20509.941640,2368.659014,1378.971896,9548.656652
20509.941963,1332.370696,612.876398,8586.388927
20509.942286,74.020594,-229.828649,7846.182985
20509.942609,-1480.411884,-1149.143247,7328.038826
20509.942932,-2442.679609,-536.266849,7031.956449
20509.943255,-2220.617826,-995.924147,8068.244768
20509.943579,-2220.617826,-919.314598,7772.162391
20509.943902,-2960.823768,-459.657299,7254.018232
20509.944225,-1776.494261,-919.314598,6957.935855
20509.944548,-740.205942,-995.924147,8068.244768
20509.944871,0.000000,-612.876398,9326.594869
20509.945194,0.000000,-766.095498,10288.862594
20509.945518,-222.061783,-1838.629195,10214.842000
20509.945841,296.082377,-1915.238745,10362.883188
20509.946164,1036.288319,-2681.334243,10807.006753
20509.946487,1258.350101,-2145.067394,11991.336260
20509.946810,1406.391290,-1532.190996,11917.315666
20509.947133,2516.700203,-766.095498,10510.924376
20509.947457,3404.947333,229.828649,9696.697840
20509.947780,1776.494261,536.266849,9474.636058
20509.948103,-296.082377,919.314598,8216.285956
20509.948426,-1332.370696,-153.219100,7476.080014
20509.948749,-1480.411884,-842.705048,7624.121203
20509.949072,-3108.864956,-536.266849,7920.203579
20509.949396,-4515.256246,-1072.533697,7698.141797
20509.949719,-4515.256246,-1762.019645,7402.059420
20509.950042,-4219.173869,-1225.752797,7550.100608
20509.950365,-3997.112087,-689.485948,7772.162391
20509.950688,-3552.988522,-2451.505594,7624.121203
20509.951011,-3108.864956,-1838.629195,8216.285956
20509.951335,-1998.556043,-1378.971896,9474.636058
20509.951658,-1702.473667,-1685.410096,10436.903782
20509.951981,-444.123565,-2145.067394,10658.965565
20509.952304,666.185348,-1915.238745,10214.842000
20509.952627,2072.576638,-1378.971896,10955.047942
20509.952950,3182.885551,-842.705048,11547.212695
20509.953274,3849.070898,76.609550,11917.315666
20509.953597,4811.338623,766.095498,11177.109724
20509.953920,4219.173869,1149.143247,10066.800811
20509.954243,2516.700203,842.705048,8290.306550
20509.954566,1628.453072,76.609550,7698.141797
20509.954889,148.041188,0.000000,8142.265362
20509.955213,-1184.329507,-536.266849,7550.100608
20509.955536,-1406.391290,0.000000,7476.080014
20509.955859,-1924.535449,0.000000,7402.059420
20509.956182,-2368.659014,0.000000,7105.977043
20509.956505,-2146.597232,76.609550,6735.874072
20509.956828,-888.247130,-229.828649,6883.915261
20509.957152,-518.144159,919.314598,7920.203579
20509.957475,-518.144159,1072.533697,8956.491898
20509.957798,-1110.308913,0.000000,9770.718434
20509.958121,-296.082377,-1455.581446,10214.842000
20509.958444,0.000000,-2068.457845,10658.965565
20509.958767,-370.102971,-1532.190996,11251.130318
20509.959091,518.144159,-995.924147,11547.212695
20509.959414,2146.597232,-842.705048,11103.089130
20509.959737,3330.926739,0.000000,10881.027347
20509.960060,3552.988522,766.095498,11325.150913
20509.960383,2072.576638,1378.971896,10066.800811
20509.960706,1480.411884,1072.533697,9104.533087
20509.961030,666.185348,459.657299,7994.224174
20509.961353,74.020594,-383.047749,8068.244768
20509.961676,-1776.494261,0.000000,7772.162391
20509.961999,-2368.659014,0.000000,8068.244768
20509.962322,-2368.659014,-306.438199,7328.038826
20509.962645,-2812.782580,-383.047749,7254.018232
20509.962969,-3478.967927,-842.705048,6513.812290
20509.963292,-3034.844362,-612.876398,7179.997637
20509.963615,-2516.700203,-995.924147,8586.388927
20509.963938,-2960.823768,-766.095498,9400.615463
20509.964261,-2960.823768,-1072.533697,10288.862594
20509.964584,-1924.535449,-2451.505594,10066.800811
20509.964908,-1110.308913,-2911.162892,9918.759623
20509.965231,-370.102971,-2451.505594,11103.089130
20509.965554,74.020594,-1532.190996,11991.336260
20509.965877,1406.391290,-766.095498,11843.295072
20509.966200,2146.597232,-536.266849,10584.944971
20509.966523,1998.556043,-536.266849,9696.697840
20509.966846,148.041188,-536.266849,9030.512492
20509.967170,-296.082377,153.219100,9252.574275
20509.967493,-666.185348,-919.314598,8586.388927
20509.967816,-1406.391290,-1378.971896,7698.141797
20509.968139,-2368.659014,-995.924147,7254.018232
20509.968462,-2368.659014,-306.438199,7402.059420
20509.968785,-1480.411884,0.000000,7772.162391
20509.969109,-814.226536,0.000000,7254.018232
20509.969432,-296.082377,-306.438199,7328.038826
20509.969755,-444.123565,-306.438199,8216.285956
20509.970078,-518.144159,-536.266849,9178.553681
20509.970401,-444.123565,-1685.410096,9548.656652
20509.970724,-444.123565,-2451.505594,10140.821405
20509.971048,-444.123565,-2451.505594,10066.800811
20509.971371,444.123565,-2374.896044,10584.944971
20509.971694,1998.556043,-1685.410096,11843.295072
20509.972017,2886.803174,-153.219100,11547.212695
20509.972340,3849.070898,76.609550,10955.047942
20509.972663,4515.256246,689.485948,10214.842000
20509.972987,4367.215058,1302.362347,9844.739029
20509.973310,3034.844362,1838.629195,9104.533087
20509.973633,1480.411884,842.705048,8216.285956
20509.973956,518.144159,383.047749,8142.265362
20509.974279,-1332.370696,0.000000,7624.121203
20509.974602,-2812.782580,0.000000,7846.182985
20509.974926,-4737.318029,-383.047749,8068.244768
20509.975249,-4737.318029,-689.485948,7328.038826
20509.975572,-3923.091493,-766.095498,7254.018232
20509.975895,-3552.988522,-766.095498,7476.080014
20509.976218,-3404.947333,0.000000,7624.121203
20509.976541,-2294.638420,-306.438199,8882.471304
20509.976865,-2072.576638,-919.314598,9770.718434
20509.977188,-814.226536,-689.485948,10214.842000
20509.977511,0.000000,-689.485948,10362.883188
20509.977834,592.164754,-919.314598,11029.068536
20509.978157,1776.494261,-306.438199,10658.965565
20509.978480,3404.947333,689.485948,11103.089130
20509.978804,3108.864956,306.438199,10510.924376
20509.979127,2368.659014,689.485948,8512.368333
20509.979450,1998.556043,995.924147,8364.327145
20509.979773,592.164754,459.657299,8660.409521
20509.980096,-444.123565,0.000000,8068.244768
20509.980419,-1554.432478,-612.876398,7254.018232
20509.980743,-1628.453072,-612.876398,7772.162391
20509.981066,-2516.700203,-612.876398,8216.285956
20509.981389,-2368.659014,0.000000,8364.327145
20509.981712,-2664.741391,-1072.533697,7624.121203
20509.982035,-2812.782580,-1302.362347,7698.141797
20509.982358,-1924.535449,-766.095498,8364.327145
20509.982682,-1850.514855,-1455.581446,9474.636058
20509.983005,-2072.576638,-1991.848295,10066.800811
20509.983328,-1924.535449,-2221.676944,10362.883188
20509.983651,74.020594,-3140.991542,10510.924376
20509.983974,740.205942,-2451.505594,11177.109724
20509.984297,1480.411884,-2068.457845,11769.274478
20509.984621,2442.679609,-1072.533697,11473.192101
20509.984944,4367.215058,-536.266849,10955.047942
20509.985267,5033.400406,76.609550,10362.883188
20509.985590,3478.967927,229.828649,9770.718434
20509.985913,1776.494261,229.828649,8290.306550
20509.986236,1110.308913,-995.924147,7920.203579
20509.986560,444.123565,-612.876398,8068.244768
20509.986883,-962.267725,-459.657299,7624.121203
20509.987206,-2886.803174,-995.924147,7476.080014
20509.987529,-2886.803174,-995.924147,6883.915261
20509.987852,-2368.659014,-383.047749,6661.853478
20509.988175,-2664.741391,-1225.752797,6439.791695
20509.988499,-2516.700203,-919.314598,7105.977043
20509.988822,-1554.432478,-536.266849,8956.491898
20509.989145,-1332.370696,-842.705048,9770.718434
20509.989468,-814.226536,-2068.457845,10214.842000
20509.989791,-666.185348,-2298.286494,10955.047942
20509.990114,666.185348,-2068.457845,11621.233289
20509.990438,962.267725,-1532.190996,11991.336260
20509.990761,1924.535449,-1608.800546,12287.418637
20509.991084,2590.720797,-153.219100,11769.274478
20509.991407,2516.700203,536.266849,10510.924376
20509.991730,2442.679609,1149.143247,9252.574275
20509.992053,1628.453072,1225.752797,8290.306550
20509.992377,0.000000,1302.362347,7772.162391
20509.992700,-1776.494261,1149.143247,6957.935855
20509.993023,-2072.576638,1072.533697,7105.977043
20509.993346,-3330.926739,383.047749,7179.997637
20509.993669,-4145.153275,229.828649,7105.977043
20509.993992,-4589.276840,0.000000,7328.038826
20509.994316,-4293.194464,-612.876398,7328.038826
20509.994639,-3256.906145,-766.095498,7179.997637
20509.994962,-2368.659014,-383.047749,8438.347739
20509.995285,-2294.638420,-1378.971896,8882.471304
20509.995608,-1776.494261,-1225.752797,9104.533087
20509.995931,0.000000,-1685.410096,9844.739029
20509.996255,1184.329507,-1378.971896,10881.027347
20509.996578,2368.659014,-383.047749,11399.171507
20509.996901,3997.112087,76.609550,11769.274478
20509.997224,5477.523971,153.219100,11473.192101
20509.997547,5403.503377,1302.362347,10436.903782
20509.997870,4663.297435,1302.362347,10510.924376
20509.998194,3182.885551,766.095498,9474.636058
20509.998517,2072.576638,383.047749,8882.471304
20509.998840,0.000000,-306.438199,8512.368333
20509.999163,-2072.576638,-995.924147,8142.265362
20509.999486,-3108.864956,-766.095498,7550.100608
20509.999809,-3627.009116,-1072.533697,7402.059420
20510.000133,-4293.194464,-842.705048,7328.038826
20510.000456,-3701.029710,-919.314598,7402.059420
20510.000779,-2960.823768,-995.924147,6883.915261
20510.001102,-2072.576638,-689.485948,7920.203579
20510.001425,-1480.411884,-383.047749,8586.388927
20510.001748,-814.226536,-459.657299,9400.615463
20510.002072,-148.041188,-1685.410096,10066.800811
20510.002395,592.164754,-2451.505594,10140.821405
20510.002718,1850.514855,-1838.629195,10807.006753
20510.003041,1406.391290,-1838.629195,11547.212695
20510.003364,2146.597232,-919.314598,11695.253884
20510.003687,3404.947333,0.000000,11103.089130
20510.004011,3775.050304,612.876398,10288.862594
20510.004334,2442.679609,536.266849,8808.450710
20510.004657,1110.308913,1378.971896,8142.265362
20510.004980,0.000000,306.438199,7994.224174
20510.005303,-1184.329507,-229.828649,8142.265362
20510.005626,-2590.720797,-153.219100,8068.244768
20510.005950,-3552.988522,-766.095498,7772.162391
20510.006273,-4293.194464,-1225.752797,7624.121203
20510.006596,-4441.235652,-1455.581446,7550.100608
20510.006919,-3701.029710,-1302.362347,7772.162391
20510.007242,-3182.885551,-1072.533697,7846.182985
20510.007565,-2886.803174,-1072.533697,8068.244768
20510.007889,-2368.659014,-1225.752797,9252.574275
20510.008212,-1332.370696,-1225.752797,10214.842000
20510.008535,-888.247130,-1455.581446,10658.965565
20510.008858,0.000000,-1762.019645,10807.006753
20510.009181,1924.535449,-995.924147,11547.212695
20510.009504,2442.679609,0.000000,11399.171507
20510.009828,2368.659014,995.924147,10881.027347
20510.010151,3182.885551,612.876398,10066.800811
20510.010474,2812.782580,766.095498,8882.471304
20510.010797,1554.432478,842.705048,8216.285956
20510.011120,0.000000,306.438199,7476.080014
20510.011443,-1702.473667,0.000000,6957.935855
20510.011767,-2442.679609,-459.657299,7402.059420
20510.012090,-2368.659014,-229.828649,7624.121203
20510.012413,-3256.906145,-612.876398,7179.997637
20510.012736,-3034.844362,-842.705048,7105.977043
20510.013059,-1850.514855,-766.095498,7179.997637
20510.013382,-592.164754,-459.657299,8142.265362
20510.013706,0.000000,0.000000,9474.636058
20510.014029,-518.144159,0.000000,9918.759623
20510.014352,0.000000,-1378.971896,9622.677246
20510.014675,296.082377,-2451.505594,10214.842000
20510.014998,222.061783,-2757.943793,11621.233289
20510.015321,592.164754,-2604.724693,12065.356855
20510.015645,1850.514855,-1685.410096,12139.377449
20510.015968,3256.906145,-1149.143247,11843.295072
20510.016291,3478.967927,306.438199,10436.903782
20510.016614,3182.885551,1149.143247,9400.615463
20510.016937,2886.803174,842.705048,9030.512492
20510.017260,2738.761985,1302.362347,8438.347739
20510.017584,1554.432478,1302.362347,8512.368333
20510.017907,-962.267725,383.047749,8142.265362
20510.018230,-2072.576638,-459.657299,7772.162391
20510.018553,-2590.720797,-842.705048,8068.244768
20510.018876,-3404.947333,-689.485948,7772.162391
20510.019199,-3923.091493,-306.438199,7698.141797
20510.019523,-3256.906145,-842.705048,7476.080014
20510.019846,-2072.576638,-536.266849,7031.956449
20510.020169,-1702.473667,-306.438199,7920.203579
20510.020492,-2146.597232,0.000000,8660.409521
20510.020815,-1998.556043,-842.705048,8734.430116
20510.021138,-666.185348,-1225.752797,9104.533087
20510.021462,222.061783,-1072.533697,10584.944971
20510.021785,-370.102971,-1455.581446,11325.150913
20510.022108,0.000000,-766.095498,11843.295072
20510.022431,1628.453072,-536.266849,10807.006753
20510.022754,2590.720797,0.000000,9918.759623
20510.023077,1110.308913,612.876398,9918.759623
20510.023401,148.041188,459.657299,9400.615463
20510.023724,-370.102971,0.000000,9104.533087
20510.024047,-740.205942,-842.705048,8364.327145
20510.024370,-2146.597232,-383.047749,8512.368333
20510.024693,-2590.720797,-612.876398,8216.285956
20510.025016,-2220.617826,-153.219100,7994.224174
20510.025340,-1702.473667,76.609550,8216.285956
20510.025663,-888.247130,612.876398,7550.100608
20510.025986,-370.102971,612.876398,6735.874072
20510.026309,0.000000,153.219100,7920.203579
20510.026632,296.082377,459.657299,8586.388927
20510.026955,0.000000,153.219100,9252.574275
20510.027279,-592.164754,-1225.752797,9474.636058
20510.027602,-444.123565,-1608.800546,9844.739029
20510.027925,296.082377,-2374.896044,9918.759623
20510.028248,518.144159,-1455.581446,10658.965565
20510.028571,1998.556043,-995.924147,11103.089130
20510.028894,2590.720797,-766.095498,10288.862594
20510.029218,3034.844362,76.609550,9474.636058
20510.029541,2590.720797,919.314598,9178.553681
20510.029864,2072.576638,995.924147,8586.388927
20510.030187,1480.411884,0.000000,8438.347739
20510.030510,962.267725,-306.438199,8216.285956
20510.030833,-962.267725,-919.314598,8068.244768
20510.031157,-1998.556043,-1225.752797,7698.141797
20510.031480,-2738.761985,-1302.362347,7624.121203
20510.031803,-2368.659014,-1608.800546,8142.265362
20510.032126,-1998.556043,-1378.971896,8216.285956
20510.032449,-1998.556043,-1378.971896,8660.409521
20510.032772,-1850.514855,-1455.581446,9474.636058
20510.033096,-1702.473667,-1838.629195,10584.944971
20510.033419,-1036.288319,-2145.067394,10881.027347
20510.033742,-814.226536,-2757.943793,10881.027347
20510.034065,0.000000,-2604.724693,11177.109724
20510.034388,518.144159,-2145.067394,11177.109724
20510.034711,1258.350101,-1532.190996,11325.150913
20510.035035,2072.576638,-612.876398,10955.047942
20510.035358,2960.823768,766.095498,9918.759623
20510.035681,2442.679609,689.485948,9030.512492
20510.036004,814.226536,919.314598,7698.141797
20510.036328,0.000000,612.876398,7179.997637
20510.036651,-740.205942,153.219100,7105.977043
20510.036974,-1850.514855,0.000000,6957.935855
20510.037297,-2220.617826,0.000000,6513.812290
20510.037620,-2738.761985,0.000000,7328.038826
20510.037944,-3330.926739,-383.047749,7105.977043
20510.038267,-3404.947333,-383.047749,7624.121203
20510.038590,-2516.700203,-1149.143247,7698.141797
20510.038913,-2368.659014,-1302.362347,8142.265362
20510.039237,-2294.638420,-1378.971896,9474.636058
20510.039560,-2368.659014,-2145.067394,10066.800811
20510.039883,-1776.494261,-2911.162892,10288.862594
20510.040206,-518.144159,-2911.162892,10732.986159
20510.040529,518.144159,-2145.067394,11843.295072
20510.040853,1406.391290,-1225.752797,12435.459826
20510.041176,2960.823768,-306.438199,11843.295072
20510.041499,4515.256246,153.219100,11399.171507
20510.041822,4589.276840,1302.362347,10140.821405
20510.042146,3404.947333,1608.800546,9104.533087
20510.042469,1554.432478,1072.533697,8438.347739
20510.042792,1110.308913,919.314598,8364.327145
20510.043115,-518.144159,153.219100,7920.203579
20510.043439,-1998.556043,-612.876398,7254.018232
20510.043762,-2960.823768,-459.657299,7105.977043
20510.044085,-3256.906145,-612.876398,7402.059420
20510.044408,-2886.803174,229.828649,7105.977043
20510.044731,-1924.535449,229.828649,7105.977043
20510.045055,-1480.411884,153.219100,7846.182985
20510.045378,-1110.308913,229.828649,8068.244768
20510.045701,-740.205942,-76.609550,9252.574275
20510.046024,-1332.370696,-1149.143247,9844.739029
20510.046348,-962.267725,-1608.800546,9918.759623
20510.046671,296.082377,-1762.019645,11029.068536
20510.046994,1554.432478,-1455.581446,11547.212695
20510.047317,1702.473667,-306.438199,11177.109724
20510.047641,1998.556043,-306.438199,10955.047942
20510.047964,2738.761985,-153.219100,9770.718434
20510.048287,2664.741391,153.219100,9548.656652
20510.048610,1406.391290,229.828649,9474.636058
20510.048933,-444.123565,-306.438199,8660.409521
20510.049257,-962.267725,-612.876398,8068.244768
20510.049580,-888.247130,-536.266849,8586.388927
20510.049903,-2368.659014,-1302.362347,8364.327145
20510.050226,-2664.741391,-689.485948,8290.306550
20510.050550,-2812.782580,-919.314598,7402.059420
20510.050873,-2072.576638,-919.314598,6661.853478
20510.051196,-1480.411884,-536.266849,7550.100608
20510.051519,-1258.350101,-383.047749,8364.327145
20510.051843,-1776.494261,-536.266849,9400.615463
20510.052166,-2220.617826,-1378.971896,9622.677246
20510.052489,-1850.514855,-2451.505594,10214.842000
20510.052812,-370.102971,-2451.505594,9992.780217
20510.053135,370.102971,-1991.848295,11177.109724
20510.053459,740.205942,-1455.581446,12213.398043
20510.053782,1776.494261,-689.485948,11103.089130
20510.054105,2812.782580,153.219100,10436.903782
20510.054428,2664.741391,689.485948,10288.862594
20510.054752,1258.350101,919.314598,8956.491898
20510.055075,148.041188,76.609550,7994.224174
20510.055398,-814.226536,-842.705048,8142.265362
20510.055721,-1924.535449,-766.095498,7698.141797
20510.056045,-2442.679609,0.000000,7846.182985
20510.056368,-3330.926739,-842.705048,7105.977043
20510.056691,-3478.967927,-1225.752797,7698.141797
20510.057014,-2590.720797,-842.705048,7772.162391
20510.057337,-1776.494261,-842.705048,7846.182985
20510.057661,0.000000,0.000000,8512.368333
20510.057984,0.000000,-229.828649,9178.553681
20510.058307,-888.247130,-612.876398,9918.759623
20510.058630,-370.102971,-1838.629195,10140.821405
20510.058954,1628.453072,-2451.505594,10807.006753
20510.059277,1924.535449,-2451.505594,11547.212695
20510.059600,1184.329507,-1378.971896,11843.295072
20510.059923,1850.514855,-1149.143247,11621.233289
20510.060247,3923.091493,-536.266849,10732.986159
20510.060570,3997.112087,383.047749,9992.780217
20510.060893,2886.803174,1455.581446,9400.615463
20510.061216,1184.329507,2145.067394,8142.265362
20510.061539,962.267725,919.314598,7328.038826
20510.061863,444.123565,459.657299,7402.059420
20510.062186,-1850.514855,459.657299,7105.977043
20510.062509,-3552.988522,229.828649,6809.894666
20510.062832,-3182.885551,0.000000,7105.977043
20510.063156,-3330.926739,-612.876398,7476.080014
20510.063479,-3701.029710,-1149.143247,7254.018232
20510.063802,-2886.803174,-1302.362347,8586.388927
20510.064125,-2516.700203,-1532.190996,8512.368333
20510.064448,-1998.556043,-1455.581446,9844.739029
20510.064772,-2368.659014,-1915.238745,9844.739029
20510.065095,-1036.288319,-2451.505594,10214.842000
20510.065418,592.164754,-1762.019645,11399.171507
20510.065741,1480.411884,-612.876398,11917.315666
20510.066065,2590.720797,-76.609550,12213.398043
20510.066388,3552.988522,459.657299,11251.130318
20510.066711,4219.173869,536.266849,10362.883188
20510.067034,3997.112087,1072.533697,9474.636058
20510.067358,2220.617826,842.705048,9474.636058
20510.067681,370.102971,153.219100,9104.533087
20510.068004,-592.164754,153.219100,7994.224174
20510.068327,-1776.494261,-995.924147,7476.080014
20510.068650,-2664.741391,-995.924147,7624.121203
20510.068974,-3552.988522,-1149.143247,7476.080014
20510.069297,-3701.029710,-842.705048,7698.141797
20510.069620,-2812.782580,-689.485948,7254.018232
20510.069943,-2146.597232,-459.657299,7031.956449
20510.070267,-2146.597232,-229.828649,7550.100608
20510.070590,-2590.720797,-383.047749,8364.327145
20510.070913,-2442.679609,-842.705048,9030.512492
20510.071236,-1998.556043,-1915.238745,9622.677246
20510.071560,-1406.391290,-2451.505594,10436.903782
20510.071883,-814.226536,-2604.724693,10955.047942
20510.072206,0.000000,-2145.067394,11917.315666
20510.072529,888.247130,-1302.362347,11917.315666
20510.072852,3108.864956,-306.438199,11103.089130
20510.073176,4293.194464,306.438199,9992.780217
20510.073499,4219.173869,1072.533697,9104.533087
20510.073822,3923.091493,1378.971896,9178.553681
20510.074145,3108.864956,1072.533697,8364.327145
20510.074469,1850.514855,995.924147,7846.182985
20510.074792,1110.308913,766.095498,7772.162391
20510.075115,222.061783,76.609550,6957.935855
20510.075438,-1480.411884,153.219100,7105.977043
20510.075762,-2220.617826,-766.095498,7179.997637
20510.076085,-1998.556043,-689.485948,7550.100608
20510.076408,-1702.473667,-995.924147,7624.121203
20510.076731,-2664.741391,-842.705048,8512.368333
20510.077054,-3034.844362,-1762.019645,9178.553681
20510.077378,-2812.782580,-1915.238745,9844.739029
20510.077701,-2072.576638,-2374.896044,10584.944971
20510.078024,-888.247130,-1838.629195,11621.233289
20510.078347,-814.226536,-1532.190996,11621.233289
20510.078671,0.000000,-1608.800546,11621.233289
20510.078994,1184.329507,-919.314598,10955.047942
20510.079317,2294.638420,76.609550,10510.924376
20510.079640,1628.453072,842.705048,10066.800811
20510.079964,1110.308913,766.095498,9400.615463
20510.080287,148.041188,612.876398,8512.368333
20510.080610,-592.164754,612.876398,8216.285956
20510.080933,-1480.411884,0.000000,8216.285956
20510.081256,-2294.638420,383.047749,7550.100608
20510.081580,-2738.761985,0.000000,7105.977043
20510.081903,-2368.659014,0.000000,6365.771101
20510.082226,-1702.473667,229.828649,6439.791695
20510.082549,-1924.535449,153.219100,7254.018232
20510.082873,-1850.514855,383.047749,7698.141797
20510.083196,-1924.535449,-229.828649,8290.306550
20510.083519,-1776.494261,-1378.971896,9326.594869
20510.083842,-1998.556043,-2221.676944,9548.656652
20510.084165,-592.164754,-2528.115143,10066.800811
20510.084489,740.205942,-1991.848295,11399.171507
20510.084812,1110.308913,-1608.800546,12139.377449
20510.085135,2220.617826,-766.095498,11843.295072
20510.085458,3478.967927,-306.438199,10658.965565
20510.085782,3775.050304,-229.828649,9992.780217
20510.086105,2812.782580,919.314598,9622.677246
20510.086428,1702.473667,536.266849,9400.615463
20510.086751,148.041188,-383.047749,8882.471304
20510.087075,-1332.370696,-919.314598,7698.141797
20510.087398,-2294.638420,-919.314598,7698.141797
20510.087721,-3182.885551,-1072.533697,7624.121203
20510.088044,-3775.050304,-1378.971896,7772.162391
20510.088367,-2590.720797,-995.924147,8142.265362
20510.088691,-1850.514855,-1149.143247,7476.080014
20510.089014,-2072.576638,-612.876398,7550.100608
20510.089337,-1184.329507,-612.876398,7846.182985
20510.089660,518.144159,-153.219100,9030.512492
20510.089984,518.144159,-919.314598,10881.027347
20510.090307,444.123565,-1149.143247,10436.903782
20510.090630,1406.391290,-1378.971896,10214.842000
20510.090953,2146.597232,-1455.581446,11547.212695
20510.091277,2664.741391,-689.485948,11917.315666
20510.091600,2960.823768,0.000000,11251.130318
20510.091923,2442.679609,0.000000,10436.903782
20510.092246,2294.638420,0.000000,9474.636058
20510.092569,666.185348,536.266849,8956.491898
20510.092893,-1036.288319,0.000000,8660.409521
20510.093216,-2368.659014,-689.485948,7772.162391
20510.093539,-2886.803174,-766.095498,7105.977043
20510.093862,-3627.009116,-612.876398,7105.977043
20510.094186,-4663.297435,-842.705048,6883.915261
20510.094509,-4589.276840,-229.828649,6661.853478
20510.094832,-4071.132681,-536.266849,6661.853478
20510.095155,-2442.679609,-383.047749,6587.832884
20510.095479,-1332.370696,-459.657299,7698.141797
20510.095802,-2220.617826,-536.266849,9178.553681
20510.096125,-2072.576638,-689.485948,10362.883188
20510.096448,-370.102971,-1608.800546,10732.986159
20510.096771,1110.308913,-1225.752797,11029.068536
20510.097095,2072.576638,-1838.629195,11843.295072
20510.097418,2516.700203,-995.924147,12287.418637
20510.097741,3701.029710,0.000000,12139.377449
20510.098064,4959.379811,459.657299,10955.047942
20510.098388,4293.194464,1455.581446,10732.986159
20510.098711,2738.761985,1455.581446,9622.677246
20510.099034,1332.370696,612.876398,7920.203579
20510.099357,518.144159,459.657299,7772.162391
20510.099681,-962.267725,383.047749,7550.100608
20510.100004,-2664.741391,-306.438199,7031.956449
20510.100327,-3182.885551,-612.876398,6365.771101
20510.100650,-3627.009116,-766.095498,5921.647536
20510.100973,-3404.947333,-459.657299,5995.668130
20510.101297,-2664.741391,-383.047749,7105.977043
20510.101620,-1924.535449,-306.438199,7994.224174
20510.101943,-962.267725,-689.485948,8882.471304
20510.102266,-814.226536,-1532.190996,10436.903782
20510.102590,-1184.329507,-2221.676944,10288.862594
20510.102913,-222.061783,-2911.162892,10732.986159
20510.103236,1184.329507,-2911.162892,11843.295072
20510.103559,1554.432478,-1378.971896,13027.624579
20510.103882,2072.576638,-766.095498,12139.377449
20510.104206,3330.926739,-995.924147,10955.047942
20510.104529,3997.112087,-536.266849,9992.780217
20510.104852,3108.864956,919.314598,9474.636058
20510.105175,1776.494261,1378.971896,9400.615463
20510.105499,370.102971,766.095498,8290.306550
20510.105822,0.000000,76.609550,7846.182985
20510.106145,-962.267725,76.609550,7402.059420
20510.106468,-3701.029710,-383.047749,7624.121203
20510.106792,-4145.153275,-1149.143247,7105.977043
20510.107115,-3552.988522,-1532.190996,7031.956449
20510.107438,-3182.885551,-1378.971896,6883.915261
20510.107761,-3330.926739,-995.924147,7772.162391
20510.108084,-2812.782580,-995.924147,8512.368333
20510.108408,-2442.679609,-1072.533697,8956.491898
20510.108731,-1406.391290,-1991.848295,9474.636058
20510.109054,-1036.288319,-2451.505594,9992.780217
20510.109377,0.000000,-1915.238745,10288.862594
20510.109701,1480.411884,-1302.362347,11177.109724
20510.110024,2590.720797,-612.876398,11325.150913
20510.110347,3034.844362,76.609550,11029.068536
20510.110670,3552.988522,612.876398,10214.842000
20510.110994,3775.050304,689.485948,9622.677246
20510.111317,2368.659014,459.657299,8882.471304
20510.111640,1184.329507,306.438199,9252.574275
20510.111963,-1036.288319,-229.828649,8660.409521
20510.112286,-2368.659014,-1225.752797,8142.265362
20510.112610,-3330.926739,-1455.581446,7772.162391
20510.112933,-3552.988522,-766.095498,7698.141797
20510.113256,-3108.864956,-842.705048,8290.306550
20510.113579,-2664.741391,0.000000,7402.059420
20510.113903,-1184.329507,0.000000,6883.915261
20510.114226,-962.267725,536.266849,7254.018232
20510.114549,-666.185348,842.705048,8216.285956
20510.114872,-74.020594,229.828649,9918.759623
20510.115196,0.000000,-842.705048,9696.697840
20510.115519,666.185348,-1608.800546,9918.759623
20510.115842,814.226536,-1532.190996,9844.739029
20510.116165,1184.329507,-842.705048,11399.171507
20510.116488,1924.535449,-1302.362347,11695.253884
20510.116812,3108.864956,-536.266849,10807.006753
20510.117135,3256.906145,459.657299,10362.883188
20510.117458,2220.617826,995.924147,9844.739029
20510.117781,1258.350101,842.705048,9104.533087
20510.118105,814.226536,0.000000,7920.203579
20510.118428,-296.082377,0.000000,7550.100608
20510.118751,-1258.350101,76.609550,7994.224174
20510.119074,-2664.741391,-306.438199,8068.244768
20510.119398,-3330.926739,-612.876398,7698.141797
20510.119721,-3034.844362,-995.924147,7476.080014
20510.120044,-2516.700203,-766.095498,7105.977043
20510.120367,-1924.535449,-612.876398,7624.121203
20510.120690,-1332.370696,0.000000,8512.368333
20510.121014,-1184.329507,-995.924147,9474.636058
20510.121337,-1628.453072,-1378.971896,9992.780217
20510.121660,-962.267725,-2145.067394,9548.656652
20510.121983,518.144159,-2145.067394,10732.986159
20510.122307,1184.329507,-2145.067394,11769.274478
20510.122630,1332.370696,-459.657299,11917.315666
20510.122953,2220.617826,76.609550,11251.130318
20510.123276,2738.761985,-689.485948,9844.739029
20510.123600,2738.761985,-306.438199,9992.780217
20510.123923,444.123565,459.657299,9918.759623
20510.124246,-962.267725,459.657299,9326.594869
20510.124569,-592.164754,-612.876398,7698.141797
20510.124892,-1184.329507,-1072.533697,6883.915261
20510.125216,-2664.741391,-383.047749,7254.018232
20510.125539,-4367.215058,0.000000,7698.141797
20510.125862,-3182.885551,-536.266849,6587.832884
20510.126185,-2294.638420,-1149.143247,6735.874072
20510.126509,-2368.659014,-995.924147,7476.080014
20510.126832,-2738.761985,-842.705048,8586.388927
20510.127155,-2812.782580,-1685.410096,9030.512492
20510.127478,-2368.659014,-1762.019645,9992.780217
20510.127801,-1850.514855,-2987.772442,10362.883188
20510.128125,-1554.432478,-4213.525239,10214.842000
20510.128448,0.000000,-3600.648841,11769.274478
20510.128771,888.247130,-1991.848295,13027.624579
20510.129094,2146.597232,-766.095498,13027.624579
20510.129418,4071.132681,-229.828649,11399.171507
20510.129741,5403.503377,842.705048,10214.842000
20510.130064,4737.318029,1685.410096,9770.718434
20510.130387,2886.803174,2451.505594,9252.574275
20510.130711,1850.514855,1608.800546,8882.471304
20510.131034,888.247130,536.266849,8068.244768
20510.131357,-296.082377,153.219100,6809.894666
20510.131680,-2368.659014,153.219100,6513.812290
20510.132003,-2812.782580,383.047749,6365.771101
20510.132327,-2368.659014,76.609550,6735.874072
20510.132650,-2146.597232,612.876398,6957.935855
20510.132973,-1480.411884,919.314598,6735.874072
20510.133296,-1628.453072,842.705048,6809.894666
20510.133620,-1406.391290,0.000000,7698.141797
20510.133943,-962.267725,-766.095498,8956.491898
20510.134266,592.164754,-995.924147,10658.965565
20510.134589,518.144159,-459.657299,10807.006753
20510.134913,518.144159,-612.876398,11399.171507
20510.135236,1332.370696,-766.095498,11029.068536
20510.135559,2738.761985,-995.924147,11325.150913
20510.135882,2960.823768,0.000000,11251.130318
20510.136206,2146.597232,306.438199,10732.986159
20510.136529,962.267725,766.095498,9918.759623
20510.136852,-814.226536,459.657299,9622.677246
20510.137175,-1924.535449,-536.266849,8956.491898
20510.137499,-2664.741391,-2451.505594,8734.430116
20510.137822,-3256.906145,-1838.629195,8068.244768
20510.138145,-3256.906145,-842.705048,8142.265362
20510.138468,-3627.009116,0.000000,8216.285956
20510.138792,-2738.761985,0.000000,7846.182985
20510.139115,-2146.597232,-306.438199,7105.977043
20510.139438,-1406.391290,-612.876398,6291.750507
20510.139761,-1332.370696,383.047749,7698.141797
20510.140085,-1036.288319,0.000000,9326.594869
20510.140408,-370.102971,-1072.533697,9474.636058
20510.140731,518.144159,-1991.848295,9696.697840
20510.141054,1406.391290,-1991.848295,9918.759623
20510.141378,2072.576638,-1072.533697,11177.109724
20510.141701,2368.659014,-612.876398,11251.130318
20510.142024,3997.112087,229.828649,9918.759623
20510.142347,4145.153275,459.657299,9696.697840
20510.142671,2960.823768,766.095498,9770.718434
20510.142994,1480.411884,689.485948,9474.636058
20510.143317,0.000000,-383.047749,8438.347739
20510.143640,-1258.350101,-1149.143247,7031.956449
20510.143964,-2664.741391,-1225.752797,7772.162391
20510.144287,-3923.091493,-1532.190996,7698.141797
20510.144610,-4589.276840,-1225.752797,7920.203579
20510.144933,-4145.153275,-1149.143247,8216.285956
20510.145257,-3330.926739,-1225.752797,7402.059420
20510.145580,-2664.741391,-1532.190996,8068.244768
20510.145903,-1554.432478,-919.314598,8512.368333
20510.146226,0.000000,-995.924147,10066.800811
20510.146550,296.082377,-919.314598,11325.150913
20510.146873,592.164754,-1532.190996,11399.171507
20510.147196,1776.494261,-1608.800546,11473.192101
20510.147519,3034.844362,-1608.800546,11473.192101
20510.147843,3330.926739,-612.876398,11991.336260
20510.148166,3849.070898,306.438199,11029.068536
20510.148489,4811.338623,1149.143247,10214.842000
20510.148812,4589.276840,1225.752797,9770.718434
20510.149136,2516.700203,2145.067394,8216.285956
20510.149459,1036.288319,1915.238745,7105.977043
20510.149782,-370.102971,995.924147,6513.812290
20510.150105,-1332.370696,766.095498,6143.709319
20510.150429,-2368.659014,383.047749,6809.894666
20510.150752,-3849.070898,-766.095498,6957.935855
20510.151075,-5477.523971,-383.047749,6365.771101
20510.151399,-4663.297435,-919.314598,6587.832884
20510.151722,-4663.297435,-1302.362347,7402.059420
20510.152045,-4811.338623,-1991.848295,8290.306550
20510.152368,-4441.235652,-2221.676944,9326.594869
20510.152692,-3034.844362,-2298.286494,10436.903782
20510.153015,-1998.556043,-2451.505594,11177.109724
20510.153338,-1184.329507,-2451.505594,11695.253884
20510.153661,518.144159,-2451.505594,11917.315666
20510.153985,2072.576638,-1149.143247,12139.377449
20510.154308,3997.112087,0.000000,12731.542202
20510.154631,5033.400406,766.095498,12435.459826
20510.154954,4885.359217,1455.581446,10732.986159
20510.155278,3923.091493,1685.410096,9696.697840
20510.155601,2960.823768,1072.533697,9252.574275
20510.155924,148.041188,153.219100,8142.265362
20510.156247,-1702.473667,-383.047749,7328.038826
20510.156571,-2368.659014,-842.705048,7179.997637
20510.156894,-2664.741391,-842.705048,7105.977043
20510.157217,-3108.864956,-459.657299,6735.874072
20510.157540,-3034.844362,-459.657299,6439.791695
20510.157864,-2294.638420,-306.438199,5773.606348
20510.158187,-1332.370696,536.266849,6809.894666
20510.158510,-1110.308913,459.657299,7179.997637
20510.158833,-666.185348,153.219100,8216.285956
20510.159157,-962.267725,-1149.143247,9030.512492
20510.159480,-592.164754,-1685.410096,9474.636058
20510.159803,518.144159,-1685.410096,10732.986159
20510.160126,666.185348,-1915.238745,11251.130318
20510.160450,814.226536,-995.924147,11547.212695
20510.160773,2220.617826,-1302.362347,10807.006753
20510.161096,2664.741391,0.000000,10140.821405
20510.161419,2442.679609,459.657299,10658.965565
20510.161743,1406.391290,766.095498,9622.677246
20510.162066,518.144159,229.828649,9104.533087
20510.162389,74.020594,0.000000,9474.636058
20510.162712,-1332.370696,-612.876398,8882.471304
20510.163036,-2738.761985,-536.266849,8364.327145
20510.163359,-2664.741391,-1532.190996,8512.368333
20510.163682,-2294.638420,-995.924147,7994.224174
20510.164005,-2220.617826,-306.438199,8068.244768
20510.164329,-2146.597232,-229.828649,8216.285956
20510.164652,-1110.308913,-153.219100,8068.244768
20510.164975,-666.185348,-383.047749,8586.388927
20510.165298,-1480.411884,-995.924147,9400.615463
20510.165622,-592.164754,-1302.362347,10362.883188
20510.165945,-444.123565,-2068.457845,9918.759623
20510.166268,888.247130,-2221.676944,9918.759623
20510.166591,962.267725,-1149.143247,11029.068536
20510.166915,518.144159,-536.266849,10955.047942
20510.167238,1258.350101,0.000000,10362.883188
20510.167561,1998.556043,153.219100,8734.430116
20510.167884,1036.288319,689.485948,9104.533087
20510.168208,-1184.329507,76.609550,8512.368333
20510.168531,-2294.638420,-1225.752797,7254.018232
20510.168854,-2812.782580,-1685.410096,7105.977043
20510.169177,-3627.009116,-1378.971896,7476.080014
20510.169501,-3701.029710,-1072.533697,7920.203579
20510.169824,-3034.844362,-536.266849,8142.265362
20510.170147,-1998.556043,-459.657299,7920.203579
20510.170470,-1110.308913,-229.828649,8216.285956
20510.170794,-222.061783,0.000000,9030.512492
20510.171117,0.000000,-383.047749,10066.800811
20510.171440,222.061783,-612.876398,10066.800811
20510.171764,1184.329507,-1608.800546,10436.903782
20510.172087,1702.473667,-2298.286494,10732.986159
20510.172410,2072.576638,-1072.533697,11251.130318
20510.172733,2738.761985,-1532.190996,11843.295072
20510.173057,2886.803174,-766.095498,11029.068536
20510.173380,3552.988522,0.000000,10732.986159
20510.173703,3923.091493,1302.362347,10436.903782
20510.174026,3256.906145,1225.752797,9474.636058
20510.174350,2220.617826,1685.410096,8216.285956
20510.174673,814.226536,1378.971896,7328.038826
20510.174996,-1036.288319,919.314598,7105.977043
20510.175319,-2072.576638,-383.047749,7179.997637
20510.175643,-3404.947333,-689.485948,7031.956449
20510.175966,-4441.235652,-612.876398,6957.935855
20510.176289,-4515.256246,-842.705048,6957.935855
20510.176612,-3552.988522,-842.705048,6439.791695
20510.176936,-1924.535449,-1072.533697,7179.997637
20510.177259,-1554.432478,-689.485948,7772.162391
20510.177582,-2220.617826,0.000000,8808.450710
20510.177905,-1258.350101,-383.047749,9844.739029
20510.178229,814.226536,-1149.143247,10732.986159
20510.178552,2220.617826,-1149.143247,11621.233289
20510.178875,1924.535449,-689.485948,11695.253884
20510.179198,2442.679609,-536.266849,11843.295072
20510.179522,3627.009116,0.000000,11843.295072
20510.179845,4145.153275,459.657299,10807.006753
20510.180168,3330.926739,919.314598,9844.739029
20510.180491,1406.391290,153.219100,9252.574275
20510.180815,0.000000,-153.219100,9030.512492
20510.181138,-962.267725,-689.485948,9104.533087
20510.181461,-2072.576638,-995.924147,8216.285956
20510.181784,-3627.009116,-2145.067394,7772.162391
20510.182108,-4515.256246,-1302.362347,7105.977043
20510.182431,-4367.215058,-1302.362347,7254.018232
20510.182754,-4145.153275,-1149.143247,7254.018232
20510.183077,-3034.844362,-995.924147,6883.915261
20510.183401,-2664.741391,-1302.362347,7105.977043
20510.183724,-2220.617826,-536.266849,7772.162391
20510.184047,-1924.535449,-919.314598,9030.512492
20510.184370,-888.247130,-2145.067394,9326.594869
20510.184694,-592.164754,-1915.238745,9770.718434
20510.185017,0.000000,-2068.457845,10732.986159
20510.185340,1184.329507,-1532.190996,11547.212695
20510.185663,2368.659014,-766.095498,11991.336260
20510.185987,3701.029710,0.000000,11621.233289
20510.186310,4515.256246,536.266849,10807.006753
20510.186633,3627.009116,1685.410096,10140.821405
20510.186956,2442.679609,1072.533697,9474.636058
20510.187280,1628.453072,536.266849,8882.471304
20510.187603,-222.061783,0.000000,7920.203579
20510.187926,-592.164754,-536.266849,6883.915261
20510.188249,-1332.370696,-995.924147,6439.791695
20510.188573,-2294.638420,-1302.362347,6883.915261
20510.188896,-1628.453072,0.000000,7402.059420
20510.189219,-1036.288319,459.657299,7179.997637
20510.189542,-1776.494261,153.219100,7846.182985
20510.189866,-1184.329507,-153.219100,8068.244768
20510.190189,-814.226536,-612.876398,8290.306550
20510.190512,-296.082377,-1991.848295,9474.636058
20510.190836,-296.082377,-2451.505594,10362.883188
20510.191159,-518.144159,-2451.505594,11103.089130
20510.191482,0.000000,-2221.676944,12435.459826
20510.191805,814.226536,-2145.067394,12213.398043
20510.192129,1702.473667,-1915.238745,11473.192101
20510.192452,1332.370696,-1072.533697,11547.212695
20510.192775,2072.576638,0.000000,10436.903782
20510.193098,2072.576638,689.485948,9622.677246
20510.193422,1110.308913,1072.533697,9030.512492
20510.193745,-592.164754,1532.190996,7254.018232
20510.194068,-2146.597232,306.438199,6513.812290
20510.194391,-2072.576638,-76.609550,7254.018232
20510.194715,-3182.885551,0.000000,7772.162391
20510.195038,-2960.823768,0.000000,7550.100608
20510.195361,-3108.864956,-689.485948,7254.018232
20510.195684,-2812.782580,0.000000,7402.059420
20510.196008,-1924.535449,-153.219100,7994.224174
20510.196331,-2886.803174,-612.876398,9252.574275
20510.196654,-2368.659014,-1149.143247,9104.533087
20510.196977,-74.020594,-1225.752797,8956.491898
20510.197301,444.123565,-1302.362347,10214.842000
20510.197624,370.102971,-1302.362347,11103.089130
20510.197947,888.247130,-383.047749,10955.047942
20510.198270,2812.782580,536.266849,10807.006753
20510.198594,3849.070898,689.485948,10881.027347
20510.198917,3552.988522,1302.362347,9696.697840
20510.199240,2886.803174,1532.190996,9178.553681
20510.199563,1554.432478,1225.752797,9252.574275
20510.199887,518.144159,842.705048,8734.430116
20510.200210,-1036.288319,536.266849,7698.141797
20510.200533,-2590.720797,-1149.143247,7550.100608
20510.200856,-2886.803174,-383.047749,8068.244768
20510.201180,-3330.926739,-1072.533697,7698.141797
20510.201503,-2812.782580,-919.314598,7994.224174
20510.201826,-2442.679609,-459.657299,7698.141797
20510.202149,-2294.638420,459.657299,7772.162391
20510.202473,-1332.370696,229.828649,8290.306550
20510.202796,-666.185348,0.000000,8956.491898
20510.203119,0.000000,-919.314598,9918.759623
20510.203442,296.082377,-1149.143247,10436.903782
20510.203766,370.102971,-1762.019645,10362.883188
20510.204089,1628.453072,-1915.238745,11103.089130
20510.204412,2294.638420,-1532.190996,11917.315666
20510.204735,2294.638420,-1072.533697,11399.171507
20510.205059,3034.844362,-612.876398,10362.883188
20510.205382,2516.700203,153.219100,9474.636058
20510.205705,1998.556043,842.705048,9104.533087
20510.206028,1110.308913,76.609550,8586.388927
20510.206352,0.000000,-766.095498,7624.121203
20510.206675,-666.185348,-919.314598,7105.977043
20510.206998,-2368.659014,-536.266849,7624.121203
20510.207321,-3404.947333,-689.485948,7624.121203
20510.207645,-3330.926739,-919.314598,7328.038826
20510.207968,-2590.720797,-1915.238745,7105.977043
20510.208291,-2664.741391,-2298.286494,7402.059420
20510.208614,-3552.988522,-1991.848295,8068.244768
20510.208938,-3330.926739,-2145.067394,9252.574275
20510.209261,-2738.761985,-2528.115143,10362.883188
20510.209584,-1850.514855,-3140.991542,10732.986159
20510.209908,-1554.432478,-3217.601092,10807.006753
20510.210231,148.041188,-2374.896044,12139.377449
20510.210554,1776.494261,-2681.334243,12139.377449
20510.210877,2960.823768,-919.314598,11843.295072
20510.211201,4145.153275,-612.876398,11103.089130
20510.211524,3849.070898,459.657299,10288.862594
20510.211847,3182.885551,1302.362347,9770.718434
20510.212170,2368.659014,1378.971896,9474.636058
20510.212494,222.061783,153.219100,7994.224174
20510.212817,-1702.473667,-919.314598,6957.935855
20510.213140,-1776.494261,-842.705048,7550.100608
20510.213463,-2442.679609,-766.095498,7624.121203
20510.213787,-2960.823768,-383.047749,7698.141797
20510.214110,-3034.844362,0.000000,7105.977043
20510.214433,-2072.576638,306.438199,6365.771101
20510.214756,-1110.308913,383.047749,6735.874072
20510.215080,-962.267725,229.828649,7105.977043
20510.215403,-888.247130,306.438199,8438.347739
20510.215726,-888.247130,-229.828649,9622.677246
20510.216049,0.000000,-919.314598,10214.842000
20510.216373,666.185348,-1455.581446,10436.903782
20510.216696,1036.288319,-1915.238745,11103.089130
20510.217019,1184.329507,-536.266849,11621.233289
20510.217342,2886.803174,76.609550,11325.150913
20510.217666,4441.235652,1072.533697,11177.109724
20510.217989,3775.050304,1838.629195,10658.965565
20510.218312,2442.679609,2068.457845,9622.677246
20510.218635,1554.432478,1455.581446,8512.368333
20510.218959,222.061783,153.219100,7920.203579
20510.219282,-740.205942,536.266849,7846.182985
20510.219605,-1850.514855,306.438199,8364.327145
20510.219928,-2368.659014,-459.657299,7772.162391
20510.220252,-3182.885551,-459.657299,7402.059420
20510.220575,-3330.926739,-612.876398,6883.915261
20510.220898,-3478.967927,-919.314598,7328.038826
20510.221221,-2442.679609,-689.485948,8438.347739
20510.221545,-2220.617826,-995.924147,9400.615463
20510.221868,-2220.617826,-1455.581446,9400.615463
20510.222191,-1628.453072,-2451.505594,9326.594869
20510.222514,-148.041188,-1915.238745,10214.842000
20510.222838,666.185348,-1685.410096,10955.047942
20510.223161,1258.350101,-995.924147,11325.150913
20510.223484,2072.576638,-689.485948,10732.986159
20510.223807,2886.803174,-689.485948,9918.759623
20510.224131,2886.803174,0.000000,9770.718434
20510.224454,1776.494261,612.876398,9474.636058
20510.224777,0.000000,0.000000,9400.615463
20510.225100,-1184.329507,-1072.533697,8290.306550
20510.225424,-1554.432478,-1608.800546,8216.285956
20510.225747,-2146.597232,-1532.190996,8586.388927
20510.226070,-3330.926739,-1532.190996,8364.327145
20510.226393,-2960.823768,-1762.019645,7328.038826
20510.226717,-1554.432478,-1149.143247,7031.956449
20510.227040,-814.226536,-306.438199,7179.997637
20510.227363,-1110.308913,0.000000,8068.244768
20510.227686,-1184.329507,-306.438199,9030.512492
20510.228010,-370.102971,-1302.362347,9474.636058
20510.228333,-296.082377,-2145.067394,10140.821405
20510.228656,-592.164754,-2145.067394,10510.924376
20510.228980,-444.123565,-2528.115143,10732.986159
20510.229303,518.144159,-1991.848295,11399.171507
20510.229626,1480.411884,-1532.190996,11769.274478
20510.229949,2664.741391,-459.657299,11029.068536
20510.230273,2812.782580,153.219100,9992.780217
20510.230596,2664.741391,612.876398,9178.553681
20510.230919,2294.638420,1072.533697,8512.368333
20510.231242,444.123565,995.924147,7550.100608
20510.231566,-222.061783,612.876398,7476.080014
20510.231889,-740.205942,459.657299,7550.100608
20510.232212,-1998.556043,0.000000,7031.956449
20510.232535,-2738.761985,-459.657299,7624.121203
20510.232859,-2960.823768,-536.266849,7624.121203
20510.233182,-2516.700203,-229.828649,7476.080014
20510.233505,-1924.535449,-153.219100,7402.059420
20510.233828,-1332.370696,0.000000,8364.327145
20510.234152,-1184.329507,76.609550,9474.636058
20510.234475,-814.226536,-459.657299,10436.903782
20510.234798,370.102971,-919.314598,10584.944971
20510.235121,666.185348,-919.314598,11325.150913
20510.235444,518.144159,-842.705048,11325.150913
20510.235767,1184.329507,-995.924147,10955.047942
20510.236090,2220.617826,-229.828649,11251.130318
20510.236413,2368.659014,-229.828649,10881.027347
20510.236737,2220.617826,1072.533697,10214.842000
20510.237060,1036.288319,612.876398,9030.512492
20510.237383,370.102971,76.609550,8216.285956
20510.237706,-518.144159,0.000000,7994.224174
20510.238029,-1628.453072,229.828649,7179.997637
20510.238353,-2516.700203,-459.657299,7476.080014
20510.238676,-2590.720797,-766.095498,6661.853478
20510.238999,-2368.659014,-306.438199,7254.018232
20510.239322,-2368.659014,-766.095498,7179.997637
20510.239645,-2812.782580,-689.485948,7698.141797
20510.239969,-2442.679609,-995.924147,8216.285956
20510.240292,-2072.576638,-1072.533697,8734.430116
20510.240615,-2368.659014,-2528.115143,8438.347739
20510.240938,-1924.535449,-2681.334243,10066.800811
20510.241261,-592.164754,-2834.553343,11103.089130
20510.241585,1110.308913,-2757.943793,11399.171507
20510.241908,1554.432478,-2221.676944,11843.295072
20510.242231,2368.659014,-1072.533697,11769.274478
20510.242554,3627.009116,-229.828649,11325.150913
20510.242877,4515.256246,0.000000,10732.986159
20510.243201,4367.215058,919.314598,10214.842000
20510.243524,2590.720797,995.924147,9474.636058
20510.243847,888.247130,229.828649,9400.615463
20510.244170,-814.226536,-612.876398,8364.327145
20510.244493,-1480.411884,-1225.752797,7846.182985
20510.244817,-2886.803174,-1838.629195,7624.121203
20510.245140,-3997.112087,-1915.238745,7624.121203
20510.245463,-3701.029710,-1149.143247,7254.018232
20510.245786,-2960.823768,-459.657299,7105.977043
20510.246109,-2516.700203,-306.438199,7402.059420
20510.246433,-2294.638420,-229.828649,7846.182985
20510.246756,-2146.597232,-612.876398,8660.409521
20510.247079,-1332.370696,-766.095498,9474.636058
20510.247402,-592.164754,-1378.971896,9474.636058
20510.247725,-444.123565,-1532.190996,10066.800811
20510.248049,74.020594,-1149.143247,10807.006753
20510.248372,1480.411884,-306.438199,11399.171507
20510.248695,1924.535449,-153.219100,11251.130318
20510.249018,2072.576638,383.047749,10732.986159
20510.249341,2368.659014,766.095498,9844.739029
20510.249665,1776.494261,1378.971896,9474.636058
20510.249988,962.267725,1149.143247,8808.450710
20510.250311,0.000000,383.047749,7698.141797
20510.250634,-592.164754,1149.143247,7328.038826
20510.250957,-1332.370696,766.095498,8290.306550
20510.251281,-2072.576638,842.705048,7920.203579
20510.251604,-2146.597232,766.095498,7550.100608
20510.251927,-1702.473667,536.266849,7031.956449
20510.252250,-518.144159,842.705048,6957.935855
20510.252573,-1110.308913,919.314598,7402.059420
20510.252897,-1184.329507,689.485948,8586.388927
20510.253220,-1184.329507,0.000000,9252.574275
20510.253543,-296.082377,-995.924147,9992.780217
20510.253866,-518.144159,-1225.752797,10362.883188
20510.254189,74.020594,-1072.533697,10732.986159
20510.254513,962.267725,-919.314598,11325.150913
20510.254836,2368.659014,-153.219100,11473.192101
20510.255159,3701.029710,1149.143247,11103.089130
20510.255482,2960.823768,919.314598,10658.965565
20510.255805,1998.556043,842.705048,9326.594869
20510.256129,1036.288319,459.657299,8364.327145
20510.256452,518.144159,0.000000,7698.141797
20510.256775,-1110.308913,-919.314598,7476.080014
20510.257098,-2146.597232,-459.657299,7031.956449
20510.257421,-2294.638420,-842.705048,7179.997637
20510.257745,-2368.659014,-766.095498,7105.977043
20510.258068,-2442.679609,-1532.190996,6883.915261
20510.258391,-2368.659014,-766.095498,8068.244768
20510.258714,-1110.308913,-995.924147,8364.327145
20510.259038,-444.123565,-1225.752797,9030.512492
20510.259361,-444.123565,-2145.067394,10214.842000
20510.259684,-740.205942,-2298.286494,10436.903782
20510.260007,-444.123565,-3140.991542,11325.150913
20510.260330,148.041188,-3524.039291,10955.047942
20510.260654,962.267725,-3140.991542,11991.336260
20510.260977,1036.288319,-2451.505594,11843.295072
20510.261300,1406.391290,-1532.190996,11547.212695
20510.261623,2368.659014,-766.095498,10732.986159
20510.261946,2220.617826,-229.828649,9474.636058
20510.262270,1036.288319,-383.047749,9252.574275
20510.262593,-370.102971,-306.438199,8068.244768
20510.262916,-518.144159,-842.705048,7550.100608
20510.263239,-1554.432478,-1149.143247,7624.121203
20510.263562,-2368.659014,-1225.752797,7994.224174
20510.263886,-3478.967927,-995.924147,8216.285956
20510.264209,-3330.926739,-1378.971896,7105.977043
20510.264532,-2368.659014,-1685.410096,6883.915261
20510.264855,-2146.597232,-1302.362347,7254.018232
20510.265178,-2368.659014,-1455.581446,8586.388927
20510.265502,-1258.350101,-612.876398,9918.759623
20510.265825,-666.185348,-1532.190996,9474.636058
20510.266148,-148.041188,-2145.067394,9252.574275
20510.266471,0.000000,-1685.410096,9992.780217
20510.266794,1110.308913,-995.924147,11177.109724
20510.267118,2220.617826,0.000000,11843.295072
20510.267441,3108.864956,0.000000,11103.089130
20510.267764,2738.761985,766.095498,9844.739029
20510.268087,2368.659014,919.314598,9178.553681
20510.268410,1480.411884,1072.533697,9844.739029
20510.268734,296.082377,766.095498,9474.636058
20510.269057,-1258.350101,229.828649,8734.430116
20510.269380,-2516.700203,-612.876398,7624.121203
20510.269703,-2812.782580,-766.095498,7476.080014
20510.270026,-3108.864956,-153.219100,7920.203579
20510.270350,-3034.844362,306.438199,7994.224174
20510.270673,-2294.638420,766.095498,7254.018232
20510.270996,-370.102971,1225.752797,7254.018232
20510.271319,148.041188,2298.286494,7402.059420
20510.271642,74.020594,1302.362347,8364.327145
20510.271966,296.082377,1608.800546,9030.512492
20510.272289,666.185348,306.438199,9474.636058
20510.272612,1036.288319,-459.657299,9770.718434
20510.272935,740.205942,-842.705048,10066.800811
20510.273258,666.185348,-689.485948,10584.944971
20510.273582,1184.329507,-153.219100,11029.068536
20510.273905,1924.535449,-76.609550,10955.047942
20510.274228,2590.720797,306.438199,10436.903782
20510.274551,2146.597232,1302.362347,9104.533087
20510.274874,1110.308913,919.314598,9178.553681
20510.275198,0.000000,153.219100,8660.409521
20510.275521,-1036.288319,-153.219100,8142.265362
20510.275844,-1850.514855,-919.314598,8142.265362
20510.276167,-2516.700203,-1532.190996,7846.182985
20510.276490,-4071.132681,-1225.752797,7772.162391
20510.276814,-3330.926739,-536.266849,7772.162391
20510.277137,-2516.700203,-1225.752797,8216.285956
20510.277460,-1924.535449,-1762.019645,7920.203579
20510.277783,-1628.453072,-1378.971896,8142.265362
20510.278106,-1406.391290,-1225.752797,9030.512492
20510.278430,0.000000,-1532.190996,10066.800811
20510.278753,74.020594,-1915.238745,10584.944971
20510.279076,1110.308913,-1532.190996,10658.965565
20510.279399,2072.576638,-1915.238745,10881.027347
20510.279722,1998.556043,-1302.362347,11547.212695
20510.280046,2442.679609,-995.924147,11695.253884
20510.280369,3701.029710,-306.438199,11177.109724
20510.280692,3034.844362,-612.876398,10362.883188
20510.281015,1036.288319,-229.828649,8586.388927
20510.281338,-1184.329507,0.000000,8290.306550
20510.281662,-1184.329507,-1532.190996,7772.162391
20510.281985,-2220.617826,-1991.848295,7772.162391
20510.282308,-3478.967927,-1685.410096,8068.244768
20510.282631,-4589.276840,-1762.019645,7846.182985
20510.282954,-4589.276840,-1532.190996,7698.141797
20510.283278,-3330.926739,-1838.629195,7328.038826
20510.283601,-2812.782580,-766.095498,6809.894666
20510.283924,-2960.823768,-995.924147,7254.018232
20510.284247,-2368.659014,-919.314598,8512.368333
20510.284570,-1110.308913,-1378.971896,9770.718434
20510.284894,-1036.288319,-2068.457845,10510.924376
20510.285217,-962.267725,-2145.067394,10214.842000
20510.285540,518.144159,-2451.505594,10658.965565
20510.285863,2442.679609,-1225.752797,11621.233289
20510.286186,3997.112087,0.000000,12583.501014
20510.286510,4589.276840,306.438199,11547.212695
20510.286833,5403.503377,1838.629195,10436.903782
20510.287156,5255.462188,2528.115143,9918.759623
20510.287479,3923.091493,2604.724693,9178.553681
20510.287802,1850.514855,1685.410096,7994.224174
20510.288126,0.000000,1225.752797,7550.100608
20510.288449,-2146.597232,0.000000,7476.080014
20510.288772,-4441.235652,-689.485948,7476.080014
20510.289095,-5625.565159,-1149.143247,7698.141797
20510.289418,-6217.729913,-1762.019645,7402.059420
20510.289742,-5551.544565,-1378.971896,7179.997637
20510.290065,-4811.338623,-919.314598,7328.038826
20510.290388,-3552.988522,-459.657299,8216.285956
20510.290711,-2368.659014,-612.876398,8586.388927
20510.291034,-1554.432478,-766.095498,9104.533087
20510.291358,222.061783,0.000000,9696.697840
20510.291681,1628.453072,0.000000,9918.759623
20510.292004,2738.761985,0.000000,10584.944971
20510.292327,3701.029710,306.438199,11177.109724
20510.292650,4737.318029,1072.533697,10881.027347
20510.292974,5921.647536,1532.190996,10807.006753
20510.293297,4737.318029,1838.629195,9844.739029
20510.293620,3849.070898,1608.800546,9548.656652
20510.293943,2294.638420,842.705048,8734.430116
20510.294266,518.144159,153.219100,8216.285956
20510.294590,-666.185348,-383.047749,7476.080014
20510.294913,-1110.308913,-229.828649,7476.080014
20510.295236,-1702.473667,-153.219100,8438.347739
20510.295559,-3182.885551,0.000000,8586.388927
20510.295882,-3701.029710,-459.657299,7698.141797
20510.296206,-3627.009116,-919.314598,7254.018232
20510.296529,-3330.926739,-1378.971896,7846.182985
20510.296852,-3330.926739,-1532.190996,8586.388927
20510.297175,-3182.885551,-2451.505594,9474.636058
20510.297498,-2738.761985,-2834.553343,10066.800811
20510.297822,-1480.411884,-2604.724693,10510.924376
20510.298145,-814.226536,-2374.896044,10584.944971
20510.298468,-296.082377,-2374.896044,11029.068536
20510.298791,1184.329507,-1225.752797,11399.171507
20510.299114,3256.906145,0.000000,11843.295072
20510.299438,4367.215058,1302.362347,10584.944971
20510.299761,3552.988522,1455.581446,9918.759623
20510.300084,1998.556043,0.000000,8512.368333
20510.300407,962.267725,-1225.752797,7254.018232
20510.300730,0.000000,-229.828649,7698.141797
20510.301054,-1110.308913,-229.828649,8290.306550
20510.301377,-2590.720797,-612.876398,7772.162391
20510.301700,-3034.844362,-1149.143247,7476.080014
20510.302023,-2960.823768,-1302.362347,6513.812290
20510.302346,-2442.679609,-1685.410096,6957.935855
20510.302670,-2368.659014,-995.924147,7846.182985
20510.302993,-1776.494261,-766.095498,8660.409521
20510.303316,-740.205942,-536.266849,9474.636058
20510.303639,0.000000,-1072.533697,10066.800811
20510.303962,-444.123565,-1685.410096,10732.986159
20510.304286,222.061783,-1991.848295,10362.883188
20510.304609,1258.350101,-2221.676944,11399.171507
20510.304932,1702.473667,-1685.410096,11251.130318
20510.305255,2072.576638,-689.485948,10881.027347
20510.305578,1998.556043,-306.438199,11325.150913
20510.305902,1480.411884,229.828649,9992.780217
20510.306225,888.247130,383.047749,9104.533087
20510.306548,222.061783,612.876398,8808.450710
20510.306871,-814.226536,76.609550,8068.244768
20510.307194,-1110.308913,919.314598,7550.100608
20510.307518,-1406.391290,0.000000,7476.080014
20510.307841,-2738.761985,306.438199,7920.203579
20510.308164,-3034.844362,689.485948,7550.100608
20510.308487,-2664.741391,0.000000,7254.018232
20510.308810,-2664.741391,-1072.533697,6809.894666
20510.309134,-2294.638420,0.000000,8142.265362
20510.309457,-1406.391290,-383.047749,9104.533087
20510.309780,-888.247130,-612.876398,9696.697840
20510.310103,0.000000,-1532.190996,9770.718434
20510.310426,0.000000,-1302.362347,9474.636058
20510.310750,1406.391290,-1225.752797,9918.759623
20510.311073,3849.070898,-383.047749,10510.924376
20510.311396,4663.297435,612.876398,11769.274478
20510.311719,4959.379811,995.924147,11251.130318
20510.312042,3775.050304,1762.019645,9622.677246
20510.312366,3849.070898,995.924147,8882.471304
20510.312689,2220.617826,919.314598,9104.533087
20510.313012,0.000000,612.876398,8808.450710
20510.313335,-1628.453072,-612.876398,8660.409521
20510.313658,-2960.823768,-1378.971896,7772.162391
20510.313982,-3923.091493,-1608.800546,7254.018232
20510.314305,-4737.318029,-1991.848295,8068.244768
20510.314628,-5255.462188,-995.924147,8808.450710
20510.314951,-4293.194464,-689.485948,8586.388927
20510.315274,-2738.761985,-766.095498,7772.162391
20510.315598,-2146.597232,-1225.752797,8438.347739
20510.315921,-2294.638420,-766.095498,9252.574275
20510.316244,-1998.556043,-1225.752797,9104.533087
20510.316567,0.000000,-2068.457845,9326.594869
20510.316890,1110.308913,-1608.800546,9918.759623
20510.317214,1776.494261,-306.438199,10140.821405
20510.317537,2072.576638,0.000000,11177.109724
20510.317860,2886.803174,-229.828649,10510.924376
20510.318183,3997.112087,306.438199,9918.759623
20510.318506,3775.050304,306.438199,10288.862594
20510.318830,1924.535449,842.705048,9474.636058
20510.319153,740.205942,1149.143247,8882.471304
20510.319476,0.000000,-919.314598,8290.306550
20510.319799,-1332.370696,-1302.362347,8290.306550
20510.320122,-3034.844362,-1532.190996,8068.244768
20510.320446,-4367.215058,-1608.800546,7994.224174
20510.320769,-4293.194464,-2221.676944,7402.059420
20510.321092,-3701.029710,-1608.800546,7402.059420
20510.321415,-3997.112087,-1915.238745,7476.080014
20510.321738,-3330.926739,-1915.238745,8142.265362
20510.322062,-2442.679609,-1685.410096,8882.471304
20510.322385,-2072.576638,-1915.238745,9548.656652
20510.322708,-1184.329507,-1915.238745,10288.862594
20510.323031,0.000000,-2528.115143,10658.965565
20510.323354,1332.370696,-1838.629195,11473.192101
20510.323678,2590.720797,-612.876398,11473.192101
20510.324001,3034.844362,-612.876398,11621.233289
20510.324324,3997.112087,-229.828649,11029.068536
20510.324647,4441.235652,536.266849,10362.883188
20510.324971,3330.926739,1072.533697,9696.697840
20510.325294,1850.514855,689.485948,8808.450710
20510.325617,-518.144159,842.705048,7846.182985
20510.325940,-740.205942,-229.828649,7105.977043
20510.326263,-1702.473667,-383.047749,7550.100608
20510.326587,-2738.761985,-153.219100,7698.141797
20510.326910,-3701.029710,-229.828649,7328.038826
20510.327233,-2960.823768,-536.266849,7179.997637
20510.327556,-2220.617826,-842.705048,6735.874072
20510.327879,-2738.761985,-306.438199,7994.224174
20510.328203,-2294.638420,153.219100,8438.347739
20510.328526,-1480.411884,-689.485948,9474.636058
20510.328849,-962.267725,-1685.410096,9622.677246
20510.329172,-666.185348,-2145.067394,9696.697840
20510.329495,0.000000,-2068.457845,10658.965565
20510.329819,740.205942,-1149.143247,11399.171507
20510.330142,2442.679609,-229.828649,11473.192101
20510.330465,3775.050304,76.609550,11473.192101
20510.330788,3478.967927,1608.800546,11029.068536
20510.331111,3552.988522,2068.457845,9548.656652
20510.331435,3552.988522,1072.533697,8808.450710
20510.331758,1776.494261,919.314598,8586.388927
20510.332081,0.000000,766.095498,8068.244768
20510.332404,-1258.350101,612.876398,8216.285956
20510.332727,-2146.597232,0.000000,7476.080014
20510.333051,-2738.761985,-689.485948,7624.121203
20510.333374,-3701.029710,-842.705048,7402.059420
20510.333697,-3627.009116,-842.705048,7328.038826
20510.334020,-2368.659014,-1302.362347,7920.203579
20510.334343,-1776.494261,-919.314598,8290.306550
20510.334667,-1998.556043,-459.657299,9474.636058
20510.334990,-1184.329507,-919.314598,9992.780217
20510.335313,0.000000,-1762.019645,9030.512492
20510.335636,1258.350101,-1302.362347,9696.697840
20510.335959,1850.514855,-689.485948,11177.109724
20510.336282,2368.659014,0.000000,11843.295072
20510.336605,2960.823768,-459.657299,10881.027347
20510.336929,3108.864956,0.000000,10362.883188
20510.337252,2368.659014,229.828649,9844.739029
20510.337575,148.041188,-459.657299,9030.512492
20510.337898,666.185348,-536.266849,8734.430116
20510.338221,0.000000,-1149.143247,7772.162391
20510.338544,-1776.494261,-1225.752797,8882.471304
20510.338867,-2664.741391,-689.485948,8290.306550
20510.339190,-3182.885551,-689.485948,7328.038826
20510.339514,-2738.761985,-1302.362347,7328.038826
20510.339837,-2442.679609,-459.657299,7550.100608
20510.340160,-2220.617826,-306.438199,7698.141797
20510.340483,-1480.411884,-383.047749,8068.244768
20510.340806,-1036.288319,-383.047749,8512.368333
20510.341129,-1332.370696,-766.095498,9844.739029
20510.341452,-1258.350101,-1608.800546,10140.821405
20510.341775,-296.082377,-2834.553343,9918.759623
20510.342099,888.247130,-2451.505594,10214.842000
20510.342422,1258.350101,-1378.971896,11251.130318
20510.342745,1702.473667,-919.314598,11251.130318
20510.343068,2664.741391,383.047749,10807.006753
20510.343391,3775.050304,306.438199,10066.800811
20510.343714,2516.700203,919.314598,9622.677246
20510.344037,1258.350101,1225.752797,9326.594869
20510.344360,0.000000,612.876398,8808.450710
20510.344684,-1258.350101,-689.485948,7402.059420
20510.345007,-1998.556043,-306.438199,6143.709319
20510.345330,-3182.885551,-919.314598,7254.018232
20510.345653,-5033.400406,-766.095498,7624.121203
20510.345976,-4589.276840,-1225.752797,7920.203579
20510.346299,-3701.029710,-1225.752797,7920.203579
20510.346622,-2812.782580,-1072.533697,8216.285956
20510.346945,-1924.535449,-842.705048,8660.409521
20510.347269,-1332.370696,-689.485948,9326.594869
20510.347592,-370.102971,-536.266849,10436.903782
20510.347915,1036.288319,-689.485948,11177.109724
20510.348238,1554.432478,-1072.533697,10584.944971
20510.348561,1998.556043,-536.266849,11177.109724
20510.348884,3330.926739,-306.438199,11177.109724
20510.349207,4959.379811,995.924147,11325.150913
20510.349530,4663.297435,1149.143247,10658.965565
20510.349854,3775.050304,1915.238745,9918.759623
20510.350177,2590.720797,1532.190996,8660.409521
20510.350500,1184.329507,995.924147,7402.059420
20510.350823,-444.123565,459.657299,7254.018232
20510.351146,-1480.411884,0.000000,7179.997637
20510.351469,-2146.597232,-306.438199,6735.874072
20510.351792,-2738.761985,-153.219100,6661.853478
20510.352115,-3404.947333,229.828649,7105.977043
20510.352439,-3849.070898,-612.876398,6883.915261
20510.352762,-2886.803174,-689.485948,7105.977043
20510.353085,-1998.556043,-995.924147,8364.327145
20510.353408,-2294.638420,-919.314598,9400.615463
20510.353731,-2516.700203,-1302.362347,10066.800811
20510.354054,-1406.391290,-2374.896044,9918.759623
20510.354377,0.000000,-3140.991542,11177.109724
20510.354700,888.247130,-1762.019645,11991.336260
20510.355024,1554.432478,-1378.971896,12805.562797
20510.355347,3182.885551,-689.485948,12805.562797
20510.355670,4293.194464,153.219100,12435.459826
20510.355993,4515.256246,995.924147,11103.089130
20510.356316,3701.029710,1608.800546,9474.636058
20510.356639,2368.659014,1838.629195,8142.265362
20510.356962,0.000000,919.314598,7624.121203
20510.357285,-1184.329507,229.828649,7402.059420
20510.357609,-3330.926739,-612.876398,6809.894666
20510.357932,-4959.379811,-1378.971896,7254.018232
20510.358255,-5551.544565,-1838.629195,6735.874072
20510.358578,-4737.318029,-1915.238745,7328.038826
20510.358901,-4663.297435,-2221.676944,7105.977043
20510.359224,-4145.153275,-1302.362347,7031.956449
20510.359547,-2812.782580,-1072.533697,8068.244768
20510.359870,-1702.473667,-1685.410096,8956.491898
20510.360194,-814.226536,-1302.362347,9770.718434
20510.360517,0.000000,-1838.629195,9992.780217
20510.360840,1110.308913,-1915.238745,9844.739029
20510.361163,2590.720797,-2145.067394,10955.047942
20510.361486,3034.844362,-612.876398,11991.336260
20510.361809,3034.844362,0.000000,11843.295072
20510.362132,3478.967927,-842.705048,10955.047942
20510.362455,3182.885551,-306.438199,10510.924376
20510.362779,2220.617826,-459.657299,10066.800811
20510.363102,0.000000,-229.828649,9622.677246
20510.363425,-1036.288319,-1302.362347,9178.553681
20510.363748,-1184.329507,-1225.752797,8660.409521
20510.364071,-2664.741391,-919.314598,7846.182985
20510.364394,-2960.823768,-1149.143247,7698.141797
20510.364717,-3849.070898,-1302.362347,7698.141797
20510.365040,-3108.864956,-766.095498,7254.018232
20510.365364,-1776.494261,-306.438199,7402.059420
20510.365687,-1554.432478,153.219100,7698.141797
20510.366010,-1184.329507,0.000000,8068.244768
20510.366333,-444.123565,0.000000,9104.533087
20510.366656,148.041188,-1302.362347,9770.718434
20510.366979,814.226536,-1149.143247,9548.656652
20510.367302,1628.453072,-766.095498,10140.821405
20510.367625,2516.700203,0.000000,11399.171507
20510.367949,3182.885551,153.219100,11029.068536
20510.368272,3034.844362,1225.752797,11029.068536
20510.368595,2960.823768,2528.115143,9548.656652
20510.368918,2220.617826,2068.457845,9178.553681
20510.369241,444.123565,1225.752797,8142.265362
20510.369564,-1110.308913,536.266849,7772.162391
20510.369887,-2442.679609,0.000000,7328.038826
20510.370210,-3552.988522,0.000000,7402.059420
20510.370534,-3997.112087,-306.438199,7698.141797
20510.370857,-4367.215058,-383.047749,7846.182985
20510.371180,-3627.009116,-536.266849,7772.162391
20510.371503,-2220.617826,-229.828649,7846.182985
20510.371826,-1110.308913,-383.047749,8734.430116
20510.372149,-666.185348,0.000000,9622.677246
20510.372472,-592.164754,0.000000,10436.903782
20510.372795,148.041188,-689.485948,10140.821405
20510.373118,1628.453072,-1532.190996,10214.842000
20510.373442,1776.494261,-1378.971896,10362.883188
20510.373765,1776.494261,-1608.800546,11399.171507
20510.374088,2368.659014,-306.438199,11621.233289
20510.374411,3552.988522,153.219100,10436.903782
20510.374734,4145.153275,383.047749,9548.656652
20510.375057,2368.659014,1378.971896,9400.615463
20510.375380,1036.288319,1685.410096,8882.471304
20510.375703,74.020594,766.095498,8068.244768
20510.376027,-592.164754,0.000000,7105.977043
20510.376350,-2294.638420,-383.047749,7402.059420
20510.376673,-3701.029710,-842.705048,7402.059420
20510.376996,-4293.194464,-1455.581446,7328.038826
20510.377319,-4071.132681,-1762.019645,7402.059420
20510.377642,-3997.112087,-1302.362347,7624.121203
20510.377965,-2960.823768,-689.485948,7920.203579
20510.378288,-1628.453072,-1378.971896,8512.368333
20510.378612,-1776.494261,-1838.629195,8882.471304
20510.378935,-962.267725,-1455.581446,10288.862594
20510.379258,-444.123565,-1915.238745,10288.862594
20510.379581,1036.288319,-2068.457845,10732.986159
20510.379904,2294.638420,-1149.143247,11177.109724
20510.380227,2738.761985,-1225.752797,11251.130318
20510.380550,3701.029710,-306.438199,11843.295072
20510.380873,4145.153275,-842.705048,11103.089130
20510.381197,3701.029710,536.266849,10881.027347
20510.381520,2368.659014,612.876398,9918.759623
20510.381843,592.164754,-306.438199,8438.347739
20510.382166,-148.041188,-1149.143247,8438.347739
20510.382489,-1184.329507,-919.314598,8290.306550
20510.382812,-2738.761985,-1149.143247,8216.285956
20510.383135,-3849.070898,-1685.410096,7105.977043
20510.383458,-4145.153275,-1302.362347,7328.038826
20510.383782,-2812.782580,-766.095498,7328.038826
20510.384105,-2516.700203,-766.095498,7254.018232
20510.384428,-2590.720797,-536.266849,7476.080014
20510.384751,-2146.597232,-229.828649,8512.368333
20510.385074,-1332.370696,0.000000,8290.306550
20510.385397,-1110.308913,-1762.019645,8882.471304
20510.385720,-592.164754,-1915.238745,9474.636058
20510.386043,-74.020594,-1838.629195,10288.862594
20510.386367,1406.391290,-766.095498,10955.047942
20510.386690,2368.659014,-383.047749,11769.274478
20510.387013,3182.885551,306.438199,11177.109724
20510.387336,3775.050304,153.219100,9548.656652
20510.387659,4219.173869,919.314598,9844.739029
20510.387982,3256.906145,1685.410096,9918.759623
20510.388305,1850.514855,1762.019645,9178.553681
20510.388628,148.041188,459.657299,8364.327145
20510.388952,-814.226536,-306.438199,7920.203579
20510.389275,-1480.411884,0.000000,7846.182985
20510.389598,-2886.803174,-766.095498,8068.244768
20510.389921,-4441.235652,-612.876398,6957.935855
20510.390244,-3775.050304,-536.266849,7254.018232
20510.390567,-2738.761985,-612.876398,7105.977043
20510.390890,-2960.823768,-995.924147,7846.182985
20510.391213,-2960.823768,-995.924147,8956.491898
20510.391537,-2516.700203,-766.095498,9548.656652
20510.391860,-814.226536,-1455.581446,10214.842000
20510.392183,0.000000,-1378.971896,9992.780217
20510.392506,1332.370696,-1455.581446,10584.944971
20510.392829,2220.617826,-689.485948,12065.356855
20510.393152,3182.885551,153.219100,11547.212695
20510.393475,4367.215058,919.314598,10881.027347
20510.393798,4071.132681,1225.752797,9844.739029
20510.394122,2590.720797,1608.800546,9474.636058
20510.394445,2294.638420,1072.533697,8586.388927
20510.394768,814.226536,306.438199,7402.059420
20510.395091,-222.061783,153.219100,7402.059420
20510.395414,-1628.453072,536.266849,7846.182985
20510.395737,-2368.659014,0.000000,7550.100608
