#time,accel_x,accel_y,accel_z
1875.246947,-222.061783,1838.629195,10362.883188
1875.247268,518.144159,2681.334243,9178.553681
1875.247590,3256.906145,3447.429741,8512.368333
1875.247911,4219.173869,4136.915689,7846.182985
1875.248232,2590.720797,4136.915689,8068.244768
1875.248553,3108.864956,4366.744339,8512.368333
1875.248874,2738.761985,3600.648841,8068.244768
1875.249196,1702.473667,2145.067394,7550.100608
1875.249517,370.102971,842.705048,7476.080014
1875.249838,-1776.494261,1685.410096,7846.182985
1875.250159,-296.082377,1072.533697,8882.471304
1875.250480,74.020594,306.438199,9400.615463
1875.250801,-518.144159,766.095498,9474.636058
1875.251123,-888.247130,689.485948,9474.636058
1875.251444,0.000000,1685.410096,10881.027347
1875.251765,1776.494261,1149.143247,10584.944971
1875.252086,1628.453072,1685.410096,10436.903782
1875.252407,222.061783,1762.019645,10955.047942
1875.252729,1036.288319,2068.457845,10881.027347
1875.253050,2294.638420,1838.629195,10436.903782
1875.253371,1850.514855,1455.581446,9770.718434
1875.253692,1110.308913,1608.800546,9844.739029
1875.254013,814.226536,2221.676944,10066.800811
1875.254335,2812.782580,1685.410096,9326.594869
1875.254656,3552.988522,1915.238745,9918.759623
1875.254977,2664.741391,2451.505594,10214.842000
1875.255298,2886.803174,2604.724693,10362.883188
1875.255619,5033.400406,3140.991542,10066.800811
1875.255940,5773.606348,3753.867940,9770.718434
1875.256262,5329.482782,3983.696590,9474.636058
1875.256583,4737.318029,4749.792088,9252.574275
1875.256904,5181.441594,5286.058936,8364.327145
1875.257225,5181.441594,4596.572988,8290.306550
1875.257546,4071.132681,4749.792088,8364.327145
1875.257868,2516.700203,4749.792088,7476.080014
1875.258189,2886.803174,5056.230287,7254.018232
1875.258510,3256.906145,4979.620737,6957.935855
1875.258831,3182.885551,5822.325785,7105.977043
1875.259152,2664.741391,5439.278036,7476.080014
1875.259473,2368.659014,5592.497135,7476.080014
1875.259795,4145.153275,5592.497135,8364.327145
1875.260116,3701.029710,5515.887586,8882.471304
1875.260437,2738.761985,5745.716235,10288.862594
1875.260758,2146.597232,4749.792088,10510.924376
1875.261079,2072.576638,4290.134789,10510.924376
1875.261401,1480.411884,3600.648841,10288.862594
1875.261722,-222.061783,2987.772442,10066.800811
1875.262043,-962.267725,2757.943793,9918.759623
1875.262364,0.000000,2834.553343,9474.636058
1875.262685,814.226536,3140.991542,8956.491898
1875.263006,1184.329507,3830.477490,9474.636058
1875.263328,1332.370696,4673.182538,9030.512492
1875.263649,2886.803174,4903.011187,8956.491898
1875.263970,4145.153275,4596.572988,8808.450710
1875.264291,2368.659014,4366.744339,9252.574275
1875.264612,1406.391290,3677.258390,9844.739029
1875.264934,1480.411884,3447.429741,8734.430116
1875.265255,1258.350101,2451.505594,9104.533087
1875.265576,0.000000,1915.238745,9844.739029
1875.265897,-2664.741391,842.705048,10140.821405
1875.266218,-2294.638420,-536.266849,9696.697840
1875.266540,-1554.432478,-536.266849,9326.594869
1875.266861,-1998.556043,-995.924147,9400.615463
1875.267182,-1998.556043,-842.705048,9622.677246
1875.267503,-740.205942,0.000000,8808.450710
1875.267824,2220.617826,766.095498,9252.574275
1875.268145,1776.494261,229.828649,8882.471304
1875.268467,1184.329507,459.657299,9178.553681
1875.268788,2812.782580,919.314598,9400.615463
1875.269109,3775.050304,459.657299,8216.285956
1875.269430,4737.318029,383.047749,9326.594869
1875.269751,3182.885551,306.438199,10140.821405
1875.270073,2072.576638,153.219100,10288.862594
1875.270394,1998.556043,-919.314598,9548.656652
1875.270715,1406.391290,-2298.286494,9622.677246
1875.271036,-222.061783,-1149.143247,10658.965565
1875.271358,-962.267725,-1991.848295,11251.130318
1875.271679,-1184.329507,-1991.848295,11251.130318
1875.272000,-666.185348,-2068.457845,10362.883188
1875.272322,-1998.556043,-1608.800546,9696.697840
1875.272643,-2294.638420,-1608.800546,8882.471304
1875.272964,888.247130,76.609550,9474.636058
1875.273286,3034.844362,1762.019645,9178.553681
1875.273607,4293.194464,2834.553343,9474.636058
1875.273928,3701.029710,2834.553343,9252.574275
1875.274250,3923.091493,3370.820191,8734.430116
1875.274571,4367.215058,3140.991542,8512.368333
1875.274892,2738.761985,3370.820191,8512.368333
1875.275214,1406.391290,2681.334243,9474.636058
1875.275535,-962.267725,1838.629195,8808.450710
1875.275856,-1554.432478,229.828649,8734.430116
1875.276178,-2812.782580,0.000000,8142.265362
1875.276499,-4811.338623,-612.876398,7476.080014
1875.276820,-4293.194464,689.485948,8512.368333
1875.277142,-2220.617826,2068.457845,8660.409521
1875.277463,-518.144159,2757.943793,8438.347739
1875.277784,888.247130,3600.648841,8290.306550
1875.278106,222.061783,4519.963438,8364.327145
1875.278427,1332.370696,4673.182538,8734.430116
1875.278748,1332.370696,4596.572988,10140.821405
1875.279070,1036.288319,3983.696590,10658.965565
1875.279391,-444.123565,2834.553343,9696.697840
1875.279712,-1480.411884,1608.800546,8438.347739
1875.280034,-592.164754,1455.581446,8586.388927
1875.280355,-1184.329507,229.828649,9992.780217
1875.280676,-2146.597232,766.095498,10658.965565
1875.280998,-1480.411884,612.876398,10288.862594
1875.281319,-370.102971,689.485948,9104.533087
1875.281640,0.000000,1225.752797,8882.471304
1875.281962,-296.082377,1378.971896,9992.780217
1875.282283,-1184.329507,766.095498,10362.883188
1875.282604,-666.185348,766.095498,9844.739029
1875.282926,-888.247130,153.219100,8734.430116
1875.283247,-1554.432478,612.876398,8512.368333
1875.283568,-1998.556043,919.314598,8068.244768
1875.283889,-222.061783,842.705048,7772.162391
1875.284211,222.061783,153.219100,7476.080014
1875.284532,-370.102971,76.609550,7772.162391
1875.284853,370.102971,229.828649,9104.533087
1875.285175,888.247130,-383.047749,8438.347739
1875.285496,370.102971,-995.924147,9622.677246
1875.285817,-666.185348,-1915.238745,10881.027347
1875.286139,-1924.535449,-2451.505594,10807.006753
1875.286460,-444.123565,-1991.848295,10436.903782
1875.286781,148.041188,-2298.286494,9548.656652
1875.287103,0.000000,-1838.629195,10066.800811
1875.287424,0.000000,-995.924147,10510.924376
1875.287745,814.226536,-536.266849,9474.636058
1875.288067,2442.679609,-153.219100,8660.409521
1875.288388,2442.679609,306.438199,8216.285956
1875.288709,1258.350101,229.828649,8586.388927
1875.289031,1628.453072,-229.828649,8660.409521
1875.289352,962.267725,-612.876398,8290.306550
1875.289673,74.020594,-1685.410096,8882.471304
1875.289995,-1628.453072,-2221.676944,9326.594869
1875.290316,-2516.700203,-2145.067394,9548.656652
1875.290637,-592.164754,-1838.629195,10510.924376
1875.290959,-370.102971,-1455.581446,10436.903782
1875.291280,-666.185348,-459.657299,10658.965565
1875.291601,-444.123565,-153.219100,9844.739029
1875.291923,296.082377,536.266849,9548.656652
1875.292244,1702.473667,842.705048,9696.697840
1875.292565,0.000000,919.314598,9844.739029
1875.292887,-1332.370696,842.705048,9622.677246
1875.293208,-962.267725,612.876398,8586.388927
1875.293529,-296.082377,306.438199,7920.203579
1875.293851,-592.164754,842.705048,8068.244768
1875.294172,-1776.494261,1149.143247,8882.471304
1875.294493,-1406.391290,1225.752797,9030.512492
1875.294815,444.123565,1072.533697,8512.368333
1875.295136,0.000000,919.314598,8438.347739
1875.295457,-962.267725,1685.410096,9548.656652
1875.295779,-1702.473667,1225.752797,9474.636058
1875.296100,-740.205942,1532.190996,9326.594869
1875.296421,-518.144159,383.047749,9696.697840
1875.296743,-2738.761985,842.705048,8956.491898
1875.297064,-2960.823768,919.314598,8586.388927
1875.297385,-1850.514855,919.314598,7846.182985
1875.297707,-370.102971,1225.752797,8660.409521
1875.298028,-370.102971,1608.800546,8882.471304
1875.298349,-1110.308913,1302.362347,8142.265362
1875.298671,222.061783,2068.457845,7402.059420
1875.298992,1110.308913,2145.067394,8364.327145
1875.299313,148.041188,1838.629195,9844.739029
1875.299635,-1036.288319,919.314598,10066.800811
1875.299956,-1110.308913,76.609550,9622.677246
1875.300277,148.041188,306.438199,9474.636058
1875.300599,-1184.329507,-612.876398,9474.636058
1875.300920,-1924.535449,-153.219100,10510.924376
1875.301241,-962.267725,-153.219100,10955.047942
1875.301563,-370.102971,-766.095498,9474.636058
1875.301884,740.205942,229.828649,9474.636058
1875.302205,370.102971,459.657299,8882.471304
1875.302527,370.102971,919.314598,8438.347739
1875.302848,1184.329507,995.924147,7846.182985
1875.303169,1628.453072,383.047749,8142.265362
1875.303491,0.000000,0.000000,8438.347739
1875.303812,0.000000,153.219100,8142.265362
1875.304133,1258.350101,0.000000,8660.409521
1875.304455,1776.494261,0.000000,9400.615463
1875.304776,444.123565,0.000000,10288.862594
1875.305097,518.144159,-919.314598,10436.903782
1875.305419,962.267725,-229.828649,9770.718434
1875.305740,1258.350101,-612.876398,9104.533087
1875.306061,1036.288319,-612.876398,10436.903782
1875.306383,-1554.432478,-919.314598,11029.068536
1875.306704,-666.185348,-1455.581446,10288.862594
1875.307025,-666.185348,-1838.629195,9474.636058
1875.307347,-1036.288319,-842.705048,8808.450710
1875.307668,-1776.494261,-766.095498,9474.636058
1875.307989,-962.267725,0.000000,9400.615463
1875.308311,1480.411884,-459.657299,9474.636058
1875.308632,962.267725,-229.828649,9178.553681
1875.308953,-592.164754,-153.219100,9030.512492
1875.309275,0.000000,-306.438199,9622.677246
1875.309596,0.000000,-612.876398,9474.636058
1875.309917,74.020594,-306.438199,10362.883188
1875.310239,-1258.350101,-995.924147,9844.739029
1875.310560,-1998.556043,-766.095498,9548.656652
1875.310881,-518.144159,0.000000,8808.450710
1875.311203,0.000000,229.828649,9252.574275
1875.311524,-296.082377,383.047749,9918.759623
1875.311845,0.000000,1072.533697,9474.636058
1875.312167,1776.494261,2528.115143,8660.409521
1875.312488,3256.906145,2911.162892,7846.182985
1875.312809,1258.350101,2068.457845,8586.388927
1875.313131,296.082377,1455.581446,9252.574275
1875.313452,-740.205942,1685.410096,9252.574275
1875.313773,0.000000,995.924147,8438.347739
1875.314095,-1332.370696,612.876398,8808.450710
1875.314416,-2664.741391,1225.752797,8734.430116
1875.314737,-2146.597232,1149.143247,8956.491898
1875.315059,-222.061783,1838.629195,9178.553681
1875.315380,-444.123565,1302.362347,9178.553681
1875.315701,-222.061783,2068.457845,9844.739029
1875.316023,0.000000,2298.286494,9252.574275
1875.316344,1850.514855,2451.505594,9400.615463
1875.316665,1628.453072,2221.676944,9104.533087
1875.316987,444.123565,1378.971896,9178.553681
1875.317308,-222.061783,2068.457845,8882.471304
1875.317629,370.102971,1685.410096,7772.162391
1875.317951,814.226536,1915.238745,8660.409521
1875.318272,296.082377,1991.848295,9622.677246
1875.318593,-814.226536,1608.800546,10140.821405
1875.318915,962.267725,1762.019645,9474.636058
1875.319236,1554.432478,1762.019645,9030.512492
1875.319557,444.123565,2145.067394,9178.553681
1875.319879,-370.102971,2068.457845,10066.800811
1875.320200,-814.226536,1532.190996,9622.677246
1875.320521,74.020594,766.095498,9030.512492
1875.320843,-1406.391290,76.609550,8808.450710
1875.321164,-2960.823768,0.000000,9030.512492
1875.321485,-1702.473667,306.438199,9400.615463
1875.321807,0.000000,76.609550,9474.636058
1875.322128,74.020594,153.219100,9696.697840
1875.322449,-370.102971,153.219100,9178.553681
1875.322771,-592.164754,306.438199,9030.512492
1875.323092,888.247130,459.657299,8882.471304
1875.323413,814.226536,76.609550,10066.800811
1875.323735,-148.041188,-383.047749,10658.965565
1875.324056,-666.185348,-536.266849,10066.800811
1875.324377,740.205942,-1072.533697,9474.636058
1875.324699,962.267725,-536.266849,9326.594869
1875.325020,0.000000,-459.657299,10362.883188
1875.325341,-222.061783,0.000000,10584.944971
1875.325663,740.205942,-229.828649,9474.636058
1875.325984,1702.473667,0.000000,8882.471304
1875.326305,1406.391290,689.485948,9104.533087
1875.326627,-444.123565,536.266849,9474.636058
1875.326948,-444.123565,-229.828649,9400.615463
1875.327269,-888.247130,-766.095498,9030.512492
1875.327591,-1776.494261,-995.924147,9104.533087
1875.327912,-2442.679609,-1072.533697,8808.450710
1875.328233,-2294.638420,-306.438199,8142.265362
1875.328555,148.041188,306.438199,9252.574275
1875.328876,-222.061783,229.828649,9178.553681
1875.329197,-444.123565,229.828649,9104.533087
1875.329519,148.041188,536.266849,8734.430116
1875.329840,962.267725,689.485948,8438.347739
1875.330161,814.226536,1302.362347,9992.780217
1875.330483,-518.144159,459.657299,10214.842000
1875.330804,-1184.329507,-612.876398,9474.636058
1875.331125,-148.041188,536.266849,9178.553681
1875.331447,222.061783,383.047749,8882.471304
1875.331768,-296.082377,1149.143247,9252.574275
1875.332089,-296.082377,1302.362347,10140.821405
1875.332411,814.226536,1685.410096,9622.677246
1875.332732,1998.556043,1915.238745,8808.450710
1875.333053,1332.370696,2374.896044,9400.615463
1875.333375,0.000000,2451.505594,10140.821405
1875.333696,148.041188,1838.629195,10140.821405
1875.334017,-148.041188,1685.410096,9844.739029
1875.334339,-1702.473667,0.000000,9252.574275
1875.334660,-3256.906145,76.609550,8956.491898
1875.334981,-2516.700203,153.219100,8512.368333
1875.335302,-1554.432478,689.485948,8956.491898
1875.335624,-1332.370696,689.485948,9252.574275
1875.335945,-740.205942,1225.752797,8882.471304
1875.336266,74.020594,1991.848295,8512.368333
1875.336588,2294.638420,2374.896044,8364.327145
1875.336909,2146.597232,2528.115143,8882.471304
1875.337230,518.144159,1991.848295,9326.594869
1875.337552,518.144159,1685.410096,9326.594869
1875.337873,888.247130,1302.362347,8068.244768
1875.338194,1110.308913,1072.533697,7920.203579
1875.338516,370.102971,536.266849,8808.450710
1875.338837,-1184.329507,1072.533697,9252.574275
1875.339158,518.144159,689.485948,9474.636058
1875.339480,1110.308913,689.485948,9622.677246
1875.339801,148.041188,919.314598,9474.636058
1875.340122,-296.082377,689.485948,9474.636058
1875.340444,0.000000,919.314598,9622.677246
1875.340765,518.144159,383.047749,9918.759623
1875.341086,-1184.329507,-459.657299,9178.553681
1875.341408,-2590.720797,-689.485948,9474.636058
1875.341729,-1776.494261,-766.095498,8956.491898
1875.342050,-1184.329507,-766.095498,8956.491898
1875.342372,-592.164754,-536.266849,9844.739029
1875.342693,-1184.329507,-536.266849,9622.677246
1875.343014,-592.164754,-306.438199,9252.574275
1875.343336,518.144159,383.047749,8364.327145
1875.343657,370.102971,-612.876398,8808.450710
1875.343978,-666.185348,-459.657299,9696.697840
1875.344300,-1406.391290,-842.705048,9696.697840
1875.344621,-370.102971,-1072.533697,9474.636058
1875.344942,-370.102971,-1838.629195,8734.430116
1875.345264,-1406.391290,-1302.362347,8586.388927
1875.345585,-1702.473667,-689.485948,9252.574275
1875.345906,-592.164754,-766.095498,9548.656652
1875.346228,444.123565,-766.095498,9252.574275
1875.346549,148.041188,-612.876398,9474.636058
1875.346870,-888.247130,0.000000,8808.450710
1875.347192,0.000000,-306.438199,8956.491898
1875.347513,0.000000,-536.266849,9400.615463
1875.347834,-1036.288319,-1149.143247,9474.636058
1875.348156,-1998.556043,-1149.143247,9548.656652
1875.348477,-1924.535449,-1149.143247,9178.553681
1875.348798,0.000000,-766.095498,9474.636058
1875.349120,-296.082377,-229.828649,9918.759623
1875.349441,-518.144159,76.609550,9696.697840
1875.349762,666.185348,612.876398,9770.718434
1875.350084,1628.453072,459.657299,8882.471304
1875.350405,1776.494261,612.876398,9400.615463
1875.350726,0.000000,612.876398,9622.677246
1875.351048,-1480.411884,0.000000,9326.594869
1875.351369,-1036.288319,-306.438199,8734.430116
1875.351690,-962.267725,-842.705048,8216.285956
1875.352012,-1184.329507,76.609550,8734.430116
1875.352333,-1184.329507,766.095498,8734.430116
1875.352654,0.000000,1225.752797,9474.636058
1875.352976,1406.391290,1149.143247,8586.388927
1875.353297,962.267725,919.314598,8956.491898
1875.353618,888.247130,1608.800546,9104.533087
1875.353940,1258.350101,2145.067394,9622.677246
1875.354261,1406.391290,1991.848295,9696.697840
1875.354582,1184.329507,1378.971896,9622.677246
1875.354904,-1406.391290,1072.533697,9252.574275
1875.355225,-962.267725,0.000000,8586.388927
1875.355546,-296.082377,689.485948,8438.347739
1875.355868,-148.041188,459.657299,8882.471304
1875.356189,0.000000,1378.971896,9918.759623
1875.356510,0.000000,1838.629195,9326.594869
1875.356832,2146.597232,1838.629195,8882.471304
1875.357153,1924.535449,1991.848295,8512.368333
1875.357474,962.267725,2298.286494,10066.800811
1875.357796,518.144159,1915.238745,9918.759623
1875.358117,148.041188,1149.143247,9252.574275
1875.358438,222.061783,689.485948,8586.388927
1875.358760,-740.205942,383.047749,8660.409521
1875.359081,-2516.700203,1378.971896,8438.347739
1875.359402,-962.267725,459.657299,9104.533087
1875.359724,-370.102971,689.485948,9178.553681
1875.360045,-666.185348,1149.143247,8512.368333
1875.360366,-592.164754,1149.143247,8808.450710
1875.360688,0.000000,1685.410096,9400.615463
1875.361009,1110.308913,1378.971896,9696.697840
1875.361330,-518.144159,766.095498,9474.636058
1875.361652,-1480.411884,766.095498,9696.697840
1875.361973,-1332.370696,0.000000,9252.574275
1875.362294,-962.267725,0.000000,8586.388927
1875.362616,-666.185348,-306.438199,9474.636058
1875.362937,-1776.494261,-536.266849,9992.780217
1875.363258,-1628.453072,-689.485948,9844.739029
1875.363580,0.000000,-612.876398,8882.471304
1875.363901,0.000000,-766.095498,8808.450710
1875.364222,-888.247130,0.000000,9548.656652
1875.364544,-1258.350101,-229.828649,9770.718434
1875.364865,74.020594,0.000000,9326.594869
1875.365186,444.123565,-766.095498,9104.533087
1875.365508,-888.247130,-842.705048,9030.512492
1875.365829,-1258.350101,-536.266849,9178.553681
1875.366150,0.000000,0.000000,8734.430116
1875.366472,1036.288319,-229.828649,9622.677246
1875.366793,592.164754,-612.876398,9474.636058
1875.367114,-814.226536,-612.876398,9178.553681
1875.367436,148.041188,0.000000,9104.533087
1875.367757,518.144159,-459.657299,9770.718434
1875.368078,-666.185348,-842.705048,10288.862594
1875.368400,-2146.597232,-1149.143247,9918.759623
1875.368721,-1702.473667,-1225.752797,8956.491898
1875.369042,-148.041188,-919.314598,8290.306550
1875.369364,296.082377,-306.438199,9326.594869
1875.369685,0.000000,306.438199,9770.718434
1875.370006,518.144159,536.266849,9770.718434
1875.370328,1776.494261,766.095498,9104.533087
1875.370650,2146.597232,766.095498,8808.450710
1875.370971,1850.514855,1302.362347,9030.512492
1875.371293,74.020594,1532.190996,9474.636058
1875.371614,444.123565,459.657299,9770.718434
1875.371936,296.082377,459.657299,9252.574275
1875.372257,-1184.329507,306.438199,9030.512492
1875.372579,-1850.514855,306.438199,8512.368333
1875.372900,-222.061783,1532.190996,8882.471304
1875.373222,1110.308913,1915.238745,9474.636058
1875.373543,370.102971,2068.457845,9030.512492
1875.373865,444.123565,1915.238745,9474.636058
1875.374186,814.226536,2451.505594,8586.388927
1875.374507,1406.391290,2374.896044,8438.347739
1875.374829,962.267725,2451.505594,9770.718434
1875.375150,-1036.288319,1838.629195,10066.800811
1875.375472,-814.226536,1608.800546,9474.636058
1875.375793,-592.164754,1072.533697,8142.265362
1875.376115,-592.164754,536.266849,8068.244768
1875.376436,-1480.411884,1455.581446,9474.636058
1875.376758,-1184.329507,1762.019645,9326.594869
1875.377079,814.226536,1838.629195,9622.677246
1875.377401,962.267725,1685.410096,9178.553681
1875.377722,74.020594,1838.629195,9178.553681
1875.378044,0.000000,1532.190996,9474.636058
1875.378365,0.000000,1302.362347,9104.533087
1875.378687,222.061783,995.924147,9252.574275
1875.379008,-962.267725,459.657299,9252.574275
1875.379330,-2146.597232,459.657299,8660.409521
1875.379651,-444.123565,383.047749,8882.471304
1875.379973,0.000000,1302.362347,8882.471304
1875.380294,74.020594,919.314598,9326.594869
1875.380616,370.102971,1225.752797,9622.677246
1875.380937,1258.350101,1685.410096,9992.780217
1875.381259,2516.700203,1762.019645,8882.471304
1875.381580,962.267725,1072.533697,9400.615463
1875.381901,-962.267725,612.876398,9918.759623
1875.382223,-1258.350101,229.828649,9696.697840
1875.382544,-740.205942,-383.047749,8512.368333
1875.382866,-962.267725,0.000000,8660.409521
1875.383187,-1998.556043,-919.314598,8808.450710
1875.383509,-2368.659014,-459.657299,9770.718434
1875.383830,-518.144159,-383.047749,8956.491898
1875.384152,-222.061783,-536.266849,9030.512492
1875.384473,-666.185348,0.000000,9326.594869
1875.384795,-370.102971,0.000000,9474.636058
1875.385116,814.226536,1225.752797,9474.636058
1875.385438,444.123565,153.219100,9770.718434
1875.385759,-888.247130,-1378.971896,9696.697840
1875.386081,-1184.329507,-995.924147,9696.697840
1875.386402,-296.082377,-689.485948,9252.574275
1875.386724,740.205942,-612.876398,9844.739029
1875.387045,814.226536,-842.705048,10510.924376
1875.387367,-296.082377,153.219100,10214.842000
1875.387688,888.247130,0.000000,9696.697840
1875.388010,1258.350101,153.219100,8956.491898
1875.388331,370.102971,689.485948,9474.636058
1875.388653,-814.226536,383.047749,10066.800811
1875.388974,-1258.350101,229.828649,9696.697840
1875.389296,0.000000,-536.266849,8660.409521
1875.389617,-1036.288319,0.000000,7698.141797
1875.389938,-1702.473667,229.828649,8068.244768
1875.390260,-1554.432478,612.876398,9474.636058
1875.390581,-518.144159,459.657299,8512.368333
1875.390903,444.123565,383.047749,8586.388927
1875.391224,-296.082377,919.314598,8734.430116
1875.391546,-814.226536,995.924147,8438.347739
1875.391867,74.020594,1302.362347,9252.574275
1875.392189,-444.123565,842.705048,9030.512492
1875.392510,-444.123565,1302.362347,9474.636058
1875.392832,-1184.329507,919.314598,9252.574275
1875.393153,74.020594,919.314598,9030.512492
1875.393475,1480.411884,1149.143247,8956.491898
1875.393796,814.226536,1991.848295,9696.697840
1875.394118,592.164754,2451.505594,10510.924376
1875.394439,1554.432478,2221.676944,9326.594869
1875.394761,2072.576638,1915.238745,8808.450710
1875.395082,1110.308913,2068.457845,9400.615463
1875.395404,-444.123565,1915.238745,9918.759623
1875.395725,-1258.350101,1149.143247,9178.553681
1875.396047,-814.226536,536.266849,8660.409521
1875.396368,-1702.473667,306.438199,8364.327145
1875.396690,-2220.617826,995.924147,8216.285956
1875.397011,-2442.679609,1072.533697,9030.512492
1875.397332,296.082377,995.924147,9030.512492
1875.397654,1110.308913,1455.581446,8734.430116
1875.397975,0.000000,1378.971896,8808.450710
1875.398297,888.247130,1455.581446,8734.430116
1875.398618,370.102971,1072.533697,8660.409521
1875.398940,1480.411884,1225.752797,8734.430116
1875.399261,0.000000,0.000000,9326.594869
1875.399583,-1406.391290,0.000000,9252.574275
1875.399904,-222.061783,0.000000,8438.347739
1875.400226,74.020594,153.219100,9104.533087
1875.400547,-296.082377,153.219100,10288.862594
1875.400869,-518.144159,383.047749,10288.862594
1875.401190,1036.288319,612.876398,10066.800811
1875.401512,2738.761985,689.485948,9400.615463
1875.401833,1406.391290,689.485948,8808.450710
1875.402155,666.185348,536.266849,10436.903782
1875.402476,370.102971,536.266849,10288.862594
1875.402798,-74.020594,-612.876398,9030.512492
1875.403119,-1184.329507,-1072.533697,9400.615463
1875.403441,-2738.761985,-1072.533697,9178.553681
1875.403762,-2294.638420,-919.314598,9474.636058
1875.404084,-1554.432478,-1072.533697,8956.491898
1875.404405,-296.082377,-612.876398,9326.594869
1875.404726,-1110.308913,-612.876398,9400.615463
1875.405048,-888.247130,0.000000,8512.368333
1875.405369,444.123565,459.657299,8882.471304
1875.405691,148.041188,229.828649,9178.553681
1875.406012,-1110.308913,-842.705048,9474.636058
1875.406334,-1332.370696,-383.047749,9030.512492
1875.406655,-518.144159,-1149.143247,8586.388927
1875.406977,0.000000,-536.266849,8364.327145
1875.407298,-518.144159,76.609550,9622.677246
1875.407620,-1554.432478,229.828649,9400.615463
1875.407941,0.000000,153.219100,9178.553681
1875.408263,1036.288319,383.047749,9252.574275
1875.408584,370.102971,995.924147,9400.615463
1875.408906,0.000000,919.314598,9992.780217
1875.409227,-222.061783,536.266849,10066.800811
1875.409549,518.144159,76.609550,9918.759623
1875.409870,-666.185348,-536.266849,9400.615463
1875.410192,-1554.432478,-306.438199,9178.553681
1875.410513,-1332.370696,0.000000,9474.636058
1875.410835,0.000000,536.266849,9696.697840
1875.411156,148.041188,229.828649,9474.636058
1875.411478,-296.082377,229.828649,8808.450710
1875.411799,-1036.288319,383.047749,8734.430116
1875.412120,148.041188,1072.533697,8586.388927
1875.412442,0.000000,383.047749,9548.656652
1875.412763,-1258.350101,229.828649,10140.821405
1875.413085,-1850.514855,0.000000,9400.615463
1875.413406,-592.164754,229.828649,9622.677246
1875.413728,370.102971,766.095498,8734.430116
1875.414049,-370.102971,536.266849,8956.491898
1875.414371,-370.102971,766.095498,9992.780217
1875.414692,1110.308913,1149.143247,9770.718434
1875.415014,1998.556043,1378.971896,9178.553681
1875.415335,1998.556043,1455.581446,9474.636058
1875.415657,296.082377,1608.800546,9178.553681
1875.415978,592.164754,1302.362347,9474.636058
1875.416300,962.267725,1225.752797,9474.636058
1875.416621,0.000000,383.047749,8882.471304
1875.416943,-1406.391290,153.219100,8734.430116
1875.417264,-1184.329507,383.047749,8216.285956
1875.417586,666.185348,919.314598,8512.368333
1875.417907,888.247130,995.924147,9104.533087
1875.418229,444.123565,1072.533697,9178.553681
1875.418550,666.185348,1225.752797,9252.574275
1875.418872,1036.288319,995.924147,8438.347739
1875.419193,1110.308913,919.314598,9548.656652
1875.419515,-444.123565,459.657299,10066.800811
1875.419836,-1850.514855,612.876398,9918.759623
1875.420157,-1628.453072,-383.047749,9030.512492
1875.420479,-1184.329507,-383.047749,8364.327145
1875.420800,-592.164754,0.000000,8808.450710
1875.421122,-740.205942,536.266849,9252.574275
1875.421443,148.041188,1072.533697,9770.718434
1875.421765,2146.597232,1072.533697,9770.718434
1875.422086,1406.391290,919.314598,9326.594869
1875.422408,962.267725,1455.581446,9474.636058
1875.422729,666.185348,1225.752797,9400.615463
1875.423051,740.205942,459.657299,9030.512492
1875.423372,222.061783,-229.828649,9474.636058
1875.423694,-2294.638420,-459.657299,8956.491898
1875.424015,-2368.659014,-689.485948,8586.388927
1875.424337,-1554.432478,-383.047749,8068.244768
1875.424658,-1406.391290,-306.438199,9252.574275
1875.424980,-1258.350101,306.438199,10066.800811
1875.425301,-1628.453072,842.705048,9104.533087
1875.425623,296.082377,383.047749,8290.306550
1875.425944,814.226536,536.266849,8882.471304
1875.426266,-1184.329507,536.266849,9918.759623
1875.426587,-1998.556043,0.000000,9622.677246
1875.426909,-1702.473667,-689.485948,8512.368333
1875.427230,-888.247130,-919.314598,8438.347739
1875.427551,-1110.308913,-76.609550,9030.512492
1875.427873,-1998.556043,-229.828649,9548.656652
1875.428194,-1184.329507,-536.266849,9770.718434
1875.428516,444.123565,-306.438199,9622.677246
1875.428837,518.144159,536.266849,9918.759623
1875.429159,74.020594,306.438199,9770.718434
1875.429480,1110.308913,766.095498,9918.759623
1875.429802,1702.473667,1302.362347,10066.800811
1875.430123,666.185348,0.000000,9400.615463
1875.430445,-814.226536,0.000000,9548.656652
1875.430766,-740.205942,0.000000,8660.409521
1875.431088,0.000000,0.000000,8290.306550
1875.431409,444.123565,229.828649,9400.615463
1875.431731,0.000000,536.266849,9622.677246
1875.432052,-148.041188,459.657299,9104.533087
1875.432374,962.267725,766.095498,8438.347739
1875.432695,444.123565,919.314598,8364.327145
1875.433017,-296.082377,1149.143247,9474.636058
1875.433338,-518.144159,766.095498,9400.615463
1875.433660,0.000000,612.876398,8956.491898
1875.433981,370.102971,459.657299,8882.471304
1875.434303,-962.267725,612.876398,8586.388927
1875.434624,-814.226536,689.485948,9548.656652
1875.434945,444.123565,1225.752797,9400.615463
1875.435267,1110.308913,1378.971896,9622.677246
1875.435588,1110.308913,1302.362347,10214.842000
1875.435910,0.000000,1225.752797,9696.697840
1875.436231,888.247130,1455.581446,9548.656652
1875.436553,666.185348,1378.971896,9400.615463
1875.436874,-222.061783,1149.143247,9474.636058
1875.437196,-1110.308913,995.924147,9474.636058
1875.437517,-666.185348,306.438199,8438.347739
1875.437839,592.164754,1072.533697,8142.265362
1875.438160,370.102971,1378.971896,8586.388927
1875.438482,-740.205942,1302.362347,9474.636058
1875.438803,0.000000,995.924147,9104.533087
1875.439125,1036.288319,1225.752797,8438.347739
1875.439446,1776.494261,1225.752797,8882.471304
1875.439768,444.123565,1302.362347,9474.636058
1875.440089,-1184.329507,1072.533697,9992.780217
1875.440411,-444.123565,153.219100,9548.656652
1875.440732,-296.082377,0.000000,8882.471304
1875.441054,-444.123565,766.095498,9326.594869
1875.441375,-1554.432478,306.438199,9178.553681
1875.441697,444.123565,1378.971896,9696.697840
1875.442018,2590.720797,1225.752797,9992.780217
1875.442339,1776.494261,1455.581446,9474.636058
1875.442661,518.144159,1685.410096,9326.594869
1875.442982,1480.411884,1455.581446,8956.491898
1875.443304,1110.308913,995.924147,9104.533087
1875.443625,74.020594,842.705048,9622.677246
1875.443947,-1258.350101,0.000000,10436.903782
1875.444268,-2590.720797,-459.657299,8068.244768
1875.444590,-1776.494261,-842.705048,7698.141797
1875.444911,-1702.473667,-689.485948,8660.409521
1875.445233,-2072.576638,-229.828649,10066.800811
1875.445554,-1258.350101,229.828649,9992.780217
1875.445876,518.144159,229.828649,9104.533087
1875.446197,1184.329507,612.876398,8364.327145
1875.446519,370.102971,766.095498,9030.512492
1875.446840,222.061783,536.266849,10510.924376
1875.447162,148.041188,229.828649,9622.677246
1875.447483,592.164754,0.000000,9474.636058
1875.447805,-296.082377,-536.266849,9474.636058
1875.448126,-1480.411884,-383.047749,9030.512492
1875.448448,-148.041188,0.000000,9474.636058
1875.448769,666.185348,383.047749,9770.718434
1875.449091,296.082377,-153.219100,10362.883188
1875.449412,-444.123565,536.266849,9918.759623
1875.449734,74.020594,842.705048,9178.553681
1875.450055,1184.329507,689.485948,9326.594869
1875.450376,-222.061783,0.000000,9770.718434
1875.450698,-2072.576638,229.828649,10436.903782
1875.451019,-1850.514855,-766.095498,9696.697840
1875.451341,-1406.391290,-229.828649,7994.224174
1875.451662,-1332.370696,0.000000,7920.203579
1875.451984,-2072.576638,536.266849,8882.471304
1875.452305,-1850.514855,306.438199,8882.471304
1875.452627,296.082377,1225.752797,8512.368333
1875.452948,1110.308913,1455.581446,8808.450710
1875.453270,666.185348,2298.286494,9104.533087
1875.453591,0.000000,1378.971896,9474.636058
1875.453913,592.164754,1455.581446,9326.594869
1875.454234,888.247130,842.705048,9622.677246
1875.454556,-666.185348,76.609550,9178.553681
1875.454877,-1702.473667,153.219100,9474.636058
1875.455199,-666.185348,229.828649,9326.594869
1875.455520,0.000000,766.095498,9548.656652
1875.455842,222.061783,0.000000,10584.944971
1875.456163,-740.205942,689.485948,9770.718434
1875.456485,0.000000,1225.752797,9474.636058
1875.456806,814.226536,1455.581446,9030.512492
1875.457128,0.000000,842.705048,9548.656652
1875.457449,-1184.329507,919.314598,8808.450710
1875.457770,-1184.329507,919.314598,9104.533087
1875.458092,814.226536,383.047749,8068.244768
1875.458413,222.061783,383.047749,8512.368333
1875.458735,74.020594,536.266849,9030.512492
1875.459056,296.082377,919.314598,9400.615463
1875.459378,888.247130,459.657299,9326.594869
1875.459699,1332.370696,612.876398,9400.615463
1875.460021,1258.350101,842.705048,9844.739029
1875.460342,444.123565,-612.876398,9548.656652
1875.460664,814.226536,383.047749,9622.677246
1875.460985,222.061783,-536.266849,9622.677246
1875.461307,-1036.288319,-383.047749,9622.677246
1875.461628,-1480.411884,-536.266849,9474.636058
1875.461950,0.000000,612.876398,9696.697840
1875.462271,1554.432478,612.876398,9696.697840
1875.462593,962.267725,1149.143247,9918.759623
1875.462914,888.247130,76.609550,9622.677246
1875.463236,1036.288319,459.657299,9326.594869
1875.463557,740.205942,306.438199,8586.388927
1875.463879,-222.061783,383.047749,9622.677246
1875.464200,-2294.638420,0.000000,10288.862594
1875.464522,-2294.638420,-995.924147,9770.718434
1875.464843,-1776.494261,-383.047749,8808.450710
1875.465164,-1850.514855,-1149.143247,8956.491898
1875.465486,-2516.700203,-536.266849,8956.491898
1875.465807,-1628.453072,-153.219100,9030.512492
1875.466129,740.205942,536.266849,8882.471304
1875.466450,1258.350101,1225.752797,8586.388927
1875.466772,814.226536,919.314598,8364.327145
1875.467093,444.123565,1378.971896,8956.491898
1875.467415,1480.411884,919.314598,8956.491898
1875.467736,1110.308913,766.095498,9992.780217
1875.468058,-518.144159,76.609550,9844.739029
1875.468379,-1628.453072,-306.438199,8808.450710
1875.468701,0.000000,0.000000,9104.533087
1875.469022,0.000000,153.219100,9326.594869
1875.469344,-592.164754,0.000000,10288.862594
1875.469665,-962.267725,536.266849,9844.739029
1875.469987,-222.061783,842.705048,9400.615463
1875.470308,1110.308913,919.314598,9178.553681
1875.470630,-370.102971,995.924147,9474.636058
1875.470951,-2368.659014,689.485948,9844.739029
1875.471273,-2442.679609,-153.219100,9104.533087
1875.471594,-1702.473667,-229.828649,8364.327145
1875.471916,-2072.576638,-383.047749,7476.080014
1875.472237,-2294.638420,-306.438199,8216.285956
1875.472558,-2664.741391,-153.219100,8660.409521
1875.472880,-814.226536,0.000000,8660.409521
1875.473201,0.000000,229.828649,8808.450710
1875.473523,0.000000,842.705048,9548.656652
1875.473844,148.041188,842.705048,9770.718434
1875.474165,1628.453072,842.705048,9400.615463
1875.474487,2368.659014,995.924147,9696.697840
1875.474808,370.102971,383.047749,10362.883188
1875.475129,0.000000,306.438199,10288.862594
1875.475450,740.205942,0.000000,8956.491898
1875.475772,1850.514855,306.438199,9104.533087
1875.476093,1480.411884,612.876398,10140.821405
1875.476414,444.123565,229.828649,10066.800811
1875.476736,1554.432478,1072.533697,9622.677246
1875.477057,1998.556043,612.876398,9030.512492
1875.477378,888.247130,689.485948,9104.533087
1875.477699,0.000000,766.095498,9770.718434
1875.478021,-740.205942,766.095498,9400.615463
1875.478342,666.185348,0.000000,8734.430116
1875.478663,-814.226536,-842.705048,8512.368333
1875.478985,-1554.432478,536.266849,8290.306550
1875.479306,-1036.288319,0.000000,8660.409521
1875.479627,-592.164754,-229.828649,8660.409521
1875.479948,0.000000,0.000000,9548.656652
1875.480270,-592.164754,306.438199,9474.636058
1875.480591,-1628.453072,76.609550,8882.471304
1875.480912,-296.082377,383.047749,8808.450710
1875.481234,-592.164754,306.438199,9178.553681
1875.481555,-814.226536,0.000000,9918.759623
1875.481876,-1480.411884,-153.219100,9844.739029
1875.482198,-370.102971,76.609550,9178.553681
1875.482519,1332.370696,689.485948,9474.636058
1875.482840,296.082377,1302.362347,9992.780217
1875.483161,0.000000,1532.190996,10436.903782
1875.483483,1998.556043,2451.505594,9622.677246
1875.483804,2590.720797,2221.676944,9326.594869
1875.484125,1998.556043,1685.410096,9844.739029
1875.484447,0.000000,1762.019645,9770.718434
1875.484768,-518.144159,1225.752797,9548.656652
1875.485089,-444.123565,536.266849,8660.409521
1875.485410,-1850.514855,383.047749,8364.327145
1875.485732,-2072.576638,0.000000,7698.141797
1875.486053,-2368.659014,995.924147,7846.182985
1875.486374,0.000000,1149.143247,8808.450710
1875.486696,0.000000,1072.533697,8956.491898
1875.487017,-962.267725,1302.362347,8956.491898
1875.487338,-518.144159,1225.752797,8512.368333
1875.487659,370.102971,1455.581446,8438.347739
1875.487981,370.102971,2068.457845,9992.780217
1875.488302,-1036.288319,1072.533697,9622.677246
1875.488623,-2072.576638,-153.219100,9474.636058
1875.488945,-814.226536,76.609550,9104.533087
1875.489266,0.000000,0.000000,9104.533087
1875.489587,-148.041188,766.095498,10436.903782
1875.489908,74.020594,536.266849,10658.965565
1875.490230,1406.391290,919.314598,10066.800811
1875.490551,3108.864956,1915.238745,9696.697840
1875.490872,1850.514855,1378.971896,9548.656652
1875.491194,1332.370696,1532.190996,10288.862594
1875.491515,666.185348,1378.971896,10140.821405
1875.491836,444.123565,536.266849,9696.697840
1875.492157,-74.020594,153.219100,9178.553681
1875.492479,-1924.535449,-1072.533697,8438.347739
1875.492800,-1406.391290,0.000000,7920.203579
1875.493121,-444.123565,0.000000,8216.285956
1875.493443,-1480.411884,-229.828649,8882.471304
1875.493764,-1258.350101,153.219100,9474.636058
1875.494085,-1554.432478,-76.609550,8808.450710
1875.494406,296.082377,229.828649,8438.347739
1875.494728,444.123565,383.047749,9400.615463
1875.495049,-962.267725,153.219100,9178.553681
1875.495370,-1036.288319,0.000000,10066.800811
1875.495692,-814.226536,-536.266849,8882.471304
1875.496013,-296.082377,-229.828649,8734.430116
1875.496334,-592.164754,0.000000,9030.512492
1875.496655,-592.164754,306.438199,9474.636058
1875.496977,370.102971,306.438199,10140.821405
1875.497298,1332.370696,306.438199,9548.656652
1875.497619,592.164754,1149.143247,9548.656652
1875.497941,518.144159,1072.533697,10214.842000
1875.498262,296.082377,766.095498,10214.842000
1875.498583,1554.432478,459.657299,9844.739029
1875.498904,518.144159,0.000000,9326.594869
1875.499226,-888.247130,-229.828649,9178.553681
1875.499547,-1110.308913,76.609550,8956.491898
1875.499868,-222.061783,-306.438199,9400.615463
1875.500190,444.123565,383.047749,9622.677246
1875.500511,-444.123565,229.828649,9252.574275
1875.500832,-1036.288319,459.657299,9178.553681
1875.501153,518.144159,766.095498,8438.347739
1875.501475,592.164754,1072.533697,8882.471304
1875.501796,-888.247130,1149.143247,9252.574275
1875.502117,-2294.638420,459.657299,8660.409521
1875.502439,-1184.329507,-536.266849,9474.636058
1875.502760,-444.123565,0.000000,8882.471304
1875.503081,-1036.288319,0.000000,8660.409521
1875.503402,-1998.556043,383.047749,9474.636058
1875.503724,-518.144159,766.095498,9696.697840
1875.504045,814.226536,842.705048,9474.636058
1875.504366,962.267725,1685.410096,9104.533087
1875.504688,148.041188,1455.581446,9548.656652
1875.505009,592.164754,1838.629195,9844.739029
1875.505330,1184.329507,1149.143247,9622.677246
1875.505651,222.061783,689.485948,9474.636058
1875.505973,-518.144159,536.266849,9474.636058
1875.506294,-814.226536,76.609550,8290.306550
1875.506615,444.123565,766.095498,8586.388927
1875.506937,888.247130,919.314598,9474.636058
1875.507258,-148.041188,1149.143247,9844.739029
1875.507579,592.164754,919.314598,9844.739029
1875.507901,962.267725,995.924147,8882.471304
1875.508222,1332.370696,612.876398,9326.594869
1875.508543,0.000000,842.705048,10140.821405
1875.508864,-1480.411884,0.000000,9622.677246
1875.509186,-1184.329507,76.609550,9104.533087
1875.509507,-740.205942,76.609550,8290.306550
1875.509828,-1258.350101,153.219100,8808.450710
1875.510150,-1332.370696,842.705048,9030.512492
1875.510471,222.061783,1455.581446,9696.697840
1875.510792,1850.514855,1532.190996,8586.388927
1875.511113,1924.535449,1532.190996,8438.347739
1875.511435,962.267725,2145.067394,9326.594869
1875.511756,962.267725,1378.971896,9326.594869
1875.512077,1258.350101,1072.533697,9474.636058
1875.512399,296.082377,919.314598,9548.656652
1875.512720,-1332.370696,0.000000,9178.553681
1875.513041,-1850.514855,-612.876398,8438.347739
1875.513362,-444.123565,-229.828649,8586.388927
1875.513684,-888.247130,-536.266849,8808.450710
1875.514005,-1184.329507,76.609550,9844.739029
1875.514326,-1184.329507,76.609550,9474.636058
1875.514648,666.185348,612.876398,8882.471304
1875.514969,1184.329507,536.266849,8808.450710
1875.515290,-592.164754,536.266849,9474.636058
1875.515611,-1258.350101,459.657299,9696.697840
1875.515933,-1036.288319,-383.047749,8956.491898
1875.516254,-962.267725,-1072.533697,8956.491898
1875.516575,-1924.535449,-766.095498,9252.574275
1875.516897,-2664.741391,-766.095498,9548.656652
1875.517218,-1406.391290,-306.438199,9844.739029
1875.517539,148.041188,-536.266849,9770.718434
1875.517860,518.144159,229.828649,9474.636058
1875.518182,0.000000,0.000000,9548.656652
1875.518503,222.061783,766.095498,9474.636058
1875.518824,1702.473667,612.876398,9918.759623
1875.519146,0.000000,-153.219100,9918.759623
1875.519467,-1036.288319,-842.705048,9474.636058
1875.519788,-1110.308913,-766.095498,9030.512492
1875.520109,-444.123565,-995.924147,8142.265362
1875.520431,0.000000,-306.438199,9030.512492
1875.520752,-666.185348,-153.219100,9400.615463
1875.521073,-1036.288319,-766.095498,9474.636058
1875.521395,370.102971,0.000000,8512.368333
1875.521716,888.247130,229.828649,8290.306550
1875.522037,518.144159,766.095498,9252.574275
1875.522358,-518.144159,766.095498,9252.574275
1875.522680,0.000000,306.438199,9696.697840
1875.523001,740.205942,0.000000,8882.471304
1875.523322,-444.123565,-459.657299,8808.450710
1875.523644,-1184.329507,76.609550,9326.594869
1875.523965,-296.082377,229.828649,9770.718434
1875.524286,1036.288319,383.047749,9992.780217
1875.524607,962.267725,536.266849,10140.821405
1875.524929,-370.102971,612.876398,9622.677246
1875.525250,444.123565,612.876398,8586.388927
1875.525571,1036.288319,1762.019645,9178.553681
1875.525893,-296.082377,612.876398,9622.677246
1875.526214,-962.267725,842.705048,10288.862594
1875.526535,-1332.370696,383.047749,8734.430116
1875.526856,518.144159,383.047749,7772.162391
1875.527178,296.082377,919.314598,8586.388927
1875.527499,-296.082377,1072.533697,9548.656652
1875.527820,518.144159,1685.410096,9622.677246
1875.528142,1850.514855,1532.190996,8956.491898
1875.528463,2442.679609,1149.143247,9030.512492
1875.528784,962.267725,1838.629195,9252.574275
1875.529105,-444.123565,1532.190996,9844.739029
1875.529427,148.041188,1072.533697,9918.759623
1875.529748,518.144159,766.095498,9252.574275
1875.530069,-666.185348,1225.752797,9030.512492
1875.530391,-1332.370696,1378.971896,8660.409521
1875.530712,-370.102971,1762.019645,9696.697840
1875.531033,666.185348,1532.190996,9474.636058
1875.531354,-518.144159,1378.971896,9178.553681
1875.531676,-666.185348,1532.190996,9400.615463
1875.531997,-592.164754,1302.362347,8512.368333
1875.532318,740.205942,1532.190996,8586.388927
1875.532640,-296.082377,1225.752797,10140.821405
1875.532961,-2590.720797,689.485948,9104.533087
1875.533282,-3034.844362,-153.219100,8808.450710
1875.533604,-1554.432478,-153.219100,7994.224174
1875.533925,-1110.308913,76.609550,8216.285956
1875.534246,-1554.432478,383.047749,9474.636058
1875.534567,-740.205942,612.876398,9622.677246
1875.534889,1110.308913,919.314598,9326.594869
1875.535210,1628.453072,919.314598,8512.368333
1875.535531,888.247130,612.876398,9326.594869
1875.535853,148.041188,766.095498,10436.903782
1875.536174,296.082377,459.657299,10214.842000
1875.536495,148.041188,-612.876398,10214.842000
1875.536816,-1332.370696,-1302.362347,9474.636058
1875.537138,-2220.617826,-153.219100,8956.491898
1875.537459,-1406.391290,-612.876398,8882.471304
1875.537780,-666.185348,-1378.971896,9696.697840
1875.538102,-1110.308913,-842.705048,10288.862594
1875.538423,-1110.308913,-383.047749,9992.780217
1875.538744,-666.185348,0.000000,9030.512492
1875.539065,1184.329507,0.000000,8586.388927
1875.539387,444.123565,0.000000,9474.636058
1875.539708,0.000000,-306.438199,9548.656652
1875.540029,-370.102971,-536.266849,9474.636058
1875.540351,74.020594,-536.266849,8586.388927
1875.540672,222.061783,-612.876398,8142.265362
1875.540993,-296.082377,-766.095498,8512.368333
1875.541314,-666.185348,0.000000,9178.553681
1875.541636,666.185348,536.266849,9474.636058
1875.541957,1702.473667,306.438199,9474.636058
1875.542278,666.185348,536.266849,9104.533087
1875.542600,0.000000,459.657299,8956.491898
1875.542921,518.144159,536.266849,9622.677246
1875.543242,1480.411884,383.047749,9474.636058
1875.543563,-296.082377,76.609550,9548.656652
1875.543885,-1036.288319,-383.047749,9770.718434
1875.544206,-222.061783,536.266849,9104.533087
1875.544527,148.041188,612.876398,9622.677246
1875.544849,222.061783,229.828649,10214.842000
1875.545170,-1258.350101,459.657299,9918.759623
1875.545491,0.000000,1149.143247,9548.656652
1875.545812,1332.370696,1455.581446,9252.574275
1875.546134,296.082377,1532.190996,9992.780217
1875.546455,-888.247130,1608.800546,9992.780217
1875.546776,-1184.329507,1225.752797,9252.574275
1875.547098,148.041188,1072.533697,8290.306550
1875.547419,-370.102971,995.924147,8290.306550
1875.547740,-1480.411884,1378.971896,8660.409521
1875.548061,-518.144159,1608.800546,9474.636058
1875.548383,74.020594,2068.457845,7772.162391
1875.548704,518.144159,1915.238745,9104.533087
1875.549025,0.000000,1991.848295,8512.368333
1875.549347,-1110.308913,2145.067394,8660.409521
1875.549668,0.000000,2068.457845,9474.636058
1875.549989,-296.082377,1149.143247,9326.594869
1875.550310,-1332.370696,842.705048,9252.574275
1875.550632,-1924.535449,842.705048,8438.347739
1875.550953,-444.123565,1532.190996,9104.533087
1875.551274,888.247130,1762.019645,9178.553681
1875.551596,518.144159,1685.410096,9992.780217
1875.551917,0.000000,1532.190996,10732.986159
1875.552238,888.247130,1762.019645,9918.759623
1875.552559,1406.391290,1302.362347,8734.430116
1875.552881,962.267725,1455.581446,9326.594869
1875.553202,-592.164754,1608.800546,10288.862594
1875.553523,-1332.370696,689.485948,9548.656652
1875.553845,-370.102971,-306.438199,8364.327145
1875.554166,-1110.308913,-229.828649,8586.388927
1875.554487,-1850.514855,0.000000,8734.430116
1875.554808,-962.267725,229.828649,8956.491898
1875.555130,666.185348,0.000000,9178.553681
1875.555451,1480.411884,383.047749,9770.718434
1875.555772,-370.102971,306.438199,8956.491898
1875.556094,518.144159,76.609550,9622.677246
1875.556415,0.000000,0.000000,9030.512492
1875.556736,222.061783,0.000000,9992.780217
1875.557057,-888.247130,-536.266849,10362.883188
1875.557379,-1998.556043,-1149.143247,8956.491898
1875.557700,-814.226536,-1378.971896,9030.512492
1875.558021,-592.164754,-536.266849,8660.409521
1875.558343,-518.144159,-612.876398,10066.800811
1875.558664,-962.267725,-536.266849,9548.656652
1875.558985,148.041188,-306.438199,9844.739029
1875.559306,2368.659014,229.828649,9548.656652
1875.559628,1480.411884,842.705048,9474.636058
1875.559949,-592.164754,153.219100,9178.553681
1875.560270,-444.123565,-306.438199,9844.739029
1875.560592,-444.123565,-919.314598,9770.718434
1875.560913,-148.041188,-1378.971896,9178.553681
1875.561234,-1406.391290,-1455.581446,8956.491898
1875.561556,-2072.576638,-1225.752797,8512.368333
1875.561877,-888.247130,-459.657299,9252.574275
1875.562198,-518.144159,-383.047749,9178.553681
1875.562519,0.000000,-229.828649,9030.512492
1875.562841,-148.041188,536.266849,8808.450710
1875.563162,1628.453072,689.485948,9178.553681
1875.563483,1406.391290,842.705048,9992.780217
1875.563805,0.000000,229.828649,9918.759623
1875.564126,-888.247130,229.828649,10214.842000
1875.564447,-370.102971,76.609550,8512.368333
1875.564768,74.020594,0.000000,8734.430116
1875.565090,-444.123565,689.485948,10066.800811
1875.565411,-1184.329507,919.314598,9770.718434
1875.565732,-592.164754,459.657299,8808.450710
1875.566054,518.144159,536.266849,8808.450710
1875.566375,0.000000,689.485948,8808.450710
1875.566696,-814.226536,1225.752797,9622.677246
1875.567017,-1036.288319,1378.971896,9474.636058
1875.567339,0.000000,766.095498,8882.471304
1875.567660,-1480.411884,383.047749,8216.285956
1875.567981,-2072.576638,0.000000,7624.121203
1875.568303,-1184.329507,689.485948,8216.285956
1875.568624,0.000000,1608.800546,9030.512492
1875.568945,1110.308913,1455.581446,9326.594869
1875.569266,370.102971,1455.581446,9474.636058
1875.569588,740.205942,1915.238745,9252.574275
1875.569909,1332.370696,1838.629195,8882.471304
1875.570230,1110.308913,1762.019645,8808.450710
1875.570552,814.226536,1915.238745,10066.800811
1875.570873,-296.082377,919.314598,9918.759623
1875.571194,148.041188,919.314598,9844.739029
1875.571515,1332.370696,689.485948,9474.636058
1875.571837,296.082377,536.266849,9178.553681
1875.572158,-296.082377,1532.190996,10214.842000
1875.572479,740.205942,1455.581446,10140.821405
1875.572801,1406.391290,1225.752797,9622.677246
1875.573122,1702.473667,1532.190996,9400.615463
1875.573443,-296.082377,1532.190996,9474.636058
1875.573764,-740.205942,919.314598,9252.574275
1875.574085,-370.102971,383.047749,8808.450710
1875.574407,-1406.391290,0.000000,8142.265362
1875.574728,-1850.514855,76.609550,8290.306550
1875.575049,-1998.556043,459.657299,7550.100608
1875.575370,0.000000,383.047749,8364.327145
1875.575691,444.123565,766.095498,9178.553681
1875.576013,0.000000,459.657299,9178.553681
1875.576334,296.082377,612.876398,9400.615463
1875.576655,1480.411884,842.705048,8438.347739
1875.576976,1702.473667,536.266849,9918.759623
1875.577297,444.123565,612.876398,10288.862594
1875.577618,-1480.411884,-306.438199,9770.718434
1875.577940,-518.144159,-153.219100,9030.512492
1875.578261,-370.102971,-536.266849,9178.553681
1875.578582,-888.247130,-536.266849,9474.636058
1875.578903,-1776.494261,-536.266849,10436.903782
1875.579224,-962.267725,-842.705048,10288.862594
1875.579546,444.123565,-459.657299,9474.636058
1875.579867,-296.082377,-153.219100,8882.471304
1875.580188,-1258.350101,0.000000,9622.677246
1875.580509,-1110.308913,76.609550,9622.677246
1875.580830,-1332.370696,-689.485948,9474.636058
1875.581152,-1184.329507,-612.876398,9030.512492
1875.581473,-2738.761985,-1302.362347,8882.471304
1875.581794,-2664.741391,-459.657299,8216.285956
1875.582115,-1110.308913,-689.485948,8142.265362
1875.582436,-740.205942,-612.876398,8734.430116
1875.582758,-592.164754,0.000000,10066.800811
1875.583079,-518.144159,0.000000,9252.574275
1875.583400,1036.288319,229.828649,8956.491898
1875.583721,2368.659014,229.828649,9326.594869
1875.584042,0.000000,306.438199,9992.780217
1875.584364,-740.205942,76.609550,10436.903782
1875.584685,-518.144159,-229.828649,9474.636058
1875.585006,222.061783,-383.047749,8808.450710
1875.585327,0.000000,-459.657299,9104.533087
1875.585648,-1258.350101,459.657299,9326.594869
1875.585970,148.041188,1225.752797,9696.697840
1875.586291,1850.514855,1149.143247,9770.718434
1875.586612,666.185348,995.924147,9104.533087
1875.586933,148.041188,1455.581446,8882.471304
1875.587254,0.000000,1532.190996,8956.491898
1875.587575,1480.411884,1455.581446,8660.409521
1875.587897,222.061783,612.876398,9326.594869
1875.588218,-1924.535449,766.095498,8734.430116
1875.588539,-1110.308913,0.000000,9252.574275
1875.588860,-592.164754,229.828649,8216.285956
1875.589181,0.000000,459.657299,9252.574275
1875.589503,-148.041188,612.876398,10066.800811
1875.589824,-740.205942,995.924147,9326.594869
1875.590145,1110.308913,1378.971896,9252.574275
1875.590466,1184.329507,1302.362347,8586.388927
1875.590787,814.226536,2528.115143,10066.800811
1875.591109,-444.123565,2068.457845,9918.759623
1875.591430,74.020594,919.314598,9548.656652
1875.591751,1184.329507,1149.143247,9104.533087
1875.592072,0.000000,919.314598,8882.471304
1875.592393,-592.164754,1532.190996,9992.780217
1875.592715,0.000000,1455.581446,9252.574275
1875.593036,518.144159,1072.533697,8734.430116
1875.593357,1332.370696,1838.629195,9104.533087
1875.593678,74.020594,1608.800546,9104.533087
1875.593999,-370.102971,1991.848295,9178.553681
1875.594321,222.061783,1608.800546,9400.615463
1875.594642,-444.123565,995.924147,8808.450710
1875.594963,-1110.308913,766.095498,9400.615463
1875.595284,-2072.576638,842.705048,7920.203579
1875.595605,-148.041188,689.485948,8068.244768
1875.595927,296.082377,459.657299,8216.285956
1875.596248,-962.267725,842.705048,9252.574275
1875.596569,-296.082377,689.485948,9844.739029
1875.596890,296.082377,919.314598,8808.450710
1875.597211,1036.288319,1149.143247,8956.491898
1875.597532,370.102971,766.095498,9622.677246
1875.597854,-1258.350101,-1149.143247,9918.759623
1875.598175,-1406.391290,-612.876398,9770.718434
1875.598496,-1110.308913,-995.924147,9252.574275
1875.598817,-1554.432478,-612.876398,9178.553681
1875.599138,-1702.473667,-612.876398,9696.697840
1875.599460,-1036.288319,229.828649,10288.862594
1875.599781,1184.329507,229.828649,9474.636058
1875.600102,740.205942,-76.609550,8956.491898
1875.600423,444.123565,76.609550,9400.615463
1875.600744,592.164754,689.485948,9178.553681
1875.601066,814.226536,306.438199,9326.594869
1875.601387,518.144159,0.000000,9548.656652
1875.601708,-1850.514855,-766.095498,9474.636058
1875.602029,-2072.576638,-1302.362347,8586.388927
1875.602350,-962.267725,-1072.533697,7920.203579
1875.602672,-888.247130,-842.705048,8512.368333
1875.602993,-962.267725,0.000000,10214.842000
1875.603314,-1332.370696,-536.266849,9844.739029
1875.603635,814.226536,-306.438199,8882.471304
1875.603956,1924.535449,229.828649,8956.491898
1875.604278,666.185348,536.266849,9252.574275
1875.604599,0.000000,766.095498,11103.089130
1875.604920,518.144159,0.000000,9844.739029
1875.605241,962.267725,-536.266849,9474.636058
1875.605562,222.061783,-383.047749,9030.512492
1875.605884,-1702.473667,-459.657299,8882.471304
1875.606205,-444.123565,536.266849,9474.636058
1875.606526,592.164754,306.438199,9326.594869
1875.606847,74.020594,612.876398,9992.780217
1875.607168,-518.144159,1072.533697,9474.636058
1875.607489,-296.082377,612.876398,8808.450710
1875.607811,1184.329507,536.266849,9252.574275
1875.608132,-592.164754,766.095498,9770.718434
1875.608453,-1998.556043,0.000000,9844.739029
1875.608774,-1776.494261,-229.828649,9622.677246
1875.609095,-962.267725,-383.047749,7994.224174
1875.609417,-592.164754,76.609550,8068.244768
1875.609738,-518.144159,919.314598,9252.574275
1875.610059,-1184.329507,995.924147,9400.615463
1875.610380,1258.350101,995.924147,9326.594869
1875.610701,1702.473667,1608.800546,8808.450710
1875.611023,1332.370696,1685.410096,9548.656652
1875.611344,148.041188,1838.629195,9844.739029
1875.611665,1332.370696,1762.019645,9474.636058
1875.611986,1850.514855,1149.143247,9622.677246
1875.612307,74.020594,1072.533697,8660.409521
1875.612629,-888.247130,612.876398,9622.677246
1875.612950,-296.082377,1072.533697,9474.636058
1875.613271,370.102971,919.314598,9548.656652
1875.613592,148.041188,766.095498,9622.677246
1875.613913,-962.267725,1378.971896,9474.636058
1875.614235,0.000000,1608.800546,8882.471304
1875.614556,444.123565,1378.971896,8660.409521
1875.614877,-814.226536,1608.800546,8882.471304
1875.615198,-1702.473667,1225.752797,9474.636058
1875.615519,-1776.494261,612.876398,8586.388927
1875.615841,222.061783,689.485948,7772.162391
1875.616162,74.020594,766.095498,8364.327145
1875.616483,-518.144159,766.095498,8808.450710
1875.616804,74.020594,1225.752797,9548.656652
1875.617125,1110.308913,1455.581446,9104.533087
1875.617447,2294.638420,1455.581446,9696.697840
1875.617768,1406.391290,1225.752797,9548.656652
1875.618089,0.000000,1072.533697,9622.677246
1875.618410,518.144159,919.314598,10362.883188
1875.618731,740.205942,306.438199,9770.718434
1875.619052,-740.205942,995.924147,9326.594869
1875.619374,-1406.391290,76.609550,9326.594869
1875.619695,-962.267725,229.828649,8660.409521
1875.620016,1332.370696,689.485948,9770.718434
1875.620337,-222.061783,689.485948,9844.739029
1875.620658,-1332.370696,612.876398,9326.594869
1875.620980,-148.041188,766.095498,8438.347739
1875.621301,-370.102971,536.266849,7550.100608
1875.621622,-740.205942,0.000000,8808.450710
1875.621943,-2664.741391,-383.047749,9474.636058
1875.622264,-3182.885551,-1149.143247,8956.491898
1875.622586,-1850.514855,-1302.362347,7920.203579
1875.622907,-2294.638420,-1455.581446,8068.244768
1875.623228,-2220.617826,-766.095498,9326.594869
1875.623549,-1850.514855,-383.047749,9474.636058
1875.623870,1554.432478,76.609550,9252.574275
1875.624192,1406.391290,459.657299,9178.553681
1875.624513,1110.308913,306.438199,9252.574275
1875.624834,1332.370696,612.876398,10214.842000
1875.625155,1110.308913,459.657299,9844.739029
1875.625476,1480.411884,-383.047749,10436.903782
1875.625798,370.102971,-459.657299,10658.965565
1875.626119,-1776.494261,-383.047749,9030.512492
1875.626440,-444.123565,-536.266849,8956.491898
1875.626761,0.000000,-536.266849,9696.697840
1875.627082,-1184.329507,-229.828649,10436.903782
1875.627404,-1110.308913,0.000000,10436.903782
1875.627725,-222.061783,459.657299,9030.512492
1875.628046,1998.556043,459.657299,9326.594869
1875.628367,370.102971,383.047749,8956.491898
1875.628688,-1110.308913,766.095498,9918.759623
1875.629009,-1258.350101,229.828649,9326.594869
1875.629331,-962.267725,-306.438199,8290.306550
1875.629652,-444.123565,153.219100,7994.224174
1875.629973,-1258.350101,459.657299,8660.409521
1875.630294,-1480.411884,612.876398,8882.471304
1875.630615,296.082377,1072.533697,7994.224174
1875.630937,962.267725,995.924147,8216.285956
1875.631258,592.164754,1838.629195,8956.491898
1875.631579,222.061783,1685.410096,9030.512492
1875.631900,1480.411884,1915.238745,9696.697840
1875.632221,2072.576638,1608.800546,9548.656652
1875.632543,-148.041188,995.924147,9474.636058
1875.632864,-962.267725,995.924147,9992.780217
1875.633185,0.000000,1225.752797,9252.574275
1875.633506,148.041188,919.314598,9474.636058
1875.633827,296.082377,842.705048,10066.800811
1875.634149,-1480.411884,842.705048,10288.862594
1875.634470,-592.164754,1149.143247,9474.636058
1875.634791,1480.411884,1225.752797,9252.574275
1875.635112,222.061783,1302.362347,9252.574275
1875.635433,-1628.453072,1685.410096,10807.006753
1875.635755,-1332.370696,1532.190996,9326.594869
1875.636076,1036.288319,1225.752797,8216.285956
1875.636397,222.061783,842.705048,8438.347739
1875.636718,-962.267725,1149.143247,8512.368333
1875.637039,-666.185348,1302.362347,9030.512492
1875.637361,592.164754,1225.752797,7994.224174
1875.637682,1036.288319,1072.533697,9400.615463
1875.638003,444.123565,689.485948,9326.594869
1875.638324,-888.247130,1302.362347,8734.430116
1875.638645,296.082377,1225.752797,8882.471304
1875.638966,222.061783,153.219100,9474.636058
1875.639288,-1184.329507,-229.828649,9326.594869
1875.639609,-2146.597232,-536.266849,9548.656652
1875.639930,-962.267725,76.609550,8438.347739
1875.640251,444.123565,-229.828649,8956.491898
1875.640572,0.000000,-306.438199,9770.718434
1875.640894,-444.123565,536.266849,11029.068536
1875.641215,518.144159,306.438199,9770.718434
1875.641536,1184.329507,153.219100,8956.491898
1875.641857,962.267725,76.609550,9400.615463
1875.642178,-814.226536,-229.828649,9918.759623
1875.642500,-962.267725,-459.657299,9844.739029
1875.642821,-1110.308913,-1302.362347,8512.368333
1875.643142,-1702.473667,-1915.238745,8808.450710
1875.643463,-2294.638420,-1378.971896,9548.656652
1875.643784,-2072.576638,-919.314598,9474.636058
1875.644106,444.123565,-612.876398,9770.718434
1875.644427,814.226536,-306.438199,9474.636058
1875.644748,-888.247130,-459.657299,8882.471304
1875.645069,592.164754,-229.828649,9474.636058
1875.645390,666.185348,76.609550,8734.430116
1875.645712,518.144159,0.000000,9474.636058
1875.646033,-666.185348,-306.438199,9918.759623
1875.646354,-2072.576638,-842.705048,9252.574275
1875.646675,-1184.329507,-842.705048,8512.368333
1875.646996,-222.061783,-383.047749,8068.244768
1875.647318,-962.267725,0.000000,9474.636058
1875.647639,-1110.308913,229.828649,9548.656652
1875.647960,-148.041188,153.219100,9548.656652
1875.648281,2072.576638,995.924147,9252.574275
1875.648602,962.267725,919.314598,8882.471304
1875.648923,-592.164754,1072.533697,9326.594869
1875.649245,-296.082377,1302.362347,9918.759623
1875.649566,0.000000,229.828649,8956.491898
1875.649887,-666.185348,306.438199,8438.347739
1875.650208,-1184.329507,0.000000,8734.430116
1875.650529,-2220.617826,153.219100,8882.471304
1875.650851,0.000000,766.095498,9326.594869
1875.651172,518.144159,229.828649,9326.594869
1875.651493,0.000000,1302.362347,9770.718434
1875.651814,0.000000,1838.629195,9548.656652
1875.652135,1702.473667,1838.629195,8808.450710
1875.652457,2368.659014,1762.019645,9474.636058
1875.652778,444.123565,1302.362347,9770.718434
1875.653099,-148.041188,1072.533697,10362.883188
1875.653420,0.000000,919.314598,8882.471304
1875.653741,370.102971,76.609550,8586.388927
1875.654063,222.061783,1608.800546,9474.636058
1875.654384,-1184.329507,1455.581446,10066.800811
1875.654705,-222.061783,1532.190996,9474.636058
1875.655026,1258.350101,1455.581446,8734.430116
1875.655347,814.226536,1762.019645,8882.471304
1875.655669,0.000000,2068.457845,9400.615463
1875.655990,0.000000,1838.629195,9400.615463
1875.656311,814.226536,995.924147,8734.430116
1875.656632,0.000000,689.485948,8586.388927
1875.656953,-1554.432478,536.266849,8586.388927
1875.657275,-1110.308913,766.095498,9104.533087
1875.657596,-444.123565,612.876398,8586.388927
1875.657917,222.061783,689.485948,9252.574275
1875.658238,148.041188,766.095498,9696.697840
1875.658559,-740.205942,612.876398,9474.636058
1875.658880,814.226536,1302.362347,9178.553681
1875.659202,1110.308913,995.924147,9696.697840
1875.659523,296.082377,1302.362347,10510.924376
1875.659844,-740.205942,1072.533697,10140.821405
1875.660165,-444.123565,383.047749,9178.553681
1875.660486,888.247130,0.000000,8512.368333
1875.660808,148.041188,919.314598,9104.533087
1875.661129,-1332.370696,459.657299,10362.883188
1875.661450,222.061783,842.705048,10732.986159
1875.661771,1036.288319,536.266849,9548.656652
1875.662092,518.144159,459.657299,9030.512492
1875.662414,-1110.308913,383.047749,9622.677246
1875.662735,-1258.350101,306.438199,9622.677246
1875.663056,-888.247130,229.828649,9178.553681
1875.663377,-2146.597232,-766.095498,8660.409521
1875.663698,-2738.761985,-995.924147,8882.471304
1875.664020,-3552.988522,-842.705048,8512.368333
1875.664341,-1258.350101,-689.485948,8290.306550
1875.664662,-592.164754,-612.876398,9326.594869
1875.664983,-1480.411884,0.000000,9104.533087
1875.665304,-444.123565,0.000000,8956.491898
1875.665626,888.247130,-306.438199,9030.512492
1875.665947,1258.350101,0.000000,9178.553681
1875.666268,0.000000,0.000000,10066.800811
1875.666589,-1776.494261,-383.047749,9844.739029
1875.666910,-592.164754,-536.266849,9474.636058
1875.667232,518.144159,-919.314598,8882.471304
1875.667553,-222.061783,-229.828649,9252.574275
1875.667874,-518.144159,612.876398,9844.739029
1875.668195,666.185348,229.828649,10214.842000
1875.668516,2442.679609,0.000000,9918.759623
1875.668838,1036.288319,229.828649,9178.553681
1875.669159,666.185348,842.705048,9918.759623
1875.669480,740.205942,612.876398,9696.697840
1875.669801,444.123565,76.609550,8956.491898
1875.670122,222.061783,-306.438199,9548.656652
1875.670443,-1850.514855,-766.095498,8882.471304
1875.670765,-2368.659014,-612.876398,8364.327145
1875.671086,-666.185348,76.609550,8142.265362
1875.671407,-592.164754,0.000000,9030.512492
1875.671728,-814.226536,383.047749,10140.821405
1875.672049,-1184.329507,766.095498,9474.636058
1875.672371,1332.370696,995.924147,8808.450710
1875.672692,1776.494261,1302.362347,8660.409521
1875.673013,444.123565,1608.800546,9474.636058
1875.673334,-296.082377,1838.629195,10288.862594
1875.673655,0.000000,842.705048,9030.512492
1875.673977,296.082377,612.876398,8808.450710
1875.674298,-148.041188,842.705048,8882.471304
1875.674619,-2294.638420,919.314598,9178.553681
1875.674940,0.000000,995.924147,9178.553681
1875.675262,962.267725,1838.629195,8586.388927
1875.675583,814.226536,2298.286494,9178.553681
1875.675904,666.185348,2604.724693,9400.615463
1875.676225,296.082377,2374.896044,8956.491898
1875.676546,1776.494261,2298.286494,8586.388927
1875.676868,1036.288319,2145.067394,9030.512492
1875.677189,-1184.329507,1072.533697,9030.512492
1875.677510,-1036.288319,1532.190996,8808.450710
1875.677831,-370.102971,689.485948,8142.265362
1875.678153,0.000000,842.705048,8512.368333
1875.678474,-740.205942,1149.143247,9474.636058
1875.678795,-1332.370696,995.924147,9400.615463
1875.679116,370.102971,995.924147,9178.553681
1875.679437,1258.350101,919.314598,8512.368333
1875.679759,-222.061783,1455.581446,9844.739029
1875.680080,-666.185348,1532.190996,10658.965565
1875.680401,-148.041188,766.095498,9844.739029
1875.680722,666.185348,229.828649,9622.677246
1875.681043,-740.205942,0.000000,8956.491898
1875.681365,-1110.308913,229.828649,10288.862594
1875.681686,222.061783,383.047749,9622.677246
1875.682007,666.185348,229.828649,9548.656652
1875.682328,518.144159,459.657299,9548.656652
1875.682650,-1036.288319,76.609550,9252.574275
1875.682971,-444.123565,306.438199,9326.594869
1875.683292,296.082377,383.047749,9178.553681
1875.683613,-592.164754,-306.438199,9252.574275
1875.683934,-1850.514855,-766.095498,9400.615463
1875.684256,-1998.556043,-612.876398,8142.265362
1875.684577,0.000000,-459.657299,7550.100608
1875.684898,0.000000,-1072.533697,8438.347739
1875.685219,-962.267725,-229.828649,9252.574275
1875.685540,-666.185348,-459.657299,9770.718434
1875.685862,0.000000,-306.438199,8586.388927
1875.686183,1110.308913,0.000000,8956.491898
1875.686504,-222.061783,-306.438199,8808.450710
1875.686825,-1998.556043,-459.657299,9696.697840
1875.687147,-1406.391290,-1149.143247,10140.821405
1875.687468,-1258.350101,-1762.019645,9400.615463
1875.687789,-1332.370696,-1378.971896,9622.677246
1875.688110,-1776.494261,-1072.533697,9770.718434
1875.688431,-740.205942,-612.876398,10140.821405
1875.688753,1628.453072,306.438199,10362.883188
1875.689074,1258.350101,153.219100,9918.759623
1875.689395,74.020594,612.876398,10214.842000
1875.689716,888.247130,612.876398,9622.677246
1875.690037,888.247130,612.876398,9252.574275
1875.690359,592.164754,0.000000,9622.677246
1875.690680,-1406.391290,-229.828649,9548.656652
1875.691001,-1924.535449,-306.438199,8512.368333
1875.691322,-666.185348,-689.485948,8512.368333
1875.691644,-1184.329507,-689.485948,8068.244768
1875.691965,-962.267725,229.828649,9178.553681
1875.692286,-1554.432478,153.219100,9178.553681
1875.692607,1332.370696,919.314598,8956.491898
1875.692928,2368.659014,1455.581446,8882.471304
1875.693250,666.185348,1378.971896,8660.409521
1875.693571,666.185348,1838.629195,9474.636058
1875.693892,1184.329507,1915.238745,8956.491898
1875.694213,1036.288319,919.314598,9326.594869
1875.694534,296.082377,766.095498,9326.594869
1875.694856,-1332.370696,919.314598,8734.430116
1875.695177,-148.041188,1149.143247,9030.512492
1875.695498,962.267725,1072.533697,9770.718434
1875.695819,148.041188,1608.800546,9770.718434
1875.696141,296.082377,1608.800546,9918.759623
1875.696462,444.123565,1685.410096,9474.636058
1875.696783,1776.494261,2451.505594,9252.574275
1875.697104,370.102971,1685.410096,9622.677246
1875.697425,-1036.288319,1455.581446,10362.883188
1875.697747,-1332.370696,919.314598,9696.697840
1875.698068,-1480.411884,689.485948,8438.347739
1875.698389,-296.082377,689.485948,7772.162391
1875.698710,-1554.432478,919.314598,8882.471304
1875.699031,-1924.535449,1302.362347,8660.409521
1875.699353,-222.061783,1302.362347,8660.409521
1875.699674,296.082377,1225.752797,7994.224174
1875.699995,518.144159,1838.629195,9104.533087
1875.700316,-148.041188,1991.848295,9252.574275
1875.700638,814.226536,1915.238745,9400.615463
1875.700959,1036.288319,1149.143247,9252.574275
1875.701280,-592.164754,536.266849,8142.265362
1875.701601,-592.164754,689.485948,9622.677246
1875.701922,740.205942,919.314598,9400.615463
1875.702244,1406.391290,995.924147,9474.636058
1875.702565,888.247130,995.924147,10362.883188
1875.702886,-666.185348,536.266849,9918.759623
1875.703207,296.082377,689.485948,9326.594869
1875.703529,814.226536,459.657299,9474.636058
1875.703850,-666.185348,76.609550,9548.656652
1875.704171,-1924.535449,0.000000,10658.965565
1875.704492,-2664.741391,-383.047749,9030.512492
1875.704813,-518.144159,-919.314598,8142.265362
1875.705135,-1036.288319,-995.924147,7920.203579
1875.705456,-2294.638420,-306.438199,8660.409521
1875.705777,-1258.350101,-689.485948,9770.718434
1875.706098,0.000000,-689.485948,9104.533087
1875.706419,518.144159,-536.266849,9622.677246
1875.706741,222.061783,-229.828649,9474.636058
1875.707062,-1332.370696,-383.047749,9474.636058
1875.707383,296.082377,-689.485948,9918.759623
1875.707704,740.205942,-689.485948,9400.615463
1875.708026,-74.020594,-459.657299,10362.883188
1875.708347,-1258.350101,-383.047749,10066.800811
1875.708668,-592.164754,-919.314598,9104.533087
1875.708989,1480.411884,0.000000,9548.656652
1875.709310,148.041188,-153.219100,9622.677246
1875.709632,-888.247130,459.657299,10436.903782
1875.709953,592.164754,766.095498,9548.656652
1875.710274,740.205942,-306.438199,8660.409521
1875.710595,74.020594,459.657299,9030.512492
1875.710916,-2368.659014,153.219100,9548.656652
1875.711238,-3034.844362,-459.657299,8882.471304
1875.711559,-1628.453072,-689.485948,7920.203579
1875.711880,-2072.576638,-919.314598,8142.265362
1875.712201,-2442.679609,-689.485948,8956.491898
1875.712523,-1998.556043,306.438199,8956.491898
1875.712844,592.164754,689.485948,9104.533087
1875.713165,1850.514855,459.657299,9400.615463
1875.713486,444.123565,995.924147,9326.594869
1875.713807,1184.329507,1915.238745,9696.697840
1875.714129,1998.556043,1838.629195,9770.718434
1875.714450,2072.576638,1838.629195,9696.697840
1875.714771,1036.288319,919.314598,10214.842000
1875.715092,-888.247130,919.314598,9178.553681
1875.715413,666.185348,1302.362347,8660.409521
1875.715735,592.164754,1149.143247,8734.430116
1875.716056,370.102971,1378.971896,9918.759623
1875.716377,-444.123565,1762.019645,9992.780217
1875.716698,222.061783,2528.115143,9252.574275
1875.717020,1998.556043,2374.896044,8512.368333
1875.717341,814.226536,2681.334243,7920.203579
1875.717662,-1184.329507,2145.067394,9326.594869
1875.717983,-962.267725,1838.629195,9474.636058
1875.718304,-1110.308913,689.485948,7920.203579
1875.718626,-1036.288319,536.266849,7994.224174
1875.718947,-2220.617826,612.876398,8734.430116
1875.719268,-1998.556043,0.000000,8512.368333
1875.719589,-370.102971,842.705048,8364.327145
1875.719910,1036.288319,766.095498,8808.450710
1875.720232,518.144159,1072.533697,9992.780217
1875.720553,-74.020594,1532.190996,9622.677246
1875.720874,2368.659014,1608.800546,10066.800811
1875.721195,2812.782580,1532.190996,10288.862594
1875.721517,222.061783,76.609550,10066.800811
1875.721838,-370.102971,536.266849,10807.006753
1875.722159,888.247130,612.876398,9474.636058
1875.722480,1702.473667,-229.828649,9178.553681
1875.722801,296.082377,153.219100,10066.800811
1875.723123,-1036.288319,383.047749,10362.883188
1875.723444,222.061783,459.657299,9474.636058
1875.723765,1036.288319,76.609550,9252.574275
1875.724086,148.041188,612.876398,9474.636058
1875.724407,-1184.329507,842.705048,9474.636058
1875.724729,-1776.494261,0.000000,8956.491898
1875.725050,-592.164754,-766.095498,8882.471304
1875.725371,-1924.535449,-1149.143247,8142.265362
1875.725692,-2738.761985,-995.924147,7994.224174
1875.726014,-1924.535449,-459.657299,9178.553681
1875.726335,-1110.308913,-153.219100,9326.594869
1875.726656,-148.041188,-383.047749,8956.491898
1875.726977,-148.041188,-153.219100,9548.656652
1875.727298,-1110.308913,0.000000,8882.471304
1875.727620,148.041188,0.000000,9178.553681
1875.727941,148.041188,-306.438199,9696.697840
1875.728262,-888.247130,-306.438199,10288.862594
1875.728583,-1998.556043,-612.876398,9622.677246
1875.728904,-814.226536,-1149.143247,8956.491898
1875.729226,370.102971,-306.438199,9104.533087
1875.729547,0.000000,229.828649,9474.636058
1875.729868,-814.226536,0.000000,10881.027347
1875.730189,148.041188,612.876398,10140.821405
1875.730511,1184.329507,229.828649,9030.512492
1875.730832,814.226536,689.485948,9178.553681
1875.731153,-740.205942,1302.362347,9400.615463
1875.731474,-370.102971,689.485948,9474.636058
1875.731795,296.082377,612.876398,8882.471304
1875.732117,-666.185348,-766.095498,8438.347739
1875.732438,-1480.411884,0.000000,8512.368333
1875.732759,-1924.535449,229.828649,8142.265362
1875.733080,444.123565,306.438199,8734.430116
1875.733402,888.247130,536.266849,9474.636058
1875.733723,-592.164754,1608.800546,8956.491898
1875.734044,444.123565,1378.971896,9474.636058
1875.734365,1258.350101,1072.533697,8142.265362
1875.734686,1332.370696,689.485948,8956.491898
1875.735008,0.000000,536.266849,9622.677246
1875.735329,-1480.411884,76.609550,9844.739029
1875.735650,-814.226536,0.000000,9178.553681
1875.735971,0.000000,76.609550,9030.512492
1875.736292,-370.102971,536.266849,9030.512492
1875.736614,-518.144159,1455.581446,10214.842000
1875.736935,518.144159,1072.533697,10066.800811
1875.737256,2368.659014,1149.143247,9992.780217
1875.737577,1702.473667,1149.143247,9326.594869
1875.737899,518.144159,1378.971896,9622.677246
1875.738220,1036.288319,1915.238745,10436.903782
1875.738541,740.205942,919.314598,9252.574275
1875.738862,74.020594,995.924147,9474.636058
1875.739183,-1480.411884,229.828649,9474.636058
1875.739505,-2146.597232,76.609550,8438.347739
1875.739826,-444.123565,153.219100,8216.285956
1875.740147,-74.020594,612.876398,8808.450710
1875.740468,-740.205942,1225.752797,9474.636058
1875.740789,-444.123565,1532.190996,8660.409521
1875.741111,1332.370696,1455.581446,8660.409521
1875.741432,1406.391290,1838.629195,8216.285956
1875.741753,-740.205942,1302.362347,9104.533087
1875.742074,-1184.329507,995.924147,9844.739029
1875.742396,-814.226536,383.047749,8956.491898
1875.742717,-666.185348,536.266849,8586.388927
1875.743038,-592.164754,229.828649,8512.368333
1875.743359,-2146.597232,842.705048,9474.636058
1875.743680,-296.082377,1455.581446,9326.594869
1875.744002,518.144159,536.266849,9548.656652
1875.744323,222.061783,919.314598,9030.512492
1875.744644,222.061783,1532.190996,10066.800811
1875.744965,222.061783,2145.067394,10066.800811
1875.745286,1924.535449,1072.533697,10066.800811
1875.745608,148.041188,612.876398,8956.491898
1875.745929,-1332.370696,76.609550,8882.471304
1875.746250,-814.226536,-153.219100,9104.533087
1875.746571,-518.144159,76.609550,8512.368333
1875.746893,74.020594,153.219100,9326.594869
1875.747214,-518.144159,383.047749,9918.759623
1875.747535,-1036.288319,153.219100,9622.677246
1875.747856,296.082377,842.705048,8956.491898
1875.748177,962.267725,0.000000,8808.450710
1875.748499,-222.061783,459.657299,9548.656652
1875.748820,-1184.329507,0.000000,9770.718434
1875.749141,-370.102971,-306.438199,9474.636058
1875.749462,666.185348,-306.438199,8882.471304
1875.749783,-740.205942,-383.047749,8808.450710
1875.750105,-1332.370696,0.000000,9622.677246
1875.750426,-222.061783,76.609550,10066.800811
1875.750747,1036.288319,-153.219100,9770.718434
1875.751068,296.082377,-229.828649,9622.677246
1875.751390,-962.267725,0.000000,9622.677246
1875.751711,-296.082377,0.000000,9400.615463
1875.752032,0.000000,0.000000,9400.615463
1875.752353,-592.164754,-459.657299,9474.636058
1875.752674,-1554.432478,-306.438199,9844.739029
1875.752996,-1998.556043,0.000000,7698.141797
1875.753317,222.061783,0.000000,8734.430116
1875.753638,444.123565,0.000000,9104.533087
1875.753959,-444.123565,76.609550,9326.594869
1875.754280,222.061783,459.657299,9622.677246
1875.754602,740.205942,459.657299,8808.450710
1875.754923,1554.432478,459.657299,8438.347739
1875.755244,444.123565,383.047749,9030.512492
1875.755565,-962.267725,459.657299,9770.718434
1875.755887,-666.185348,76.609550,9178.553681
1875.756208,-518.144159,0.000000,8882.471304
1875.756529,-1184.329507,229.828649,8808.450710
1875.756850,-1332.370696,306.438199,9030.512492
1875.757171,0.000000,536.266849,10214.842000
1875.757493,1406.391290,1991.848295,9548.656652
1875.757814,740.205942,1455.581446,9696.697840
1875.758135,0.000000,1608.800546,9474.636058
1875.758456,740.205942,1991.848295,9474.636058
1875.758778,518.144159,1225.752797,8660.409521
1875.759099,-296.082377,1072.533697,9474.636058
1875.759420,-2294.638420,612.876398,9104.533087
1875.759741,-2812.782580,0.000000,9252.574275
1875.760062,-1110.308913,0.000000,7772.162391
1875.760384,-1110.308913,459.657299,8290.306550
1875.760705,-1258.350101,919.314598,9474.636058
1875.761026,-296.082377,1608.800546,9548.656652
1875.761347,1850.514855,1608.800546,9622.677246
1875.761668,2368.659014,2298.286494,8216.285956
1875.761990,1258.350101,1685.410096,9104.533087
1875.762311,1184.329507,2528.115143,9918.759623
1875.762632,1258.350101,1838.629195,9400.615463
1875.762953,1184.329507,1072.533697,9548.656652
1875.763275,296.082377,766.095498,9474.636058
1875.763596,-1332.370696,1302.362347,9326.594869
1875.763917,296.082377,1302.362347,9400.615463
1875.764238,222.061783,689.485948,9548.656652
1875.764559,-148.041188,1149.143247,9400.615463
1875.764881,-296.082377,1378.971896,9696.697840
1875.765202,0.000000,1532.190996,9178.553681
1875.765523,1554.432478,1225.752797,9474.636058
1875.765844,222.061783,612.876398,9326.594869
1875.766165,-1628.453072,229.828649,9474.636058
1875.766487,-1258.350101,459.657299,9400.615463
1875.766808,-1110.308913,-612.876398,7920.203579
1875.767129,0.000000,-766.095498,8734.430116
1875.767450,-962.267725,0.000000,8808.450710
1875.767772,-1480.411884,-306.438199,8956.491898
1875.768093,444.123565,0.000000,8808.450710
1875.768414,740.205942,-536.266849,8438.347739
1875.768735,592.164754,383.047749,9474.636058
1875.769056,-296.082377,229.828649,9844.739029
1875.769378,814.226536,153.219100,9474.636058
1875.769699,740.205942,-766.095498,9548.656652
1875.770020,-1184.329507,-995.924147,9400.615463
1875.770341,-1480.411884,-1072.533697,10288.862594
1875.770662,-1036.288319,-612.876398,9474.636058
1875.770984,-296.082377,-459.657299,9548.656652
1875.771305,-444.123565,-306.438199,10214.842000
1875.771626,-1702.473667,-383.047749,9992.780217
1875.771947,-888.247130,-612.876398,9104.533087
1875.772269,0.000000,-306.438199,8956.491898
1875.772590,-1406.391290,-306.438199,9622.677246
1875.772911,-2220.617826,-536.266849,9992.780217
1875.773232,-2146.597232,0.000000,8734.430116
1875.773553,-518.144159,-383.047749,8290.306550
1875.773875,-666.185348,0.000000,8290.306550
1875.774196,-1776.494261,306.438199,9178.553681
1875.774517,-444.123565,306.438199,9622.677246
1875.774838,888.247130,229.828649,8734.430116
1875.775159,1036.288319,766.095498,8956.491898
1875.775481,-296.082377,1149.143247,9030.512492
1875.775802,-666.185348,842.705048,9252.574275
1875.776123,74.020594,919.314598,9400.615463
1875.776445,222.061783,76.609550,8586.388927
1875.776766,-814.226536,459.657299,9178.553681
1875.777087,-888.247130,383.047749,8882.471304
1875.777409,0.000000,1302.362347,9030.512492
1875.777730,2072.576638,1991.848295,9252.574275
1875.778051,814.226536,1455.581446,9548.656652
1875.778373,222.061783,1378.971896,9918.759623
1875.778694,1554.432478,1532.190996,9844.739029
1875.779015,1702.473667,1225.752797,9104.533087
1875.779336,740.205942,1532.190996,9918.759623
1875.779658,-1406.391290,995.924147,9918.759623
1875.779979,-1036.288319,229.828649,9548.656652
1875.780300,-518.144159,229.828649,8216.285956
1875.780622,-1110.308913,612.876398,8068.244768
1875.780943,-1110.308913,766.095498,9030.512492
1875.781264,-1036.288319,1149.143247,8956.491898
1875.781586,1628.453072,1378.971896,8956.491898
1875.781907,2516.700203,1685.410096,8956.491898
1875.782228,666.185348,1838.629195,9030.512492
1875.782549,1036.288319,1532.190996,9326.594869
1875.782871,1480.411884,1378.971896,9030.512492
1875.783192,1184.329507,1532.190996,9400.615463
1875.783513,-814.226536,229.828649,9474.636058
1875.783835,-2220.617826,0.000000,8586.388927
1875.784156,-888.247130,0.000000,8586.388927
1875.784477,-74.020594,0.000000,9474.636058
1875.784799,-666.185348,766.095498,10214.842000
1875.785120,-296.082377,383.047749,10066.800811
1875.785441,222.061783,1302.362347,9326.594869
1875.785762,2368.659014,1455.581446,8882.471304
1875.786084,1258.350101,1149.143247,9326.594869
1875.786405,-370.102971,689.485948,10140.821405
1875.786726,-296.082377,459.657299,9844.739029
1875.787048,-370.102971,-383.047749,8512.368333
1875.787369,-518.144159,0.000000,8512.368333
1875.787690,-1702.473667,0.000000,9326.594869
1875.788012,-1628.453072,-383.047749,9252.574275
1875.788333,74.020594,153.219100,9104.533087
1875.788654,0.000000,0.000000,8956.491898
1875.788976,-666.185348,383.047749,9548.656652
1875.789297,-592.164754,919.314598,9326.594869
1875.789618,666.185348,612.876398,9474.636058
1875.789939,222.061783,76.609550,9474.636058
1875.790261,-888.247130,0.000000,9770.718434
1875.790582,-1702.473667,-766.095498,9548.656652
1875.790903,-592.164754,0.000000,9030.512492
1875.791225,-296.082377,0.000000,9400.615463
1875.791546,-444.123565,612.876398,9992.780217
1875.791867,-1554.432478,-459.657299,9622.677246
1875.792189,-444.123565,0.000000,8956.491898
1875.792510,296.082377,459.657299,8956.491898
1875.792831,-296.082377,612.876398,9474.636058
1875.793152,-1184.329507,383.047749,10362.883188
1875.793474,-1924.535449,0.000000,9326.594869
1875.793795,-222.061783,-536.266849,9252.574275
1875.794116,-740.205942,153.219100,8660.409521
1875.794438,-1702.473667,-153.219100,8734.430116
1875.794759,-740.205942,612.876398,9474.636058
1875.795080,148.041188,306.438199,8660.409521
1875.795402,1924.535449,689.485948,9030.512492
1875.795723,370.102971,766.095498,9326.594869
1875.796044,-296.082377,612.876398,9178.553681
1875.796366,148.041188,995.924147,9252.574275
1875.796687,1184.329507,842.705048,9326.594869
1875.797008,-518.144159,153.219100,9844.739029
1875.797329,-1332.370696,153.219100,9030.512492
1875.797651,-518.144159,0.000000,8956.491898
1875.797972,1554.432478,459.657299,9252.574275
1875.798293,-222.061783,383.047749,9622.677246
1875.798615,-444.123565,1072.533697,10732.986159
1875.798936,888.247130,995.924147,10140.821405
1875.799257,1332.370696,536.266849,8956.491898
1875.799579,1036.288319,229.828649,10214.842000
1875.799900,-1184.329507,919.314598,10288.862594
1875.800221,-1332.370696,766.095498,9992.780217
1875.800542,-888.247130,0.000000,8660.409521
1875.800864,-1406.391290,-842.705048,8660.409521
1875.801185,-1628.453072,153.219100,8364.327145
1875.801506,-1258.350101,842.705048,8734.430116
1875.801828,814.226536,1072.533697,9030.512492
1875.802149,592.164754,766.095498,9030.512492
1875.802470,518.144159,766.095498,8734.430116
1875.802792,1110.308913,1532.190996,8882.471304
1875.803113,1702.473667,1762.019645,8660.409521
1875.803434,740.205942,1302.362347,8882.471304
1875.803755,0.000000,229.828649,9918.759623
1875.804077,-1480.411884,842.705048,8808.450710
1875.804398,0.000000,536.266849,8438.347739
1875.804719,-222.061783,229.828649,8364.327145
1875.805041,-518.144159,919.314598,9622.677246
1875.805362,-592.164754,1149.143247,10436.903782
1875.805683,370.102971,919.314598,9622.677246
1875.806005,2072.576638,766.095498,8956.491898
1875.806326,740.205942,1762.019645,8808.450710
1875.806647,-962.267725,1455.581446,9918.759623
1875.806969,-962.267725,612.876398,10362.883188
1875.807290,-888.247130,76.609550,9400.615463
1875.807611,-1480.411884,-459.657299,8956.491898
1875.807932,-2516.700203,-459.657299,8438.347739
1875.808254,-1924.535449,-229.828649,8882.471304
1875.808575,-296.082377,0.000000,9030.512492
1875.808896,0.000000,0.000000,9696.697840
1875.809218,0.000000,995.924147,10288.862594
1875.809539,370.102971,1455.581446,9252.574275
1875.809860,2368.659014,1302.362347,8438.347739
1875.810182,3108.864956,995.924147,8808.450710
1875.810503,962.267725,919.314598,9326.594869
1875.810824,444.123565,995.924147,10140.821405
1875.811145,740.205942,76.609550,9178.553681
1875.811467,518.144159,-153.219100,8586.388927
1875.811788,0.000000,76.609550,8956.491898
1875.812109,-1628.453072,0.000000,9622.677246
1875.812431,-666.185348,-153.219100,9622.677246
1875.812752,222.061783,229.828649,9622.677246
1875.813073,-518.144159,306.438199,8956.491898
1875.813395,-1332.370696,1072.533697,9326.594869
1875.813716,-1776.494261,459.657299,8882.471304
1875.814037,-370.102971,0.000000,9252.574275
1875.814359,-1628.453072,-229.828649,9252.574275
1875.814680,-2664.741391,-459.657299,9104.533087
1875.815001,-1480.411884,-612.876398,9030.512492
1875.815322,-962.267725,-229.828649,8734.430116
1875.815644,-370.102971,459.657299,9622.677246
1875.815965,-592.164754,-842.705048,9622.677246
1875.816286,-962.267725,-306.438199,9770.718434
1875.816608,814.226536,383.047749,9178.553681
1875.816929,814.226536,229.828649,9400.615463
1875.817250,74.020594,383.047749,10140.821405
1875.817572,0.000000,-229.828649,9548.656652
1875.817893,444.123565,-229.828649,9030.512492
1875.818214,1554.432478,0.000000,8882.471304
1875.818535,370.102971,-153.219100,9030.512492
1875.818857,74.020594,306.438199,10807.006753
1875.819178,518.144159,842.705048,9918.759623
1875.819499,1184.329507,229.828649,9548.656652
1875.819821,666.185348,689.485948,9548.656652
1875.820142,-888.247130,995.924147,9474.636058
1875.820463,-1184.329507,842.705048,9474.636058
1875.820785,-1036.288319,-306.438199,9252.574275
1875.821106,-2368.659014,-612.876398,8882.471304
1875.821427,-3256.906145,-612.876398,8734.430116
1875.821748,-3182.885551,-612.876398,7920.203579
1875.822070,-888.247130,-306.438199,8512.368333
1875.822391,222.061783,459.657299,9030.512492
1875.822712,-1110.308913,842.705048,9104.533087
1875.823034,370.102971,1072.533697,9326.594869
1875.823355,1480.411884,1455.581446,8808.450710
1875.823676,2072.576638,1455.581446,8808.450710
1875.823998,1184.329507,1225.752797,9474.636058
1875.824319,0.000000,1149.143247,9548.656652
1875.824640,1258.350101,459.657299,9474.636058
1875.824962,1776.494261,689.485948,8882.471304
1875.825283,1110.308913,1608.800546,9252.574275
1875.825604,296.082377,1225.752797,9992.780217
1875.825925,962.267725,1991.848295,9992.780217
1875.826247,2664.741391,1685.410096,9696.697840
1875.826568,1628.453072,2451.505594,9548.656652
1875.826889,0.000000,1685.410096,9918.759623
1875.827211,666.185348,2451.505594,9474.636058
1875.827532,74.020594,1149.143247,9178.553681
1875.827853,-1332.370696,612.876398,9400.615463
1875.828175,-3108.864956,459.657299,9474.636058
1875.828496,-3108.864956,153.219100,8660.409521
1875.828817,-1406.391290,306.438199,7920.203579
1875.829138,-1258.350101,1072.533697,8216.285956
1875.829460,-1554.432478,1378.971896,9400.615463
1875.829781,-888.247130,1225.752797,9252.574275
1875.830102,1332.370696,1838.629195,8216.285956
1875.830424,1702.473667,1685.410096,8512.368333
1875.830745,370.102971,1915.238745,9770.718434
1875.831066,444.123565,1455.581446,10362.883188
1875.831388,592.164754,1072.533697,9400.615463
1875.831709,814.226536,-1225.752797,8734.430116
1875.832030,296.082377,-306.438199,8734.430116
1875.832351,-1110.308913,459.657299,9474.636058
1875.832673,0.000000,306.438199,9770.718434
1875.832994,592.164754,383.047749,9918.759623
1875.833315,222.061783,306.438199,9696.697840
1875.833637,148.041188,689.485948,9696.697840
1875.833958,0.000000,766.095498,9474.636058
1875.834279,444.123565,0.000000,9104.533087
1875.834601,-1258.350101,0.000000,9326.594869
1875.834922,-2664.741391,-459.657299,9696.697840
1875.835243,-2516.700203,-842.705048,9178.553681
1875.835565,-1628.453072,-1149.143247,8068.244768
1875.835886,-1184.329507,-459.657299,8512.368333
1875.836207,-1480.411884,-383.047749,9326.594869
1875.836528,-1480.411884,-766.095498,9474.636058
1875.836850,740.205942,-612.876398,9400.615463
1875.837171,592.164754,229.828649,8882.471304
1875.837492,0.000000,689.485948,9474.636058
1875.837814,-518.144159,383.047749,9474.636058
1875.838135,1258.350101,306.438199,9696.697840
1875.838456,1850.514855,0.000000,9326.594869
1875.838778,370.102971,383.047749,8586.388927
1875.839099,-444.123565,0.000000,8956.491898
1875.839420,888.247130,536.266849,9622.677246
1875.839741,1406.391290,306.438199,9918.759623
1875.840063,444.123565,536.266849,10140.821405
1875.840384,-1258.350101,306.438199,9474.636058
1875.840705,-592.164754,766.095498,8808.450710
1875.841027,-592.164754,383.047749,9548.656652
1875.841348,-1776.494261,153.219100,9474.636058
1875.841669,-3034.844362,-229.828649,9844.739029
1875.841991,-3256.906145,-153.219100,8438.347739
1875.842312,-740.205942,0.000000,8142.265362
1875.842633,-740.205942,0.000000,8068.244768
1875.842955,-1332.370696,689.485948,8956.491898
1875.843276,222.061783,1149.143247,9474.636058
1875.843597,1110.308913,229.828649,8956.491898
1875.843918,2072.576638,919.314598,9252.574275
1875.844240,1776.494261,1455.581446,9474.636058
1875.844561,222.061783,1225.752797,9770.718434
1875.844882,1184.329507,919.314598,9400.615463
1875.845204,1406.391290,612.876398,9252.574275
1875.845525,444.123565,306.438199,8882.471304
1875.845846,-740.205942,536.266849,8882.471304
1875.846168,592.164754,459.657299,9474.636058
1875.846489,1406.391290,1149.143247,9770.718434
1875.846810,222.061783,1072.533697,9696.697840
1875.847131,-518.144159,1225.752797,9770.718434
1875.847453,0.000000,1149.143247,9104.533087
1875.847774,0.000000,612.876398,8512.368333
1875.848095,-666.185348,0.000000,9770.718434
1875.848417,-2590.720797,0.000000,9474.636058
1875.848738,-2738.761985,-536.266849,8956.491898
1875.849059,-1332.370696,-306.438199,8290.306550
1875.849381,-1406.391290,-383.047749,8290.306550
1875.849702,-1332.370696,306.438199,10214.842000
1875.850023,-444.123565,1072.533697,9696.697840
1875.850344,1406.391290,995.924147,9178.553681
1875.850666,2368.659014,1455.581446,8660.409521
1875.850987,1258.350101,1455.581446,9474.636058
1875.851308,1406.391290,1532.190996,10214.842000
1875.851630,1628.453072,1072.533697,9622.677246
1875.851951,1184.329507,612.876398,9252.574275
1875.852272,0.000000,306.438199,9178.553681
1875.852594,-1850.514855,689.485948,8290.306550
1875.852915,-592.164754,0.000000,7698.141797
1875.853236,0.000000,383.047749,8956.491898
1875.853558,-1258.350101,689.485948,9548.656652
1875.853879,-1110.308913,612.876398,9548.656652
1875.854200,-1036.288319,383.047749,8586.388927
1875.854521,666.185348,919.314598,9104.533087
1875.854843,-592.164754,689.485948,9548.656652
1875.855164,-2368.659014,-229.828649,9770.718434
1875.855485,-2072.576638,-383.047749,10288.862594
1875.855807,-814.226536,-995.924147,8734.430116
1875.856128,-1406.391290,-383.047749,9104.533087
1875.856449,-1850.514855,153.219100,9918.759623
1875.856771,-1184.329507,-229.828649,9696.697840
1875.857092,1036.288319,-229.828649,9104.533087
1875.857413,740.205942,1072.533697,8882.471304
1875.857734,592.164754,459.657299,9548.656652
1875.858056,444.123565,1072.533697,9844.739029
1875.858377,1406.391290,766.095498,9622.677246
1875.858698,1554.432478,536.266849,9548.656652
1875.859020,-518.144159,0.000000,9104.533087
1875.859341,-1258.350101,76.609550,8512.368333
1875.859662,148.041188,0.000000,8586.388927
1875.859984,0.000000,536.266849,8512.368333
1875.860305,-370.102971,0.000000,9696.697840
1875.860626,-1554.432478,0.000000,9400.615463
1875.860948,-592.164754,229.828649,9030.512492
1875.861269,0.000000,229.828649,9178.553681
1875.861590,0.000000,689.485948,9548.656652
1875.861911,-1924.535449,229.828649,9548.656652
1875.862233,-1628.453072,153.219100,8734.430116
1875.862554,148.041188,0.000000,8882.471304
1875.862875,-370.102971,-383.047749,8290.306550
1875.863197,-814.226536,76.609550,9918.759623
1875.863518,-444.123565,306.438199,10140.821405
1875.863839,1406.391290,536.266849,9770.718434
1875.864161,1702.473667,1072.533697,9474.636058
1875.864482,1258.350101,459.657299,9696.697840
1875.864803,444.123565,1149.143247,9474.636058
1875.865124,1036.288319,995.924147,9770.718434
1875.865446,370.102971,306.438199,9326.594869
1875.865767,-666.185348,0.000000,9400.615463
1875.866088,-1110.308913,536.266849,9178.553681
1875.866410,-148.041188,459.657299,8512.368333
1875.866731,1184.329507,689.485948,8956.491898
1875.867052,518.144159,1149.143247,9696.697840
1875.867374,-148.041188,1225.752797,10436.903782
1875.867695,1110.308913,1149.143247,9474.636058
1875.868016,1406.391290,1072.533697,8438.347739
1875.868337,222.061783,1991.848295,9178.553681
1875.868659,-1480.411884,1072.533697,9918.759623
1875.868980,-1776.494261,0.000000,8734.430116
1875.869301,-1258.350101,153.219100,7772.162391
1875.869623,-1628.453072,-76.609550,8068.244768
1875.869944,-2294.638420,229.828649,9030.512492
1875.870265,-1702.473667,306.438199,9104.533087
1875.870587,222.061783,689.485948,9474.636058
1875.870908,814.226536,612.876398,9178.553681
1875.871229,-148.041188,1149.143247,8586.388927
1875.871551,1036.288319,1532.190996,9400.615463
1875.871872,1406.391290,1838.629195,9474.636058
1875.872193,1110.308913,1149.143247,9548.656652
1875.872514,222.061783,383.047749,9400.615463
1875.872836,-1480.411884,229.828649,8882.471304
1875.873157,0.000000,0.000000,8586.388927
1875.873478,296.082377,153.219100,8808.450710
1875.873800,0.000000,842.705048,10066.800811
1875.874121,0.000000,1225.752797,10732.986159
1875.874442,888.247130,842.705048,9474.636058
1875.874764,2220.617826,1225.752797,9252.574275
1875.875085,814.226536,1302.362347,9400.615463
1875.875406,-962.267725,1608.800546,10288.862594
1875.875727,-814.226536,536.266849,10214.842000
1875.876048,-444.123565,-229.828649,9030.512492
1875.876370,-1480.411884,0.000000,8660.409521
1875.876691,-2664.741391,-229.828649,8734.430116
1875.877012,-1924.535449,0.000000,8734.430116
1875.877333,0.000000,153.219100,9104.533087
1875.877655,-222.061783,229.828649,9104.533087
1875.877976,-888.247130,612.876398,8956.491898
1875.878297,-518.144159,842.705048,8512.368333
1875.878618,148.041188,766.095498,8068.244768
1875.878940,370.102971,-459.657299,8660.409521
1875.879261,-1258.350101,-383.047749,9400.615463
1875.879582,-1850.514855,0.000000,9400.615463
1875.879903,-518.144159,-842.705048,9252.574275
1875.880225,0.000000,-536.266849,8734.430116
1875.880546,0.000000,76.609550,10140.821405
1875.880867,-814.226536,306.438199,10066.800811
1875.881188,222.061783,-153.219100,10214.842000
1875.881509,1332.370696,0.000000,9844.739029
1875.881831,1184.329507,689.485948,9918.759623
1875.882152,-296.082377,459.657299,10214.842000
1875.882473,-444.123565,383.047749,10066.800811
1875.882794,592.164754,459.657299,9918.759623
1875.883116,-370.102971,0.000000,9252.574275
1875.883437,-1850.514855,0.000000,9474.636058
1875.883758,-962.267725,76.609550,9104.533087
1875.884079,-296.082377,0.000000,9104.533087
1875.884401,-222.061783,0.000000,9474.636058
1875.884722,-666.185348,1072.533697,9770.718434
1875.885043,-518.144159,459.657299,9252.574275
1875.885364,222.061783,459.657299,8808.450710
1875.885685,-296.082377,766.095498,9178.553681
1875.886007,-370.102971,229.828649,9696.697840
1875.886328,-1406.391290,995.924147,9178.553681
1875.886649,0.000000,612.876398,7772.162391
1875.886970,1110.308913,1225.752797,8438.347739
1875.887292,148.041188,1225.752797,8586.388927
1875.887613,-222.061783,1532.190996,9104.533087
1875.887934,1184.329507,1685.410096,8660.409521
1875.888255,1776.494261,1762.019645,8808.450710
1875.888577,1258.350101,1838.629195,9474.636058
1875.888898,74.020594,1685.410096,9696.697840
1875.889219,0.000000,1455.581446,9622.677246
1875.889540,74.020594,536.266849,9178.553681
1875.889861,-1184.329507,919.314598,8586.388927
1875.890183,-1702.473667,689.485948,9030.512492
1875.890504,-962.267725,1225.752797,9474.636058
1875.890825,1110.308913,1225.752797,9696.697840
1875.891146,592.164754,1225.752797,9844.739029
1875.891468,-444.123565,1072.533697,9844.739029
1875.891789,444.123565,1455.581446,9548.656652
1875.892110,740.205942,1225.752797,8956.491898
1875.892431,666.185348,1608.800546,8882.471304
1875.892753,-518.144159,1378.971896,9178.553681
1875.893074,-1702.473667,76.609550,9030.512492
1875.893395,-1110.308913,0.000000,8586.388927
1875.893716,-888.247130,-306.438199,8142.265362
1875.894038,-1184.329507,153.219100,9178.553681
1875.894359,-1258.350101,1149.143247,9770.718434
1875.894680,444.123565,-76.609550,9474.636058
1875.895001,2072.576638,1149.143247,9030.512492
1875.895322,1110.308913,689.485948,9030.512492
1875.895644,0.000000,919.314598,9474.636058
1875.895965,592.164754,919.314598,10140.821405
1875.896286,814.226536,383.047749,9992.780217
1875.896607,0.000000,-229.828649,9622.677246
1875.896929,-1776.494261,-919.314598,8438.347739
1875.897250,-1554.432478,0.000000,8734.430116
1875.897571,-296.082377,-306.438199,8956.491898
1875.897892,-666.185348,-459.657299,9770.718434
1875.898214,-1036.288319,-153.219100,9992.780217
1875.898535,-518.144159,76.609550,9474.636058
1875.898856,888.247130,459.657299,8882.471304
1875.899177,1406.391290,0.000000,9622.677246
1875.899498,-740.205942,153.219100,9400.615463
1875.899820,-1036.288319,-612.876398,9252.574275
1875.900141,-518.144159,-689.485948,8956.491898
1875.900462,-518.144159,-766.095498,8290.306550
1875.900783,-592.164754,-612.876398,8808.450710
1875.901105,-1702.473667,229.828649,9104.533087
1875.901426,-888.247130,536.266849,9548.656652
1875.901747,814.226536,-153.219100,9696.697840
1875.902068,740.205942,76.609550,9696.697840
1875.902390,-296.082377,689.485948,9844.739029
1875.902711,-222.061783,995.924147,9844.739029
1875.903032,370.102971,383.047749,10140.821405
1875.903353,-666.185348,76.609550,9474.636058
1875.903674,-1702.473667,0.000000,8808.450710
1875.903996,-1184.329507,0.000000,8512.368333
1875.904317,-740.205942,229.828649,8438.347739
1875.904638,-888.247130,229.828649,9400.615463
1875.904959,-1480.411884,0.000000,9474.636058
1875.905281,-1628.453072,0.000000,9178.553681
1875.905602,-370.102971,536.266849,8438.347739
1875.905923,444.123565,306.438199,8438.347739
1875.906244,-814.226536,1072.533697,9400.615463
1875.906566,-666.185348,76.609550,9844.739029
1875.906887,370.102971,919.314598,8734.430116
1875.907208,888.247130,306.438199,8364.327145
1875.907529,0.000000,689.485948,8660.409521
1875.907851,0.000000,995.924147,9622.677246
1875.908172,1184.329507,1072.533697,9622.677246
1875.908493,2072.576638,0.000000,10140.821405
1875.908814,1110.308913,1149.143247,9918.759623
1875.909135,74.020594,1225.752797,9622.677246
1875.909457,444.123565,919.314598,9622.677246
1875.909778,0.000000,383.047749,9400.615463
1875.910099,-1110.308913,0.000000,9326.594869
1875.910420,-1628.453072,612.876398,9696.697840
1875.910742,-1480.411884,0.000000,8586.388927
1875.911063,148.041188,0.000000,8290.306550
1875.911384,-296.082377,383.047749,8956.491898
1875.911705,-1036.288319,383.047749,9474.636058
1875.912027,518.144159,459.657299,9844.739029
1875.912348,1628.453072,766.095498,9326.594869
1875.912669,1702.473667,1149.143247,8586.388927
1875.912990,1258.350101,1302.362347,9030.512492
1875.913311,0.000000,383.047749,8808.450710
1875.913633,962.267725,153.219100,8364.327145
1875.913954,888.247130,153.219100,8734.430116
1875.914275,74.020594,766.095498,9178.553681
1875.914596,0.000000,1149.143247,9622.677246
1875.914918,962.267725,919.314598,9474.636058
1875.915239,1924.535449,1378.971896,9474.636058
1875.915560,1258.350101,842.705048,9030.512492
1875.915881,0.000000,1072.533697,9844.739029
1875.916203,0.000000,1455.581446,9104.533087
1875.916524,0.000000,1149.143247,9548.656652
1875.916845,-1036.288319,919.314598,10140.821405
1875.917166,-2738.761985,0.000000,9252.574275
1875.917487,-2960.823768,0.000000,8290.306550
1875.917809,-1406.391290,-229.828649,8882.471304
1875.918130,-1258.350101,306.438199,8956.491898
1875.918451,-2368.659014,459.657299,9548.656652
1875.918772,-1258.350101,995.924147,9622.677246
1875.919094,592.164754,995.924147,9326.594869
1875.919415,1036.288319,1225.752797,8882.471304
1875.919736,370.102971,1532.190996,9178.553681
1875.920057,370.102971,1455.581446,10066.800811
1875.920379,666.185348,-153.219100,9252.574275
1875.920700,444.123565,383.047749,9104.533087
1875.921021,-592.164754,0.000000,8956.491898
1875.921342,-2072.576638,0.000000,8808.450710
1875.921664,-814.226536,153.219100,8956.491898
1875.921985,-222.061783,0.000000,9400.615463
1875.922306,-962.267725,1149.143247,9844.739029
1875.922627,-962.267725,689.485948,9696.697840
1875.922948,-592.164754,612.876398,8956.491898
1875.923270,370.102971,383.047749,8882.471304
1875.923591,-814.226536,0.000000,8660.409521
1875.923912,-2220.617826,-306.438199,9696.697840
1875.924233,-1850.514855,-536.266849,9252.574275
1875.924555,-518.144159,-919.314598,8364.327145
1875.924876,-666.185348,-612.876398,8068.244768
1875.925197,-1184.329507,-306.438199,9548.656652
1875.925518,-888.247130,-919.314598,10288.862594
1875.925840,296.082377,-689.485948,9326.594869
1875.926161,1184.329507,-612.876398,9400.615463
1875.926482,296.082377,0.000000,10140.821405
1875.926803,0.000000,0.000000,10140.821405
1875.927124,1110.308913,0.000000,9178.553681
1875.927446,2072.576638,76.609550,9178.553681
1875.927767,0.000000,0.000000,9252.574275
1875.928088,74.020594,229.828649,9252.574275
1875.928409,888.247130,153.219100,9178.553681
1875.928731,1776.494261,306.438199,9326.594869
1875.929052,814.226536,536.266849,9474.636058
1875.929373,-444.123565,536.266849,9104.533087
1875.929694,444.123565,1072.533697,9030.512492
1875.930016,1036.288319,766.095498,8882.471304
1875.930337,74.020594,612.876398,9474.636058
1875.930658,-1332.370696,459.657299,9770.718434
1875.930979,-1480.411884,76.609550,8660.409521
1875.931300,296.082377,536.266849,7994.224174
1875.931622,-296.082377,689.485948,8364.327145
1875.931943,-1036.288319,1532.190996,9474.636058
1875.932264,-370.102971,1302.362347,10066.800811
1875.932585,666.185348,1378.971896,9326.594869
1875.932907,1332.370696,1455.581446,8586.388927
1875.933228,518.144159,1532.190996,9030.512492
1875.933549,-518.144159,1455.581446,9548.656652
1875.933870,74.020594,1072.533697,9104.533087
1875.934192,-666.185348,919.314598,9178.553681
1875.934513,-1406.391290,766.095498,9104.533087
1875.934834,-2516.700203,536.266849,8956.491898
1875.935155,-666.185348,1149.143247,8808.450710
1875.935477,222.061783,1149.143247,9548.656652
1875.935798,-518.144159,919.314598,9844.739029
1875.936119,-740.205942,1378.971896,9474.636058
1875.936440,0.000000,1685.410096,9104.533087
1875.936761,740.205942,1302.362347,9326.594869
1875.937083,-370.102971,1378.971896,9770.718434
1875.937404,-1628.453072,689.485948,9622.677246
1875.937725,-1110.308913,612.876398,9474.636058
1875.938046,0.000000,153.219100,8512.368333
1875.938368,-592.164754,766.095498,8068.244768
1875.938689,-1036.288319,689.485948,9918.759623
1875.939010,-148.041188,1455.581446,9252.574275
1875.939331,1258.350101,1149.143247,8808.450710
1875.939653,1850.514855,995.924147,8734.430116
1875.939974,962.267725,1149.143247,9326.594869
1875.940295,814.226536,1532.190996,9992.780217
1875.940616,666.185348,995.924147,9474.636058
1875.940937,592.164754,306.438199,8808.450710
1875.941259,-1110.308913,-995.924147,8734.430116
1875.941580,-1554.432478,-459.657299,8586.388927
1875.941901,-1036.288319,-459.657299,9178.553681
1875.942222,-666.185348,-459.657299,9400.615463
1875.942544,-1332.370696,-536.266849,9844.739029
1875.942865,-1332.370696,0.000000,9474.636058
1875.943186,-370.102971,0.000000,8956.491898
1875.943507,1036.288319,536.266849,8956.491898
1875.943829,370.102971,306.438199,9992.780217
1875.944150,-1776.494261,-229.828649,10362.883188
1875.944471,-814.226536,-689.485948,9548.656652
1875.944792,-518.144159,-919.314598,9178.553681
1875.945113,-1332.370696,-995.924147,9400.615463
1875.945435,-2220.617826,-1072.533697,9400.615463
1875.945756,-1628.453072,-919.314598,9696.697840
1875.946077,0.000000,-995.924147,9622.677246
1875.946398,296.082377,0.000000,9622.677246
1875.946720,74.020594,459.657299,9622.677246
1875.947041,-148.041188,689.485948,9252.574275
1875.947362,1406.391290,689.485948,9474.636058
1875.947683,1406.391290,383.047749,9474.636058
1875.948005,-370.102971,306.438199,8734.430116
1875.948326,0.000000,229.828649,8808.450710
1875.948647,222.061783,0.000000,7772.162391
1875.948968,296.082377,153.219100,8068.244768
1875.949290,222.061783,459.657299,9992.780217
1875.949611,-1036.288319,459.657299,9696.697840
1875.949932,296.082377,459.657299,9400.615463
1875.950253,592.164754,766.095498,8808.450710
1875.950574,-222.061783,689.485948,9030.512492
1875.950896,-1480.411884,919.314598,9844.739029
1875.951217,-1036.288319,612.876398,9252.574275
1875.951538,-222.061783,536.266849,9252.574275
1875.951859,-1110.308913,459.657299,8438.347739
1875.952181,-1776.494261,459.657299,8956.491898
1875.952502,-518.144159,1072.533697,9844.739029
1875.952823,814.226536,1149.143247,9400.615463
1875.953144,1258.350101,1378.971896,9252.574275
1875.953466,0.000000,1455.581446,8808.450710
1875.953787,296.082377,1838.629195,9400.615463
1875.954108,1628.453072,1915.238745,9474.636058
1875.954429,740.205942,1072.533697,9474.636058
1875.954750,74.020594,919.314598,9844.739029
1875.955072,-740.205942,1072.533697,9326.594869
1875.955393,962.267725,-153.219100,8068.244768
1875.955714,1628.453072,1302.362347,8438.347739
1875.956035,148.041188,1532.190996,9474.636058
1875.956357,-592.164754,1838.629195,10214.842000
1875.956678,444.123565,1455.581446,9252.574275
1875.956999,1406.391290,919.314598,8290.306550
1875.957320,666.185348,1991.848295,8512.368333
1875.957642,-1110.308913,2068.457845,9548.656652
1875.957963,-1924.535449,459.657299,9622.677246
1875.958284,-888.247130,-689.485948,9104.533087
1875.958605,-1776.494261,0.000000,8438.347739
1875.958926,-2664.741391,153.219100,8882.471304
1875.959248,-2294.638420,459.657299,9178.553681
1875.959569,518.144159,229.828649,9400.615463
1875.959890,814.226536,842.705048,9104.533087
1875.960211,222.061783,1225.752797,9622.677246
1875.960533,444.123565,842.705048,9696.697840
1875.960854,1480.411884,612.876398,9252.574275
1875.961175,1036.288319,612.876398,9622.677246
1875.961496,74.020594,229.828649,10140.821405
1875.961818,-1332.370696,0.000000,9400.615463
1875.962139,296.082377,0.000000,8512.368333
1875.962460,1628.453072,-153.219100,7105.977043
1875.962781,-222.061783,689.485948,9030.512492
1875.963103,-222.061783,766.095498,10066.800811
1875.963424,0.000000,306.438199,9770.718434
1875.963745,2072.576638,536.266849,9030.512492
1875.964066,-74.020594,229.828649,9400.615463
1875.964387,-666.185348,229.828649,10288.862594
1875.964709,-1036.288319,612.876398,10288.862594
1875.965030,-1184.329507,-766.095498,8882.471304
1875.965351,-1998.556043,-1149.143247,9622.677246
1875.965672,-3034.844362,-1149.143247,9178.553681
1875.965994,-2516.700203,-612.876398,9178.553681
1875.966315,-740.205942,-536.266849,9326.594869
1875.966636,-1258.350101,-459.657299,9252.574275
1875.966957,-518.144159,383.047749,10510.924376
1875.967279,74.020594,766.095498,9252.574275
1875.967600,1924.535449,229.828649,8438.347739
1875.967921,1850.514855,689.485948,9326.594869
1875.968242,-296.082377,612.876398,9770.718434
1875.968563,-518.144159,229.828649,9918.759623
1875.968885,148.041188,-76.609550,8660.409521
1875.969206,-148.041188,-229.828649,7772.162391
1875.969527,-666.185348,0.000000,8438.347739
1875.969848,-1480.411884,229.828649,9474.636058
1875.970170,-296.082377,153.219100,9178.553681
1875.970491,370.102971,153.219100,9030.512492
1875.970812,-148.041188,919.314598,9252.574275
1875.971133,-814.226536,1225.752797,9696.697840
1875.971455,-222.061783,536.266849,9252.574275
1875.971776,888.247130,1072.533697,8734.430116
1875.972097,-296.082377,536.266849,8216.285956
1875.972418,-2146.597232,76.609550,9474.636058
1875.972739,-1332.370696,383.047749,9400.615463
1875.973061,-370.102971,229.828649,9474.636058
1875.973382,0.000000,766.095498,9696.697840
1875.973703,-592.164754,919.314598,10066.800811
1875.974024,-444.123565,766.095498,10288.862594
1875.974346,1406.391290,1072.533697,9030.512492
1875.974667,740.205942,1149.143247,9474.636058
1875.974988,0.000000,842.705048,9770.718434
1875.975309,-888.247130,919.314598,9548.656652
1875.975631,222.061783,766.095498,8142.265362
1875.975952,370.102971,842.705048,8142.265362
1875.976273,0.000000,919.314598,8586.388927
1875.976594,-296.082377,1302.362347,9548.656652
1875.976916,592.164754,1072.533697,8882.471304
1875.977237,1480.411884,919.314598,8808.450710
1875.977558,1036.288319,1072.533697,9030.512492
1875.977879,-518.144159,1225.752797,9252.574275
1875.978200,-148.041188,1225.752797,9844.739029
1875.978522,592.164754,536.266849,9622.677246
1875.978843,-740.205942,383.047749,9104.533087
1875.979164,-1332.370696,-612.876398,8586.388927
1875.979485,-1480.411884,76.609550,8956.491898
1875.979806,518.144159,459.657299,9400.615463
1875.980128,296.082377,612.876398,10066.800811
1875.980449,-296.082377,612.876398,10066.800811
1875.980770,1184.329507,306.438199,9992.780217
1875.981091,1406.391290,1302.362347,8956.491898
1875.981413,1258.350101,919.314598,9252.574275
1875.981734,0.000000,536.266849,10214.842000
1875.982055,-1554.432478,-306.438199,10140.821405
1875.982376,-888.247130,-383.047749,9252.574275
1875.982697,-888.247130,-612.876398,7994.224174
1875.983019,-1554.432478,0.000000,8586.388927
1875.983340,-1998.556043,229.828649,9622.677246
1875.983661,0.000000,383.047749,9400.615463
1875.983982,1554.432478,306.438199,9252.574275
1875.984304,0.000000,536.266849,9030.512492
1875.984625,-444.123565,919.314598,9474.636058
1875.984946,222.061783,919.314598,9252.574275
1875.985267,444.123565,383.047749,9178.553681
1875.985588,-444.123565,689.485948,9252.574275
1875.985910,-2146.597232,229.828649,9104.533087
1875.986231,-1258.350101,-689.485948,7772.162391
1875.986552,-666.185348,-536.266849,8808.450710
1875.986873,-1184.329507,0.000000,9696.697840
1875.987195,-1184.329507,306.438199,10658.965565
1875.987516,-222.061783,306.438199,9474.636058
1875.987837,1406.391290,1149.143247,8364.327145
1875.988158,1554.432478,842.705048,9548.656652
1875.988479,-740.205942,1149.143247,9326.594869
1875.988801,-888.247130,153.219100,9770.718434
1875.989122,-518.144159,-383.047749,8734.430116
1875.989443,-148.041188,-536.266849,7994.224174
1875.989764,-962.267725,0.000000,8882.471304
1875.990085,-2072.576638,229.828649,9326.594869
1875.990407,-1110.308913,0.000000,8956.491898
1875.990728,518.144159,153.219100,8586.388927
1875.991049,370.102971,383.047749,9400.615463
1875.991370,-74.020594,766.095498,9252.574275
1875.991692,1110.308913,919.314598,9622.677246
1875.992013,1998.556043,1225.752797,9844.739029
1875.992334,592.164754,76.609550,9770.718434
1875.992655,-1036.288319,229.828649,9844.739029
1875.992976,74.020594,306.438199,9178.553681
1875.993298,0.000000,76.609550,8660.409521
1875.993619,296.082377,459.657299,9770.718434
1875.993940,-888.247130,612.876398,10362.883188
1875.994261,-666.185348,383.047749,9548.656652
1875.994583,666.185348,229.828649,8438.347739
1875.994904,518.144159,612.876398,8290.306550
1875.995225,-296.082377,1225.752797,9400.615463
1875.995546,-592.164754,1149.143247,9178.553681
1875.995867,370.102971,612.876398,8808.450710
1875.996189,74.020594,229.828649,7920.203579
1875.996510,-888.247130,459.657299,8438.347739
1875.996831,-962.267725,459.657299,9178.553681
1875.997152,222.061783,612.876398,9474.636058
1875.997474,1036.288319,1455.581446,9400.615463
1875.997795,370.102971,919.314598,9548.656652
1875.998116,-296.082377,1149.143247,9474.636058
1875.998437,518.144159,1302.362347,9030.512492
1875.998758,518.144159,995.924147,9400.615463
1875.999080,-444.123565,1225.752797,10066.800811
1875.999401,-1406.391290,689.485948,10510.924376
1875.999722,-1480.411884,153.219100,8956.491898
1876.000043,444.123565,153.219100,9030.512492
1876.000364,-370.102971,612.876398,8956.491898
1876.000686,-1332.370696,689.485948,9918.759623
1876.001007,0.000000,842.705048,10807.006753
1876.001328,1036.288319,766.095498,9474.636058
1876.001649,814.226536,842.705048,8808.450710
1876.001971,0.000000,1685.410096,9178.553681
1876.002292,-962.267725,612.876398,9400.615463
1876.002613,296.082377,0.000000,9400.615463
1876.002934,0.000000,0.000000,8586.388927
1876.003255,-1036.288319,229.828649,8438.347739
1876.003577,-1776.494261,229.828649,8364.327145
1876.003898,518.144159,612.876398,8734.430116
1876.004219,1554.432478,1072.533697,9104.533087
1876.004540,370.102971,766.095498,9178.553681
1876.004862,370.102971,1302.362347,9622.677246
1876.005183,1332.370696,1378.971896,8956.491898
1876.005504,1110.308913,842.705048,8956.491898
1876.005825,0.000000,459.657299,9844.739029
1876.006146,-2442.679609,-306.438199,10140.821405
1876.006468,-2516.700203,-383.047749,8734.430116
1876.006789,-1258.350101,-689.485948,8734.430116
1876.007110,-1480.411884,-383.047749,8956.491898
1876.007431,-2220.617826,0.000000,9770.718434
1876.007752,-1406.391290,76.609550,9770.718434
1876.008074,370.102971,0.000000,9844.739029
1876.008395,666.185348,766.095498,9474.636058
1876.008716,0.000000,689.485948,9918.759623
1876.009037,-370.102971,919.314598,9622.677246
1876.009359,370.102971,-536.266849,8808.450710
1876.009680,370.102971,0.000000,9474.636058
1876.010001,-740.205942,-306.438199,9326.594869
1876.010322,-1406.391290,-689.485948,8586.388927
1876.010643,0.000000,-229.828649,8068.244768
1876.010965,592.164754,-306.438199,8956.491898
1876.011286,148.041188,536.266849,9696.697840
1876.011607,222.061783,1149.143247,9474.636058
1876.011928,1036.288319,995.924147,8512.368333
1876.012250,2368.659014,1225.752797,8808.450710
1876.012571,296.082377,766.095498,9326.594869
1876.012892,-1480.411884,536.266849,9992.780217
1876.013213,-1036.288319,0.000000,9770.718434
1876.013534,-814.226536,-459.657299,8734.430116
1876.013856,-1184.329507,-689.485948,8734.430116
1876.014177,-2220.617826,0.000000,9622.677246
1876.014498,-1258.350101,-229.828649,9918.759623
1876.014819,-148.041188,0.000000,9992.780217
1876.015141,0.000000,383.047749,9770.718434
1876.015462,-370.102971,689.485948,9844.739029
1876.015783,-148.041188,919.314598,10140.821405
1876.016104,2146.597232,1302.362347,10214.842000
1876.016425,962.267725,612.876398,9178.553681
1876.016747,-370.102971,612.876398,8660.409521
1876.017068,-222.061783,1072.533697,8956.491898
1876.017389,888.247130,766.095498,8364.327145
1876.017710,1258.350101,612.876398,8734.430116
1876.018031,962.267725,766.095498,9030.512492
1876.018353,-370.102971,1225.752797,9474.636058
1876.018674,444.123565,1455.581446,8438.347739
1876.018995,962.267725,1302.362347,8660.409521
1876.019316,-222.061783,1149.143247,9696.697840
1876.019638,-1554.432478,919.314598,9326.594869
1876.019959,-1480.411884,459.657299,9104.533087
1876.020280,-296.082377,689.485948,8660.409521
1876.020601,-1184.329507,306.438199,8808.450710
1876.020922,-1406.391290,1378.971896,9252.574275
1876.021244,-444.123565,995.924147,9696.697840
1876.021565,592.164754,919.314598,9030.512492
1876.021886,888.247130,1378.971896,9474.636058
1876.022207,222.061783,1225.752797,9622.677246
1876.022529,-222.061783,689.485948,9696.697840
1876.022850,814.226536,0.000000,9326.594869
1876.023171,0.000000,153.219100,9252.574275
1876.023492,-1110.308913,0.000000,10288.862594
1876.023813,-1110.308913,0.000000,9030.512492
1876.024135,148.041188,229.828649,8290.306550
1876.024456,888.247130,995.924147,8660.409521
1876.024777,0.000000,536.266849,9844.739029
1876.025098,222.061783,919.314598,9548.656652
1876.025419,1110.308913,995.924147,9696.697840
1876.025741,1110.308913,766.095498,8734.430116
1876.026062,518.144159,689.485948,9696.697840
1876.026383,-1184.329507,383.047749,9326.594869
1876.026704,-740.205942,-383.047749,8956.491898
1876.027026,-962.267725,-306.438199,8882.471304
1876.027347,-1628.453072,-459.657299,9030.512492
1876.027668,-2442.679609,-612.876398,9474.636058
1876.027989,-1776.494261,229.828649,9252.574275
1876.028310,666.185348,-306.438199,9622.677246
1876.028632,0.000000,229.828649,9326.594869
1876.028953,-444.123565,306.438199,9696.697840
1876.029274,296.082377,229.828649,9770.718434
1876.029595,296.082377,153.219100,9326.594869
1876.029917,370.102971,-766.095498,9252.574275
1876.030238,-1554.432478,-306.438199,8956.491898
1876.030559,-2146.597232,-612.876398,8660.409521
1876.030880,-518.144159,-689.485948,8290.306550
1876.031201,-370.102971,-383.047749,8808.450710
1876.031523,-518.144159,229.828649,9844.739029
1876.031844,-148.041188,459.657299,9696.697840
1876.032165,1332.370696,612.876398,8734.430116
1876.032486,2516.700203,383.047749,8882.471304
1876.032808,888.247130,1149.143247,9696.697840
1876.033129,296.082377,842.705048,10732.986159
1876.033450,148.041188,76.609550,9844.739029
1876.033771,296.082377,-383.047749,9326.594869
1876.034092,-888.247130,-383.047749,9474.636058
1876.034414,-2294.638420,-306.438199,9030.512492
1876.034735,-1406.391290,-536.266849,9474.636058
1876.035056,-444.123565,0.000000,9548.656652
1876.035377,-148.041188,153.219100,9696.697840
1876.035698,-814.226536,383.047749,9770.718434
1876.036020,-296.082377,612.876398,9178.553681
1876.036341,1184.329507,919.314598,9252.574275
1876.036662,518.144159,536.266849,9104.533087
1876.036983,-740.205942,76.609550,9548.656652
1876.037305,-1184.329507,306.438199,9178.553681
1876.037626,-296.082377,-153.219100,7772.162391
1876.037947,518.144159,0.000000,7698.141797
1876.038268,296.082377,383.047749,9030.512492
1876.038589,-814.226536,459.657299,9474.636058
1876.038911,814.226536,689.485948,9474.636058
1876.039232,2220.617826,1072.533697,9178.553681
1876.039553,1110.308913,1532.190996,9844.739029
1876.039874,592.164754,1838.629195,10140.821405
1876.040196,1110.308913,1149.143247,9918.759623
1876.040517,1332.370696,689.485948,9178.553681
1876.040838,74.020594,842.705048,9252.574275
1876.041159,-1036.288319,995.924147,9770.718434
1876.041480,-444.123565,1149.143247,9474.636058
1876.041802,370.102971,766.095498,8808.450710
1876.042123,296.082377,842.705048,9252.574275
1876.042444,-740.205942,689.485948,9400.615463
1876.042765,-888.247130,1225.752797,9400.615463
1876.043086,148.041188,842.705048,8438.347739
1876.043408,-814.226536,766.095498,9178.553681
1876.043729,-2294.638420,995.924147,9696.697840
1876.044050,-1924.535449,0.000000,9252.574275
1876.044371,-444.123565,306.438199,7994.224174
1876.044693,740.205942,842.705048,8216.285956
1876.045014,0.000000,1072.533697,9252.574275
1876.045335,296.082377,1455.581446,9474.636058
1876.045656,1702.473667,1378.971896,9474.636058
1876.045977,2590.720797,1608.800546,8660.409521
1876.046299,1480.411884,1991.848295,9474.636058
1876.046620,148.041188,1685.410096,9474.636058
1876.046941,666.185348,1072.533697,9844.739029
1876.047262,518.144159,306.438199,9474.636058
1876.047584,-1258.350101,0.000000,9400.615463
1876.047905,-2738.761985,0.000000,9474.636058
1876.048226,-2294.638420,0.000000,9252.574275
1876.048547,-518.144159,-536.266849,9178.553681
1876.048868,-1554.432478,0.000000,9474.636058
1876.049190,-1776.494261,-306.438199,10288.862594
1876.049511,-814.226536,229.828649,9622.677246
1876.049832,-296.082377,0.000000,8956.491898
1876.050153,-592.164754,0.000000,9548.656652
1876.050475,-2220.617826,0.000000,9474.636058
1876.050796,-2294.638420,-919.314598,8438.347739
1876.051117,-1332.370696,-459.657299,7920.203579
1876.051438,-370.102971,-689.485948,7846.182985
1876.051759,-888.247130,-229.828649,9400.615463
1876.052081,-370.102971,383.047749,9696.697840
1876.052402,1702.473667,306.438199,9400.615463
1876.052723,2368.659014,536.266849,9178.553681
1876.053044,1184.329507,842.705048,8808.450710
1876.053365,666.185348,536.266849,9622.677246
1876.053687,1184.329507,536.266849,9918.759623
1876.054008,518.144159,0.000000,9548.656652
1876.054329,-1036.288319,-919.314598,9548.656652
1876.054650,-2294.638420,-1072.533697,9178.553681
1876.054972,-1554.432478,-612.876398,8808.450710
1876.055293,-666.185348,-229.828649,9474.636058
1876.055614,-222.061783,0.000000,10955.047942
1876.055935,-740.205942,0.000000,10658.965565
1876.056256,74.020594,995.924147,9474.636058
1876.056578,1924.535449,995.924147,9104.533087
1876.056899,1480.411884,842.705048,9400.615463
1876.057220,74.020594,842.705048,10436.903782
1876.057541,-370.102971,612.876398,9918.759623
1876.057863,814.226536,229.828649,8956.491898
1876.058184,518.144159,153.219100,8290.306550
1876.058505,-888.247130,459.657299,8734.430116
1876.058826,-1480.411884,229.828649,9326.594869
1876.059147,296.082377,306.438199,8364.327145
1876.059469,962.267725,612.876398,8364.327145
1876.059790,296.082377,1455.581446,8808.450710
1876.060111,-296.082377,1685.410096,8956.491898
1876.060432,666.185348,1608.800546,8216.285956
1876.060754,1258.350101,1378.971896,7772.162391
1876.061075,-814.226536,1072.533697,8808.450710
1876.061396,-1702.473667,1072.533697,9252.574275
1876.061717,-814.226536,689.485948,8808.450710
1876.062038,0.000000,612.876398,8512.368333
1876.062360,-518.144159,1072.533697,10066.800811
1876.062681,-1702.473667,229.828649,10140.821405
1876.063002,-666.185348,459.657299,9696.697840
1876.063323,962.267725,459.657299,9622.677246
1876.063644,148.041188,1378.971896,10436.903782
1876.063966,-1036.288319,1149.143247,10955.047942
1876.064287,-1110.308913,383.047749,9770.718434
