#time,accel_x,accel_y,accel_z
20884.998675,-2146.597232,306.438199,7624.121203
20884.998998,-2516.700203,0.000000,8438.347739
20884.999321,-2960.823768,76.609550,8586.388927
20884.999645,-2368.659014,76.609550,8882.471304
20884.999968,-2294.638420,229.828649,9474.636058
20885.000292,-2590.720797,689.485948,9622.677246
20885.000615,-2738.761985,0.000000,9622.677246
20885.000938,-2072.576638,153.219100,9696.697840
20885.001262,-1628.453072,-306.438199,10214.842000
20885.001585,-1776.494261,536.266849,11325.150913
20885.001909,-1554.432478,0.000000,10436.903782
20885.002232,-1258.350101,0.000000,9770.718434
20885.002555,-518.144159,-306.438199,9474.636058
20885.002879,-1184.329507,0.000000,9474.636058
20885.003202,-1998.556043,-153.219100,9622.677246
20885.003526,-2664.741391,-153.219100,9844.739029
20885.003849,-2368.659014,229.828649,8808.450710
20885.004172,-3701.029710,76.609550,8586.388927
20885.004496,-4589.276840,536.266849,9400.615463
20885.004819,-4663.297435,1149.143247,9622.677246
20885.005143,-4367.215058,1685.410096,9844.739029
20885.005466,-4293.194464,1225.752797,8956.491898
20885.005789,-5033.400406,1991.848295,8956.491898
20885.006113,-4885.359217,2681.334243,8882.471304
20885.006436,-3849.070898,2604.724693,8808.450710
20885.006760,-3108.864956,3064.381992,9104.533087
20885.007083,-2960.823768,3600.648841,9030.512492
20885.007406,-2516.700203,3753.867940,8956.491898
20885.007730,-1406.391290,3447.429741,8290.306550
20885.008053,-1332.370696,3370.820191,7920.203579
20885.008377,-1480.411884,3524.039291,8364.327145
20885.008700,-962.267725,4060.306139,8364.327145
20885.009023,-370.102971,3983.696590,8438.347739
20885.009347,-888.247130,4060.306139,8734.430116
20885.009670,-1628.453072,4136.915689,8808.450710
20885.009994,-1850.514855,4213.525239,9696.697840
20885.010317,-2146.597232,4366.744339,9474.636058
20885.010640,-1776.494261,4290.134789,9992.780217
20885.010964,-2738.761985,4596.572988,10214.842000
20885.011287,-3552.988522,4673.182538,9918.759623
20885.011611,-3701.029710,4213.525239,9474.636058
20885.011934,-3182.885551,3524.039291,8808.450710
20885.012257,-3552.988522,3830.477490,8512.368333
20885.012581,-4589.276840,4213.525239,7920.203579
20885.012904,-3923.091493,3524.039291,7846.182985
20885.013228,-3552.988522,2681.334243,7698.141797
20885.013551,-3108.864956,2298.286494,7402.059420
20885.013874,-3256.906145,2298.286494,7476.080014
20885.014198,-2664.741391,1532.190996,7846.182985
20885.014521,-1480.411884,1378.971896,8290.306550
20885.014844,0.000000,1608.800546,8216.285956
20885.015168,0.000000,919.314598,8956.491898
20885.015491,-148.041188,766.095498,8660.409521
20885.015815,0.000000,536.266849,9178.553681
20885.016138,-370.102971,612.876398,10362.883188
20885.016461,-1998.556043,383.047749,11769.274478
20885.016785,-3701.029710,536.266849,11547.212695
20885.017108,-3923.091493,383.047749,11621.233289
20885.017432,-5255.462188,-306.438199,11843.295072
20885.017755,-4959.379811,1072.533697,12287.418637
20885.018078,-5477.523971,1455.581446,11547.212695
20885.018402,-5181.441594,1685.410096,10288.862594
20885.018725,-4145.153275,1608.800546,9178.553681
20885.019049,-2960.823768,1762.019645,7254.018232
20885.019372,-2442.679609,689.485948,6365.771101
20885.019695,-1554.432478,0.000000,5033.400406
20885.020019,-888.247130,-766.095498,5551.544565
20885.020342,-1850.514855,-2145.067394,6735.874072
20885.020666,-2738.761985,-3064.381992,7698.141797
20885.020989,-3108.864956,-4519.963438,8216.285956
20885.021312,-2664.741391,-4596.572988,9622.677246
20885.021636,-1850.514855,-4290.134789,11103.089130
20885.021959,-666.185348,-2451.505594,11399.171507
20885.022283,222.061783,-842.705048,11029.068536
20885.022606,2442.679609,536.266849,10362.883188
20885.022929,3923.091493,1838.629195,9400.615463
20885.023253,5033.400406,3064.381992,7994.224174
20885.023576,5181.441594,2834.553343,7920.203579
20885.023899,5033.400406,2374.896044,7772.162391
20885.024223,2590.720797,995.924147,9104.533087
20885.024546,0.000000,-153.219100,10584.944971
20885.024869,-2664.741391,-2757.943793,11769.274478
20885.025192,-5255.462188,-3600.648841,13323.706956
20885.025515,-6365.771101,-3983.696590,14508.036463
20885.025839,-6957.935855,-3370.820191,14582.057057
20885.026162,-6365.771101,-1838.629195,12953.603985
20885.026485,-3997.112087,842.705048,11103.089130
20885.026808,-1628.453072,2604.724693,9178.553681
20885.027132,444.123565,4443.353888,6069.688724
20885.027455,1480.411884,5669.106685,4145.153275
20885.027778,1406.391290,6281.983084,3034.844362
20885.028101,1924.535449,5515.887586,2590.720797
20885.028424,1184.329507,4213.525239,3108.864956
20885.028748,-962.267725,1838.629195,4145.153275
20885.029071,-1924.535449,229.828649,5477.523971
20885.029394,-1702.473667,-1302.362347,7772.162391
20885.029717,-2072.576638,-2298.286494,8734.430116
20885.030041,-1332.370696,-1991.848295,9178.553681
20885.030364,-296.082377,-1915.238745,9474.636058
20885.030687,1184.329507,-766.095498,9696.697840
20885.031010,1998.556043,1455.581446,10658.965565
20885.031333,1628.453072,2221.676944,10955.047942
20885.031657,888.247130,3447.429741,11695.253884
20885.031980,296.082377,2911.162892,12065.356855
20885.032303,-740.205942,2681.334243,12583.501014
20885.032626,-1776.494261,2374.896044,12953.603985
20885.032950,-2368.659014,1455.581446,13175.665768
20885.033273,-1628.453072,766.095498,11843.295072
20885.033596,-1776.494261,-1072.533697,9918.759623
20885.033919,-1702.473667,-2068.457845,8882.471304
20885.034242,-1406.391290,-2911.162892,8068.244768
20885.034566,-1406.391290,-3294.210641,7624.121203
20885.034889,-962.267725,-3600.648841,7402.059420
20885.035212,-666.185348,-3907.087040,6883.915261
20885.035535,-296.082377,-4213.525239,6883.915261
20885.035858,-148.041188,-3447.429741,6439.791695
20885.036182,592.164754,-2221.676944,6809.894666
20885.036505,2368.659014,-1072.533697,7846.182985
20885.036828,2738.761985,383.047749,7698.141797
20885.037151,3034.844362,459.657299,7772.162391
20885.037475,2368.659014,1225.752797,8586.388927
20885.037798,1258.350101,1991.848295,9252.574275
20885.038121,814.226536,1608.800546,10362.883188
20885.038444,-666.185348,766.095498,11621.233289
20885.038767,-2516.700203,-306.438199,11251.130318
20885.039091,-2812.782580,-1149.143247,11843.295072
20885.039414,-2294.638420,-1838.629195,11473.192101
20885.039737,-2220.617826,-2221.676944,10807.006753
20885.040060,-1998.556043,-2681.334243,9770.718434
20885.040384,-444.123565,-3217.601092,8734.430116
20885.040707,-222.061783,-2987.772442,8068.244768
20885.041030,-666.185348,-2451.505594,7698.141797
20885.041353,-1332.370696,-2757.943793,8068.244768
20885.041676,-1036.288319,-3294.210641,8512.368333
20885.042000,-888.247130,-2757.943793,8882.471304
20885.042323,-370.102971,-1991.848295,9622.677246
20885.042646,222.061783,-1225.752797,10214.842000
20885.042969,1258.350101,-766.095498,10214.842000
20885.043292,2146.597232,76.609550,9844.739029
20885.043616,2368.659014,1149.143247,9992.780217
20885.043939,1702.473667,1302.362347,9400.615463
20885.044262,888.247130,1225.752797,8882.471304
20885.044585,148.041188,1762.019645,9030.512492
20885.044909,-2072.576638,1302.362347,8734.430116
20885.045232,-2442.679609,1225.752797,8586.388927
20885.045555,-2664.741391,1608.800546,8512.368333
20885.045878,-1776.494261,1149.143247,8290.306550
20885.046201,-1702.473667,842.705048,8290.306550
20885.046525,-1332.370696,919.314598,8438.347739
20885.046848,-370.102971,612.876398,7994.224174
20885.047171,444.123565,229.828649,7476.080014
20885.047494,592.164754,-689.485948,7328.038826
20885.047818,222.061783,-995.924147,7402.059420
20885.048141,148.041188,-1225.752797,7698.141797
20885.048464,518.144159,-1302.362347,9326.594869
20885.048787,1036.288319,-689.485948,10436.903782
20885.049110,1406.391290,-536.266849,9548.656652
20885.049434,2516.700203,-995.924147,9178.553681
20885.049757,2368.659014,-995.924147,9252.574275
20885.050080,2220.617826,306.438199,9844.739029
20885.050403,1184.329507,842.705048,10807.006753
20885.050727,296.082377,306.438199,9992.780217
20885.051050,-1036.288319,306.438199,10214.842000
20885.051373,-2886.803174,383.047749,10955.047942
20885.051696,-4589.276840,306.438199,11843.295072
20885.052019,-4663.297435,0.000000,11251.130318
20885.052343,-3478.967927,153.219100,10066.800811
20885.052666,-1628.453072,-306.438199,8882.471304
20885.052989,-2220.617826,-76.609550,7846.182985
20885.053312,-1110.308913,-383.047749,6883.915261
20885.053635,0.000000,-383.047749,6439.791695
20885.053959,962.267725,-919.314598,6365.771101
20885.054282,1258.350101,-1455.581446,6291.750507
20885.054605,1036.288319,-2145.067394,6291.750507
20885.054928,1628.453072,-2528.115143,7846.182985
20885.055252,2442.679609,-2451.505594,8734.430116
20885.055575,2516.700203,-2068.457845,9622.677246
20885.055898,2442.679609,-1991.848295,9474.636058
20885.056221,2442.679609,-1915.238745,9474.636058
20885.056544,2516.700203,-1072.533697,9696.697840
20885.056868,962.267725,-766.095498,10584.944971
20885.057191,-1628.453072,-995.924147,10584.944971
20885.057514,-2516.700203,-919.314598,10140.821405
20885.057837,-3923.091493,-612.876398,10732.986159
20885.058161,-4811.338623,-1072.533697,11325.150913
20885.058484,-5699.585753,-919.314598,11695.253884
20885.058807,-4663.297435,-1225.752797,11177.109724
20885.059130,-2664.741391,-1302.362347,10436.903782
20885.059453,-1258.350101,-383.047749,9178.553681
20885.059777,0.000000,-1532.190996,8142.265362
20885.060100,962.267725,-2145.067394,8068.244768
20885.060423,1184.329507,-2604.724693,7698.141797
20885.060746,1776.494261,-2604.724693,7698.141797
20885.061069,1628.453072,-2604.724693,8068.244768
20885.061393,1110.308913,-2528.115143,8586.388927
20885.061716,1776.494261,-2298.286494,8586.388927
20885.062039,2738.761985,-1608.800546,9474.636058
20885.062362,2960.823768,-689.485948,8734.430116
20885.062686,3552.988522,689.485948,8808.450710
20885.063009,2072.576638,1685.410096,9030.512492
20885.063332,1184.329507,1991.848295,8808.450710
20885.063655,296.082377,2528.115143,8512.368333
20885.063978,-1110.308913,2681.334243,9622.677246
20885.064302,-3849.070898,1915.238745,9770.718434
20885.064625,-5477.523971,995.924147,9622.677246
20885.064948,-5477.523971,229.828649,10214.842000
20885.065271,-5403.503377,-153.219100,9696.697840
20885.065595,-4663.297435,-306.438199,9178.553681
20885.065918,-3182.885551,-842.705048,8660.409521
20885.066241,-2368.659014,-1072.533697,7476.080014
20885.066564,-296.082377,-1225.752797,7550.100608
20885.066887,370.102971,-536.266849,8364.327145
20885.067211,888.247130,-1149.143247,8290.306550
20885.067534,2072.576638,-1378.971896,8438.347739
20885.067857,2368.659014,-1302.362347,8882.471304
20885.068180,2294.638420,-842.705048,9918.759623
20885.068504,3182.885551,0.000000,9992.780217
20885.068827,4071.132681,689.485948,10066.800811
20885.069150,3923.091493,612.876398,9770.718434
20885.069473,2368.659014,1225.752797,9326.594869
20885.069796,1184.329507,1072.533697,9400.615463
20885.070120,444.123565,842.705048,9326.594869
20885.070443,-1554.432478,919.314598,9474.636058
20885.070766,-3256.906145,612.876398,9696.697840
20885.071089,-5181.441594,0.000000,9622.677246
20885.071412,-4737.318029,-459.657299,9030.512492
20885.071736,-3256.906145,-995.924147,9326.594869
20885.072059,-2886.803174,-766.095498,9474.636058
20885.072382,-2590.720797,-1225.752797,8734.430116
20885.072705,-666.185348,-1685.410096,7994.224174
20885.073029,370.102971,-1915.238745,7624.121203
20885.073352,370.102971,-2451.505594,7624.121203
20885.073675,592.164754,-2374.896044,8438.347739
20885.073998,1406.391290,-2911.162892,7920.203579
20885.074321,1776.494261,-3064.381992,7846.182985
20885.074645,2146.597232,-2451.505594,9474.636058
20885.074968,2442.679609,-1302.362347,9622.677246
20885.075291,3478.967927,-919.314598,9622.677246
20885.075614,4293.194464,-536.266849,9104.533087
20885.075938,3478.967927,-536.266849,9030.512492
20885.076261,1036.288319,-306.438199,10066.800811
20885.076584,0.000000,-153.219100,9548.656652
20885.076907,-1406.391290,-383.047749,10362.883188
20885.077230,-3701.029710,-1149.143247,10955.047942
20885.077554,-5329.482782,-1302.362347,11029.068536
20885.077877,-5255.462188,-1378.971896,11325.150913
20885.078200,-4737.318029,-1302.362347,10584.944971
20885.078523,-3034.844362,-842.705048,10436.903782
20885.078847,-1332.370696,0.000000,9548.656652
20885.079170,-666.185348,-383.047749,7994.224174
20885.079493,740.205942,-306.438199,7402.059420
20885.079816,1036.288319,-383.047749,7254.018232
20885.080139,1258.350101,-842.705048,7254.018232
20885.080463,592.164754,-1378.971896,7179.997637
20885.080786,666.185348,-2298.286494,7328.038826
20885.081109,444.123565,-2221.676944,8290.306550
20885.081432,148.041188,-1685.410096,9326.594869
20885.081755,814.226536,-1378.971896,8586.388927
20885.082079,1406.391290,-1072.533697,8734.430116
20885.082402,1406.391290,0.000000,8734.430116
20885.082725,740.205942,995.924147,9252.574275
20885.083048,0.000000,1915.238745,9326.594869
20885.083372,-518.144159,1149.143247,9474.636058
20885.083695,-1480.411884,2145.067394,10510.924376
20885.084018,-2738.761985,1991.848295,11251.130318
20885.084341,-3256.906145,1685.410096,11325.150913
20885.084664,-2960.823768,842.705048,10436.903782
20885.084988,-1924.535449,766.095498,9696.697840
20885.085311,-1258.350101,0.000000,8808.450710
20885.085634,-814.226536,-536.266849,7994.224174
20885.085957,-222.061783,-842.705048,7624.121203
20885.086281,222.061783,-1378.971896,7920.203579
20885.086604,296.082377,-2145.067394,7920.203579
20885.086927,0.000000,-2221.676944,7550.100608
20885.087250,1184.329507,-1915.238745,8216.285956
20885.087573,2146.597232,-1455.581446,9104.533087
20885.087897,3330.926739,229.828649,9252.574275
20885.088220,3923.091493,536.266849,8956.491898
20885.088543,3552.988522,383.047749,8808.450710
20885.088866,3627.009116,995.924147,9178.553681
20885.089189,2960.823768,1762.019645,10288.862594
20885.089513,592.164754,1455.581446,9844.739029
20885.089836,-1850.514855,995.924147,9918.759623
20885.090159,-3182.885551,383.047749,10066.800811
20885.090482,-3923.091493,0.000000,10214.842000
20885.090806,-4441.235652,-689.485948,10066.800811
20885.091129,-4515.256246,-229.828649,10288.862594
20885.091452,-3108.864956,-153.219100,9844.739029
20885.091775,-962.267725,0.000000,8734.430116
20885.092098,74.020594,-919.314598,7920.203579
20885.092422,0.000000,-1149.143247,7920.203579
20885.092745,-518.144159,-1149.143247,7402.059420
20885.093068,1036.288319,-1915.238745,8216.285956
20885.093391,888.247130,-2604.724693,7846.182985
20885.093715,148.041188,-2604.724693,8438.347739
20885.094038,296.082377,-2145.067394,9030.512492
20885.094361,962.267725,-2068.457845,9474.636058
20885.094684,1480.411884,-1532.190996,9474.636058
20885.095007,2294.638420,-383.047749,9474.636058
20885.095331,1776.494261,-459.657299,9770.718434
20885.095654,370.102971,-383.047749,9400.615463
20885.095977,0.000000,76.609550,9918.759623
20885.096300,-1406.391290,0.000000,10362.883188
20885.096624,-3182.885551,-153.219100,10510.924376
20885.096947,-3701.029710,-459.657299,10584.944971
20885.097270,-3775.050304,-1302.362347,10510.924376
20885.097593,-3627.009116,-1072.533697,10436.903782
20885.097916,-3330.926739,-459.657299,10140.821405
20885.098240,-1036.288319,-766.095498,9252.574275
20885.098563,444.123565,-995.924147,8290.306550
20885.098886,666.185348,-842.705048,7402.059420
20885.099209,1480.411884,-689.485948,7772.162391
20885.099532,1702.473667,-536.266849,7476.080014
20885.099856,2146.597232,-306.438199,8142.265362
20885.100179,2442.679609,-842.705048,8068.244768
20885.100502,2072.576638,-1225.752797,8290.306550
20885.100825,1924.535449,-1072.533697,8364.327145
20885.101149,2072.576638,-229.828649,8956.491898
20885.101472,1776.494261,0.000000,8808.450710
20885.101795,296.082377,-612.876398,8364.327145
20885.102118,0.000000,0.000000,8438.347739
20885.102441,-1184.329507,919.314598,9178.553681
20885.102765,-2368.659014,689.485948,9770.718434
20885.103088,-4219.173869,1072.533697,10807.006753
20885.103411,-5107.421000,766.095498,10955.047942
20885.103734,-4441.235652,459.657299,10881.027347
20885.104058,-3404.947333,536.266849,11103.089130
20885.104381,-2146.597232,1072.533697,10362.883188
20885.104704,-740.205942,-306.438199,9770.718434
20885.105027,148.041188,153.219100,9178.553681
20885.105350,1258.350101,0.000000,8586.388927
20885.105674,1628.453072,-612.876398,8216.285956
20885.105997,888.247130,-919.314598,8142.265362
20885.106320,296.082377,-1378.971896,7624.121203
20885.106643,814.226536,-2451.505594,7698.141797
20885.106966,1110.308913,-1762.019645,8216.285956
20885.107290,1332.370696,-689.485948,9030.512492
20885.107613,1406.391290,0.000000,8586.388927
20885.107936,1776.494261,229.828649,8290.306550
20885.108259,1776.494261,383.047749,8586.388927
20885.108583,370.102971,995.924147,9326.594869
20885.108906,-1110.308913,1302.362347,8882.471304
20885.109229,-2146.597232,689.485948,8660.409521
20885.109552,-3478.967927,0.000000,9548.656652
20885.109875,-4811.338623,383.047749,10732.986159
20885.110199,-5255.462188,76.609550,11177.109724
20885.110522,-4145.153275,-459.657299,10436.903782
20885.110845,-2960.823768,-995.924147,9400.615463
20885.111168,-1258.350101,-919.314598,9104.533087
20885.111492,222.061783,-919.314598,8956.491898
20885.111815,1702.473667,-919.314598,8882.471304
20885.112138,1998.556043,-1225.752797,8438.347739
20885.112461,1554.432478,-1838.629195,8364.327145
20885.112784,1332.370696,-2374.896044,8438.347739
20885.113108,1480.411884,-2221.676944,8660.409521
20885.113431,2368.659014,-2374.896044,9104.533087
20885.113754,1776.494261,-1915.238745,9474.636058
20885.114077,888.247130,-1608.800546,9104.533087
20885.114401,1554.432478,-995.924147,8660.409521
20885.114724,1184.329507,-536.266849,8734.430116
20885.115047,592.164754,-153.219100,8660.409521
20885.115370,-740.205942,842.705048,9104.533087
20885.115693,-1924.535449,1532.190996,9696.697840
20885.116017,-2886.803174,766.095498,9474.636058
20885.116340,-3108.864956,306.438199,10288.862594
20885.116663,-3997.112087,76.609550,9548.656652
20885.116986,-3849.070898,-612.876398,9992.780217
20885.117309,-2294.638420,-459.657299,9474.636058
20885.117633,-518.144159,-536.266849,9104.533087
20885.117956,296.082377,-1608.800546,8512.368333
20885.118279,222.061783,-1455.581446,7772.162391
20885.118602,1110.308913,-1762.019645,7476.080014
20885.118926,1406.391290,-2451.505594,7624.121203
20885.119249,1184.329507,-2145.067394,8808.450710
20885.119572,1184.329507,-1838.629195,8808.450710
20885.119895,2072.576638,-1685.410096,9030.512492
20885.120218,2886.803174,-1149.143247,9252.574275
20885.120542,2664.741391,-536.266849,9474.636058
20885.120865,2220.617826,-229.828649,9104.533087
20885.121188,1184.329507,-383.047749,9548.656652
20885.121511,148.041188,383.047749,9474.636058
20885.121835,-888.247130,612.876398,9474.636058
20885.122158,-2738.761985,0.000000,9918.759623
20885.122481,-4737.318029,153.219100,10362.883188
20885.122804,-5403.503377,0.000000,10658.965565
20885.123127,-5107.421000,-689.485948,10732.986159
20885.123451,-4219.173869,-383.047749,10362.883188
20885.123774,-2886.803174,229.828649,9992.780217
20885.124097,-1110.308913,76.609550,9104.533087
20885.124420,296.082377,229.828649,8290.306550
20885.124744,1480.411884,229.828649,7476.080014
20885.125067,2294.638420,0.000000,7105.977043
20885.125390,2072.576638,-306.438199,7031.956449
20885.125714,1850.514855,-1378.971896,6735.874072
20885.126037,1702.473667,-919.314598,7179.997637
20885.126360,1554.432478,-1378.971896,8068.244768
20885.126684,1924.535449,-995.924147,8364.327145
20885.127007,2368.659014,-919.314598,8734.430116
20885.127330,1924.535449,-919.314598,8660.409521
20885.127654,962.267725,-306.438199,9178.553681
20885.127977,296.082377,612.876398,9030.512492
20885.128300,-370.102971,536.266849,9992.780217
20885.128624,-1110.308913,383.047749,9992.780217
20885.128947,-2960.823768,612.876398,10510.924376
20885.129270,-3923.091493,229.828649,11177.109724
20885.129594,-4441.235652,306.438199,11621.233289
20885.129917,-2886.803174,536.266849,11029.068536
20885.130240,-1776.494261,-689.485948,10510.924376
20885.130564,-1850.514855,-766.095498,8808.450710
20885.130887,-518.144159,-1378.971896,8438.347739
20885.131210,296.082377,-1455.581446,8660.409521
20885.131534,962.267725,-1685.410096,8068.244768
20885.131857,1036.288319,-1302.362347,7698.141797
20885.132180,1332.370696,-2528.115143,8142.265362
20885.132503,2294.638420,-2757.943793,7846.182985
20885.132827,2368.659014,-2145.067394,8216.285956
20885.133150,2442.679609,-1762.019645,9030.512492
20885.133473,2960.823768,-1378.971896,8660.409521
20885.133797,2886.803174,-1378.971896,8586.388927
20885.134120,2368.659014,-1072.533697,8956.491898
20885.134443,222.061783,-153.219100,9030.512492
20885.134767,-296.082377,153.219100,9178.553681
20885.135090,-1110.308913,229.828649,9326.594869
20885.135413,-2294.638420,383.047749,10066.800811
20885.135737,-3330.926739,229.828649,10658.965565
20885.136060,-3849.070898,229.828649,11325.150913
20885.136383,-3404.947333,-383.047749,10732.986159
20885.136707,-1924.535449,-689.485948,9622.677246
20885.137030,-1184.329507,-919.314598,9400.615463
20885.137353,-592.164754,-1072.533697,8586.388927
20885.137677,222.061783,-1455.581446,8438.347739
20885.138000,962.267725,-2451.505594,7920.203579
20885.138323,222.061783,-2757.943793,8660.409521
20885.138647,-296.082377,-2834.553343,7846.182985
20885.138970,740.205942,-3064.381992,7920.203579
20885.139293,1554.432478,-2757.943793,8586.388927
20885.139617,2146.597232,-1532.190996,9844.739029
20885.139940,2368.659014,766.095498,9696.697840
20885.140263,2886.803174,-306.438199,9104.533087
20885.140586,2294.638420,0.000000,8512.368333
20885.140910,1184.329507,766.095498,8956.491898
20885.141233,-222.061783,842.705048,10066.800811
20885.141556,-1776.494261,459.657299,9918.759623
20885.141880,-3404.947333,995.924147,10288.862594
20885.142203,-5107.421000,306.438199,9770.718434
20885.142526,-5847.626942,-306.438199,9474.636058
20885.142850,-4885.359217,-536.266849,9400.615463
20885.143173,-2886.803174,0.000000,9622.677246
20885.143496,-1924.535449,383.047749,8882.471304
20885.143820,-962.267725,383.047749,7550.100608
20885.144143,592.164754,0.000000,7772.162391
20885.144466,1702.473667,383.047749,7550.100608
20885.144790,2590.720797,229.828649,7476.080014
20885.145113,2294.638420,-536.266849,8216.285956
20885.145436,1924.535449,-612.876398,8216.285956
20885.145760,1924.535449,-612.876398,8956.491898
20885.146083,3182.885551,-689.485948,9326.594869
20885.146406,2368.659014,-766.095498,9326.594869
20885.146730,1480.411884,0.000000,8808.450710
20885.147053,1554.432478,0.000000,9474.636058
20885.147376,0.000000,0.000000,9474.636058
20885.147700,-1480.411884,689.485948,9474.636058
20885.148023,-3182.885551,612.876398,10066.800811
20885.148346,-4293.194464,-229.828649,10362.883188
20885.148669,-4293.194464,612.876398,10584.944971
20885.148993,-3997.112087,0.000000,10955.047942
20885.149316,-3997.112087,0.000000,10140.821405
20885.149639,-2812.782580,-153.219100,10288.862594
20885.149963,-1036.288319,-153.219100,9548.656652
20885.150286,296.082377,-689.485948,9104.533087
20885.150609,592.164754,-1378.971896,8364.327145
20885.150933,1110.308913,-995.924147,7772.162391
20885.151256,2072.576638,-1149.143247,7698.141797
20885.151579,2294.638420,-2451.505594,7772.162391
20885.151903,2442.679609,-1915.238745,7920.203579
20885.152226,1998.556043,-1762.019645,7476.080014
20885.152549,2146.597232,-1302.362347,8364.327145
20885.152873,2516.700203,-1225.752797,8586.388927
20885.153196,2072.576638,-842.705048,8364.327145
20885.153519,888.247130,-306.438199,8882.471304
20885.153843,-296.082377,-766.095498,8956.491898
20885.154166,-1850.514855,-536.266849,8808.450710
20885.154489,-2664.741391,-766.095498,9770.718434
20885.154813,-4219.173869,-919.314598,10732.986159
20885.155136,-4959.379811,-842.705048,11177.109724
20885.155459,-4589.276840,-612.876398,10807.006753
20885.155783,-2664.741391,-766.095498,11251.130318
20885.156106,-1850.514855,0.000000,10732.986159
20885.156429,-222.061783,0.000000,9844.739029
20885.156752,1258.350101,-153.219100,9622.677246
20885.157076,1554.432478,-1072.533697,9178.553681
20885.157399,1776.494261,-1532.190996,8438.347739
20885.157722,1850.514855,-1225.752797,8808.450710
20885.158046,814.226536,-2145.067394,8216.285956
20885.158369,592.164754,-1838.629195,8660.409521
20885.158692,1110.308913,-2451.505594,9030.512492
20885.159016,518.144159,-2068.457845,8734.430116
20885.159339,1184.329507,-1302.362347,8364.327145
20885.159662,1332.370696,-842.705048,8142.265362
20885.159986,370.102971,-306.438199,8364.327145
20885.160309,-148.041188,995.924147,8068.244768
20885.160632,-74.020594,1378.971896,8438.347739
20885.160956,-1702.473667,1762.019645,9252.574275
20885.161279,-4071.132681,1225.752797,9474.636058
20885.161602,-4219.173869,919.314598,10066.800811
20885.161926,-3775.050304,0.000000,9992.780217
20885.162249,-3034.844362,306.438199,10288.862594
20885.162572,-1850.514855,0.000000,10066.800811
20885.162896,-1406.391290,153.219100,9474.636058
20885.163219,-1184.329507,-612.876398,8660.409521
20885.163542,666.185348,-612.876398,8142.265362
20885.163866,1480.411884,-383.047749,8586.388927
20885.164189,1480.411884,-689.485948,8438.347739
20885.164512,1258.350101,-536.266849,8512.368333
20885.164835,2664.741391,-689.485948,9030.512492
20885.165159,1998.556043,-229.828649,8438.347739
20885.165482,2516.700203,153.219100,8512.368333
20885.165805,2442.679609,766.095498,9326.594869
20885.166129,2368.659014,919.314598,8586.388927
20885.166452,1850.514855,919.314598,8660.409521
20885.166775,370.102971,995.924147,8956.491898
20885.167099,-1924.535449,842.705048,9030.512492
20885.167422,-3182.885551,842.705048,9252.574275
20885.167745,-3701.029710,0.000000,9770.718434
20885.168069,-4441.235652,229.828649,10214.842000
20885.168392,-4663.297435,76.609550,10807.006753
20885.168715,-2812.782580,229.828649,10881.027347
20885.169039,-1332.370696,306.438199,9918.759623
20885.169362,-370.102971,0.000000,9252.574275
20885.169685,592.164754,-383.047749,8438.347739
20885.170009,1554.432478,-766.095498,7846.182985
20885.170332,2220.617826,-383.047749,7476.080014
20885.170655,1850.514855,-1608.800546,7624.121203
20885.170979,1258.350101,-2068.457845,7698.141797
20885.171302,1258.350101,-1915.238745,8142.265362
20885.171625,1184.329507,-1915.238745,9178.553681
20885.171949,1628.453072,-1991.848295,9104.533087
20885.172272,1406.391290,-689.485948,9104.533087
20885.172595,1628.453072,-306.438199,9178.553681
20885.172918,1776.494261,-536.266849,9252.574275
20885.173242,814.226536,-153.219100,8882.471304
20885.173565,-1406.391290,0.000000,9326.594869
20885.173888,-2516.700203,0.000000,9992.780217
20885.174212,-3627.009116,-383.047749,10066.800811
20885.174535,-4145.153275,-612.876398,11177.109724
20885.174858,-4515.256246,-1149.143247,11251.130318
20885.175182,-3478.967927,-919.314598,11029.068536
20885.175505,-2146.597232,-1455.581446,10436.903782
20885.175828,-1184.329507,-919.314598,9474.636058
20885.176152,0.000000,-995.924147,9178.553681
20885.176475,740.205942,-1378.971896,8438.347739
20885.176798,1628.453072,-1225.752797,7846.182985
20885.177122,2442.679609,-919.314598,7994.224174
20885.177445,2072.576638,-1378.971896,7846.182985
20885.177768,1776.494261,-1608.800546,7920.203579
20885.178092,1998.556043,-1302.362347,8290.306550
20885.178415,2368.659014,-1225.752797,8660.409521
20885.178738,1702.473667,-919.314598,8734.430116
20885.179062,1702.473667,-766.095498,8734.430116
20885.179385,592.164754,-995.924147,7698.141797
20885.179708,-666.185348,0.000000,7698.141797
20885.180032,-1776.494261,383.047749,8438.347739
20885.180355,-2590.720797,919.314598,9992.780217
20885.180678,-3923.091493,766.095498,10066.800811
20885.181001,-4219.173869,536.266849,10140.821405
20885.181325,-3775.050304,0.000000,10955.047942
20885.181648,-2368.659014,536.266849,10658.965565
20885.181971,-1406.391290,689.485948,10066.800811
20885.182295,-296.082377,229.828649,9400.615463
20885.182618,592.164754,-306.438199,8438.347739
20885.182941,666.185348,-766.095498,8586.388927
20885.183265,518.144159,-1149.143247,8660.409521
20885.183588,814.226536,-1762.019645,8586.388927
20885.183911,1110.308913,-1608.800546,8956.491898
20885.184235,1036.288319,-2221.676944,8586.388927
20885.184558,1110.308913,-1302.362347,9474.636058
20885.184881,1776.494261,-689.485948,9326.594869
20885.185205,2738.761985,0.000000,9104.533087
20885.185528,2664.741391,612.876398,8734.430116
20885.185851,1776.494261,1455.581446,8364.327145
20885.186175,1110.308913,1302.362347,8512.368333
20885.186498,-740.205942,1378.971896,7772.162391
20885.186821,-2294.638420,1072.533697,8808.450710
20885.187145,-4071.132681,612.876398,10066.800811
20885.187468,-5329.482782,0.000000,9844.739029
20885.187791,-4663.297435,0.000000,9770.718434
20885.188115,-3627.009116,-459.657299,10510.924376
20885.188438,-3108.864956,-459.657299,9474.636058
20885.188761,-1554.432478,0.000000,9696.697840
20885.189084,0.000000,-995.924147,8512.368333
20885.189408,888.247130,-842.705048,8290.306550
20885.189731,1184.329507,-612.876398,8068.244768
20885.190054,1184.329507,-1608.800546,7920.203579
20885.190378,1036.288319,-1915.238745,8142.265362
20885.190701,1924.535449,-1991.848295,8956.491898
20885.191024,2072.576638,-1991.848295,9252.574275
20885.191348,1406.391290,-1838.629195,9474.636058
20885.191671,1924.535449,-1149.143247,9326.594869
20885.191994,2294.638420,-1455.581446,8882.471304
20885.192318,1406.391290,-689.485948,9474.636058
20885.192641,518.144159,0.000000,9622.677246
20885.192964,0.000000,459.657299,10066.800811
20885.193288,-1406.391290,536.266849,9844.739029
20885.193611,-2886.803174,76.609550,10140.821405
20885.193934,-3923.091493,1149.143247,10807.006753
20885.194258,-3627.009116,0.000000,11547.212695
20885.194581,-3330.926739,-612.876398,10436.903782
20885.194904,-2294.638420,-766.095498,9696.697840
20885.195228,-1776.494261,-995.924147,8808.450710
20885.195551,-1480.411884,-1225.752797,7698.141797
20885.195874,-370.102971,-1149.143247,7105.977043
20885.196198,518.144159,-2451.505594,7920.203579
20885.196521,592.164754,-1685.410096,8290.306550
20885.196844,1036.288319,-1838.629195,8068.244768
20885.197167,1924.535449,-2145.067394,7994.224174
20885.197491,2664.741391,-1608.800546,8438.347739
20885.197814,3404.947333,-536.266849,8586.388927
20885.198137,3775.050304,76.609550,8808.450710
20885.198461,3108.864956,0.000000,8660.409521
20885.198784,2812.782580,459.657299,8586.388927
20885.199107,1554.432478,1072.533697,9252.574275
20885.199431,-518.144159,383.047749,9622.677246
20885.199754,-2146.597232,229.828649,10214.842000
20885.200077,-2590.720797,0.000000,11103.089130
20885.200401,-3849.070898,459.657299,11473.192101
20885.200724,-4589.276840,0.000000,11029.068536
20885.201047,-3330.926739,-229.828649,10807.006753
20885.201371,-2294.638420,76.609550,9696.697840
20885.201694,-1628.453072,0.000000,8734.430116
20885.202017,-592.164754,-306.438199,8216.285956
20885.202341,0.000000,-612.876398,7328.038826
20885.202664,74.020594,-919.314598,7550.100608
20885.202987,148.041188,-1838.629195,7179.997637
20885.203311,74.020594,-1608.800546,7624.121203
20885.203634,-296.082377,-1991.848295,8364.327145
20885.203957,148.041188,-1532.190996,8956.491898
20885.204281,1406.391290,-1455.581446,9030.512492
20885.204604,1702.473667,-306.438199,9252.574275
20885.204927,1406.391290,229.828649,8734.430116
20885.205250,1184.329507,766.095498,8438.347739
20885.205574,1406.391290,995.924147,8734.430116
20885.205897,0.000000,1455.581446,8808.450710
20885.206220,-1628.453072,1378.971896,9474.636058
20885.206544,-3182.885551,689.485948,10214.842000
20885.206867,-3775.050304,0.000000,10066.800811
20885.207190,-4071.132681,-1072.533697,10732.986159
20885.207514,-3849.070898,-842.705048,10658.965565
20885.207837,-3034.844362,-842.705048,9918.759623
20885.208160,-1332.370696,-1991.848295,8734.430116
20885.208484,296.082377,-1225.752797,8216.285956
20885.208807,1258.350101,-842.705048,9104.533087
20885.209130,666.185348,-919.314598,8956.491898
20885.209454,1702.473667,-1762.019645,7994.224174
20885.209777,2960.823768,-2298.286494,7179.997637
20885.210100,2960.823768,-2068.457845,9474.636058
20885.210424,2368.659014,-1378.971896,9400.615463
20885.210747,2960.823768,-1532.190996,9474.636058
20885.211070,3627.009116,-1608.800546,9326.594869
20885.211394,2442.679609,-536.266849,9474.636058
20885.211717,1554.432478,0.000000,9474.636058
20885.212040,222.061783,-919.314598,8808.450710
20885.212364,-1480.411884,-383.047749,8808.450710
20885.212687,-1850.514855,153.219100,9992.780217
20885.213010,-3701.029710,-306.438199,10214.842000
20885.213333,-4367.215058,-689.485948,9474.636058
20885.213657,-3627.009116,-612.876398,9918.759623
20885.213980,-2590.720797,-153.219100,9918.759623
20885.214303,-2516.700203,153.219100,9474.636058
20885.214627,-1258.350101,0.000000,8882.471304
20885.214950,444.123565,0.000000,7846.182985
20885.215273,1036.288319,-1072.533697,7772.162391
20885.215597,1258.350101,-1225.752797,7846.182985
20885.215920,1332.370696,-1608.800546,7994.224174
20885.216243,1480.411884,-1838.629195,8364.327145
20885.216567,1628.453072,-1149.143247,7994.224174
20885.216890,1702.473667,-2298.286494,9474.636058
20885.217213,1924.535449,-1532.190996,9548.656652
20885.217537,2146.597232,-536.266849,9548.656652
20885.217860,2146.597232,-612.876398,9400.615463
20885.218183,592.164754,0.000000,9178.553681
20885.218507,-1110.308913,76.609550,9326.594869
20885.218830,-1628.453072,229.828649,9400.615463
20885.219153,-3256.906145,0.000000,9696.697840
20885.219477,-4737.318029,536.266849,10510.924376
20885.219800,-5921.647536,-995.924147,11029.068536
20885.220123,-5699.585753,-842.705048,10214.842000
20885.220447,-4219.173869,-536.266849,10288.862594
20885.220770,-3108.864956,0.000000,9696.697840
20885.221093,-1850.514855,229.828649,9252.574275
20885.221416,-370.102971,306.438199,7846.182985
20885.221740,2146.597232,153.219100,7698.141797
20885.222063,2368.659014,-306.438199,7476.080014
20885.222386,2072.576638,-153.219100,7550.100608
20885.222710,2368.659014,-766.095498,8068.244768
20885.223033,2442.679609,-766.095498,8734.430116
20885.223356,2664.741391,-1149.143247,9104.533087
20885.223680,2886.803174,-995.924147,8956.491898
20885.224003,2220.617826,-919.314598,8438.347739
20885.224326,1628.453072,306.438199,7772.162391
20885.224649,1110.308913,229.828649,8882.471304
20885.224973,370.102971,766.095498,8734.430116
20885.225296,-1036.288319,1225.752797,8808.450710
20885.225619,-2664.741391,612.876398,9104.533087
20885.225942,-3923.091493,383.047749,9474.636058
20885.226266,-4515.256246,689.485948,10436.903782
20885.226589,-4441.235652,-306.438199,11177.109724
20885.226912,-3775.050304,-229.828649,10584.944971
20885.227235,-2368.659014,-919.314598,10288.862594
20885.227558,-1184.329507,-1225.752797,9770.718434
20885.227882,-296.082377,-1608.800546,9252.574275
20885.228205,296.082377,-1532.190996,8956.491898
20885.228528,1406.391290,-1608.800546,8068.244768
20885.228851,2146.597232,-1762.019645,8068.244768
20885.229174,2368.659014,-1378.971896,8364.327145
20885.229498,2516.700203,-1532.190996,8438.347739
20885.229821,2886.803174,-1149.143247,9252.574275
20885.230144,2960.823768,-536.266849,9400.615463
20885.230467,2960.823768,153.219100,9252.574275
20885.230791,1850.514855,-612.876398,8290.306550
20885.231114,888.247130,0.000000,7772.162391
20885.231437,-222.061783,689.485948,8586.388927
20885.231760,-2146.597232,0.000000,9030.512492
20885.232083,-3923.091493,-383.047749,9104.533087
20885.232407,-4959.379811,-689.485948,9770.718434
20885.232730,-5181.441594,-766.095498,10362.883188
20885.233053,-5403.503377,-1072.533697,10140.821405
20885.233376,-4515.256246,-1608.800546,9770.718434
20885.233699,-2664.741391,-995.924147,9252.574275
20885.234023,-444.123565,-1149.143247,9474.636058
20885.234346,0.000000,-1149.143247,9104.533087
20885.234669,962.267725,-1225.752797,8512.368333
20885.234992,1702.473667,-1532.190996,8660.409521
20885.235316,1702.473667,-1915.238745,8068.244768
20885.235639,1850.514855,-1915.238745,8734.430116
20885.235962,2294.638420,-1762.019645,9326.594869
20885.236285,1998.556043,-1915.238745,9326.594869
20885.236608,2812.782580,-995.924147,9474.636058
20885.236932,3108.864956,0.000000,9474.636058
20885.237255,2664.741391,459.657299,8882.471304
20885.237578,1702.473667,1072.533697,8438.347739
20885.237901,1184.329507,1149.143247,8290.306550
20885.238224,-370.102971,1149.143247,9104.533087
20885.238548,-2368.659014,1915.238745,9696.697840
20885.238871,-4293.194464,536.266849,10436.903782
20885.239194,-5181.441594,-306.438199,10140.821405
20885.239517,-4737.318029,-536.266849,10066.800811
20885.239841,-4219.173869,-689.485948,10066.800811
20885.240164,-3256.906145,-306.438199,9696.697840
20885.240487,-2146.597232,-76.609550,8882.471304
20885.240810,-888.247130,-459.657299,7994.224174
20885.241133,222.061783,-919.314598,7476.080014
20885.241457,592.164754,-766.095498,7846.182985
20885.241780,1406.391290,-612.876398,7550.100608
20885.242103,2294.638420,-689.485948,8290.306550
20885.242426,2664.741391,-612.876398,8068.244768
20885.242749,2664.741391,-459.657299,8882.471304
20885.243073,2664.741391,-536.266849,9474.636058
20885.243396,3182.885551,0.000000,9474.636058
20885.243719,2516.700203,76.609550,9030.512492
20885.244042,1258.350101,76.609550,9030.512492
20885.244366,-222.061783,612.876398,9326.594869
20885.244689,-962.267725,612.876398,9474.636058
20885.245012,-3256.906145,689.485948,9844.739029
20885.245335,-3627.009116,919.314598,10436.903782
20885.245658,-4589.276840,612.876398,10881.027347
20885.245982,-3775.050304,0.000000,10288.862594
20885.246305,-2442.679609,-229.828649,10214.842000
20885.246628,-2146.597232,383.047749,9474.636058
20885.246951,-1184.329507,76.609550,9400.615463
20885.247274,-148.041188,-995.924147,8660.409521
20885.247598,296.082377,-2068.457845,7994.224174
20885.247921,222.061783,-1915.238745,7772.162391
20885.248244,296.082377,-2451.505594,8586.388927
20885.248567,592.164754,-2681.334243,8882.471304
20885.248891,1258.350101,-2451.505594,8512.368333
20885.249214,1554.432478,-1915.238745,9326.594869
20885.249537,1998.556043,-1149.143247,9326.594869
20885.249860,2442.679609,0.000000,8956.491898
20885.250183,3034.844362,689.485948,8142.265362
20885.250507,2738.761985,766.095498,8734.430116
20885.250830,1036.288319,1225.752797,8512.368333
20885.251153,-592.164754,1455.581446,8882.471304
20885.251476,-2072.576638,919.314598,9548.656652
20885.251799,-3997.112087,383.047749,9696.697840
20885.252123,-4737.318029,-383.047749,10140.821405
20885.252446,-4959.379811,-995.924147,10214.842000
20885.252769,-3923.091493,-1149.143247,10288.862594
20885.253092,-2294.638420,-766.095498,10140.821405
20885.253416,-1258.350101,-689.485948,9770.718434
20885.253739,-740.205942,-1149.143247,7920.203579
20885.254062,1036.288319,-1302.362347,7624.121203
20885.254385,1776.494261,-1378.971896,7846.182985
20885.254708,2072.576638,-1302.362347,8734.430116
20885.255032,2220.617826,-766.095498,8438.347739
20885.255355,2664.741391,-1838.629195,8512.368333
20885.255678,2516.700203,-2145.067394,9474.636058
20885.256001,2516.700203,-1378.971896,10214.842000
20885.256325,2516.700203,-995.924147,9992.780217
20885.256648,2072.576638,-1072.533697,9252.574275
20885.256971,1480.411884,-306.438199,8512.368333
20885.257294,1332.370696,689.485948,9030.512492
20885.257617,-1110.308913,842.705048,9400.615463
20885.257941,-2146.597232,995.924147,9548.656652
20885.258264,-2664.741391,842.705048,10140.821405
20885.258587,-3478.967927,459.657299,10288.862594
20885.258910,-3849.070898,459.657299,10140.821405
20885.259233,-3330.926739,76.609550,9918.759623
20885.259557,-2368.659014,-229.828649,9030.512492
20885.259880,-1924.535449,-766.095498,8364.327145
20885.260203,-1332.370696,-995.924147,8216.285956
20885.260526,-296.082377,-1149.143247,7994.224174
20885.260850,148.041188,-1685.410096,7698.141797
20885.261173,-148.041188,-1685.410096,7476.080014
20885.261496,592.164754,-1149.143247,8068.244768
20885.261819,1036.288319,-1991.848295,8142.265362
20885.262142,2516.700203,-995.924147,9030.512492
20885.262466,2294.638420,-459.657299,9844.739029
20885.262789,2146.597232,0.000000,9918.759623
20885.263112,1554.432478,76.609550,9326.594869
20885.263435,1036.288319,-153.219100,9104.533087
20885.263758,296.082377,306.438199,8734.430116
20885.264082,-1776.494261,536.266849,8882.471304
20885.264405,-2886.803174,766.095498,9918.759623
20885.264728,-4441.235652,0.000000,10214.842000
20885.265051,-5329.482782,76.609550,10658.965565
20885.265375,-5033.400406,-153.219100,10658.965565
20885.265698,-3997.112087,0.000000,10362.883188
20885.266021,-2368.659014,-459.657299,9326.594869
20885.266344,-666.185348,-153.219100,9474.636058
20885.266667,518.144159,0.000000,8068.244768
20885.266991,1406.391290,0.000000,7846.182985
20885.267314,1480.411884,-612.876398,7179.997637
20885.267637,1850.514855,-1378.971896,7254.018232
20885.267960,2368.659014,-1915.238745,8290.306550
20885.268283,2442.679609,-1685.410096,8956.491898
20885.268607,2738.761985,-1302.362347,9474.636058
20885.268930,3034.844362,-1455.581446,9252.574275
20885.269253,2960.823768,-1532.190996,9030.512492
20885.269576,2590.720797,-306.438199,8808.450710
20885.269900,2146.597232,76.609550,9104.533087
20885.270223,1480.411884,766.095498,9030.512492
20885.270546,296.082377,766.095498,9622.677246
20885.270869,-1332.370696,1302.362347,9992.780217
20885.271192,-2960.823768,1072.533697,10288.862594
20885.271516,-4219.173869,-229.828649,10658.965565
20885.271839,-3552.988522,-459.657299,10288.862594
20885.272162,-3552.988522,-536.266849,10584.944971
20885.272485,-2960.823768,-919.314598,9770.718434
20885.272808,-1924.535449,-1302.362347,9252.574275
20885.273132,-1110.308913,-1838.629195,8216.285956
20885.273455,-222.061783,-1915.238745,7254.018232
20885.273778,370.102971,-1455.581446,7920.203579
20885.274101,666.185348,-2145.067394,8512.368333
20885.274425,962.267725,-2145.067394,8068.244768
20885.274748,1850.514855,-2451.505594,8660.409521
20885.275071,2442.679609,-1915.238745,9400.615463
20885.275394,2220.617826,-1225.752797,9474.636058
20885.275717,2738.761985,0.000000,9770.718434
20885.276041,2516.700203,-153.219100,9474.636058
20885.276364,1036.288319,536.266849,8142.265362
20885.276687,222.061783,383.047749,8586.388927
20885.277010,-814.226536,306.438199,9030.512492
20885.277333,-3108.864956,229.828649,9770.718434
20885.277657,-4663.297435,459.657299,9918.759623
20885.277980,-5255.462188,229.828649,9770.718434
20885.278303,-4737.318029,-1072.533697,10362.883188
20885.278626,-3627.009116,-612.876398,9918.759623
20885.278950,-2960.823768,-459.657299,9326.594869
20885.279273,-2294.638420,-1149.143247,8956.491898
20885.279596,-1110.308913,-1532.190996,8512.368333
20885.279919,370.102971,-1455.581446,8216.285956
20885.280242,1628.453072,-2298.286494,8290.306550
20885.280566,740.205942,-2145.067394,7772.162391
20885.280889,888.247130,-1302.362347,8068.244768
20885.281212,2886.803174,-995.924147,8438.347739
20885.281535,3775.050304,-1072.533697,8956.491898
20885.281858,3627.009116,-459.657299,9548.656652
20885.282182,3552.988522,153.219100,9400.615463
20885.282505,3775.050304,612.876398,9178.553681
20885.282828,3330.926739,919.314598,8512.368333
20885.283151,1480.411884,1915.238745,8364.327145
20885.283475,0.000000,1608.800546,9770.718434
20885.283798,-2368.659014,1072.533697,9178.553681
20885.284121,-4145.153275,0.000000,9992.780217
20885.284444,-4737.318029,-229.828649,11251.130318
20885.284767,-5033.400406,-612.876398,10436.903782
20885.285091,-4293.194464,-536.266849,10288.862594
20885.285414,-4219.173869,-1302.362347,9252.574275
20885.285737,-2738.761985,-612.876398,8216.285956
20885.286060,-1332.370696,-306.438199,7772.162391
20885.286383,148.041188,-459.657299,8216.285956
20885.286707,1332.370696,-612.876398,7328.038826
20885.287030,1406.391290,-1149.143247,7328.038826
20885.287353,2072.576638,-1838.629195,7920.203579
20885.287676,1850.514855,-536.266849,8734.430116
20885.288000,2294.638420,-1225.752797,9178.553681
20885.288323,2368.659014,-1608.800546,8734.430116
20885.288646,2812.782580,-995.924147,9474.636058
20885.288969,2294.638420,0.000000,9400.615463
20885.289292,1332.370696,306.438199,9252.574275
20885.289616,444.123565,0.000000,8956.491898
20885.289939,-592.164754,919.314598,9548.656652
20885.290262,-1850.514855,383.047749,9178.553681
20885.290585,-3034.844362,76.609550,9992.780217
20885.290908,-3627.009116,0.000000,10807.006753
20885.291232,-3923.091493,306.438199,10807.006753
20885.291555,-3182.885551,-76.609550,10732.986159
20885.291878,-2368.659014,-995.924147,9400.615463
20885.292201,-962.267725,-1455.581446,8586.388927
20885.292525,-222.061783,-2528.115143,8586.388927
20885.292848,-296.082377,-1838.629195,8142.265362
20885.293171,148.041188,-2221.676944,7846.182985
20885.293494,962.267725,-2604.724693,7994.224174
20885.293817,1406.391290,-2911.162892,7846.182985
20885.294141,1332.370696,-2451.505594,8290.306550
20885.294464,2146.597232,-2374.896044,9474.636058
20885.294787,3034.844362,-1532.190996,9474.636058
20885.295110,3478.967927,306.438199,9326.594869
20885.295433,3108.864956,383.047749,9030.512492
20885.295757,2146.597232,229.828649,8882.471304
20885.296080,666.185348,919.314598,9104.533087
20885.296403,-666.185348,842.705048,9474.636058
20885.296726,-2368.659014,459.657299,9844.739029
20885.297050,-4071.132681,1072.533697,9918.759623
20885.297373,-5033.400406,-1149.143247,10436.903782
20885.297696,-4293.194464,-689.485948,10510.924376
20885.298019,-3330.926739,-612.876398,10436.903782
20885.298342,-2442.679609,-766.095498,9474.636058
20885.298666,-1258.350101,-76.609550,8956.491898
20885.298989,222.061783,-689.485948,8142.265362
20885.299312,1036.288319,-536.266849,8068.244768
20885.299635,1184.329507,-1149.143247,7698.141797
20885.299958,888.247130,-1225.752797,7550.100608
20885.300282,962.267725,-1762.019645,7772.162391
20885.300605,1110.308913,-1685.410096,9030.512492
20885.300928,888.247130,-1225.752797,9252.574275
20885.301251,1184.329507,-766.095498,9400.615463
20885.301575,1554.432478,-1072.533697,8956.491898
20885.301898,1332.370696,-229.828649,8808.450710
20885.302221,518.144159,306.438199,8586.388927
20885.302544,0.000000,919.314598,8882.471304
20885.302867,-518.144159,1532.190996,9252.574275
20885.303191,-1702.473667,1302.362347,9770.718434
20885.303514,-3108.864956,842.705048,9992.780217
20885.303837,-3627.009116,766.095498,10732.986159
20885.304160,-3552.988522,536.266849,11547.212695
20885.304483,-2294.638420,229.828649,10732.986159
20885.304807,-1480.411884,-383.047749,9844.739029
20885.305130,-1258.350101,-689.485948,8882.471304
20885.305453,-444.123565,-689.485948,9104.533087
20885.305776,666.185348,-919.314598,8586.388927
20885.306100,1258.350101,-1762.019645,7772.162391
20885.306423,1184.329507,-995.924147,8216.285956
20885.306746,1184.329507,-919.314598,8586.388927
20885.307069,1480.411884,-1225.752797,8216.285956
20885.307392,1776.494261,-1455.581446,8882.471304
20885.307716,1332.370696,-612.876398,8882.471304
20885.308039,1332.370696,-306.438199,8364.327145
20885.308362,1036.288319,-459.657299,7476.080014
20885.308685,148.041188,459.657299,8216.285956
20885.309008,-1776.494261,0.000000,8512.368333
20885.309332,-2368.659014,306.438199,9030.512492
20885.309655,-3775.050304,-306.438199,8882.471304
20885.309978,-3997.112087,-383.047749,9770.718434
20885.310301,-4737.318029,-229.828649,10955.047942
20885.310625,-4737.318029,0.000000,11103.089130
20885.310948,-2886.803174,229.828649,10955.047942
20885.311271,-1406.391290,612.876398,10214.842000
20885.311594,-444.123565,-306.438199,9326.594869
20885.311917,1036.288319,-459.657299,9252.574275
20885.312241,1850.514855,-995.924147,8808.450710
20885.312564,2368.659014,-1608.800546,8660.409521
20885.312887,1998.556043,-2145.067394,8660.409521
20885.313210,1702.473667,-2374.896044,7846.182985
20885.313533,1702.473667,-1915.238745,8290.306550
20885.313857,1998.556043,-1991.848295,8956.491898
20885.314180,2146.597232,-2068.457845,9400.615463
20885.314503,2220.617826,-1072.533697,9474.636058
20885.314826,2072.576638,-536.266849,9030.512492
20885.315150,1480.411884,0.000000,8290.306550
20885.315473,-148.041188,536.266849,8216.285956
20885.315796,-1036.288319,689.485948,8956.491898
20885.316119,-2072.576638,842.705048,10066.800811
20885.316442,-3108.864956,536.266849,9770.718434
20885.316766,-3701.029710,0.000000,10214.842000
20885.317089,-4145.153275,-689.485948,10658.965565
20885.317412,-3404.947333,-306.438199,9844.739029
20885.317735,-2072.576638,-459.657299,9474.636058
20885.318058,-888.247130,-766.095498,8364.327145
20885.318382,0.000000,-995.924147,8216.285956
20885.318705,222.061783,-689.485948,7772.162391
20885.319028,1998.556043,-1685.410096,7698.141797
20885.319351,2294.638420,-2221.676944,7994.224174
20885.319675,1628.453072,-1991.848295,8808.450710
20885.319998,1332.370696,-1532.190996,9770.718434
20885.320321,1480.411884,-2068.457845,9770.718434
20885.320644,2812.782580,-1762.019645,9992.780217
20885.320967,2738.761985,-842.705048,9770.718434
20885.321291,1998.556043,-459.657299,9770.718434
20885.321614,962.267725,229.828649,9104.533087
20885.321937,148.041188,766.095498,8734.430116
20885.322260,-1406.391290,1302.362347,9400.615463
20885.322583,-2590.720797,1149.143247,10140.821405
20885.322907,-4293.194464,919.314598,9770.718434
20885.323230,-4367.215058,0.000000,9918.759623
20885.323553,-3923.091493,-536.266849,10658.965565
20885.323876,-3627.009116,306.438199,10066.800811
20885.324200,-2516.700203,306.438199,9696.697840
20885.324523,-1776.494261,0.000000,8216.285956
20885.324846,-888.247130,-459.657299,7476.080014
20885.325169,148.041188,-1378.971896,7179.997637
20885.325493,518.144159,-995.924147,7846.182985
20885.325816,1110.308913,-842.705048,7994.224174
20885.326139,1406.391290,-1685.410096,7994.224174
20885.326462,1850.514855,-1302.362347,8734.430116
20885.326786,1702.473667,-919.314598,9548.656652
20885.327109,2590.720797,-459.657299,9474.636058
20885.327432,3330.926739,306.438199,8882.471304
20885.327755,2738.761985,459.657299,8882.471304
20885.328079,2516.700203,1915.238745,8882.471304
20885.328402,962.267725,1532.190996,9326.594869
20885.328725,-370.102971,1225.752797,9400.615463
20885.329048,-2072.576638,1149.143247,10214.842000
20885.329372,-4293.194464,459.657299,10214.842000
20885.329695,-4959.379811,0.000000,10436.903782
20885.330018,-4663.297435,-1378.971896,10214.842000
20885.330341,-3404.947333,76.609550,9696.697840
20885.330665,-2220.617826,229.828649,9918.759623
20885.330988,-1332.370696,-306.438199,8882.471304
20885.331311,0.000000,-536.266849,8142.265362
20885.331634,888.247130,-919.314598,8068.244768
20885.331958,1332.370696,-1608.800546,8142.265362
20885.332281,740.205942,-1838.629195,7846.182985
20885.332604,1850.514855,-2451.505594,8142.265362
20885.332927,1702.473667,-2834.553343,8882.471304
20885.333251,1628.453072,-2221.676944,9178.553681
20885.333574,1554.432478,-1608.800546,9252.574275
20885.333897,2368.659014,-1302.362347,9030.512492
20885.334220,2516.700203,-306.438199,8882.471304
20885.334544,1850.514855,76.609550,8586.388927
20885.334867,962.267725,153.219100,8808.450710
20885.335190,74.020594,459.657299,8808.450710
20885.335513,-888.247130,1072.533697,9992.780217
20885.335837,-2960.823768,612.876398,10732.986159
20885.336160,-4145.153275,229.828649,11177.109724
20885.336483,-3256.906145,-689.485948,10955.047942
20885.336806,-2220.617826,-766.095498,10584.944971
20885.337130,-2220.617826,-229.828649,9844.739029
20885.337453,-1332.370696,-383.047749,8882.471304
20885.337776,-592.164754,-1149.143247,8290.306550
20885.338099,518.144159,-1915.238745,7624.121203
20885.338423,592.164754,-2068.457845,7402.059420
20885.338746,296.082377,-2451.505594,7402.059420
20885.339069,740.205942,-2604.724693,7920.203579
20885.339392,2220.617826,-1915.238745,8734.430116
20885.339716,2294.638420,-1302.362347,9918.759623
20885.340039,1850.514855,-689.485948,9696.697840
20885.340362,2146.597232,-383.047749,9326.594869
20885.340685,1998.556043,-229.828649,8438.347739
20885.341009,1554.432478,153.219100,8956.491898
20885.341332,0.000000,1455.581446,9104.533087
20885.341655,-962.267725,459.657299,10066.800811
20885.341978,-2960.823768,1072.533697,9474.636058
20885.342302,-3997.112087,612.876398,9622.677246
20885.342625,-4737.318029,383.047749,10510.924376
20885.342948,-4737.318029,229.828649,10658.965565
20885.343271,-3478.967927,76.609550,10140.821405
20885.343595,-1776.494261,76.609550,9474.636058
20885.343918,-296.082377,0.000000,7698.141797
20885.344241,0.000000,0.000000,7846.182985
20885.344564,444.123565,-383.047749,7698.141797
20885.344888,962.267725,-1149.143247,7550.100608
20885.345211,1110.308913,-1532.190996,8660.409521
20885.345534,444.123565,-1762.019645,8364.327145
20885.345857,666.185348,-1838.629195,8512.368333
20885.346181,1036.288319,-1762.019645,8734.430116
20885.346504,1924.535449,-766.095498,8734.430116
20885.346827,2664.741391,76.609550,8956.491898
20885.347150,2294.638420,919.314598,8882.471304
20885.347474,1628.453072,1455.581446,8586.388927
20885.347797,1036.288319,1302.362347,8956.491898
20885.348120,-296.082377,1302.362347,9178.553681
20885.348443,-2590.720797,612.876398,9252.574275
20885.348767,-4145.153275,306.438199,10436.903782
20885.349090,-3701.029710,-612.876398,10881.027347
20885.349413,-5033.400406,-842.705048,10584.944971
20885.349736,-3923.091493,-1149.143247,10658.965565
20885.350060,-2294.638420,-1378.971896,9918.759623
20885.350383,-1184.329507,-1302.362347,8956.491898
20885.350706,-444.123565,-995.924147,7920.203579
20885.351029,666.185348,-1225.752797,7624.121203
20885.351353,1110.308913,-1072.533697,8216.285956
20885.351676,1850.514855,-1608.800546,8660.409521
20885.351999,1924.535449,-1685.410096,8660.409521
20885.352322,1480.411884,-1532.190996,8216.285956
20885.352646,1480.411884,-1532.190996,8734.430116
20885.352969,2590.720797,-995.924147,9474.636058
20885.353292,2812.782580,0.000000,8660.409521
20885.353615,1406.391290,-229.828649,8068.244768
20885.353939,296.082377,-536.266849,8290.306550
20885.354262,-888.247130,-153.219100,8438.347739
20885.354585,-1702.473667,0.000000,9252.574275
20885.354908,-2812.782580,0.000000,10510.924376
20885.355232,-4737.318029,153.219100,10436.903782
20885.355555,-4811.338623,-153.219100,10510.924376
20885.355878,-3701.029710,-536.266849,11399.171507
20885.356201,-2886.803174,-536.266849,10732.986159
20885.356525,-2146.597232,-383.047749,9622.677246
20885.356848,-296.082377,-919.314598,9474.636058
20885.357171,962.267725,-1225.752797,8586.388927
20885.357494,1628.453072,-919.314598,8290.306550
20885.357818,1998.556043,-1072.533697,7772.162391
20885.358141,1776.494261,-2528.115143,7698.141797
20885.358464,1332.370696,-2221.676944,7920.203579
20885.358787,2294.638420,-1378.971896,8512.368333
20885.359111,2516.700203,-1149.143247,9622.677246
20885.359434,2072.576638,-459.657299,9178.553681
20885.359757,2220.617826,-229.828649,8142.265362
20885.360080,2368.659014,0.000000,8068.244768
20885.360404,1332.370696,383.047749,8142.265362
20885.360727,370.102971,1225.752797,9474.636058
20885.361050,-1554.432478,842.705048,9400.615463
20885.361373,-3256.906145,153.219100,9400.615463
20885.361697,-4367.215058,-153.219100,10436.903782
20885.362020,-4663.297435,-229.828649,10584.944971
20885.362343,-4811.338623,-766.095498,10658.965565
20885.362666,-3478.967927,-229.828649,10140.821405
20885.362990,-1406.391290,76.609550,9030.512492
20885.363313,-444.123565,-306.438199,9326.594869
20885.363636,814.226536,-612.876398,8364.327145
20885.363959,1850.514855,-689.485948,7550.100608
20885.364283,1850.514855,-1225.752797,7846.182985
20885.364606,1258.350101,-1149.143247,8142.265362
20885.364929,1628.453072,-1762.019645,8364.327145
20885.365252,1776.494261,-2681.334243,8512.368333
20885.365576,1110.308913,-2451.505594,9474.636058
20885.365899,1110.308913,-1072.533697,9400.615463
20885.366222,2072.576638,-766.095498,9326.594869
20885.366545,2294.638420,-306.438199,8956.491898
20885.366869,1036.288319,842.705048,8956.491898
20885.367192,0.000000,766.095498,8660.409521
20885.367515,-1110.308913,919.314598,8216.285956
20885.367838,-1406.391290,1455.581446,9548.656652
20885.368162,-2516.700203,766.095498,10510.924376
20885.368485,-3997.112087,919.314598,10732.986159
20885.368808,-3701.029710,-459.657299,10584.944971
20885.369131,-2590.720797,-612.876398,10436.903782
20885.369455,-1332.370696,-1378.971896,9770.718434
20885.369778,-666.185348,-1455.581446,9030.512492
20885.370101,-370.102971,-2145.067394,8512.368333
20885.370424,592.164754,-2068.457845,7994.224174
20885.370748,1184.329507,-1915.238745,8068.244768
20885.371071,1110.308913,-2451.505594,7328.038826
20885.371394,1036.288319,-2604.724693,7920.203579
20885.371717,1554.432478,-2298.286494,8808.450710
20885.372041,2590.720797,-766.095498,9770.718434
20885.372364,3034.844362,-383.047749,9918.759623
20885.372687,2442.679609,-612.876398,9252.574275
20885.373010,1110.308913,-536.266849,7846.182985
20885.373334,518.144159,0.000000,8512.368333
20885.373657,0.000000,459.657299,9622.677246
20885.373980,-1554.432478,0.000000,9770.718434
20885.374303,-3478.967927,229.828649,9474.636058
20885.374627,-4885.359217,0.000000,10362.883188
20885.374950,-5403.503377,-536.266849,10140.821405
20885.375273,-4589.276840,-76.609550,11103.089130
20885.375596,-2738.761985,0.000000,11103.089130
20885.375920,-1480.411884,229.828649,9474.636058
20885.376243,0.000000,153.219100,9030.512492
20885.376566,296.082377,0.000000,8142.265362
20885.376889,1258.350101,-306.438199,8068.244768
20885.377213,1110.308913,-459.657299,7994.224174
20885.377536,1850.514855,-1915.238745,8290.306550
20885.377859,1554.432478,-1991.848295,8364.327145
20885.378182,888.247130,-2068.457845,8290.306550
20885.378506,962.267725,-1608.800546,9104.533087
20885.378829,1258.350101,-1378.971896,8660.409521
20885.379152,2516.700203,229.828649,8142.265362
20885.379475,2220.617826,612.876398,7846.182985
20885.379799,740.205942,306.438199,7698.141797
20885.380122,444.123565,1225.752797,8956.491898
20885.380445,-666.185348,1532.190996,9696.697840
20885.380768,-2590.720797,1225.752797,9918.759623
20885.381092,-4145.153275,459.657299,10214.842000
20885.381415,-4737.318029,76.609550,10362.883188
20885.381738,-5033.400406,0.000000,10732.986159
20885.382061,-4293.194464,0.000000,11177.109724
20885.382385,-3108.864956,-459.657299,10288.862594
20885.382708,-1776.494261,-919.314598,8882.471304
20885.383031,0.000000,-1302.362347,8216.285956
20885.383354,148.041188,-842.705048,8438.347739
20885.383678,1036.288319,-1072.533697,7994.224174
20885.384001,2146.597232,-689.485948,8068.244768
20885.384324,2812.782580,-1455.581446,7772.162391
20885.384647,2812.782580,-1991.848295,8290.306550
20885.384971,2368.659014,-689.485948,9104.533087
20885.385294,3256.906145,-689.485948,9326.594869
20885.385617,3627.009116,0.000000,9104.533087
20885.385940,2738.761985,842.705048,8882.471304
20885.386264,962.267725,766.095498,9104.533087
20885.386587,-296.082377,612.876398,9030.512492
20885.386910,-1776.494261,842.705048,9104.533087
20885.387233,-2368.659014,995.924147,9400.615463
20885.387557,-4293.194464,1149.143247,10066.800811
20885.387880,-5329.482782,689.485948,9770.718434
20885.388203,-4737.318029,459.657299,9844.739029
20885.388526,-3404.947333,536.266849,9474.636058
20885.388850,-2220.617826,383.047749,9178.553681
20885.389173,-1702.473667,-153.219100,8364.327145
20885.389496,-666.185348,-1915.238745,7476.080014
20885.389819,296.082377,-2145.067394,7846.182985
20885.390143,518.144159,-2374.896044,8808.450710
20885.390466,518.144159,-2757.943793,8808.450710
20885.390789,888.247130,-3294.210641,8660.409521
20885.391112,1702.473667,-3370.820191,9030.512492
20885.391436,2442.679609,-2911.162892,9622.677246
20885.391759,3627.009116,-1378.971896,10140.821405
20885.392082,3701.029710,-459.657299,9696.697840
20885.392405,3627.009116,229.828649,9474.636058
20885.392729,2368.659014,842.705048,9474.636058
20885.393052,740.205942,842.705048,9252.574275
20885.393375,-1110.308913,612.876398,9548.656652
20885.393698,-2960.823768,-306.438199,9474.636058
20885.394022,-4811.338623,-459.657299,10362.883188
20885.394345,-6513.812290,-1149.143247,10732.986159
20885.394668,-6365.771101,-1685.410096,10140.821405
20885.394991,-5033.400406,-2145.067394,9696.697840
20885.395315,-3404.947333,-2145.067394,8512.368333
20885.395638,-2294.638420,-1915.238745,8142.265362
20885.395961,-296.082377,-1455.581446,7179.997637
20885.396284,1628.453072,-612.876398,6957.935855
20885.396608,3182.885551,-1225.752797,7994.224174
20885.396931,2960.823768,-1149.143247,8290.306550
20885.397254,3108.864956,-1302.362347,8512.368333
20885.397577,4145.153275,-1685.410096,8956.491898
20885.397901,4737.318029,-1072.533697,9844.739029
20885.398224,3552.988522,-459.657299,9622.677246
20885.398547,3404.947333,76.609550,9252.574275
20885.398870,3034.844362,0.000000,9474.636058
20885.399194,1776.494261,383.047749,9622.677246
20885.399517,74.020594,995.924147,9622.677246
20885.399840,-2146.597232,536.266849,9474.636058
20885.400163,-3849.070898,76.609550,9844.739029
20885.400487,-4811.338623,612.876398,10362.883188
20885.400810,-5403.503377,0.000000,10436.903782
20885.401133,-6069.688724,306.438199,10584.944971
20885.401456,-5403.503377,0.000000,9918.759623
20885.401780,-3627.009116,-153.219100,8808.450710
20885.402103,-1924.535449,0.000000,8660.409521
20885.402426,-1184.329507,-536.266849,7698.141797
20885.402749,-222.061783,0.000000,7254.018232
20885.403073,666.185348,-995.924147,7179.997637
20885.403396,1332.370696,-995.924147,7105.977043
20885.403719,1850.514855,-842.705048,8216.285956
20885.404042,1998.556043,-766.095498,8808.450710
20885.404366,2960.823768,-536.266849,9326.594869
20885.404689,3775.050304,0.000000,9104.533087
20885.405012,3627.009116,1149.143247,8660.409521
20885.405335,3552.988522,1072.533697,8882.471304
20885.405659,1776.494261,1302.362347,8586.388927
20885.405982,444.123565,1455.581446,8956.491898
20885.406305,-1554.432478,1149.143247,9474.636058
20885.406628,-3552.988522,229.828649,9474.636058
20885.406952,-4959.379811,0.000000,10288.862594
20885.407275,-5921.647536,-459.657299,10658.965565
20885.407598,-5477.523971,-919.314598,10732.986159
20885.407921,-4515.256246,-766.095498,10955.047942
20885.408245,-2664.741391,-842.705048,9622.677246
20885.408568,-666.185348,-689.485948,9178.553681
20885.408891,740.205942,-1378.971896,8438.347739
20885.409214,1554.432478,-1225.752797,7846.182985
20885.409538,2886.803174,-1455.581446,8364.327145
20885.409861,2960.823768,-1378.971896,7920.203579
20885.410184,3478.967927,-1915.238745,8364.327145
20885.410507,3034.844362,-2451.505594,8512.368333
20885.410831,2960.823768,-2068.457845,8882.471304
20885.411154,3701.029710,-1532.190996,9548.656652
20885.411477,3627.009116,-536.266849,9400.615463
20885.411800,3034.844362,-229.828649,8586.388927
20885.412124,1850.514855,-76.609550,8660.409521
20885.412447,1332.370696,0.000000,9030.512492
20885.412770,-222.061783,689.485948,8956.491898
20885.413093,-2220.617826,306.438199,9622.677246
20885.413417,-4219.173869,76.609550,10288.862594
20885.413740,-4811.338623,-306.438199,10658.965565
20885.414063,-4589.276840,-919.314598,10732.986159
20885.414386,-3627.009116,-1378.971896,10881.027347
20885.414710,-2812.782580,-1149.143247,9770.718434
20885.415033,-2220.617826,-1838.629195,8734.430116
20885.415356,-518.144159,-2298.286494,8142.265362
20885.415679,296.082377,-2068.457845,8512.368333
20885.416003,370.102971,-1915.238745,8216.285956
20885.416326,74.020594,-2221.676944,8438.347739
20885.416649,814.226536,-2298.286494,8142.265362
20885.416972,1776.494261,-2145.067394,8734.430116
20885.417296,2368.659014,-1225.752797,9474.636058
20885.417619,2368.659014,-459.657299,9178.553681
20885.417942,2738.761985,-306.438199,8438.347739
20885.418265,2664.741391,306.438199,8290.306550
20885.418589,1258.350101,689.485948,8660.409521
20885.418912,-148.041188,1455.581446,9178.553681
20885.419235,-1258.350101,995.924147,8956.491898
20885.419558,-2812.782580,306.438199,9030.512492
20885.419882,-4071.132681,459.657299,10140.821405
20885.420205,-4737.318029,383.047749,10955.047942
20885.420528,-4515.256246,229.828649,11029.068536
20885.420851,-3330.926739,306.438199,10362.883188
20885.421175,-1924.535449,459.657299,9696.697840
20885.421498,-740.205942,153.219100,8956.491898
20885.421821,0.000000,-536.266849,8290.306550
20885.422144,888.247130,-612.876398,7550.100608
20885.422468,1258.350101,-842.705048,7624.121203
20885.422791,962.267725,-1532.190996,7402.059420
20885.423114,962.267725,-2068.457845,7179.997637
20885.423437,1406.391290,-2221.676944,8068.244768
20885.423761,2146.597232,-1762.019645,8734.430116
20885.424084,2516.700203,-842.705048,9104.533087
20885.424407,2368.659014,-612.876398,8956.491898
20885.424730,2368.659014,-153.219100,8586.388927
20885.425054,1480.411884,459.657299,9548.656652
20885.425377,148.041188,536.266849,9844.739029
20885.425700,-1998.556043,0.000000,9918.759623
20885.426024,-2960.823768,-612.876398,9992.780217
20885.426347,-4663.297435,-612.876398,11177.109724
20885.426670,-5625.565159,0.000000,11695.253884
20885.426994,-5477.523971,-995.924147,11399.171507
20885.427317,-4219.173869,-1302.362347,10214.842000
20885.427640,-2368.659014,-995.924147,9474.636058
20885.427964,-370.102971,-536.266849,8512.368333
20885.428287,666.185348,0.000000,7624.121203
20885.428610,2886.803174,-153.219100,7550.100608
20885.428933,4071.132681,0.000000,7698.141797
20885.429257,3108.864956,-306.438199,7402.059420
20885.429580,1702.473667,-1378.971896,8216.285956
20885.429903,1776.494261,-2068.457845,8364.327145
20885.430227,2220.617826,-2068.457845,9030.512492
20885.430550,1702.473667,-1608.800546,10066.800811
20885.430873,1110.308913,-1378.971896,9104.533087
20885.431197,296.082377,-1455.581446,8216.285956
20885.431520,-592.164754,-1225.752797,8586.388927
20885.431843,-1480.411884,0.000000,8808.450710
20885.432166,-2664.741391,459.657299,9474.636058
20885.432490,-3849.070898,612.876398,9770.718434
20885.432813,-4145.153275,766.095498,10807.006753
20885.433136,-4145.153275,842.705048,10362.883188
20885.433460,-3552.988522,919.314598,10066.800811
20885.433783,-2072.576638,995.924147,10807.006753
20885.434106,-888.247130,612.876398,9696.697840
20885.434430,444.123565,459.657299,9178.553681
20885.434753,1480.411884,-229.828649,9326.594869
20885.435076,1554.432478,-995.924147,8586.388927
20885.435399,1702.473667,-1149.143247,8512.368333
20885.435723,2442.679609,-2145.067394,8142.265362
20885.436046,1850.514855,-1915.238745,7920.203579
20885.436369,1628.453072,-1838.629195,8586.388927
20885.436693,2294.638420,-1225.752797,9030.512492
20885.437016,2516.700203,-1072.533697,8808.450710
20885.437339,2664.741391,0.000000,8438.347739
20885.437663,1850.514855,536.266849,7846.182985
20885.437986,888.247130,612.876398,8364.327145
20885.438309,-370.102971,612.876398,8068.244768
20885.438632,-1850.514855,1072.533697,8142.265362
20885.438956,-3997.112087,229.828649,9252.574275
20885.439279,-6069.688724,0.000000,10658.965565
20885.439602,-5995.668130,-612.876398,11177.109724
20885.439926,-5403.503377,-536.266849,10807.006753
20885.440249,-4219.173869,-995.924147,10658.965565
20885.440572,-2886.803174,-766.095498,9770.718434
20885.440896,-740.205942,-153.219100,9178.553681
20885.441219,962.267725,-612.876398,9548.656652
20885.441542,2072.576638,-919.314598,8660.409521
20885.441865,2368.659014,-1149.143247,8734.430116
20885.442189,2368.659014,-1685.410096,8660.409521
20885.442512,2590.720797,-1838.629195,8734.430116
20885.442835,3182.885551,-1608.800546,9474.636058
20885.443159,1628.453072,-1532.190996,9474.636058
20885.443482,2072.576638,-1072.533697,8956.491898
20885.443805,2516.700203,-689.485948,7994.224174
20885.444129,1406.391290,0.000000,8142.265362
20885.444452,74.020594,612.876398,8512.368333
20885.444775,-444.123565,1072.533697,8364.327145
20885.445098,-1258.350101,919.314598,8216.285956
20885.445422,-3108.864956,1149.143247,8956.491898
20885.445745,-4515.256246,689.485948,9770.718434
20885.446068,-5255.462188,689.485948,10436.903782
20885.446392,-4885.359217,0.000000,10584.944971
20885.446715,-3256.906145,0.000000,10066.800811
20885.447038,-2516.700203,-229.828649,9326.594869
20885.447362,-2220.617826,-306.438199,8660.409521
20885.447685,-296.082377,-995.924147,8142.265362
20885.448008,740.205942,-1149.143247,8216.285956
20885.448331,1332.370696,-1455.581446,8068.244768
20885.448655,962.267725,-1915.238745,8290.306550
20885.448978,1554.432478,-2145.067394,8586.388927
20885.449301,2072.576638,-1915.238745,9474.636058
20885.449625,2738.761985,-1762.019645,10066.800811
20885.449948,3701.029710,-1072.533697,9400.615463
20885.450271,3330.926739,-919.314598,8438.347739
20885.450595,2886.803174,-766.095498,8734.430116
20885.450918,2072.576638,153.219100,9326.594869
20885.451241,666.185348,612.876398,9474.636058
20885.451565,-962.267725,612.876398,9400.615463
20885.451888,-2516.700203,536.266849,9548.656652
20885.452211,-3701.029710,536.266849,9548.656652
20885.452534,-4293.194464,-612.876398,9844.739029
20885.452858,-3997.112087,0.000000,10362.883188
20885.453181,-2812.782580,766.095498,10881.027347
20885.453504,-1776.494261,1072.533697,9992.780217
20885.453828,-740.205942,76.609550,8734.430116
20885.454151,148.041188,-1149.143247,7624.121203
20885.454474,1332.370696,-1225.752797,7105.977043
20885.454798,1184.329507,-1225.752797,7105.977043
20885.455121,1702.473667,-1455.581446,8216.285956
20885.455444,962.267725,-1915.238745,7624.121203
20885.455767,1924.535449,-2221.676944,7624.121203
20885.456091,2220.617826,-2145.067394,8808.450710
20885.456414,2738.761985,-1378.971896,8734.430116
20885.456737,3034.844362,76.609550,8586.388927
20885.457061,3701.029710,76.609550,8808.450710
20885.457384,2590.720797,0.000000,9770.718434
20885.457707,148.041188,1455.581446,9474.636058
20885.458031,-1258.350101,536.266849,9548.656652
20885.458354,-2738.761985,76.609550,10510.924376
20885.458677,-4145.153275,76.609550,11621.233289
20885.459000,-5107.421000,153.219100,11473.192101
20885.459324,-5699.585753,-1532.190996,10881.027347
20885.459647,-5181.441594,-1685.410096,9844.739029
20885.459970,-4515.256246,-1072.533697,9252.574275
20885.460294,-2812.782580,-1378.971896,8808.450710
20885.460617,-1850.514855,-1455.581446,8586.388927
20885.460940,-444.123565,-1685.410096,7994.224174
20885.461264,1184.329507,-1838.629195,8142.265362
20885.461587,1628.453072,-1532.190996,7624.121203
20885.461910,1998.556043,-1838.629195,7920.203579
20885.462233,2886.803174,-1455.581446,8438.347739
20885.462557,3182.885551,-1608.800546,8586.388927
20885.462880,4293.194464,-995.924147,8882.471304
20885.463203,4663.297435,-306.438199,9252.574275
20885.463527,3478.967927,0.000000,9030.512492
20885.463850,2294.638420,229.828649,8216.285956
20885.464173,1998.556043,995.924147,9178.553681
20885.464497,740.205942,919.314598,9252.574275
20885.464820,-1998.556043,919.314598,10140.821405
20885.465143,-3775.050304,689.485948,10584.944971
20885.465466,-4737.318029,0.000000,11251.130318
20885.465790,-4589.276840,-459.657299,10658.965565
20885.466113,-3997.112087,-689.485948,10510.924376
20885.466436,-3775.050304,-1149.143247,10066.800811
20885.466760,-3182.885551,-1225.752797,9030.512492
20885.467083,-2368.659014,-1149.143247,9252.574275
20885.467406,-1554.432478,-1991.848295,8364.327145
20885.467730,-1036.288319,-1915.238745,8290.306550
20885.468053,0.000000,-2298.286494,8364.327145
20885.468376,888.247130,-1532.190996,8438.347739
20885.468699,1776.494261,-1302.362347,8808.450710
20885.469023,3108.864956,-229.828649,9696.697840
20885.469346,4293.194464,76.609550,9178.553681
20885.469669,4663.297435,766.095498,8808.450710
20885.469993,3627.009116,1072.533697,8364.327145
20885.470316,2590.720797,1378.971896,8290.306550
20885.470639,1480.411884,1762.019645,8734.430116
20885.470963,0.000000,1072.533697,9178.553681
20885.471286,-3034.844362,1378.971896,9474.636058
20885.471609,-5033.400406,536.266849,9844.739029
20885.471932,-5107.421000,-612.876398,10214.842000
20885.472256,-4737.318029,-153.219100,10584.944971
20885.472579,-4737.318029,0.000000,10436.903782
20885.472902,-3997.112087,383.047749,8956.491898
20885.473226,-2294.638420,-383.047749,7624.121203
20885.473549,-592.164754,-689.485948,7105.977043
20885.473872,370.102971,-229.828649,7328.038826
20885.474196,1258.350101,-766.095498,8068.244768
20885.474519,1184.329507,-1608.800546,8290.306550
20885.474842,1776.494261,-2451.505594,8068.244768
20885.475166,2220.617826,-2834.553343,9104.533087
20885.475489,1850.514855,-2528.115143,9252.574275
20885.475812,2590.720797,-1838.629195,9770.718434
20885.476135,3330.926739,-1838.629195,9622.677246
20885.476459,3182.885551,-919.314598,8882.471304
20885.476782,2072.576638,-229.828649,9474.636058
20885.477105,1184.329507,689.485948,9178.553681
20885.477429,222.061783,919.314598,9326.594869
20885.477752,-1258.350101,1378.971896,10362.883188
20885.478075,-2812.782580,459.657299,10807.006753
20885.478399,-3775.050304,459.657299,10807.006753
20885.478722,-3923.091493,-766.095498,10881.027347
20885.479045,-3034.844362,-1302.362347,10140.821405
20885.479368,-2368.659014,-1685.410096,9252.574275
20885.479692,-1998.556043,-1838.629195,8586.388927
20885.480015,-740.205942,-1762.019645,8512.368333
20885.480338,-592.164754,-1838.629195,7846.182985
20885.480662,444.123565,-1991.848295,7476.080014
20885.480985,962.267725,-2681.334243,8290.306550
20885.481308,1184.329507,-3370.820191,8660.409521
20885.481632,1850.514855,-1991.848295,8882.471304
20885.481955,2442.679609,-1455.581446,9326.594869
20885.482278,2516.700203,-1072.533697,9252.574275
20885.482601,1998.556043,-383.047749,8808.450710
20885.482925,1850.514855,459.657299,8882.471304
20885.483248,888.247130,-229.828649,9104.533087
20885.483571,-814.226536,689.485948,9178.553681
20885.483895,-2294.638420,612.876398,9030.512492
20885.484218,-3701.029710,229.828649,10140.821405
20885.484541,-5107.421000,76.609550,10807.006753
20885.484865,-5255.462188,842.705048,11473.192101
20885.485188,-4737.318029,-383.047749,10584.944971
20885.485511,-2590.720797,-229.828649,9770.718434
20885.485834,-592.164754,383.047749,9326.594869
20885.486158,666.185348,689.485948,8956.491898
20885.486481,1554.432478,612.876398,8586.388927
20885.486804,2368.659014,306.438199,7698.141797
20885.487128,3256.906145,-229.828649,7328.038826
20885.487451,2886.803174,-229.828649,7846.182985
20885.487774,2072.576638,-459.657299,7846.182985
20885.488098,1554.432478,-383.047749,8216.285956
20885.488421,2442.679609,-919.314598,8734.430116
20885.488744,2812.782580,-383.047749,9326.594869
20885.489067,1924.535449,0.000000,8364.327145
20885.489391,1332.370696,76.609550,7994.224174
20885.489714,444.123565,536.266849,8364.327145
20885.490037,-444.123565,689.485948,8660.409521
20885.490361,-1998.556043,689.485948,9104.533087
20885.490684,-4367.215058,-306.438199,9030.512492
20885.491007,-5107.421000,-306.438199,10288.862594
20885.491331,-5107.421000,0.000000,11177.109724
20885.491654,-4737.318029,-689.485948,11473.192101
20885.491977,-3552.988522,-919.314598,10214.842000
20885.492300,-1998.556043,-1225.752797,9992.780217
20885.492624,0.000000,-1838.629195,9400.615463
20885.492947,1036.288319,-919.314598,8660.409521
20885.493270,2516.700203,-1072.533697,9252.574275
20885.493594,3404.947333,-689.485948,9400.615463
20885.493917,3849.070898,-1225.752797,8882.471304
20885.494240,3701.029710,-919.314598,8438.347739
20885.494564,4145.153275,-1762.019645,8660.409521
20885.494887,3627.009116,-1302.362347,9326.594869
20885.495210,3404.947333,-919.314598,8734.430116
20885.495533,3034.844362,-995.924147,8660.409521
20885.495857,1406.391290,-919.314598,7846.182985
20885.496180,-444.123565,-842.705048,7698.141797
20885.496503,-1998.556043,-995.924147,8068.244768
20885.496827,-3478.967927,-689.485948,8586.388927
20885.497150,-5255.462188,-459.657299,9770.718434
20885.497473,-7179.997637,-842.705048,10510.924376
20885.497797,-7328.038826,-1149.143247,10288.862594
20885.498120,-6143.709319,-1455.581446,10807.006753
20885.498443,-5181.441594,-919.314598,10140.821405
20885.498767,-3256.906145,-919.314598,9548.656652
20885.499090,-1184.329507,-766.095498,8808.450710
20885.499413,222.061783,-1149.143247,9178.553681
20885.499736,74.020594,-842.705048,8216.285956
20885.500060,1258.350101,-1455.581446,9474.636058
20885.500383,2220.617826,-2374.896044,9104.533087
20885.500706,2960.823768,-2221.676944,9326.594869
20885.501030,3404.947333,-1532.190996,9770.718434
20885.501353,3701.029710,-766.095498,10214.842000
20885.501676,4589.276840,-76.609550,9992.780217
20885.502000,5033.400406,1072.533697,8882.471304
20885.502323,3923.091493,995.924147,7920.203579
20885.502646,2368.659014,1762.019645,7994.224174
20885.502969,666.185348,2451.505594,8438.347739
20885.503293,-888.247130,2451.505594,8068.244768
20885.503616,-3108.864956,2298.286494,9104.533087
20885.503939,-5181.441594,1378.971896,9474.636058
20885.504263,-6513.812290,459.657299,9178.553681
20885.504586,-5921.647536,0.000000,9030.512492
20885.504909,-4515.256246,229.828649,9474.636058
20885.505233,-2886.803174,842.705048,8882.471304
20885.505556,-1850.514855,536.266849,7846.182985
20885.505879,0.000000,0.000000,7179.997637
20885.506202,1110.308913,153.219100,7476.080014
20885.506526,1850.514855,-612.876398,7994.224174
20885.506849,1776.494261,-612.876398,8586.388927
20885.507172,1998.556043,-1149.143247,8882.471304
20885.507496,2516.700203,-1762.019645,9030.512492
20885.507819,3182.885551,-1608.800546,9622.677246
20885.508142,3330.926739,-919.314598,9918.759623
20885.508466,2368.659014,229.828649,9844.739029
20885.508789,2812.782580,-383.047749,8882.471304
20885.509112,2812.782580,0.000000,8660.409521
20885.509435,1110.308913,459.657299,9474.636058
20885.509759,-518.144159,1378.971896,10362.883188
20885.510082,-1998.556043,536.266849,10066.800811
20885.510405,-2960.823768,-229.828649,10510.924376
20885.510729,-4515.256246,229.828649,10732.986159
20885.511052,-5181.441594,-842.705048,9918.759623
20885.511375,-4071.132681,-2374.896044,10066.800811
20885.511699,-3330.926739,-2451.505594,9770.718434
20885.512022,-2442.679609,-2221.676944,9178.553681
20885.512345,-2072.576638,-2834.553343,7920.203579
20885.512668,-1850.514855,-3907.087040,7624.121203
20885.512992,-1554.432478,-3294.210641,7476.080014
20885.513315,-1184.329507,-3294.210641,8586.388927
20885.513638,-592.164754,-3370.820191,8364.327145
20885.513962,592.164754,-3600.648841,8586.388927
20885.514285,1628.453072,-2528.115143,9474.636058
20885.514608,1776.494261,-1991.848295,9252.574275
20885.514932,2664.741391,-1225.752797,9030.512492
20885.515255,3627.009116,-689.485948,8882.471304
20885.515578,2590.720797,0.000000,9474.636058
20885.515901,74.020594,0.000000,8512.368333
20885.516225,-740.205942,0.000000,8512.368333
20885.516548,-1110.308913,0.000000,10140.821405
20885.516871,-1480.411884,383.047749,11325.150913
20885.517195,-2516.700203,536.266849,11473.192101
20885.517518,-2664.741391,306.438199,11325.150913
20885.517841,-1702.473667,459.657299,10881.027347
20885.518165,0.000000,459.657299,9770.718434
20885.518488,888.247130,0.000000,9104.533087
20885.518811,814.226536,229.828649,8290.306550
20885.519134,1110.308913,459.657299,7698.141797
20885.519458,1258.350101,0.000000,7402.059420
20885.519781,148.041188,-689.485948,7624.121203
20885.520104,-1036.288319,-1608.800546,7476.080014
20885.520428,-666.185348,-1838.629195,7179.997637
20885.520751,-518.144159,-1838.629195,7846.182985
20885.521074,296.082377,-1072.533697,8660.409521
20885.521398,148.041188,-153.219100,8512.368333
20885.521721,296.082377,0.000000,7624.121203
20885.522044,222.061783,76.609550,7994.224174
20885.522368,148.041188,1302.362347,9252.574275
20885.522691,0.000000,2145.067394,10066.800811
20885.523014,-1998.556043,1915.238745,10510.924376
20885.523337,-2442.679609,1378.971896,10807.006753
20885.523661,-2294.638420,1378.971896,11103.089130
20885.523984,-2220.617826,1149.143247,11177.109724
20885.524307,-1924.535449,919.314598,10807.006753
20885.524631,-740.205942,459.657299,9474.636058
20885.524954,-592.164754,-229.828649,8142.265362
20885.525277,-296.082377,-459.657299,8142.265362
20885.525601,0.000000,-153.219100,8068.244768
20885.525924,148.041188,-1762.019645,8068.244768
20885.526247,0.000000,-2221.676944,8068.244768
20885.526571,0.000000,-2451.505594,8512.368333
20885.526894,-222.061783,-2451.505594,8956.491898
20885.527217,0.000000,-2451.505594,9548.656652
20885.527541,1258.350101,-2221.676944,8660.409521
20885.527864,1628.453072,-1685.410096,8290.306550
20885.528187,592.164754,-229.828649,8290.306550
20885.528511,148.041188,76.609550,8660.409521
20885.528834,222.061783,383.047749,8734.430116
20885.529158,-962.267725,306.438199,8808.450710
20885.529481,-2664.741391,0.000000,9844.739029
20885.529804,-3034.844362,0.000000,10807.006753
20885.530128,-2664.741391,153.219100,10881.027347
20885.530451,-2146.597232,-306.438199,11251.130318
20885.530774,-1998.556043,-919.314598,10214.842000
20885.531098,-1628.453072,-995.924147,9252.574275
20885.531421,0.000000,-1225.752797,8734.430116
20885.531744,1702.473667,-1838.629195,8142.265362
20885.532068,1776.494261,-1762.019645,7328.038826
20885.532391,1184.329507,-2068.457845,7698.141797
20885.532714,1480.411884,-2451.505594,7772.162391
20885.533038,1628.453072,-2987.772442,8216.285956
20885.533361,2146.597232,-2298.286494,9104.533087
20885.533684,2368.659014,-1762.019645,9918.759623
20885.534008,2738.761985,-1378.971896,9474.636058
20885.534331,2886.803174,-995.924147,8660.409521
20885.534655,2886.803174,-536.266849,8438.347739
20885.534978,1036.288319,229.828649,8660.409521
20885.535301,-222.061783,229.828649,8660.409521
20885.535625,-1850.514855,0.000000,9474.636058
20885.535948,-3330.926739,-153.219100,10214.842000
20885.536271,-4959.379811,-306.438199,10955.047942
20885.536595,-5625.565159,-536.266849,10955.047942
20885.536918,-4737.318029,-919.314598,10066.800811
20885.537241,-3256.906145,-842.705048,9400.615463
20885.537565,-1406.391290,-306.438199,8364.327145
20885.537888,-518.144159,-306.438199,7994.224174
20885.538211,888.247130,229.828649,8438.347739
20885.538535,2442.679609,459.657299,8586.388927
20885.538858,3256.906145,383.047749,8290.306550
20885.539181,3108.864956,-229.828649,8142.265362
20885.539505,2886.803174,-459.657299,8734.430116
20885.539828,2664.741391,-766.095498,8438.347739
20885.540151,2294.638420,-766.095498,9770.718434
20885.540475,2220.617826,-842.705048,9548.656652
20885.540798,1406.391290,-229.828649,9474.636058
20885.541122,666.185348,-229.828649,8808.450710
20885.541445,-518.144159,229.828649,7772.162391
20885.541768,-2220.617826,229.828649,8364.327145
20885.542092,-3552.988522,306.438199,9104.533087
20885.542415,-4441.235652,1149.143247,9474.636058
20885.542738,-5921.647536,919.314598,10807.006753
20885.543062,-6661.853478,153.219100,10584.944971
20885.543385,-6069.688724,-383.047749,9548.656652
20885.543708,-3775.050304,-766.095498,9696.697840
20885.544032,-2368.659014,0.000000,9030.512492
20885.544355,-1258.350101,306.438199,9030.512492
20885.544678,296.082377,76.609550,8364.327145
20885.545002,1406.391290,0.000000,8956.491898
20885.545325,2146.597232,-612.876398,9030.512492
20885.545648,2886.803174,-766.095498,8142.265362
20885.545972,3478.967927,-1378.971896,7772.162391
20885.546295,4515.256246,-919.314598,9178.553681
20885.546619,4885.359217,153.219100,10362.883188
20885.546942,4515.256246,0.000000,9104.533087
20885.547265,3404.947333,0.000000,7698.141797
20885.547589,2368.659014,76.609550,7105.977043
20885.547912,814.226536,612.876398,8216.285956
20885.548235,-370.102971,995.924147,8956.491898
20885.548559,-1776.494261,76.609550,9400.615463
20885.548882,-4589.276840,0.000000,9400.615463
20885.549205,-6291.750507,306.438199,10214.842000
20885.549529,-6217.729913,-306.438199,10658.965565
20885.549852,-5181.441594,-995.924147,9844.739029
20885.550175,-4071.132681,-1532.190996,9918.759623
20885.550499,-2294.638420,-1149.143247,9474.636058
20885.550822,-518.144159,-1378.971896,8956.491898
20885.551145,592.164754,-2221.676944,9030.512492
20885.551469,962.267725,-1915.238745,8660.409521
20885.551792,2072.576638,-2681.334243,8364.327145
20885.552116,2442.679609,-2834.553343,9474.636058
20885.552439,2886.803174,-3064.381992,10066.800811
20885.552762,3034.844362,-2451.505594,10510.924376
20885.553086,3404.947333,-2757.943793,10288.862594
20885.553409,4367.215058,-1455.581446,9474.636058
20885.553732,3849.070898,-1225.752797,7698.141797
20885.554056,2812.782580,383.047749,8216.285956
20885.554379,1554.432478,919.314598,8808.450710
20885.554702,962.267725,919.314598,8364.327145
20885.555026,-666.185348,459.657299,8808.450710
20885.555349,-3034.844362,0.000000,9474.636058
20885.555672,-5625.565159,76.609550,10214.842000
20885.555996,-5625.565159,-306.438199,10436.903782
20885.556319,-5181.441594,-1225.752797,10362.883188
20885.556642,-5329.482782,-1532.190996,9844.739029
20885.556966,-3701.029710,-1608.800546,9178.553681
20885.557289,-2664.741391,-1915.238745,8438.347739
20885.557612,-1628.453072,-2374.896044,7179.997637
20885.557936,-888.247130,-1532.190996,7624.121203
20885.558259,518.144159,-995.924147,8956.491898
20885.558583,740.205942,-1532.190996,8438.347739
20885.558906,2072.576638,-842.705048,9326.594869
20885.559229,2294.638420,-1225.752797,9474.636058
20885.559553,2368.659014,-766.095498,10436.903782
20885.559876,2590.720797,306.438199,9844.739029
20885.560199,4071.132681,459.657299,8882.471304
20885.560523,2960.823768,1378.971896,7920.203579
20885.560846,592.164754,1991.848295,8068.244768
20885.561169,-518.144159,2451.505594,8808.450710
20885.561493,-1036.288319,2145.067394,9178.553681
20885.561816,-2368.659014,1838.629195,9992.780217
20885.562139,-4811.338623,2298.286494,10732.986159
20885.562463,-5033.400406,2221.676944,10362.883188
20885.562786,-3627.009116,1762.019645,9548.656652
20885.563109,-2146.597232,919.314598,8290.306550
20885.563433,-1924.535449,1608.800546,8068.244768
20885.563756,-1332.370696,1302.362347,7402.059420
20885.564080,370.102971,689.485948,7105.977043
20885.564403,1702.473667,306.438199,7105.977043
20885.564726,814.226536,-459.657299,6735.874072
20885.565050,0.000000,-766.095498,7698.141797
20885.565373,740.205942,-1685.410096,7994.224174
20885.565696,1554.432478,-2528.115143,8808.450710
20885.566020,2072.576638,-2221.676944,9400.615463
20885.566343,1998.556043,-1149.143247,9030.512492
20885.566666,2220.617826,-1149.143247,9030.512492
20885.566990,2294.638420,-766.095498,9474.636058
20885.567313,1628.453072,-229.828649,9474.636058
20885.567636,444.123565,-229.828649,10140.821405
20885.567960,-1110.308913,-612.876398,10436.903782
20885.568283,-2220.617826,-306.438199,10732.986159
20885.568606,-3701.029710,-2145.067394,11843.295072
20885.568930,-4145.153275,-1608.800546,11991.336260
20885.569253,-3256.906145,-1762.019645,11399.171507
20885.569576,-1776.494261,-2068.457845,10362.883188
20885.569900,-518.144159,-1455.581446,10066.800811
20885.570223,0.000000,-1225.752797,9474.636058
20885.570547,1332.370696,-1455.581446,8586.388927
20885.570870,1998.556043,-2451.505594,7105.977043
20885.571193,2294.638420,-2451.505594,7476.080014
20885.571517,1406.391290,-2451.505594,8068.244768
20885.571840,1480.411884,-2681.334243,8438.347739
20885.572163,1554.432478,-2451.505594,8956.491898
20885.572487,1480.411884,-2604.724693,8438.347739
20885.572810,1258.350101,-2528.115143,8068.244768
20885.573133,962.267725,-1685.410096,8068.244768
20885.573457,296.082377,-1149.143247,8216.285956
20885.573780,-592.164754,-536.266849,8216.285956
20885.574103,-1850.514855,-229.828649,8586.388927
20885.574427,-2664.741391,153.219100,8956.491898
20885.574750,-3034.844362,766.095498,10214.842000
20885.575073,-4441.235652,612.876398,10658.965565
20885.575397,-4219.173869,536.266849,12139.377449
20885.575720,-2812.782580,383.047749,11695.253884
20885.576044,-2368.659014,229.828649,10732.986159
20885.576367,-1406.391290,-383.047749,9400.615463
20885.576690,-370.102971,-536.266849,8438.347739
20885.577014,-148.041188,-536.266849,7920.203579
20885.577337,0.000000,-766.095498,8216.285956
20885.577660,962.267725,-842.705048,7550.100608
20885.577984,888.247130,-1072.533697,8364.327145
20885.578307,814.226536,-995.924147,9030.512492
20885.578630,888.247130,-612.876398,9252.574275
20885.578954,1998.556043,-459.657299,9030.512492
20885.579277,3108.864956,536.266849,8068.244768
20885.579600,3256.906145,1608.800546,7846.182985
20885.579924,2590.720797,1455.581446,7179.997637
20885.580247,1480.411884,1532.190996,7254.018232
20885.580570,444.123565,2298.286494,8290.306550
20885.580894,-1184.329507,1991.848295,9030.512492
20885.581217,-2812.782580,1072.533697,9622.677246
20885.581540,-4145.153275,536.266849,9992.780217
20885.581864,-3182.885551,153.219100,10510.924376
20885.582187,-3034.844362,153.219100,11103.089130
20885.582511,-2590.720797,0.000000,10288.862594
20885.582834,-370.102971,-689.485948,8808.450710
20885.583157,518.144159,-153.219100,8956.491898
20885.583481,1110.308913,-229.828649,9400.615463
20885.583804,1702.473667,-612.876398,8586.388927
20885.584127,2146.597232,-1532.190996,8216.285956
20885.584451,2072.576638,-1991.848295,8882.471304
20885.584774,1480.411884,-2221.676944,9400.615463
20885.585097,1184.329507,-2451.505594,9400.615463
20885.585421,1406.391290,-2911.162892,9918.759623
20885.585744,1998.556043,-2068.457845,9918.759623
20885.586067,1850.514855,-1149.143247,9474.636058
20885.586391,1184.329507,-689.485948,8808.450710
20885.586714,1110.308913,-842.705048,8956.491898
20885.587037,74.020594,383.047749,8956.491898
20885.587361,-1184.329507,459.657299,9474.636058
20885.587684,-3478.967927,383.047749,10288.862594
20885.588008,-5107.421000,0.000000,10288.862594
20885.588331,-5107.421000,-383.047749,10436.903782
20885.588654,-5033.400406,-1225.752797,9844.739029
20885.588978,-4737.318029,-995.924147,9622.677246
20885.589301,-3108.864956,-995.924147,9326.594869
20885.589624,-2294.638420,-1455.581446,8216.285956
20885.589948,-1776.494261,-1608.800546,7624.121203
20885.590271,-1628.453072,-1762.019645,7402.059420
20885.590594,-814.226536,-2451.505594,7105.977043
20885.590918,222.061783,-2834.553343,8068.244768
20885.591241,962.267725,-2068.457845,8808.450710
20885.591564,1554.432478,-1608.800546,9030.512492
20885.591888,1628.453072,-1915.238745,9030.512492
20885.592211,2442.679609,-919.314598,9326.594869
20885.592534,3478.967927,-306.438199,9474.636058
20885.592858,2960.823768,76.609550,9474.636058
20885.593181,1554.432478,612.876398,9178.553681
20885.593505,444.123565,1225.752797,9252.574275
20885.593828,-592.164754,689.485948,8882.471304
20885.594151,-1184.329507,995.924147,10288.862594
20885.594475,-3182.885551,1378.971896,10881.027347
20885.594798,-3701.029710,1455.581446,10807.006753
20885.595121,-2664.741391,306.438199,10288.862594
20885.595445,-1702.473667,-153.219100,9104.533087
20885.595768,-592.164754,-459.657299,8956.491898
20885.596091,-444.123565,-842.705048,8660.409521
20885.596415,666.185348,-1225.752797,7476.080014
20885.596738,1776.494261,-1762.019645,7698.141797
20885.597061,2220.617826,-1608.800546,7846.182985
20885.597385,1480.411884,-1991.848295,8068.244768
20885.597708,1850.514855,-2298.286494,8586.388927
20885.598031,2812.782580,-1991.848295,9252.574275
20885.598355,3256.906145,-1532.190996,9326.594869
20885.598678,2812.782580,-536.266849,10066.800811
20885.599001,2886.803174,-612.876398,9474.636058
20885.599325,2664.741391,229.828649,9400.615463
20885.599648,1406.391290,536.266849,9030.512492
20885.599972,-222.061783,842.705048,9548.656652
20885.600295,-1776.494261,766.095498,10288.862594
20885.600618,-3256.906145,459.657299,10584.944971
20885.600942,-4811.338623,153.219100,11103.089130
20885.601265,-6291.750507,0.000000,10362.883188
20885.601588,-5847.626942,-383.047749,9548.656652
20885.601912,-4663.297435,-536.266849,9474.636058
20885.602235,-3256.906145,-229.828649,8660.409521
20885.602558,-2072.576638,-536.266849,7994.224174
20885.602882,-1184.329507,-459.657299,8068.244768
20885.603205,222.061783,-919.314598,6735.874072
20885.603528,888.247130,-1072.533697,7550.100608
20885.603852,1036.288319,-612.876398,7698.141797
20885.604175,814.226536,-1072.533697,8882.471304
20885.604498,1702.473667,-1072.533697,9252.574275
20885.604822,2516.700203,-919.314598,9400.615463
20885.605145,2146.597232,-1072.533697,9474.636058
20885.605469,1184.329507,0.000000,8364.327145
20885.605792,1036.288319,766.095498,8142.265362
20885.606115,888.247130,1225.752797,8808.450710
20885.606439,-1184.329507,1915.238745,9474.636058
20885.606762,-3182.885551,1532.190996,9696.697840
20885.607085,-4367.215058,919.314598,10066.800811
20885.607409,-4811.338623,306.438199,10436.903782
20885.607732,-5107.421000,306.438199,11103.089130
20885.608055,-4589.276840,766.095498,10436.903782
20885.608379,-2886.803174,76.609550,9622.677246
20885.608702,-962.267725,229.828649,9104.533087
20885.609025,-148.041188,-536.266849,8586.388927
20885.609349,592.164754,-612.876398,7476.080014
20885.609672,1776.494261,-689.485948,7624.121203
20885.609995,2442.679609,-1302.362347,8142.265362
20885.610319,2590.720797,-1149.143247,8512.368333
20885.610642,3701.029710,-1685.410096,8512.368333
20885.610965,3627.009116,-1072.533697,8660.409521
20885.611289,4293.194464,-842.705048,9548.656652
20885.611612,4959.379811,-766.095498,9400.615463
20885.611936,4515.256246,-229.828649,8660.409521
20885.612259,3330.926739,0.000000,8364.327145
20885.612582,1998.556043,229.828649,8290.306550
20885.612906,148.041188,0.000000,8808.450710
20885.613229,-1406.391290,-536.266849,9252.574275
20885.613552,-3330.926739,-766.095498,9770.718434
20885.613876,-4367.215058,-919.314598,10732.986159
20885.614199,-4811.338623,-1378.971896,11177.109724
20885.614522,-3923.091493,-1302.362347,10955.047942
20885.614846,-2590.720797,-1685.410096,10140.821405
20885.615169,-1332.370696,-1608.800546,8956.491898
20885.615492,-222.061783,-2145.067394,8512.368333
20885.615816,814.226536,-1532.190996,8438.347739
20885.616139,1110.308913,-2374.896044,8512.368333
20885.616462,1110.308913,-2604.724693,8956.491898
20885.616786,1110.308913,-2528.115143,9474.636058
20885.617109,1110.308913,-2451.505594,8956.491898
20885.617433,1110.308913,-3217.601092,8734.430116
20885.617756,1258.350101,-2451.505594,9326.594869
20885.618079,1258.350101,-1302.362347,9474.636058
20885.618403,1480.411884,-919.314598,8438.347739
20885.618726,814.226536,76.609550,7994.224174
20885.619049,-222.061783,612.876398,8142.265362
20885.619373,-1406.391290,1685.410096,8438.347739
20885.619696,-2368.659014,1532.190996,8956.491898
20885.620019,-4071.132681,1378.971896,9770.718434
20885.620343,-5329.482782,919.314598,10288.862594
20885.620666,-5551.544565,612.876398,10140.821405
20885.620989,-4293.194464,0.000000,10066.800811
20885.621313,-2960.823768,-229.828649,9474.636058
20885.621636,-2516.700203,0.000000,8586.388927
20885.621959,-1332.370696,-306.438199,8290.306550
20885.622283,222.061783,-995.924147,7179.997637
20885.622606,1332.370696,0.000000,7254.018232
20885.622930,1480.411884,-306.438199,7920.203579
20885.623253,1554.432478,-459.657299,8586.388927
20885.623576,2294.638420,-459.657299,8882.471304
20885.623900,3330.926739,-383.047749,9030.512492
20885.624223,3256.906145,-536.266849,9696.697840
20885.624546,2738.761985,0.000000,8660.409521
20885.624870,2590.720797,842.705048,7920.203579
20885.625193,2516.700203,383.047749,8438.347739
20885.625516,666.185348,1072.533697,8438.347739
20885.625840,-740.205942,1455.581446,8956.491898
20885.626163,-1702.473667,1225.752797,9474.636058
20885.626487,-2442.679609,612.876398,10140.821405
20885.626810,-3182.885551,689.485948,10732.986159
20885.627133,-3552.988522,76.609550,10732.986159
20885.627457,-2664.741391,0.000000,10066.800811
20885.627780,-666.185348,153.219100,9622.677246
20885.628104,148.041188,0.000000,9178.553681
20885.628427,0.000000,-383.047749,9030.512492
20885.628751,296.082377,-1072.533697,8586.388927
20885.629074,1036.288319,-1532.190996,7994.224174
20885.629397,518.144159,-2145.067394,8216.285956
20885.629721,296.082377,-2681.334243,8734.430116
20885.630044,296.082377,-2987.772442,8512.368333
20885.630368,1036.288319,-3064.381992,8364.327145
20885.630691,1184.329507,-2528.115143,9104.533087
20885.631014,1258.350101,-1302.362347,8512.368333
20885.631338,1332.370696,-536.266849,8438.347739
20885.631661,2072.576638,-842.705048,8290.306550
20885.631985,740.205942,0.000000,8290.306550
20885.632308,-814.226536,536.266849,8956.491898
20885.632631,-1702.473667,153.219100,9770.718434
20885.632955,-2812.782580,229.828649,10881.027347
20885.633278,-3997.112087,-306.438199,11325.150913
20885.633602,-5107.421000,-919.314598,11251.130318
20885.633925,-4737.318029,-842.705048,11029.068536
20885.634248,-3256.906145,-766.095498,9696.697840
20885.634572,-2516.700203,-1455.581446,9326.594869
20885.634895,-2516.700203,-1225.752797,8586.388927
20885.635219,-1850.514855,-1685.410096,7550.100608
20885.635542,-296.082377,-1838.629195,7624.121203
20885.635865,74.020594,-1915.238745,7476.080014
20885.636189,-370.102971,-2068.457845,8068.244768
20885.636512,0.000000,-2221.676944,8364.327145
20885.636836,888.247130,-1915.238745,8586.388927
20885.637159,1998.556043,-1915.238745,9326.594869
20885.637483,2294.638420,-1915.238745,8956.491898
20885.637806,2220.617826,-842.705048,8142.265362
20885.638129,2294.638420,0.000000,8364.327145
20885.638453,1998.556043,689.485948,8364.327145
20885.638776,1776.494261,1762.019645,8660.409521
20885.639100,962.267725,2451.505594,10066.800811
20885.639423,-740.205942,1838.629195,10732.986159
20885.639746,-1480.411884,1455.581446,11325.150913
20885.640070,-1998.556043,842.705048,11177.109724
20885.640393,-1924.535449,689.485948,10881.027347
20885.640717,-1554.432478,612.876398,9252.574275
20885.641040,-888.247130,0.000000,8290.306550
20885.641363,-740.205942,-229.828649,7624.121203
20885.641687,-518.144159,-1378.971896,7994.224174
20885.642010,-592.164754,-995.924147,7624.121203
20885.642334,-370.102971,-1991.848295,7624.121203
20885.642657,-148.041188,-2451.505594,7476.080014
20885.642980,0.000000,-2298.286494,8364.327145
20885.643304,1036.288319,-1378.971896,9030.512492
20885.643627,2368.659014,-919.314598,9622.677246
20885.643951,3182.885551,383.047749,9326.594869
20885.644274,3256.906145,153.219100,8808.450710
20885.644597,2738.761985,459.657299,9030.512492
20885.644921,1406.391290,1072.533697,9474.636058
20885.645244,814.226536,1302.362347,9844.739029
20885.645568,-592.164754,1455.581446,10066.800811
20885.645891,-3034.844362,536.266849,10362.883188
20885.646215,-4441.235652,536.266849,10214.842000
20885.646538,-4811.338623,0.000000,10584.944971
20885.646861,-4589.276840,0.000000,10140.821405
20885.647185,-4071.132681,0.000000,9622.677246
20885.647508,-3108.864956,-306.438199,8808.450710
20885.647832,-1776.494261,-842.705048,8216.285956
20885.648155,-1110.308913,-1225.752797,7402.059420
20885.648478,-814.226536,-1685.410096,7402.059420
20885.648802,0.000000,-1608.800546,7624.121203
20885.649125,592.164754,-1991.848295,7920.203579
20885.649449,814.226536,-2374.896044,8882.471304
20885.649772,148.041188,-2757.943793,9400.615463
20885.650095,74.020594,-2374.896044,9548.656652
20885.650419,1184.329507,-1608.800546,9474.636058
20885.650742,1850.514855,-689.485948,8586.388927
20885.651066,1776.494261,-689.485948,8216.285956
20885.651389,740.205942,0.000000,8660.409521
20885.651712,-222.061783,229.828649,9622.677246
20885.652036,-592.164754,536.266849,9992.780217
20885.652359,-2072.576638,153.219100,10510.924376
20885.652683,-3108.864956,-153.219100,11473.192101
20885.653006,-3849.070898,-306.438199,11177.109724
20885.653329,-2294.638420,-459.657299,11103.089130
20885.653653,-888.247130,-459.657299,10436.903782
20885.653976,-444.123565,-842.705048,9104.533087
20885.654300,444.123565,-689.485948,7994.224174
20885.654623,1776.494261,-1149.143247,7328.038826
20885.654947,3108.864956,-689.485948,7994.224174
20885.655270,3552.988522,-306.438199,8216.285956
20885.655593,2886.803174,-612.876398,7994.224174
20885.655917,3849.070898,-689.485948,8142.265362
20885.656240,3701.029710,-995.924147,9030.512492
20885.656564,3775.050304,-612.876398,9770.718434
20885.656887,2664.741391,-612.876398,9474.636058
20885.657210,1776.494261,-919.314598,8290.306550
20885.657534,1184.329507,-153.219100,8290.306550
20885.657857,74.020594,-1302.362347,8808.450710
20885.658181,-1702.473667,0.000000,8734.430116
20885.658504,-3182.885551,383.047749,9918.759623
20885.658827,-5107.421000,-153.219100,10288.862594
20885.659151,-5477.523971,0.000000,10288.862594
20885.659474,-5181.441594,0.000000,10881.027347
20885.659798,-4145.153275,0.000000,11177.109724
20885.660121,-2368.659014,0.000000,9844.739029
20885.660444,-888.247130,536.266849,8734.430116
20885.660768,0.000000,0.000000,8586.388927
20885.661091,666.185348,-459.657299,7772.162391
20885.661415,1776.494261,-1149.143247,7698.141797
20885.661738,2146.597232,-1915.238745,8290.306550
20885.662061,1702.473667,-1762.019645,9326.594869
20885.662385,2146.597232,-2451.505594,9622.677246
20885.662708,1702.473667,-1762.019645,9548.656652
20885.663032,2294.638420,-2068.457845,10140.821405
20885.663355,1332.370696,-766.095498,9474.636058
20885.663679,1480.411884,-766.095498,8882.471304
20885.664002,1332.370696,76.609550,8364.327145
20885.664325,-222.061783,1072.533697,8142.265362
20885.664649,-2516.700203,1149.143247,8068.244768
20885.664972,-3256.906145,689.485948,8660.409521
20885.665296,-4441.235652,153.219100,9104.533087
20885.665619,-6217.729913,153.219100,10732.986159
20885.665942,-7476.080014,-306.438199,11177.109724
20885.666266,-7179.997637,-842.705048,10362.883188
20885.666589,-5107.421000,-1532.190996,9918.759623
20885.666913,-2738.761985,-1455.581446,8660.409521
20885.667236,-1702.473667,-1455.581446,7920.203579
20885.667559,-444.123565,-919.314598,7254.018232
20885.667883,1924.535449,0.000000,8512.368333
20885.668206,3404.947333,0.000000,8956.491898
20885.668530,3701.029710,-153.219100,8660.409521
20885.668853,4515.256246,-842.705048,8734.430116
20885.669176,4737.318029,229.828649,9622.677246
20885.669500,5477.523971,995.924147,10436.903782
20885.669823,5847.626942,1149.143247,9918.759623
20885.670147,4811.338623,1838.629195,8216.285956
20885.670470,2886.803174,1685.410096,7624.121203
20885.670793,1480.411884,1915.238745,7698.141797
20885.671117,370.102971,2145.067394,7772.162391
20885.671440,-1258.350101,2145.067394,8956.491898
20885.671764,-3775.050304,1302.362347,8956.491898
20885.672087,-4959.379811,995.924147,10066.800811
20885.672411,-6661.853478,0.000000,9770.718434
20885.672734,-6513.812290,-995.924147,10214.842000
20885.673057,-5477.523971,-1532.190996,10140.821405
20885.673381,-4441.235652,-2221.676944,8660.409521
20885.673704,-2664.741391,-2911.162892,7994.224174
20885.674028,-1628.453072,-2451.505594,7624.121203
20885.674351,74.020594,-1838.629195,8438.347739
20885.674674,1110.308913,-2451.505594,9030.512492
20885.674998,1924.535449,-2145.067394,9622.677246
20885.675321,3034.844362,-2451.505594,9400.615463
20885.675645,3552.988522,-2221.676944,10288.862594
20885.675968,4515.256246,-1378.971896,10881.027347
20885.676291,5107.421000,-612.876398,10436.903782
20885.676615,5107.421000,-383.047749,8882.471304
20885.676938,3775.050304,229.828649,8364.327145
20885.677262,3256.906145,766.095498,9844.739029
20885.677585,1184.329507,1072.533697,9696.697840
20885.677908,-592.164754,153.219100,9400.615463
20885.678232,-3182.885551,-383.047749,9548.656652
20885.678555,-5181.441594,-306.438199,10140.821405
20885.678879,-5699.585753,-995.924147,9844.739029
20885.679202,-5329.482782,-689.485948,10362.883188
20885.679525,-5181.441594,-1378.971896,9252.574275
20885.679849,-4293.194464,-919.314598,8216.285956
20885.680172,-2220.617826,-1225.752797,7402.059420
20885.680496,-740.205942,-1455.581446,7476.080014
20885.680819,-592.164754,-1378.971896,7698.141797
20885.681143,-444.123565,-1685.410096,8290.306550
20885.681466,-296.082377,-2374.896044,7994.224174
20885.681789,962.267725,-2451.505594,9252.574275
20885.682113,1332.370696,-2374.896044,9622.677246
20885.682436,1776.494261,-2068.457845,9622.677246
20885.682760,2368.659014,-1608.800546,9400.615463
20885.683083,3108.864956,-536.266849,9400.615463
20885.683406,2738.761985,0.000000,9696.697840
20885.683730,1998.556043,1378.971896,9326.594869
20885.684053,740.205942,1685.410096,9178.553681
20885.684377,-592.164754,1378.971896,9992.780217
20885.684700,-2294.638420,1532.190996,10732.986159
20885.685023,-3330.926739,1685.410096,11399.171507
20885.685347,-4145.153275,919.314598,10658.965565
20885.685670,-3923.091493,919.314598,9992.780217
20885.685994,-3256.906145,536.266849,9252.574275
20885.686317,-2294.638420,0.000000,7994.224174
20885.686640,-888.247130,76.609550,7328.038826
20885.686964,0.000000,-689.485948,6957.935855
20885.687287,814.226536,-842.705048,6957.935855
20885.687611,1776.494261,-995.924147,7476.080014
20885.687934,1480.411884,-612.876398,8216.285956
20885.688257,1998.556043,-1072.533697,8364.327145
20885.688581,2812.782580,-919.314598,9696.697840
20885.688904,3404.947333,-1302.362347,9326.594869
20885.689228,3330.926739,-842.705048,9178.553681
20885.689551,3256.906145,0.000000,9178.553681
20885.689875,2738.761985,459.657299,9252.574275
20885.690198,1036.288319,536.266849,8512.368333
20885.690521,-592.164754,766.095498,8808.450710
20885.690845,-1850.514855,689.485948,9252.574275
20885.691168,-2960.823768,306.438199,10288.862594
20885.691492,-4219.173869,-459.657299,11325.150913
20885.691815,-5477.523971,-612.876398,10955.047942
20885.692138,-4515.256246,-689.485948,10584.944971
20885.692462,-2590.720797,-842.705048,10510.924376
20885.692785,-1554.432478,-842.705048,9770.718434
20885.693109,-814.226536,-842.705048,8586.388927
20885.693432,814.226536,-1532.190996,8216.285956
20885.693755,1776.494261,-1378.971896,8438.347739
20885.694079,2072.576638,-1608.800546,8586.388927
20885.694402,740.205942,-2298.286494,8216.285956
20885.694726,1110.308913,-2834.553343,8364.327145
20885.695049,1702.473667,-2528.115143,9104.533087
20885.695372,2072.576638,-1378.971896,9696.697840
20885.695696,2368.659014,-612.876398,8660.409521
20885.696019,2220.617826,-306.438199,8068.244768
20885.696343,1554.432478,76.609550,7476.080014
20885.696666,592.164754,1225.752797,8216.285956
20885.696989,-888.247130,919.314598,8290.306550
20885.697313,-2886.803174,689.485948,8586.388927
20885.697636,-4441.235652,306.438199,9474.636058
20885.697960,-5329.482782,-229.828649,10584.944971
20885.698283,-6069.688724,-536.266849,10732.986159
20885.698607,-5181.441594,-1608.800546,10658.965565
20885.698930,-4071.132681,-1225.752797,10140.821405
20885.699253,-2590.720797,-919.314598,9474.636058
20885.699577,-518.144159,-995.924147,9104.533087
20885.699900,1110.308913,-1072.533697,8660.409521
20885.700224,2146.597232,-1149.143247,8142.265362
20885.700547,3182.885551,-229.828649,8734.430116
20885.700870,4219.173869,-766.095498,8586.388927
20885.701194,4219.173869,-536.266849,10066.800811
20885.701517,4145.153275,-995.924147,10584.944971
20885.701841,4367.215058,-1072.533697,10066.800811
20885.702164,4219.173869,-766.095498,9252.574275
20885.702487,2812.782580,-995.924147,8438.347739
20885.702811,1628.453072,229.828649,8364.327145
20885.703134,444.123565,842.705048,8512.368333
20885.703458,-1036.288319,1378.971896,8438.347739
20885.703781,-2886.803174,1149.143247,8808.450710
20885.704104,-4663.297435,995.924147,9474.636058
20885.704428,-5255.462188,842.705048,10214.842000
20885.704751,-5107.421000,842.705048,10362.883188
20885.705075,-4515.256246,153.219100,9548.656652
20885.705398,-3923.091493,306.438199,8808.450710
20885.705721,-2072.576638,229.828649,8734.430116
20885.706045,-888.247130,-229.828649,7920.203579
20885.706368,296.082377,-842.705048,7550.100608
20885.706692,1332.370696,-1532.190996,7772.162391
20885.707015,2146.597232,-1608.800546,8808.450710
20885.707339,2294.638420,-1608.800546,9030.512492
20885.707662,2664.741391,-2068.457845,9548.656652
20885.707985,2812.782580,-1915.238745,9696.697840
20885.708309,3182.885551,-995.924147,9918.759623
20885.708632,4071.132681,-689.485948,10214.842000
20885.708956,3108.864956,383.047749,9104.533087
20885.709279,1776.494261,766.095498,8808.450710
20885.709602,148.041188,1225.752797,8512.368333
20885.709926,-1258.350101,76.609550,8808.450710
20885.710249,-3701.029710,153.219100,9326.594869
20885.710573,-5995.668130,919.314598,9770.718434
20885.710896,-7254.018232,0.000000,10066.800811
20885.711219,-7179.997637,-689.485948,10288.862594
20885.711543,-5699.585753,-1072.533697,10288.862594
20885.711866,-4589.276840,-459.657299,9548.656652
20885.712190,-3182.885551,-689.485948,8438.347739
20885.712513,-518.144159,-459.657299,7920.203579
20885.712836,1184.329507,-1762.019645,8290.306550
20885.713160,2146.597232,-1532.190996,7846.182985
20885.713483,2664.741391,-2068.457845,8142.265362
20885.713807,2960.823768,-1991.848295,8586.388927
20885.714130,4071.132681,-1532.190996,9400.615463
20885.714453,4293.194464,-1915.238745,9770.718434
20885.714777,4515.256246,-1225.752797,9696.697840
20885.715100,4663.297435,-1072.533697,9474.636058
20885.715424,3775.050304,-459.657299,8882.471304
20885.715747,3034.844362,76.609550,8882.471304
20885.716071,1110.308913,306.438199,8586.388927
20885.716394,-148.041188,459.657299,8364.327145
20885.716717,-1554.432478,0.000000,9326.594869
20885.717041,-4367.215058,153.219100,10140.821405
20885.717364,-5477.523971,0.000000,11991.336260
20885.717688,-5921.647536,-919.314598,11843.295072
20885.718011,-5107.421000,-1838.629195,10955.047942
20885.718334,-4293.194464,-1685.410096,10140.821405
20885.718658,-3108.864956,-1685.410096,9252.574275
20885.718981,-1258.350101,-1378.971896,8142.265362
20885.719305,888.247130,-995.924147,7328.038826
20885.719628,2368.659014,-153.219100,7698.141797
20885.719951,2738.761985,-229.828649,7624.121203
20885.720275,2960.823768,-689.485948,8512.368333
20885.720598,3478.967927,-689.485948,9030.512492
20885.720922,3849.070898,-842.705048,9178.553681
20885.721245,3330.926739,-306.438199,9400.615463
20885.721568,3182.885551,0.000000,8586.388927
20885.721892,2812.782580,-229.828649,7920.203579
20885.722215,1406.391290,536.266849,7698.141797
20885.722539,-888.247130,612.876398,8142.265362
20885.722862,-2146.597232,689.485948,8068.244768
20885.723185,-3256.906145,536.266849,8438.347739
20885.723509,-5255.462188,689.485948,9918.759623
20885.723832,-7031.956449,612.876398,10807.006753
20885.724156,-7105.977043,0.000000,10510.924376
20885.724479,-5921.647536,-842.705048,10658.965565
20885.724803,-4145.153275,-612.876398,10436.903782
20885.725126,-2590.720797,-612.876398,9474.636058
20885.725449,-962.267725,-995.924147,8586.388927
20885.725773,740.205942,-766.095498,8290.306550
20885.726096,2368.659014,0.000000,8808.450710
20885.726419,3108.864956,-842.705048,8660.409521
20885.726743,2146.597232,-919.314598,8216.285956
20885.727066,2368.659014,-1838.629195,8956.491898
20885.727390,2886.803174,-1455.581446,9400.615463
20885.727713,3923.091493,-1378.971896,9474.636058
20885.728036,3775.050304,-306.438199,9696.697840
20885.728360,2442.679609,383.047749,8586.388927
20885.728683,2072.576638,383.047749,8142.265362
20885.729007,1776.494261,766.095498,8438.347739
20885.729330,0.000000,1532.190996,8734.430116
20885.729653,-2516.700203,1225.752797,9622.677246
20885.729977,-4441.235652,383.047749,9622.677246
20885.730300,-4811.338623,76.609550,10436.903782
20885.730624,-5403.503377,-383.047749,10658.965565
20885.730947,-5107.421000,-459.657299,9918.759623
20885.731270,-3627.009116,-612.876398,9474.636058
20885.731594,-2664.741391,-842.705048,9474.636058
20885.731917,-592.164754,-842.705048,8216.285956
20885.732241,296.082377,-1225.752797,7476.080014
20885.732564,1258.350101,-1991.848295,7402.059420
20885.732887,2368.659014,-2145.067394,8734.430116
20885.733211,2516.700203,-1915.238745,9326.594869
20885.733534,2664.741391,-2221.676944,9992.780217
20885.733858,3256.906145,-2681.334243,9918.759623
20885.734181,4219.173869,-1685.410096,9770.718434
20885.734504,4219.173869,-1149.143247,9696.697840
20885.734828,3478.967927,-383.047749,8808.450710
20885.735151,3404.947333,229.828649,7846.182985
20885.735474,2442.679609,1225.752797,8364.327145
20885.735798,-296.082377,2068.457845,8586.388927
20885.736121,-1850.514855,2221.676944,8586.388927
20885.736445,-3923.091493,995.924147,9252.574275
20885.736768,-4737.318029,612.876398,10658.965565
20885.737091,-5847.626942,383.047749,11325.150913
20885.737415,-5699.585753,-306.438199,10510.924376
20885.737738,-4737.318029,-1532.190996,9474.636058
20885.738062,-3849.070898,-1915.238745,8438.347739
20885.738385,-2516.700203,-1608.800546,8290.306550
20885.738708,-1924.535449,-2451.505594,7328.038826
20885.739032,-592.164754,-2681.334243,7105.977043
20885.739355,962.267725,-2374.896044,8660.409521
20885.739679,1850.514855,-2298.286494,9252.574275
20885.740002,2368.659014,-2068.457845,9548.656652
20885.740325,3627.009116,-1225.752797,10140.821405
20885.740649,5329.482782,-459.657299,9474.636058
20885.740972,5921.647536,536.266849,9696.697840
20885.741296,5773.606348,459.657299,9400.615463
20885.741619,3923.091493,1225.752797,8734.430116
20885.741942,2072.576638,1762.019645,8438.347739
20885.742266,444.123565,1838.629195,8882.471304
20885.742589,-1776.494261,1302.362347,9696.697840
20885.742913,-5255.462188,306.438199,9696.697840
20885.743236,-7105.977043,-459.657299,9770.718434
20885.743559,-7402.059420,-1149.143247,10066.800811
20885.743883,-7772.162391,-612.876398,9992.780217
20885.744206,-6513.812290,-766.095498,9252.574275
20885.744529,-4959.379811,-1225.752797,7920.203579
20885.744853,-2738.761985,-919.314598,7772.162391
20885.745176,0.000000,-383.047749,7698.141797
20885.745500,1480.411884,0.000000,7994.224174
20885.745823,2294.638420,-919.314598,8216.285956
20885.746146,3330.926739,-995.924147,7920.203579
20885.746470,4959.379811,-1685.410096,8956.491898
20885.746793,4737.318029,-1225.752797,10140.821405
20885.747117,4885.359217,-766.095498,10881.027347
20885.747440,5329.482782,-306.438199,10214.842000
20885.747763,4959.379811,-842.705048,9030.512492
20885.748087,3404.947333,229.828649,9474.636058
20885.748410,2146.597232,1225.752797,9918.759623
20885.748734,222.061783,689.485948,9474.636058
20885.749057,-1776.494261,689.485948,9474.636058
20885.749380,-3701.029710,383.047749,9992.780217
20885.749704,-5847.626942,0.000000,10584.944971
20885.750027,-6883.915261,0.000000,10436.903782
20885.750351,-6513.812290,0.000000,9918.759623
20885.750674,-5477.523971,-1072.533697,8956.491898
20885.750997,-5847.626942,-1149.143247,7994.224174
20885.751321,-4145.153275,-1762.019645,7476.080014
20885.751644,-1628.453072,-1915.238745,7179.997637
20885.751968,-222.061783,-1762.019645,7402.059420
20885.752291,444.123565,-1762.019645,7476.080014
20885.752614,2146.597232,-1532.190996,8216.285956
20885.752938,3775.050304,-2145.067394,9178.553681
20885.753261,4737.318029,-1302.362347,9474.636058
20885.753584,5255.462188,-689.485948,10510.924376
20885.753908,5551.544565,-459.657299,9918.759623
20885.754231,5329.482782,-229.828649,9104.533087
20885.754555,4737.318029,536.266849,8734.430116
20885.754878,2368.659014,919.314598,8956.491898
20885.755201,-592.164754,995.924147,8438.347739
20885.755525,-1924.535449,1378.971896,9696.697840
20885.755848,-3923.091493,306.438199,10436.903782
20885.756172,-6291.750507,153.219100,11029.068536
20885.756495,-7105.977043,-153.219100,11029.068536
20885.756818,-6439.791695,-1225.752797,10807.006753
20885.757142,-4589.276840,-612.876398,9474.636058
20885.757465,-3182.885551,-1225.752797,8660.409521
20885.757789,-2368.659014,-1149.143247,7846.182985
20885.758112,-1480.411884,-1608.800546,7179.997637
20885.758435,296.082377,-1532.190996,7772.162391
20885.758759,1702.473667,-2145.067394,8290.306550
20885.759082,1776.494261,-1915.238745,8660.409521
20885.759406,2664.741391,-1915.238745,8734.430116
20885.759729,4071.132681,-2451.505594,9696.697840
20885.760052,4737.318029,-1149.143247,9622.677246
20885.760376,5255.462188,76.609550,9474.636058
20885.760699,5107.421000,459.657299,8956.491898
20885.761023,4145.153275,1302.362347,8660.409521
20885.761346,2368.659014,2068.457845,8586.388927
20885.761669,814.226536,1685.410096,8364.327145
20885.761993,-1924.535449,1455.581446,9030.512492
20885.762316,-4367.215058,1455.581446,9548.656652
20885.762639,-5477.523971,306.438199,10955.047942
20885.762963,-7031.956449,-153.219100,10807.006753
20885.763286,-7031.956449,-1072.533697,9844.739029
20885.763610,-5329.482782,-1915.238745,9326.594869
20885.763933,-4737.318029,-1455.581446,9178.553681
20885.764256,-3182.885551,-1455.581446,8216.285956
20885.764580,-740.205942,-1991.848295,8512.368333
20885.764903,1110.308913,-1685.410096,8216.285956
20885.765227,2146.597232,-1762.019645,8586.388927
20885.765550,2812.782580,-1455.581446,9474.636058
20885.765873,3404.947333,-1532.190996,9474.636058
20885.766197,4219.173869,-1225.752797,9622.677246
20885.766520,5255.462188,-689.485948,9918.759623
20885.766844,4811.338623,-153.219100,9548.656652
20885.767167,3182.885551,-229.828649,8142.265362
20885.767490,2442.679609,459.657299,8216.285956
20885.767814,888.247130,229.828649,8512.368333
20885.768137,-1554.432478,612.876398,8290.306550
20885.768461,-3552.988522,536.266849,8882.471304
20885.768784,-5107.421000,689.485948,9770.718434
20885.769107,-7476.080014,0.000000,10436.903782
20885.769431,-7105.977043,0.000000,10584.944971
20885.769754,-5921.647536,-995.924147,9918.759623
20885.770078,-4885.359217,-1149.143247,8956.491898
20885.770401,-3108.864956,-536.266849,8956.491898
20885.770724,-814.226536,-536.266849,8882.471304
20885.771048,148.041188,-995.924147,7920.203579
20885.771371,1184.329507,-1149.143247,7179.997637
20885.771694,2664.741391,-1532.190996,7920.203579
20885.772018,3627.009116,-1608.800546,8290.306550
20885.772341,4367.215058,-1378.971896,9622.677246
20885.772665,5033.400406,-1072.533697,9992.780217
20885.772988,5033.400406,-1225.752797,9918.759623
20885.773311,4959.379811,-306.438199,9622.677246
20885.773635,4663.297435,612.876398,9252.574275
20885.773958,3182.885551,153.219100,8734.430116
20885.774282,1184.329507,0.000000,9252.574275
20885.774605,-370.102971,536.266849,8660.409521
20885.774928,-2294.638420,383.047749,8734.430116
20885.775252,-5181.441594,612.876398,9474.636058
20885.775575,-6883.915261,229.828649,10214.842000
20885.775899,-6957.935855,-536.266849,9992.780217
20885.776222,-5625.565159,306.438199,9770.718434
20885.776545,-4515.256246,-612.876398,9104.533087
20885.776869,-3182.885551,-306.438199,8586.388927
20885.777192,-1184.329507,-229.828649,8734.430116
20885.777516,1110.308913,-459.657299,8290.306550
20885.777839,2812.782580,-1072.533697,7846.182985
20885.778162,3108.864956,-1302.362347,8216.285956
20885.778486,3701.029710,-1378.971896,8956.491898
20885.778809,4441.235652,-1302.362347,9474.636058
20885.779133,4737.318029,-1915.238745,9992.780217
20885.779456,3923.091493,-1608.800546,9548.656652
20885.779779,4219.173869,-1072.533697,8660.409521
20885.780103,2960.823768,-1149.143247,8438.347739
20885.780426,1406.391290,0.000000,8142.265362
20885.780749,148.041188,459.657299,8216.285956
20885.781073,-740.205942,766.095498,8808.450710
20885.781396,-2590.720797,689.485948,9252.574275
20885.781720,-5329.482782,229.828649,9474.636058
20885.782043,-7328.038826,-536.266849,10584.944971
20885.782366,-7402.059420,-1149.143247,11103.089130
20885.782690,-6069.688724,-1149.143247,11029.068536
20885.783013,-5033.400406,-1455.581446,10362.883188
20885.783337,-4441.235652,-1532.190996,8882.471304
20885.783660,-2294.638420,-1378.971896,7772.162391
20885.783983,592.164754,-919.314598,8808.450710
20885.784307,1480.411884,-919.314598,8290.306550
20885.784630,2368.659014,-1225.752797,8364.327145
20885.784954,3108.864956,-689.485948,9030.512492
20885.785277,4589.276840,-689.485948,9474.636058
20885.785600,4959.379811,-229.828649,9474.636058
20885.785924,5477.523971,-459.657299,9400.615463
