#time,accel_x,accel_y,accel_z
428.347840,3775.050304,1915.238745,8660.409521
428.348165,4663.297435,2451.505594,7772.162391
428.348490,4885.359217,3140.991542,7402.059420
428.348815,4811.338623,3753.867940,7031.956449
428.349141,5033.400406,3983.696590,6809.894666
428.349466,4663.297435,4749.792088,6661.853478
428.349791,4145.153275,4749.792088,7105.977043
428.350116,3775.050304,4443.353888,8438.347739
428.350441,2516.700203,3600.648841,7920.203579
428.350766,1924.535449,2911.162892,8216.285956
428.351092,1850.514855,3294.210641,9400.615463
428.351417,1332.370696,3524.039291,10584.944971
428.351742,-370.102971,2604.724693,11251.130318
428.352067,-1332.370696,1378.971896,10955.047942
428.352392,-2072.576638,2298.286494,11251.130318
428.352717,-2146.597232,2604.724693,11843.295072
428.353043,-2738.761985,1991.848295,11769.274478
428.353368,-2886.803174,1532.190996,11251.130318
428.353693,-2368.659014,2221.676944,10288.862594
428.354018,-1258.350101,2987.772442,10066.800811
428.354343,-592.164754,3064.381992,8956.491898
428.354668,-1110.308913,3983.696590,8068.244768
428.354994,0.000000,3600.648841,7624.121203
428.355319,1998.556043,4290.134789,8068.244768
428.355644,1554.432478,4673.182538,7994.224174
428.355969,1702.473667,4290.134789,7328.038826
428.356294,2960.823768,4366.744339,7624.121203
428.356619,3923.091493,5362.668486,7698.141797
428.356945,4811.338623,5056.230287,8438.347739
428.357270,5329.482782,4903.011187,8290.306550
428.357595,5847.626942,5515.887586,8586.388927
428.357920,7402.059420,5515.887586,9030.512492
428.358245,7698.141797,5132.839837,9252.574275
428.358570,6513.812290,4826.401637,9030.512492
428.358896,6365.771101,4366.744339,9030.512492
428.359221,7031.956449,4826.401637,9326.594869
428.359546,5995.668130,4443.353888,10584.944971
428.359871,4515.256246,3294.210641,10436.903782
428.360196,4071.132681,2834.553343,10140.821405
428.360521,4071.132681,2911.162892,10510.924376
428.360847,4145.153275,3064.381992,10658.965565
428.361172,3404.947333,3370.820191,10214.842000
428.361497,2368.659014,2834.553343,9622.677246
428.361822,3034.844362,3447.429741,9252.574275
428.362147,3552.988522,3217.601092,9622.677246
428.362472,1850.514855,3217.601092,9326.594869
428.362798,370.102971,2681.334243,8512.368333
428.363123,444.123565,2298.286494,7846.182985
428.363448,518.144159,2911.162892,7772.162391
428.363773,-370.102971,2681.334243,7105.977043
428.364098,-962.267725,2068.457845,7031.956449
428.364423,-1036.288319,2298.286494,7624.121203
428.364749,-518.144159,2145.067394,8216.285956
428.365074,-518.144159,1608.800546,8660.409521
428.365399,-962.267725,1455.581446,9474.636058
428.365724,-1480.411884,1532.190996,9548.656652
428.366049,518.144159,1608.800546,10140.821405
428.366374,592.164754,1149.143247,11103.089130
428.366700,-1258.350101,306.438199,11251.130318
428.367025,-1110.308913,-459.657299,10140.821405
428.367350,74.020594,-153.219100,10066.800811
428.367675,518.144159,919.314598,10140.821405
428.368000,962.267725,536.266849,9030.512492
428.368325,2294.638420,1378.971896,7624.121203
428.368651,2960.823768,2681.334243,7476.080014
428.368976,3997.112087,3370.820191,7920.203579
428.369301,4071.132681,2757.943793,8882.471304
428.369626,3478.967927,2374.896044,9326.594869
428.369951,3775.050304,2068.457845,10362.883188
428.370276,3997.112087,1072.533697,12583.501014
428.370601,1332.370696,459.657299,13249.686362
428.370926,74.020594,-1072.533697,13397.727550
428.371252,0.000000,-1991.848295,12509.480420
428.371577,962.267725,-1302.362347,11177.109724
428.371902,2516.700203,1762.019645,10362.883188
428.372227,4663.297435,4443.353888,7550.100608
428.372552,6809.894666,5592.497135,5181.441594
428.372877,8882.471304,7890.783629,2886.803174
428.373202,9178.553681,9576.193725,3330.926739
428.373527,7846.182985,9499.584175,3330.926739
428.373852,7105.977043,7584.345430,5033.400406
428.374177,4441.235652,5975.544884,8364.327145
428.374502,740.205942,3677.258390,11325.150913
428.374827,-1776.494261,-153.219100,12805.562797
428.375152,-3404.947333,-1302.362347,13693.809927
428.375477,-3256.906145,-612.876398,14878.139434
428.375802,-2072.576638,306.438199,15026.180623
428.376127,0.000000,1302.362347,13175.665768
428.376453,3330.926739,3677.258390,9844.739029
428.376778,5181.441594,6435.202183,7772.162391
428.377103,5847.626942,7967.393179,5551.544565
428.377428,7105.977043,8656.879127,4145.153275
428.377753,7105.977043,9116.536426,5033.400406
428.378078,6513.812290,10035.851024,5329.482782
428.378403,4959.379811,7890.783629,6587.832884
428.378728,2516.700203,5745.716235,5995.668130
428.379053,0.000000,3830.477490,6809.894666
428.379378,-1924.535449,2451.505594,8956.491898
428.379703,-3923.091493,766.095498,9770.718434
428.380028,-4811.338623,-1915.238745,10584.944971
428.380353,-5107.421000,-2528.115143,10955.047942
428.380678,-3849.070898,-2374.896044,12657.521608
428.381003,-2886.803174,-1302.362347,13841.851115
428.381328,-2072.576638,-383.047749,14211.954086
428.381654,-222.061783,-689.485948,12435.459826
428.381979,1554.432478,-766.095498,11029.068536
428.382304,1110.308913,766.095498,9696.697840
428.382629,296.082377,383.047749,8734.430116
428.382954,0.000000,-1149.143247,8290.306550
428.383279,444.123565,-995.924147,8660.409521
428.383604,1332.370696,-306.438199,8512.368333
428.383929,148.041188,-919.314598,7179.997637
428.384254,1036.288319,-612.876398,6439.791695
428.384579,740.205942,383.047749,6439.791695
428.384904,148.041188,229.828649,6439.791695
428.385229,1184.329507,-383.047749,6587.832884
428.385554,1110.308913,-306.438199,7624.121203
428.385879,-370.102971,229.828649,9844.739029
428.386204,296.082377,-766.095498,11991.336260
428.386529,592.164754,-2221.676944,12731.542202
428.386854,-1036.288319,-3600.648841,14211.954086
428.387180,-2368.659014,-4979.620737,14359.995275
428.387505,-1184.329507,-4903.011187,12953.603985
428.387830,1332.370696,-2834.553343,12139.377449
428.388155,1702.473667,-919.314598,10807.006753
428.388480,2146.597232,383.047749,8216.285956
428.388805,5403.503377,2681.334243,5403.503377
428.389130,7698.141797,6358.592633,4663.297435
428.389455,5921.647536,5822.325785,3701.029710
428.389780,4219.173869,4903.011187,2738.761985
428.390105,4811.338623,5056.230287,4811.338623
428.390430,2590.720797,4596.572988,8586.388927
428.390755,-1998.556043,2068.457845,11917.315666
428.391080,-5181.441594,-1149.143247,13175.665768
428.391405,-6439.791695,-2757.943793,14137.933492
428.391730,-8808.450710,-4673.182538,16062.468941
428.392055,-9918.759623,-6894.859482,15692.365970
428.392381,-7846.182985,-7124.688131,13989.892304
428.392706,-4589.276840,-919.314598,13323.706956
428.393031,-962.267725,2604.724693,11325.150913
428.393356,3034.844362,3217.601092,6439.791695
428.393681,7105.977043,7507.735880,2590.720797
428.394006,8808.450710,11414.822920,-0.000000
428.394331,9178.553681,10801.946522,-1184.329507
428.394656,8808.450710,9269.755526,-222.061783
428.394981,7105.977043,9499.584175,2812.782580
428.395306,1924.535449,6128.763984,7624.121203
428.395631,-2516.700203,1685.410096,11251.130318
428.395956,-5995.668130,-1532.190996,13323.706956
428.396281,-10140.821405,-3217.601092,16802.674883
428.396606,-12213.398043,-8120.612279,16358.551318
428.396931,-11399.171507,-12410.747068,17172.777854
428.397256,-9918.759623,-10572.117872,17246.798449
428.397582,-8142.265362,-4060.306139,16876.695478
428.397907,-1776.494261,842.705048,11843.295072
428.398232,5773.606348,3830.477490,6957.935855
428.398557,9474.636058,6741.640382,2812.782580
428.398882,9992.780217,9269.755526,-740.205942
428.399207,11769.274478,9039.926876,-1332.370696
428.399532,13027.624579,9806.022374,-0.000000
428.399857,8734.430116,7201.297681,3627.009116
428.400182,3034.844362,2298.286494,7920.203579
428.400507,-1406.391290,-536.266849,12361.439231
428.400832,-5107.421000,-3447.429741,15544.324782
428.401157,-8438.347739,-7354.516781,17394.839637
428.401482,-10436.903782,-13483.280765,16506.592507
428.401807,-11621.233289,-14402.595362,14804.118840
428.402132,-7698.141797,-9959.241474,15100.201217
428.402457,-2072.576638,-1302.362347,14730.098246
428.402783,2442.679609,1225.752797,10732.986159
428.403108,4737.318029,2987.772442,6513.812290
428.403433,8734.430116,4826.401637,444.123565
428.403758,11399.171507,7584.345430,-0.000000
428.404083,11325.150913,8656.879127,1036.288319
428.404408,9178.553681,6971.469032,3701.029710
428.404733,5255.462188,3370.820191,5921.647536
428.405058,1628.453072,76.609550,10066.800811
428.405383,-3404.947333,-1149.143247,14952.160028
428.405708,-8216.285956,-4673.182538,17616.901420
428.406033,-10510.924376,-9806.022374,15618.345376
428.406358,-11251.130318,-14096.157163,15470.304188
428.406683,-9918.759623,-11721.261119,16506.592507
428.407008,-7402.059420,-2298.286494,15914.427753
428.407333,-1184.329507,1991.848295,11695.253884
428.407658,2146.597232,1149.143247,9326.594869
428.407983,3997.112087,4136.915689,3478.967927
428.408309,6365.771101,8733.488677,444.123565
428.408634,9474.636058,9652.803275,518.144159
428.408959,7476.080014,9499.584175,2294.638420
428.409284,4293.194464,7507.735880,3923.091493
428.409609,2442.679609,4596.572988,5995.668130
428.409934,-2664.741391,1608.800546,10066.800811
428.410259,-7476.080014,-2068.457845,13471.748144
428.410584,-9252.574275,-5975.544884,14582.057057
428.410909,-9104.533087,-8580.269578,14211.954086
428.411234,-9474.636058,-7890.783629,15692.365970
428.411559,-7846.182985,-2987.772442,13027.624579
428.411884,-2886.803174,919.314598,10807.006753
428.412209,1702.473667,2374.896044,8586.388927
428.412534,5181.441594,4979.620737,6661.853478
428.412859,6957.935855,7737.564530,3627.009116
428.413184,7402.059420,9576.193725,2146.597232
428.413510,7920.203579,8580.269578,4367.215058
428.413835,7328.038826,6741.640382,6291.750507
428.414160,4293.194464,3983.696590,7105.977043
428.414485,-814.226536,919.314598,9918.759623
428.414810,-3627.009116,-1838.629195,14582.057057
428.415135,-5551.544565,-4979.620737,15100.201217
428.415460,-5847.626942,-7354.516781,14211.954086
428.415785,-6069.688724,-7814.174080,14359.995275
428.416110,-5699.585753,-4213.525239,13027.624579
428.416435,-222.061783,-459.657299,9326.594869
428.416760,5995.668130,2681.334243,8586.388927
428.417085,6365.771101,4903.011187,6439.791695
428.417410,5181.441594,4979.620737,2516.700203
428.417735,6883.915261,5745.716235,740.205942
428.418060,8734.430116,8350.440928,4885.359217
428.418385,6365.771101,5592.497135,7328.038826
428.418711,888.247130,1302.362347,8068.244768
428.419036,-1406.391290,-1149.143247,11325.150913
428.419361,-3552.988522,-2528.115143,14656.077652
428.419686,-6883.915261,-6741.640382,15396.283594
428.420011,-7254.018232,-9576.193725,13397.727550
428.420336,-6735.874072,-7890.783629,13249.686362
428.420661,-3849.070898,-2681.334243,13249.686362
428.420986,1998.556043,612.876398,11843.295072
428.421311,4293.194464,1225.752797,8364.327145
428.421636,3701.029710,3907.087040,4737.318029
428.421961,5699.585753,5898.935335,3552.988522
428.422286,7772.162391,6741.640382,3627.009116
428.422611,7179.997637,6358.592633,6661.853478
428.422936,1924.535449,4290.134789,8142.265362
428.423261,-2960.823768,766.095498,9178.553681
428.423586,-3552.988522,-1302.362347,10881.027347
428.423911,-6291.750507,-3447.429741,15026.180623
428.424237,-10362.883188,-6894.859482,13915.871710
428.424562,-10510.924376,-9346.365076,11399.171507
428.424887,-8068.244768,-7048.078582,12435.459826
428.425212,-4811.338623,-612.876398,11177.109724
428.425537,-962.267725,1149.143247,9548.656652
428.425862,2516.700203,1762.019645,4663.297435
428.426187,5255.462188,6818.249932,4515.256246
428.426512,7031.956449,8810.098227,4071.132681
428.426837,7994.224174,7124.688131,2960.823768
428.427162,6809.894666,7048.078582,4515.256246
428.427487,4145.153275,6358.592633,7105.977043
428.427812,1036.288319,2145.067394,9844.739029
428.428137,-1850.514855,-689.485948,13175.665768
428.428462,-5477.523971,-2298.286494,16580.613101
428.428787,-8586.388927,-5898.935335,15766.386565
428.429112,-8216.285956,-9959.241474,13101.645173
428.429438,-5403.503377,-7584.345430,14878.139434
428.429763,-3256.906145,0.000000,13841.851115
428.430088,-74.020594,1225.752797,11251.130318
428.430413,5107.421000,1302.362347,6513.812290
428.430738,8068.244768,6435.202183,3997.112087
428.431063,8586.388927,9499.584175,1998.556043
428.431388,8734.430116,7507.735880,814.226536
428.431713,8808.450710,7201.297681,3034.844362
428.432038,5921.647536,7201.297681,7031.956449
428.432363,1036.288319,2528.115143,8660.409521
428.432688,-2368.659014,-1072.533697,11177.109724
428.433013,-5181.441594,-2374.896044,13989.892304
428.433338,-8142.265362,-4673.182538,15692.365970
428.433663,-8142.265362,-9806.022374,15100.201217
428.433988,-7031.956449,-10648.727422,14952.160028
428.434313,-4737.318029,-1991.848295,13397.727550
428.434639,740.205942,1915.238745,11843.295072
428.434964,4737.318029,1838.629195,8808.450710
428.435289,7179.997637,4903.011187,4811.338623
428.435614,7550.100608,8963.317327,3182.885551
428.435939,9474.636058,8503.660028,-148.041188
428.436264,8734.430116,7660.954980,1850.514855
428.436589,5403.503377,7967.393179,4811.338623
428.436914,666.185348,4366.744339,7698.141797
428.437239,-3701.029710,-689.485948,10732.986159
428.437564,-6661.853478,-2528.115143,14285.974681
428.437889,-9474.636058,-5669.106685,17468.860231
428.438214,-11917.315666,-8427.050478,14359.995275
428.438539,-10807.006753,-12410.747068,14063.912898
428.438864,-7476.080014,-8427.050478,15322.262999
428.439189,-4515.256246,1532.190996,13397.727550
428.439514,1258.350101,2528.115143,10066.800811
428.439840,5403.503377,2451.505594,5181.441594
428.440165,6143.709319,7737.564530,2738.761985
428.440490,7550.100608,9193.145976,666.185348
428.440815,9474.636058,7354.516781,740.205942
428.441140,6439.791695,6435.202183,3330.926739
428.441465,1480.411884,5898.935335,6735.874072
428.441790,-740.205942,995.924147,10362.883188
428.442115,-3923.091493,-2528.115143,13323.706956
428.442440,-8586.388927,-4903.011187,16506.592507
428.442765,-11251.130318,-8733.488677,15470.304188
428.443090,-9844.739029,-13330.061665,15026.180623
428.443415,-7402.059420,-9806.022374,16062.468941
428.443740,-4811.338623,-1685.410096,14285.974681
428.444065,1702.473667,612.876398,10214.842000
428.444390,6439.791695,2451.505594,7550.100608
428.444715,9252.574275,6665.030833,4071.132681
428.445040,9992.780217,8886.707777,1480.411884
428.445366,10362.883188,6665.030833,-148.041188
428.445691,9030.512492,7431.126331,2516.700203
428.446016,6291.750507,7277.907231,6957.935855
428.446341,2516.700203,2145.067394,8808.450710
428.446666,-2294.638420,-1378.971896,12583.501014
428.446991,-6587.832884,-3370.820191,16062.468941
428.447316,-9474.636058,-6741.640382,15544.324782
428.447641,-9104.533087,-11184.994271,13471.748144
428.447966,-8586.388927,-10878.556072,14508.036463
428.448291,-6069.688724,-2911.162892,13619.789333
428.448616,-962.267725,1608.800546,10362.883188
428.448941,5773.606348,2911.162892,8586.388927
428.449266,8512.368333,5515.887586,5033.400406
428.449591,7328.038826,9652.803275,2664.741391
428.449916,9252.574275,8197.221829,-370.102971
428.450241,10955.047942,8503.660028,2664.741391
428.450567,7698.141797,9346.365076,6587.832884
428.450892,1554.432478,4826.401637,7846.182985
428.451217,-1850.514855,-536.266849,10955.047942
428.451542,-4737.318029,-1608.800546,15544.324782
428.451867,-9104.533087,-4213.525239,16950.716072
428.452192,-10955.047942,-9116.536426,13323.706956
428.452517,-10732.986159,-11414.822920,13323.706956
428.452842,-7920.203579,-3600.648841,14285.974681
428.453167,-3182.885551,1685.410096,11621.233289
428.453492,1776.494261,1532.190996,9474.636058
428.453817,3997.112087,4060.306139,4219.173869
428.454142,4441.235652,8427.050478,3256.906145
428.454467,8660.409521,8350.440928,-74.020594
428.454792,9400.615463,8350.440928,3404.947333
428.455117,5551.544565,8656.879127,5255.462188
428.455442,2072.576638,4443.353888,7031.956449
428.455768,222.061783,-1378.971896,9252.574275
428.456093,-4293.194464,-1378.971896,13915.871710
428.456418,-8364.327145,-3140.991542,16728.654289
428.456743,-9548.656652,-8886.707777,13249.686362
428.457068,-8290.306550,-11721.261119,13693.809927
428.457393,-6217.729913,-6894.859482,15618.345376
428.457718,-3256.906145,76.609550,12583.501014
428.458043,1480.411884,1532.190996,9474.636058
428.458368,6513.812290,1838.629195,4663.297435
428.458693,7698.141797,6894.859482,4885.359217
428.459018,8956.491898,8197.221829,1332.370696
428.459343,8512.368333,7048.078582,1258.350101
428.459668,6291.750507,5056.230287,4367.215058
428.459993,2812.782580,3983.696590,7476.080014
428.460318,-592.164754,-612.876398,10881.027347
428.460643,-5255.462188,-3983.696590,13323.706956
428.460968,-8956.491898,-5898.935335,16210.510130
428.461294,-10288.862594,-10418.898773,14878.139434
428.461619,-9474.636058,-12947.013916,14730.098246
428.461944,-6735.874072,-10265.679673,15248.242405
428.462269,-2812.782580,0.000000,12287.418637
428.462594,2738.761985,2911.162892,9548.656652
428.462919,8068.244768,3907.087040,7920.203579
428.463244,9400.615463,5822.325785,3256.906145
428.463569,8660.409521,8886.707777,1924.535449
428.463894,10288.862594,7737.564530,518.144159
428.464219,9474.636058,7354.516781,4515.256246
428.464544,4663.297435,5745.716235,7402.059420
428.464869,-666.185348,689.485948,9548.656652
428.465194,-5181.441594,-2681.334243,12435.459826
428.465519,-8438.347739,-4060.306139,13841.851115
428.465844,-9696.697840,-7354.516781,14434.015869
428.466169,-9918.759623,-10572.117872,12657.521608
428.466495,-9400.615463,-7124.688131,14285.974681
428.466820,-5847.626942,-1378.971896,12583.501014
428.467145,-888.247130,-383.047749,10732.986159
428.467470,2516.700203,2528.115143,7772.162391
428.467795,5107.421000,8197.221829,5181.441594
428.468120,7550.100608,8656.879127,2442.679609
428.468445,8068.244768,6665.030833,592.164754
428.468770,7624.121203,8733.488677,4293.194464
428.469095,5033.400406,8886.707777,6809.894666
428.469420,370.102971,2911.162892,8586.388927
428.469745,-2590.720797,-1225.752797,11473.192101
428.470070,-5403.503377,-1532.190996,15618.345376
428.470395,-9326.594869,-4673.182538,15988.448347
428.470720,-9326.594869,-9269.755526,13545.768739
428.471045,-7254.018232,-9652.803275,14582.057057
428.471371,-4885.359217,-1762.019645,14211.954086
428.471696,-740.205942,842.705048,11917.315666
428.472021,4589.276840,1838.629195,7698.141797
428.472346,7254.018232,6128.763984,4663.297435
428.472671,7550.100608,9193.145976,2294.638420
428.472997,9770.718434,7890.783629,-592.164754
428.473322,8956.491898,7967.393179,2368.659014
428.473647,4737.318029,7584.345430,4663.297435
428.473972,1258.350101,2834.553343,7772.162391
428.474297,-1850.514855,-612.876398,11695.253884
428.474622,-6883.915261,-1838.629195,14952.160028
428.474948,-10288.862594,-6281.983084,15174.221811
428.475273,-10066.800811,-13253.452115,13619.789333
428.475598,-9326.594869,-14479.204912,15026.180623
428.475923,-6883.915261,-5592.497135,16432.571912
428.476248,-1924.535449,1608.800546,13249.686362
428.476574,4959.379811,1302.362347,9770.718434
428.476899,8290.306550,2604.724693,4737.318029
428.477224,9030.512492,8733.488677,2886.803174
428.477549,11843.295072,9193.145976,-0.000000
428.477874,10214.842000,7660.954980,1776.494261
428.478199,7772.162391,7507.735880,5477.523971
428.478525,4811.338623,4903.011187,9030.512492
428.478850,-962.267725,0.000000,11695.253884
428.479175,-7105.977043,-3140.991542,15470.304188
428.479500,-9474.636058,-6358.592633,15988.448347
428.479825,-10066.800811,-11414.822920,15026.180623
428.480151,-9992.780217,-12257.527968,14878.139434
428.480476,-8290.306550,-5975.544884,14434.015869
428.480801,-4885.359217,76.609550,10436.903782
428.481126,1702.473667,2145.067394,7624.121203
428.481451,6883.915261,4443.353888,5255.462188
428.481777,6883.915261,9116.536426,3034.844362
428.482102,7328.038826,8273.831378,-592.164754
428.482427,9326.594869,7890.783629,2146.597232
428.482752,8586.388927,8886.707777,5921.647536
428.483077,2072.576638,5592.497135,7402.059420
428.483402,-2664.741391,-229.828649,9474.636058
428.483728,-5477.523971,-2911.162892,14063.912898
428.484053,-8364.327145,-4290.134789,17468.860231
428.484378,-9918.759623,-8656.879127,16580.613101
428.484703,-10288.862594,-12410.747068,14211.954086
428.485028,-8660.409521,-7354.516781,14359.995275
428.485354,-2886.803174,919.314598,12361.439231
428.485679,3404.947333,2604.724693,9400.615463
428.486004,5847.626942,4903.011187,5329.482782
428.486329,6365.771101,8044.002729,3256.906145
428.486654,9252.574275,9806.022374,1036.288319
428.486980,11547.212695,8656.879127,1406.391290
428.487305,8142.265362,7737.564530,4589.276840
428.487630,2442.679609,6435.202183,6439.791695
428.487955,-222.061783,1838.629195,9030.512492
428.488280,-2072.576638,-1378.971896,13027.624579
428.488605,-6957.935855,-3447.429741,16062.468941
428.488931,-10584.944971,-7354.516781,13989.892304
428.489256,-9844.739029,-11644.651570,11325.150913
428.489581,-6291.750507,-8580.269578,14730.098246
428.489906,-3552.988522,306.438199,13619.789333
428.490231,888.247130,1838.629195,11029.068536
428.490557,5551.544565,1762.019645,6513.812290
428.490882,9252.574275,7354.516781,5551.544565
428.491207,10214.842000,9193.145976,3552.988522
428.491532,9474.636058,7124.688131,2368.659014
428.491857,7994.224174,7201.297681,4737.318029
428.492182,5403.503377,7201.297681,7698.141797
428.492508,1924.535449,1532.190996,9844.739029
428.492833,-3108.864956,-1302.362347,12287.418637
428.493158,-7254.018232,-2987.772442,14582.057057
428.493483,-9474.636058,-6665.030833,14359.995275
428.493808,-8660.409521,-10648.727422,13471.748144
428.494134,-7550.100608,-9193.145976,15618.345376
428.494459,-5699.585753,-1915.238745,12509.480420
428.494784,-1628.453072,612.876398,9844.739029
428.495109,4589.276840,2451.505594,7698.141797
428.495434,6883.915261,6052.154434,4737.318029
428.495760,6069.688724,8273.831378,3330.926739
428.496085,7476.080014,6894.859482,444.123565
428.496410,7624.121203,7584.345430,3404.947333
428.496735,3478.967927,6894.859482,6735.874072
428.497060,-370.102971,1991.848295,7476.080014
428.497385,-3775.050304,-1685.410096,10066.800811
428.497711,-7105.977043,-2374.896044,13915.871710
428.498036,-10362.883188,-5515.887586,15396.283594
428.498361,-10066.800811,-10035.851024,14137.933492
428.498686,-9252.574275,-10418.898773,14434.015869
428.499011,-6069.688724,-3753.867940,13323.706956
428.499337,-1258.350101,459.657299,11843.295072
428.499662,3775.050304,1762.019645,9252.574275
428.499987,6217.729913,4366.744339,5477.523971
428.500312,6957.935855,7354.516781,3997.112087
428.500637,8290.306550,7354.516781,1850.514855
428.500963,8734.430116,7354.516781,4293.194464
428.501288,6809.894666,6435.202183,6513.812290
428.501613,1702.473667,2681.334243,8290.306550
428.501938,-2146.597232,-1915.238745,10436.903782
428.502263,-4515.256246,-2987.772442,14285.974681
428.502588,-7624.121203,-5515.887586,16432.571912
428.502914,-9548.656652,-8427.050478,13101.645173
428.503239,-7698.141797,-10495.508323,13767.830521
428.503564,-5477.523971,-4903.011187,14285.974681
428.503889,-2072.576638,0.000000,10955.047942
428.504214,2886.803174,1225.752797,8956.491898
428.504540,6439.791695,3907.087040,5181.441594
428.504865,7328.038826,8197.221829,4515.256246
428.505190,9030.512492,7584.345430,1258.350101
428.505515,10362.883188,7124.688131,2442.679609
428.505840,7105.977043,8197.221829,4811.338623
428.506166,3034.844362,5515.887586,7624.121203
428.506491,2146.597232,689.485948,10362.883188
428.506816,-1850.514855,-459.657299,13471.748144
428.507141,-7328.038826,-3064.381992,14878.139434
428.507466,-9548.656652,-7507.735880,13471.748144
428.507791,-7846.182985,-10725.336972,13101.645173
428.508117,-6587.832884,-3677.258390,16358.551318
428.508442,-4071.132681,-153.219100,13027.624579
428.508767,0.000000,-919.314598,9622.677246
428.509092,4367.215058,2298.286494,5329.482782
428.509417,4811.338623,8810.098227,4885.359217
428.509743,7254.018232,7201.297681,666.185348
428.510068,7402.059420,6665.030833,1554.432478
428.510393,6809.894666,8963.317327,5699.585753
428.510718,3849.070898,6818.249932,9178.553681
428.511043,1628.453072,1149.143247,9474.636058
428.511368,-2516.700203,-1915.238745,11991.336260
428.511694,-6661.853478,-1608.800546,15026.180623
428.512019,-7624.121203,-7048.078582,14952.160028
428.512344,-7105.977043,-10112.460574,13693.809927
428.512669,-7105.977043,-6358.592633,15100.201217
428.512994,-5773.606348,-1685.410096,11695.253884
428.513320,-1702.473667,-536.266849,8956.491898
428.513645,4145.153275,2068.457845,6439.791695
428.513970,5255.462188,5669.106685,5551.544565
428.514295,4885.359217,6281.983084,2220.617826
428.514620,7254.018232,5822.325785,962.267725
428.514946,8290.306550,7814.174080,3701.029710
428.515271,3775.050304,6665.030833,6661.853478
428.515596,-518.144159,1685.410096,8364.327145
428.515921,-2960.823768,-1991.848295,11917.315666
428.516246,-6365.771101,-3217.601092,14804.118840
428.516571,-9030.512492,-7048.078582,15174.221811
428.516897,-10140.821405,-10801.946522,14211.954086
428.517222,-8438.347739,-10035.851024,13841.851115
428.517547,-4811.338623,-3983.696590,14359.995275
428.517872,888.247130,-689.485948,12435.459826
428.518197,4663.297435,1532.190996,8734.430116
428.518523,5699.585753,5209.449386,5921.647536
428.518848,8142.265362,7201.297681,2812.782580
428.519173,11769.274478,7124.688131,1554.432478
428.519498,10066.800811,7660.954980,4441.235652
428.519823,5329.482782,6971.469032,6365.771101
428.520149,1406.391290,2221.676944,8808.450710
428.520474,-1332.370696,-1532.190996,11547.212695
428.520799,-5329.482782,-3064.381992,14730.098246
428.521124,-8882.471304,-6511.811733,15322.262999
428.521449,-9548.656652,-11108.384721,11843.295072
428.521774,-7994.224174,-9959.241474,13471.748144
428.522100,-5107.421000,-2221.676944,14211.954086
428.522425,-1628.453072,76.609550,11251.130318
428.522750,2220.617826,536.266849,7328.038826
428.523075,6217.729913,4290.134789,4885.359217
428.523400,8586.388927,8886.707777,4663.297435
428.523726,9178.553681,8427.050478,1924.535449
428.524051,8216.285956,6971.469032,3256.906145
428.524376,5995.668130,8044.002729,6513.812290
428.524701,1554.432478,4443.353888,8734.430116
428.525026,-1850.514855,-306.438199,10807.006753
428.525351,-4293.194464,-2298.286494,13397.727550
428.525677,-9030.512492,-4290.134789,14730.098246
428.526002,-9770.718434,-7048.078582,13249.686362
428.526327,-7994.224174,-9499.584175,13175.665768
428.526652,-7179.997637,-2681.334243,13989.892304
428.526977,-3775.050304,306.438199,9844.739029
428.527303,592.164754,766.095498,8734.430116
428.527628,5625.565159,4366.744339,6291.750507
428.527953,5329.482782,8810.098227,5847.626942
428.528278,6365.771101,5669.106685,1924.535449
428.528603,7772.162391,5975.544884,2664.741391
428.528929,5995.668130,8350.440928,6143.709319
428.529254,1628.453072,4826.401637,7698.141797
428.529579,-962.267725,-842.705048,9918.759623
428.529904,-4515.256246,-2145.067394,12731.542202
428.530229,-8290.306550,-3677.258390,14804.118840
428.530554,-7254.018232,-7737.564530,13767.830521
428.530880,-7031.956449,-9729.412825,12953.603985
428.531205,-5625.565159,-3677.258390,13693.809927
428.531530,-1480.411884,-383.047749,12213.398043
428.531855,1554.432478,0.000000,10362.883188
428.532180,5033.400406,3370.820191,5847.626942
428.532506,7550.100608,5975.544884,5477.523971
428.532831,8512.368333,6818.249932,2516.700203
428.533156,8512.368333,6281.983084,3108.864956
428.533481,7846.182985,6435.202183,5403.503377
428.533806,2812.782580,4213.525239,7624.121203
428.534132,-740.205942,-229.828649,9474.636058
428.534457,-2590.720797,-1915.238745,11843.295072
428.534782,-4885.359217,-4060.306139,15174.221811
428.535107,-7179.997637,-6435.202183,14582.057057
428.535432,-6513.812290,-8963.317327,13619.789333
428.535757,-5255.462188,-5822.325785,14285.974681
428.536083,-3108.864956,-1455.581446,11917.315666
428.536408,814.226536,0.000000,10066.800811
428.536733,4441.235652,1991.848295,6957.935855
428.537058,5329.482782,6588.421283,6365.771101
428.537383,5625.565159,6205.373534,3108.864956
428.537709,7105.977043,4826.401637,2368.659014
428.538034,5847.626942,6511.811733,4441.235652
428.538359,1850.514855,6052.154434,6883.915261
428.538684,-222.061783,1685.410096,9474.636058
428.539009,-1850.514855,-459.657299,11917.315666
428.539334,-5921.647536,-1762.019645,14211.954086
428.539660,-8734.430116,-5822.325785,13989.892304
428.539985,-7179.997637,-8580.269578,12361.439231
428.540310,-5625.565159,-4673.182538,13175.665768
428.540635,-3775.050304,153.219100,13841.851115
428.540960,148.041188,0.000000,10584.944971
428.541286,3108.864956,1685.410096,6513.812290
428.541611,5181.441594,6665.030833,5921.647536
428.541936,6513.812290,7354.516781,3108.864956
428.542261,6291.750507,6281.983084,2294.638420
428.542586,5847.626942,7124.688131,4589.276840
428.542912,3701.029710,6741.640382,7328.038826
428.543237,814.226536,2528.115143,9030.512492
428.543562,-2368.659014,-1149.143247,11029.068536
428.543887,-6735.874072,-2528.115143,12509.480420
428.544212,-9030.512492,-5592.497135,14137.933492
428.544537,-7846.182985,-9193.145976,14063.912898
428.544863,-6809.894666,-7201.297681,14508.036463
428.545188,-5551.544565,-2911.162892,13323.706956
428.545513,-1628.453072,-1532.190996,10140.821405
428.545838,3552.988522,995.924147,7846.182985
428.546163,6365.771101,5745.716235,7031.956449
428.546489,6069.688724,7354.516781,4219.173869
428.546814,7920.203579,5362.668486,2146.597232
428.547139,10436.903782,7890.783629,4145.153275
428.547464,6809.894666,7814.174080,7624.121203
428.547789,1924.535449,2374.896044,8068.244768
428.548115,148.041188,-1302.362347,11399.171507
428.548440,-2368.659014,-1915.238745,14211.954086
428.548765,-6291.750507,-3064.381992,15544.324782
428.549090,-7772.162391,-8656.879127,14211.954086
428.549415,-6513.812290,-8810.098227,11695.253884
428.549740,-4663.297435,-3294.210641,12065.356855
428.550066,-444.123565,229.828649,11621.233289
428.550391,2886.803174,1991.848295,8882.471304
428.550716,4959.379811,3600.648841,5329.482782
428.551041,5625.565159,6052.154434,4293.194464
428.551366,7624.121203,7048.078582,2368.659014
428.551692,8364.327145,6818.249932,4293.194464
428.552017,4737.318029,6358.592633,6513.812290
428.552342,74.020594,2757.943793,8808.450710
428.552667,-1850.514855,-306.438199,11251.130318
428.552992,-3701.029710,-1915.238745,13397.727550
428.553318,-8290.306550,-4903.011187,14656.077652
428.553643,-9992.780217,-8120.612279,12139.377449
428.553968,-7624.121203,-9039.926876,13101.645173
428.554293,-4293.194464,-2681.334243,14359.995275
428.554618,-1554.432478,689.485948,11695.253884
428.554943,0.000000,1072.533697,7846.182985
428.555269,3997.112087,4673.182538,4737.318029
428.555594,6217.729913,8886.707777,4145.153275
428.555919,7402.059420,6281.983084,2220.617826
428.556244,6587.832884,5515.887586,3256.906145
428.556569,4145.153275,7048.078582,5181.441594
428.556895,740.205942,4596.572988,7624.121203
428.557220,-2146.597232,-306.438199,10362.883188
428.557545,-5551.544565,-2757.943793,12583.501014
428.557870,-9178.553681,-3447.429741,14508.036463
428.558195,-10214.842000,-7354.516781,12287.418637
428.558520,-7698.141797,-10342.289223,13175.665768
428.558846,-6587.832884,-6435.202183,14359.995275
428.559171,-4589.276840,-536.266849,11547.212695
428.559496,962.267725,459.657299,10140.821405
428.559821,6291.750507,2221.676944,8068.244768
428.560146,6513.812290,6971.469032,7254.018232
428.560472,7402.059420,5515.887586,4367.215058
428.560797,9178.553681,5515.887586,2738.761985
428.561122,7994.224174,5975.544884,5107.421000
428.561447,3108.864956,4903.011187,7920.203579
428.561772,666.185348,383.047749,9770.718434
428.562098,-2220.617826,-1762.019645,12065.356855
428.562423,-5477.523971,-3447.429741,14656.077652
428.562748,-7624.121203,-6665.030833,14434.015869
428.563073,-7105.977043,-9806.022374,12287.418637
428.563398,-4811.338623,-6358.592633,12657.521608
428.563723,-2220.617826,-766.095498,11843.295072
428.564049,1184.329507,766.095498,10140.821405
428.564374,5847.626942,3140.991542,6513.812290
428.564699,7328.038826,6205.373534,5403.503377
428.565024,7328.038826,7737.564530,2960.823768
428.565349,7920.203579,6128.763984,1702.473667
428.565675,7476.080014,7124.688131,3627.009116
428.566000,3923.091493,5975.544884,6809.894666
428.566325,-962.267725,1378.971896,9104.533087
428.566650,-3404.947333,-1225.752797,11843.295072
428.566975,-6143.709319,-2528.115143,15840.407159
428.567301,-9104.533087,-5362.668486,14952.160028
428.567626,-7698.141797,-9039.926876,12139.377449
428.567951,-5699.585753,-7354.516781,13619.789333
428.568276,-4293.194464,306.438199,12583.501014
428.568601,-666.185348,1762.019645,11251.130318
428.568926,3552.988522,1378.971896,7254.018232
428.569252,5255.462188,5669.106685,5921.647536
428.569577,5477.523971,8197.221829,3552.988522
428.569902,7179.997637,6741.640382,2960.823768
428.570227,6957.935855,6741.640382,5329.482782
428.570552,2886.803174,6818.249932,7328.038826
428.570878,0.000000,2451.505594,8734.430116
428.571203,-2072.576638,-383.047749,10362.883188
428.571528,-5699.585753,-2145.067394,12657.521608
428.571853,-7402.059420,-4366.744339,13915.871710
428.572174,-6883.915261,-8273.831378,12583.501014
428.572500,-6217.729913,-6358.592633,13989.892304
428.572825,-5403.503377,-2374.896044,13989.892304
428.573150,-1258.350101,-1762.019645,10955.047942
428.573476,2072.576638,-612.876398,7624.121203
428.573801,4737.318029,3907.087040,6217.729913
428.574126,6069.688724,5898.935335,4737.318029
428.574451,6661.853478,5132.839837,2738.761985
428.574777,6587.832884,6052.154434,3701.029710
428.575102,4811.338623,5822.325785,5699.585753
428.575427,2072.576638,2987.772442,7772.162391
428.575753,-1184.329507,-689.485948,9844.739029
428.576078,-4589.276840,-2221.676944,12509.480420
428.576403,-7105.977043,-5286.058936,15618.345376
428.576729,-7105.977043,-8733.488677,15322.262999
428.577054,-7328.038826,-10112.460574,14137.933492
428.577379,-5995.668130,-7507.735880,13693.809927
428.577704,-2442.679609,-1302.362347,12139.377449
428.578030,2960.823768,2298.286494,9696.697840
428.578355,5921.647536,3677.258390,8068.244768
428.578680,5921.647536,4826.401637,4663.297435
428.579006,7772.162391,6128.763984,1554.432478
428.579331,9622.677246,7967.393179,3701.029710
428.579656,8290.306550,7814.174080,5477.523971
428.579981,3627.009116,4596.572988,6883.915261
428.580307,444.123565,1378.971896,9548.656652
428.580632,-2664.741391,-612.876398,11769.274478
428.580957,-6143.709319,-4213.525239,13471.748144
428.581283,-8216.285956,-7277.907231,13397.727550
428.581608,-9252.574275,-9116.536426,12435.459826
428.581933,-7994.224174,-5898.935335,13915.871710
428.582258,-4293.194464,-2298.286494,12509.480420
428.582584,-444.123565,229.828649,10066.800811
428.582909,1998.556043,2834.553343,6513.812290
428.583234,4663.297435,6281.983084,5329.482782
428.583560,6661.853478,7354.516781,2590.720797
428.583885,8364.327145,6818.249932,2960.823768
428.584210,6883.915261,8044.002729,4811.338623
428.584535,2368.659014,7201.297681,7105.977043
428.584861,444.123565,1838.629195,9104.533087
428.585186,-1776.494261,-536.266849,12361.439231
428.585511,-6365.771101,-3064.381992,14508.036463
428.585837,-9474.636058,-5515.887586,13767.830521
428.586162,-9400.615463,-8656.879127,13027.624579
428.586487,-7328.038826,-7890.783629,14952.160028
428.586812,-4441.235652,-3447.429741,13397.727550
428.587138,-1628.453072,919.314598,10436.903782
428.587463,3923.091493,3064.381992,7105.977043
428.587788,7846.182985,6358.592633,5403.503377
428.588114,8290.306550,8120.612279,3330.926739
428.588439,7994.224174,7737.564530,1406.391290
428.588764,8364.327145,7507.735880,2590.720797
428.589089,4959.379811,6971.469032,5847.626942
428.589415,1332.370696,2911.162892,8364.327145
428.589740,-2294.638420,-1149.143247,11621.233289
428.590065,-7105.977043,-3140.991542,14656.077652
428.590391,-10658.965565,-5975.544884,14359.995275
428.590716,-9474.636058,-11874.480219,13175.665768
428.591041,-7772.162391,-12257.527968,14804.118840
428.591366,-5847.626942,-4290.134789,14582.057057
428.591692,-1924.535449,1532.190996,11399.171507
428.592017,5107.421000,2298.286494,11103.089130
428.592342,7476.080014,3677.258390,6217.729913
428.592668,7328.038826,7584.345430,3997.112087
428.592993,9844.739029,7277.907231,1184.329507
428.593318,10362.883188,7660.954980,3108.864956
428.593643,7179.997637,7737.564530,6809.894666
428.593969,2590.720797,4060.306139,8364.327145
428.594294,-962.267725,153.219100,10955.047942
428.594619,-4737.318029,-2298.286494,12657.521608
428.594945,-7994.224174,-4903.011187,13767.830521
428.595270,-8142.265362,-8656.879127,12435.459826
428.595595,-8290.306550,-9346.365076,13101.645173
428.595920,-6661.853478,-3294.210641,13101.645173
428.596246,-2738.761985,-612.876398,11029.068536
428.596571,1628.453072,459.657299,9252.574275
428.596896,4441.235652,4366.744339,5403.503377
428.597222,5033.400406,8350.440928,4293.194464
428.597547,6735.874072,6665.030833,1110.308913
428.597872,6661.853478,6358.592633,2886.803174
428.598197,5403.503377,7584.345430,5403.503377
428.598523,1406.391290,4979.620737,7920.203579
428.598848,-888.247130,0.000000,10436.903782
428.599173,-4219.173869,-1838.629195,14730.098246
428.599499,-7476.080014,-3447.429741,16580.613101
428.599824,-9178.553681,-7124.688131,14211.954086
428.600149,-7624.121203,-11184.994271,14211.954086
428.600474,-5551.544565,-7584.345430,14359.995275
428.600800,-3404.947333,995.924147,12435.459826
428.601125,1998.556043,2451.505594,10732.986159
428.601450,5477.523971,2221.676944,6661.853478
428.601776,5107.421000,6358.592633,4145.153275
428.602101,6735.874072,8350.440928,1480.411884
428.602426,8512.368333,7354.516781,1776.494261
428.602751,5773.606348,6741.640382,3997.112087
428.603077,2590.720797,5362.668486,6513.812290
428.603402,1258.350101,1532.190996,9178.553681
428.603727,-2738.761985,-766.095498,12287.418637
428.604053,-7105.977043,-2757.943793,13915.871710
428.604378,-8142.265362,-7277.907231,13027.624579
428.604703,-7105.977043,-11338.213370,12731.542202
428.605028,-5995.668130,-7967.393179,15100.201217
428.605354,-3997.112087,-1302.362347,13027.624579
428.605679,888.247130,766.095498,11029.068536
428.606004,4959.379811,2298.286494,7624.121203
428.606330,6735.874072,6358.592633,5551.544565
428.606655,7994.224174,7584.345430,2812.782580
428.606980,8290.306550,6971.469032,1998.556043
428.607305,7994.224174,7124.688131,4885.359217
428.607631,5847.626942,6588.421283,8512.368333
428.607956,2738.761985,2911.162892,9770.718434
428.608281,-1406.391290,-1455.581446,12435.459826
428.608607,-4959.379811,-3064.381992,13915.871710
428.608932,-7105.977043,-5745.716235,14582.057057
428.609257,-7698.141797,-8580.269578,13249.686362
428.609582,-6587.832884,-7890.783629,13989.892304
428.609908,-5625.565159,-2298.286494,13027.624579
428.610233,-1776.494261,383.047749,10066.800811
428.610558,3627.009116,1915.238745,7994.224174
428.610884,5625.565159,5439.278036,6291.750507
428.611209,3923.091493,7354.516781,3034.844362
428.611534,6661.853478,6741.640382,814.226536
428.611859,8512.368333,7814.174080,3849.070898
428.612185,4293.194464,7507.735880,5995.668130
428.612510,0.000000,3370.820191,7328.038826
428.612835,-2072.576638,536.266849,10436.903782
428.613161,-5773.606348,-1532.190996,13693.809927
428.613486,-7920.203579,-4366.744339,15026.180623
428.613811,-9400.615463,-8886.707777,12213.398043
428.614136,-9474.636058,-10112.460574,12731.542202
428.614462,-6291.750507,-4749.792088,13323.706956
428.614787,-2516.700203,-153.219100,13027.624579
428.615112,740.205942,1378.971896,11325.150913
428.615438,2886.803174,2374.896044,6883.915261
428.615763,4811.338623,5209.449386,4589.276840
428.616088,8660.409521,7277.907231,2516.700203
428.616414,8882.471304,7737.564530,4737.318029
428.616739,5403.503377,6358.592633,5403.503377
428.617064,2294.638420,3907.087040,6957.935855
428.617389,1184.329507,383.047749,9474.636058
428.617715,-2590.720797,-1072.533697,12731.542202
428.618040,-7698.141797,-3600.648841,14285.974681
428.618365,-9770.718434,-8886.707777,11547.212695
428.618691,-7402.059420,-11951.089769,13027.624579
428.619016,-6365.771101,-7737.564530,15248.242405
428.619341,-4589.276840,-1685.410096,12435.459826
428.619666,74.020594,306.438199,9474.636058
428.619992,4441.235652,2145.067394,7994.224174
428.620317,6883.915261,4979.620737,6143.709319
428.620642,8068.244768,6281.983084,2368.659014
428.620968,8808.450710,6435.202183,2738.761985
428.621293,7994.224174,7048.078582,4885.359217
428.621618,4885.359217,5209.449386,7179.997637
428.621943,2368.659014,1455.581446,9400.615463
428.622269,-1554.432478,-919.314598,12435.459826
428.622594,-5699.585753,-3294.210641,14952.160028
428.622919,-6735.874072,-5669.106685,13915.871710
428.623245,-5107.421000,-9729.412825,13323.706956
428.623570,-5699.585753,-6818.249932,14582.057057
428.623895,-3849.070898,-766.095498,11843.295072
428.624220,888.247130,1532.190996,10807.006753
428.624546,5033.400406,3217.601092,8882.471304
428.624871,4737.318029,5822.325785,5847.626942
428.625196,5477.523971,7048.078582,1406.391290
428.625522,7550.100608,7737.564530,962.267725
428.625847,6143.709319,8733.488677,5181.441594
428.626172,1924.535449,6741.640382,6587.832884
428.626497,-1036.288319,1991.848295,8512.368333
428.626823,-4071.132681,0.000000,9770.718434
428.627148,-8216.285956,-1991.848295,12583.501014
428.627473,-8660.409521,-5669.106685,14211.954086
428.627799,-7846.182985,-8273.831378,13545.768739
428.628124,-6661.853478,-6894.859482,15100.201217
428.628449,-3256.906145,-2604.724693,14359.995275
428.628774,1554.432478,689.485948,11251.130318
428.629100,4737.318029,3600.648841,8586.388927
428.629425,5847.626942,6052.154434,6143.709319
428.629750,7624.121203,7048.078582,3775.050304
428.630076,7994.224174,7124.688131,2886.803174
428.630401,7624.121203,7814.174080,4219.173869
428.630726,3478.967927,6052.154434,5995.668130
428.631051,-740.205942,2451.505594,7624.121203
428.631377,-3701.029710,-536.266849,10955.047942
428.631702,-6291.750507,-4290.134789,14137.933492
428.632027,-9474.636058,-6205.373534,13693.809927
428.632353,-9992.780217,-9499.584175,12435.459826
428.632678,-6957.935855,-10112.460574,12509.480420
428.633003,-4959.379811,-3677.258390,12805.562797
428.633328,-1258.350101,0.000000,10140.821405
428.633654,4219.173869,1762.019645,7476.080014
428.633979,5625.565159,3830.477490,6439.791695
428.634304,6439.791695,6741.640382,4293.194464
428.634630,8734.430116,5056.230287,2812.782580
428.634955,8364.327145,5745.716235,4145.153275
428.635280,5107.421000,6741.640382,6883.915261
428.635605,3108.864956,2528.115143,9548.656652
428.635931,1332.370696,153.219100,11843.295072
428.636256,-2516.700203,-1762.019645,14211.954086
428.636581,-6143.709319,-5132.839837,14211.954086
428.636907,-5773.606348,-9116.536426,11991.336260
428.637232,-5255.462188,-8733.488677,13915.871710
428.637557,-4367.215058,-2987.772442,14656.077652
428.637882,-1998.556043,-1302.362347,11991.336260
428.638208,2146.597232,-536.266849,9178.553681
428.638533,4737.318029,3447.429741,6439.791695
428.638858,6069.688724,6818.249932,4737.318029
428.639184,5625.565159,5669.106685,2072.576638
428.639509,5181.441594,5592.497135,3775.050304
428.639834,4441.235652,6741.640382,6587.832884
428.640159,1480.411884,4290.134789,8512.368333
428.640485,-1332.370696,612.876398,9400.615463
428.640810,-5699.585753,-1455.581446,10436.903782
428.641135,-8882.471304,-3907.087040,12953.603985
428.641461,-8734.430116,-6894.859482,13027.624579
428.641786,-7254.018232,-8120.612279,12953.603985
428.642111,-7031.956449,-4826.401637,13175.665768
428.642436,-4219.173869,-1685.410096,10140.821405
428.642762,1110.308913,2604.724693,9696.697840
428.643087,5033.400406,5669.106685,7402.059420
428.643412,4663.297435,5669.106685,4737.318029
428.643738,6513.812290,6358.592633,1998.556043
428.644063,9030.512492,8810.098227,3627.009116
428.644388,7772.162391,9116.536426,6513.812290
428.644713,2368.659014,4213.525239,8216.285956
428.645039,-296.082377,536.266849,10214.842000
428.645364,-2886.803174,306.438199,13249.686362
428.645689,-6069.688724,-2451.505594,15026.180623
428.646015,-7994.224174,-7584.345430,12953.603985
428.646340,-9030.512492,-10265.679673,11621.233289
428.646665,-7772.162391,-5745.716235,13101.645173
428.646990,-3552.988522,-383.047749,12065.356855
428.647316,518.144159,459.657299,10436.903782
428.647641,2368.659014,1455.581446,6661.853478
428.647966,3108.864956,5669.106685,5995.668130
428.648292,7402.059420,7201.297681,2738.761985
428.648617,9030.512492,5745.716235,2812.782580
428.648942,7105.977043,6511.811733,4885.359217
428.649267,3256.906145,5362.668486,6883.915261
428.649593,2220.617826,1838.629195,9252.574275
428.649918,592.164754,-689.485948,13101.645173
428.650243,-4145.153275,-3447.429741,14656.077652
428.650569,-6883.915261,-6741.640382,12509.480420
428.650894,-4737.318029,-9269.755526,11695.253884
428.651219,-2664.741391,-5132.839837,14656.077652
428.651544,-1554.432478,-229.828649,13175.665768
428.651870,74.020594,229.828649,10658.965565
428.652195,3849.070898,1072.533697,6439.791695
428.652520,5773.606348,4826.401637,5995.668130
428.652846,6735.874072,5898.935335,4589.276840
428.653171,6291.750507,6052.154434,3701.029710
428.653496,5329.482782,5822.325785,6217.729913
428.653822,2220.617826,4443.353888,7402.059420
428.654147,-444.123565,612.876398,8586.388927
428.654472,-3775.050304,-995.924147,10066.800811
428.654797,-7624.121203,-2451.505594,13175.665768
428.655123,-8882.471304,-5975.544884,13175.665768
428.655448,-7402.059420,-9116.536426,13175.665768
428.655773,-6587.832884,-7890.783629,15174.221811
428.656099,-5033.400406,-1685.410096,11843.295072
428.656424,-1332.370696,0.000000,9548.656652
428.656749,3627.009116,1915.238745,8808.450710
428.657074,4811.338623,5362.668486,7105.977043
428.657400,5403.503377,6358.592633,4219.173869
428.657725,7846.182985,5132.839837,1998.556043
428.658050,6735.874072,7201.297681,4219.173869
428.658376,3034.844362,6741.640382,6883.915261
428.658701,592.164754,2374.896044,8956.491898
428.659026,-1702.473667,0.000000,11621.233289
428.659351,-5181.441594,-1455.581446,13323.706956
428.659677,-7105.977043,-5056.230287,13767.830521
428.660002,-6661.853478,-9193.145976,11103.089130
428.660327,-5995.668130,-6665.030833,13101.645173
428.660653,-3923.091493,-612.876398,13323.706956
428.660978,0.000000,0.000000,11991.336260
428.661303,3034.844362,0.000000,8734.430116
428.661628,5107.421000,4443.353888,6735.874072
428.661954,6587.832884,6665.030833,5181.441594
428.662279,7179.997637,5439.278036,3108.864956
428.662604,7031.956449,5975.544884,4737.318029
428.662930,5033.400406,6358.592633,7105.977043
428.663255,962.267725,3064.381992,8216.285956
428.663580,-1258.350101,153.219100,9918.759623
428.663905,-3923.091493,-1378.971896,12805.562797
428.664231,-6957.935855,-3830.477490,13693.809927
428.664556,-6143.709319,-7124.688131,12361.439231
428.664881,-4515.256246,-7967.393179,12731.542202
428.665207,-3552.988522,-3140.991542,13101.645173
428.665532,-962.267725,536.266849,11251.130318
428.665857,3627.009116,2221.676944,9252.574275
428.666182,6069.688724,4213.525239,6809.894666
428.666508,6883.915261,6818.249932,4367.215058
428.666833,8438.347739,7048.078582,2738.761985
428.667158,8438.347739,7354.516781,3701.029710
428.667484,4293.194464,6741.640382,6069.688724
428.667809,1850.514855,3064.381992,8956.491898
428.668134,74.020594,995.924147,11547.212695
428.668459,-4219.173869,-995.924147,13249.686362
428.668785,-8290.306550,-4213.525239,13397.727550
428.669110,-9252.574275,-8503.660028,12287.418637
428.669435,-8364.327145,-9652.803275,12657.521608
428.669761,-6957.935855,-4903.011187,14211.954086
428.670086,-4293.194464,-1225.752797,11621.233289
428.670411,-518.144159,229.828649,9178.553681
428.670736,2442.679609,2604.724693,6587.832884
428.671062,3997.112087,5669.106685,5255.462188
428.671387,4737.318029,5132.839837,2368.659014
428.671712,5107.421000,5132.839837,2960.823768
428.672038,4515.256246,6665.030833,6439.791695
428.672363,2516.700203,4903.011187,8586.388927
428.672688,-222.061783,612.876398,9696.697840
428.673013,-3627.009116,-1762.019645,11843.295072
428.673339,-6513.812290,-3370.820191,13619.789333
428.673664,-7105.977043,-6588.421283,12879.583391
428.673989,-6661.853478,-10189.070123,12139.377449
428.674315,-5921.647536,-5745.716235,13471.748144
428.674640,-3775.050304,-995.924147,11843.295072
428.674965,1480.411884,536.266849,9844.739029
428.675291,5255.462188,2145.067394,7476.080014
428.675616,4293.194464,5822.325785,5847.626942
428.675941,5403.503377,6511.811733,3330.926739
428.676267,7476.080014,5515.887586,3182.885551
428.676592,7105.977043,6281.983084,5033.400406
428.676917,2294.638420,4903.011187,7402.059420
428.677243,-444.123565,1225.752797,9252.574275
428.677568,-2516.700203,-1608.800546,12213.398043
428.677893,-5625.565159,-3677.258390,15026.180623
428.678219,-7476.080014,-6894.859482,13841.851115
428.678544,-7698.141797,-10801.946522,12139.377449
428.678869,-6439.791695,-7660.954980,13175.665768
428.679195,-1702.473667,-459.657299,12509.480420
428.679520,2590.720797,1762.019645,11843.295072
428.679845,4811.338623,2757.943793,8364.327145
428.680171,6735.874072,6128.763984,4885.359217
428.680496,8808.450710,8886.707777,3552.988522
428.680821,11399.171507,7967.393179,2960.823768
428.681147,9844.739029,8120.612279,5847.626942
428.681472,4589.276840,6052.154434,7254.018232
428.681797,1850.514855,2604.724693,8734.430116
428.682123,666.185348,153.219100,12139.377449
428.682448,-4515.256246,-1378.971896,14434.015869
428.682773,-9548.656652,-4903.011187,12879.583391
428.683099,-9474.636058,-9346.365076,9548.656652
428.683424,-6365.771101,-8273.831378,13175.665768
428.683749,-5551.544565,-1072.533697,12731.542202
428.684075,-3552.988522,919.314598,10584.944971
428.684400,222.061783,306.438199,6957.935855
428.684725,3849.070898,4979.620737,6587.832884
428.685051,5551.544565,7890.783629,6365.771101
428.685376,6439.791695,5975.544884,2664.741391
428.685701,5625.565159,6358.592633,3478.967927
428.686027,3701.029710,7431.126331,6883.915261
428.686352,1776.494261,4673.182538,8290.306550
428.686677,-1406.391290,153.219100,10732.986159
428.687003,-5255.462188,-2374.896044,12953.603985
428.687328,-8216.285956,-4136.915689,13619.789333
428.687653,-8216.285956,-7737.564530,12139.377449
428.687979,-5551.544565,-9039.926876,15174.221811
428.688304,-5329.482782,-4290.134789,14211.954086
428.688629,-2590.720797,0.000000,10584.944971
428.688954,2812.782580,1149.143247,9622.677246
428.689280,6513.812290,3600.648841,6587.832884
428.689605,5477.523971,5898.935335,4737.318029
428.689930,6587.832884,5592.497135,2368.659014
428.690256,7254.018232,6894.859482,3997.112087
428.690581,4811.338623,5745.716235,6661.853478
428.690906,1924.535449,2145.067394,7624.121203
428.691232,-1554.432478,-536.266849,9326.594869
428.691557,-5403.503377,-1225.752797,12361.439231
428.691882,-7105.977043,-4979.620737,14063.912898
428.692208,-7476.080014,-9652.803275,13397.727550
428.692533,-7920.203579,-11184.994271,12953.603985
428.692858,-5847.626942,-6358.592633,13693.809927
428.693184,-2442.679609,-1225.752797,12213.398043
428.693509,2294.638420,153.219100,10658.965565
428.693834,5255.462188,1838.629195,7994.224174
428.694160,6809.894666,5898.935335,5699.585753
428.694485,9030.512492,6971.469032,2590.720797
428.694810,8956.491898,6435.202183,2812.782580
428.695136,7550.100608,6971.469032,5773.606348
428.695461,3701.029710,5362.668486,7772.162391
428.695786,1110.308913,1302.362347,9030.512492
428.696112,-1702.473667,-842.705048,13323.706956
428.696437,-5551.544565,-2987.772442,15618.345376
428.696762,-7476.080014,-6281.983084,12953.603985
428.697088,-6883.915261,-9882.631924,11547.212695
428.697413,-5773.606348,-7737.564530,14063.912898
428.697738,-4367.215058,153.219100,11769.274478
428.698064,370.102971,1915.238745,10510.924376
428.698389,3923.091493,1838.629195,7550.100608
428.698714,3404.947333,5669.106685,5033.400406
428.699040,4367.215058,7431.126331,2960.823768
428.699365,7105.977043,6818.249932,2294.638420
428.699690,4663.297435,6818.249932,4663.297435
428.700016,592.164754,5822.325785,7328.038826
428.700341,0.000000,2987.772442,9474.636058
428.700666,-3182.885551,306.438199,12361.439231
428.700992,-8142.265362,-2681.334243,13027.624579
428.701317,-8438.347739,-6205.373534,11251.130318
428.701642,-6217.729913,-7890.783629,11251.130318
428.701968,-5773.606348,-2987.772442,15470.304188
428.702293,-3034.844362,-536.266849,12657.521608
428.702618,-222.061783,-1149.143247,10288.862594
428.702944,3330.926739,2604.724693,7328.038826
428.703269,6661.853478,8580.269578,5921.647536
428.703594,7254.018232,7660.954980,4071.132681
428.703920,7328.038826,5669.106685,2664.741391
428.704245,6661.853478,7354.516781,4959.379811
428.704570,4737.318029,6665.030833,7772.162391
428.704896,1776.494261,2834.553343,8956.491898
428.705221,-2146.597232,0.000000,10436.903782
428.705546,-5181.441594,-2451.505594,12435.459826
428.705871,-7179.997637,-5669.106685,13693.809927
428.706197,-7254.018232,-9193.145976,12583.501014
428.706522,-8142.265362,-8427.050478,13693.809927
428.706847,-5625.565159,-5975.544884,12583.501014
428.707173,-1776.494261,-1915.238745,10807.006753
428.707498,3997.112087,2145.067394,9030.512492
428.707823,5403.503377,4366.744339,7550.100608
428.708149,5107.421000,5056.230287,4663.297435
428.708474,7920.203579,5669.106685,2442.679609
428.708799,10362.883188,6971.469032,4959.379811
428.709125,7105.977043,6358.592633,7031.956449
428.709450,2368.659014,2834.553343,8512.368333
428.709775,-666.185348,229.828649,11843.295072
428.710101,-3182.885551,-2221.676944,13545.768739
428.710426,-5255.462188,-5209.449386,14730.098246
428.710751,-7105.977043,-8963.317327,12361.439231
428.711077,-7846.182985,-8733.488677,11177.109724
428.711402,-4737.318029,-2911.162892,11843.295072
428.711727,-1258.350101,383.047749,11473.192101
428.712053,1480.411884,766.095498,8364.327145
428.712378,2960.823768,2987.772442,5625.565159
428.712703,5033.400406,7124.688131,4515.256246
428.713029,7550.100608,7354.516781,3627.009116
428.713354,6809.894666,4903.011187,5181.441594
428.713679,2960.823768,5592.497135,6587.832884
428.714005,-370.102971,3677.258390,8364.327145
428.714330,-1332.370696,536.266849,10214.842000
428.714655,-4737.318029,-2145.067394,13619.789333
428.714981,-9474.636058,-4060.306139,13175.665768
428.715306,-9474.636058,-7201.297681,11251.130318
428.715631,-6365.771101,-8197.221829,12805.562797
428.715957,-4293.194464,-2374.896044,13841.851115
428.716282,-2072.576638,536.266849,11473.192101
428.716607,1110.308913,1072.533697,8882.471304
428.716933,4441.235652,3830.477490,6957.935855
428.717258,6143.709319,6971.469032,6365.771101
428.717583,7031.956449,6665.030833,4367.215058
428.717909,7476.080014,6818.249932,3923.091493
428.718234,5403.503377,6818.249932,5847.626942
428.718559,2886.803174,4749.792088,7476.080014
428.718885,740.205942,1378.971896,9326.594869
428.719210,-3108.864956,0.000000,11177.109724
428.719535,-7105.977043,-2757.943793,11917.315666
428.719861,-8364.327145,-6281.983084,10955.047942
428.720186,-5921.647536,-8350.440928,12139.377449
428.720511,-5255.462188,-4443.353888,14211.954086
428.720837,-3330.926739,-1149.143247,11177.109724
428.721162,518.144159,-612.876398,9770.718434
428.721487,5403.503377,1991.848295,7698.141797
428.721813,5625.565159,6588.421283,7476.080014
428.722138,6439.791695,6128.763984,4515.256246
428.722463,7994.224174,4366.744339,3775.050304
428.722788,7105.977043,5975.544884,6217.729913
428.723114,4071.132681,4903.011187,8290.306550
428.723439,1702.473667,1455.581446,10066.800811
428.723764,-1406.391290,-995.924147,11991.336260
428.724090,-4663.297435,-2681.334243,13471.748144
428.724415,-6143.709319,-6052.154434,13027.624579
428.724740,-4737.318029,-8886.707777,12509.480420
428.725066,-4589.276840,-4443.353888,13027.624579
428.725391,-1998.556043,-689.485948,12361.439231
428.725716,1036.288319,0.000000,11621.233289
428.726042,3330.926739,1838.629195,8290.306550
428.726367,4145.153275,4979.620737,6069.688724
428.726692,4959.379811,5515.887586,3182.885551
428.727018,4811.338623,5515.887586,2960.823768
428.727343,3627.009116,5745.716235,5329.482782
428.727668,1628.453072,4213.525239,7254.018232
428.727994,-1998.556043,1915.238745,9030.512492
428.728319,-4071.132681,76.609550,10658.965565
428.728644,-6365.771101,-2987.772442,12139.377449
428.728970,-9104.533087,-5515.887586,11843.295072
428.729295,-7772.162391,-7660.954980,11843.295072
428.729620,-5551.544565,-5439.278036,13027.624579
428.729946,-4071.132681,-306.438199,12435.459826
428.730271,-1184.329507,229.828649,10807.006753
428.730596,2960.823768,919.314598,8216.285956
428.730922,4515.256246,5362.668486,7846.182985
428.731247,5773.606348,5362.668486,5403.503377
428.731572,7328.038826,4673.182538,4367.215058
428.731898,5847.626942,6128.763984,5773.606348
428.732223,3256.906145,5515.887586,7698.141797
428.732548,1480.411884,2221.676944,9474.636058
428.732874,444.123565,0.000000,11695.253884
428.733199,-3108.864956,-995.924147,12657.521608
428.733524,-7254.018232,-3447.429741,11621.233289
428.733850,-6587.832884,-7584.345430,11621.233289
428.734175,-4811.338623,-7507.735880,12435.459826
428.734500,-4737.318029,-2145.067394,12065.356855
428.734826,-2516.700203,-1225.752797,10214.842000
428.735151,1184.329507,0.000000,8364.327145
428.735476,3701.029710,3140.991542,7179.997637
428.735802,4885.359217,4366.744339,5773.606348
428.736127,5107.421000,3677.258390,3997.112087
428.736452,5625.565159,4749.792088,4589.276840
428.736778,6365.771101,5669.106685,6883.915261
428.737103,3775.050304,3447.429741,9104.533087
428.737428,-444.123565,612.876398,10732.986159
428.737754,-1850.514855,-1149.143247,12065.356855
428.738079,-3404.947333,-3140.991542,13249.686362
428.738404,-5181.441594,-6128.763984,12583.501014
428.738730,-4071.132681,-7048.078582,12213.398043
428.739055,-3701.029710,-2834.553343,13027.624579
428.739380,-1850.514855,-306.438199,12139.377449
428.739705,2590.720797,536.266849,9844.739029
428.740031,4885.359217,3064.381992,8216.285956
428.740356,3997.112087,6511.811733,5329.482782
428.740681,5255.462188,5362.668486,3404.947333
428.741007,6513.812290,5669.106685,3478.967927
428.741332,5773.606348,7201.297681,6883.915261
428.741657,740.205942,5209.449386,8438.347739
428.741983,-1628.453072,1302.362347,10066.800811
428.742308,-3997.112087,-1072.533697,11029.068536
428.742633,-7328.038826,-3370.820191,12213.398043
428.742959,-9400.615463,-6435.202183,11769.274478
428.743284,-8956.491898,-7354.516781,11473.192101
428.743609,-7476.080014,-4749.792088,11621.233289
428.743935,-2886.803174,-536.266849,11399.171507
428.744260,222.061783,1378.971896,11325.150913
428.744585,2590.720797,2681.334243,7105.977043
428.744911,4737.318029,5286.058936,5477.523971
428.745236,7550.100608,6588.421283,4071.132681
428.745561,9252.574275,6665.030833,4367.215058
428.745887,7698.141797,6741.640382,6439.791695
428.746212,3182.885551,4979.620737,7920.203579
428.746537,814.226536,1762.019645,10436.903782
428.746863,-814.226536,-919.314598,13249.686362
428.747188,-4959.379811,-3447.429741,13989.892304
428.747513,-9178.553681,-6665.030833,12583.501014
428.747839,-6883.915261,-10112.460574,11029.068536
428.748164,-5107.421000,-6128.763984,13841.851115
428.748489,-3849.070898,-689.485948,11251.130318
428.748815,-962.267725,153.219100,9548.656652
428.749140,2590.720797,1455.581446,6883.915261
428.749465,4663.297435,5592.497135,6365.771101
428.749791,6883.915261,4979.620737,4737.318029
428.750116,6735.874072,4136.915689,3108.864956
428.750441,5551.544565,5439.278036,5329.482782
428.750767,3923.091493,4979.620737,7698.141797
428.751092,1702.473667,1225.752797,10288.862594
428.751417,-1184.329507,-1991.848295,12139.377449
428.751743,-4367.215058,-3140.991542,12805.562797
428.752068,-6217.729913,-5669.106685,11843.295072
428.752393,-4367.215058,-7737.564530,12139.377449
428.752719,-3182.885551,-5286.058936,14359.995275
428.753044,-2738.761985,-229.828649,12065.356855
428.753369,814.226536,0.000000,10584.944971
428.753695,4959.379811,1149.143247,8808.450710
428.754020,5773.606348,5975.544884,7624.121203
428.754345,5403.503377,6052.154434,6143.709319
428.754671,5995.668130,4136.915689,3997.112087
428.754996,5773.606348,5439.278036,5921.647536
428.755321,2738.761985,5286.058936,7550.100608
428.755647,-518.144159,2298.286494,8808.450710
428.755972,-4441.235652,-612.876398,10214.842000
428.756297,-6735.874072,-1991.848295,11029.068536
428.756622,-6809.894666,-4673.182538,12065.356855
428.756948,-8068.244768,-6358.592633,11991.336260
428.757273,-6883.915261,-4826.401637,10658.965565
428.757598,-4737.318029,-919.314598,11399.171507
428.757924,-1406.391290,229.828649,11473.192101
428.758249,1702.473667,1762.019645,8512.368333
428.758574,3478.967927,4443.353888,6809.894666
428.758900,4515.256246,6128.763984,5033.400406
428.759225,5255.462188,5669.106685,4589.276840
428.759550,4663.297435,5209.449386,5699.585753
428.759876,3330.926739,4903.011187,7105.977043
428.760201,-148.041188,2604.724693,8216.285956
428.760526,-2220.617826,229.828649,10658.965565
428.760852,-3404.947333,-842.705048,12805.562797
428.761177,-6513.812290,-3983.696590,12213.398043
428.761502,-5921.647536,-7890.783629,11251.130318
428.761828,-3552.988522,-5822.325785,12435.459826
428.762153,-2368.659014,-612.876398,12435.459826
428.762478,74.020594,0.000000,11103.089130
428.762804,3182.885551,0.000000,9474.636058
428.763129,4515.256246,3830.477490,7920.203579
428.763454,5329.482782,5975.544884,5625.565159
428.763780,7179.997637,4443.353888,4515.256246
428.764105,6957.935855,4136.915689,4885.359217
428.764430,3923.091493,4596.572988,7105.977043
428.764756,1258.350101,2451.505594,9252.574275
428.765081,518.144159,-459.657299,11325.150913
428.765406,-2072.576638,-2145.067394,12287.418637
428.765732,-6291.750507,-3983.696590,12065.356855
428.766057,-6069.688724,-7124.688131,11621.233289
428.766382,-3404.947333,-6818.249932,11843.295072
428.766708,-3034.844362,-2145.067394,12879.583391
428.767033,-1480.411884,-689.485948,10881.027347
428.767358,1480.411884,383.047749,7920.203579
428.767684,4663.297435,3983.696590,6809.894666
428.768009,6069.688724,6511.811733,6069.688724
428.768334,5033.400406,4979.620737,5329.482782
428.768660,5551.544565,5056.230287,4589.276840
428.768985,5329.482782,5592.497135,7179.997637
428.769310,3182.885551,3830.477490,9104.533087
428.769636,148.041188,1455.581446,10584.944971
428.769961,-2960.823768,229.828649,11695.253884
428.770286,-5107.421000,-3140.991542,12583.501014
428.770612,-5921.647536,-5822.325785,13619.789333
428.770937,-5625.565159,-6281.983084,11473.192101
428.771262,-5773.606348,-2911.162892,12213.398043
428.771588,-4811.338623,-995.924147,11177.109724
428.771913,-1480.411884,383.047749,9030.512492
428.772238,1924.535449,2757.943793,7476.080014
428.772564,2146.597232,5439.278036,5995.668130
428.772889,2220.617826,4903.011187,3108.864956
428.773214,4219.173869,5515.887586,2886.803174
428.773539,5107.421000,6741.640382,6883.915261
428.773865,1184.329507,4596.572988,8956.491898
428.774190,-1258.350101,1149.143247,9178.553681
428.774516,-1628.453072,-1072.533697,11251.130318
428.774841,-3849.070898,-1838.629195,13101.645173
428.775166,-5699.585753,-4749.792088,12805.562797
428.775492,-5403.503377,-7201.297681,11473.192101
428.775817,-4293.194464,-3830.477490,11177.109724
428.776142,-814.226536,-1072.533697,11325.150913
428.776468,2294.638420,536.266849,10881.027347
428.776793,3404.947333,2451.505594,8216.285956
428.777118,4515.256246,4749.792088,7179.997637
428.777444,5625.565159,4979.620737,5699.585753
428.777769,6661.853478,4826.401637,4737.318029
428.778094,6291.750507,4903.011187,5921.647536
428.778420,2072.576638,3677.258390,7772.162391
428.778745,-370.102971,689.485948,9030.512492
428.779070,-1036.288319,-1762.019645,11177.109724
428.779396,-3775.050304,-3217.601092,13767.830521
428.779721,-7624.121203,-4826.401637,13471.748144
428.780046,-6661.853478,-8197.221829,10436.903782
428.780372,-3404.947333,-7507.735880,12287.418637
428.780697,-1110.308913,-1532.190996,12361.439231
428.781022,370.102971,2374.896044,10732.986159
428.781348,3627.009116,2145.067394,7402.059420
428.781673,6661.853478,4519.963438,7031.956449
428.781998,7328.038826,6665.030833,5773.606348
428.782324,6069.688724,6052.154434,4515.256246
428.782649,5551.544565,5286.058936,4663.297435
428.782974,3923.091493,4903.011187,7254.018232
428.783300,740.205942,3140.991542,10066.800811
428.783625,-1850.514855,0.000000,11843.295072
428.783950,-5995.668130,-2681.334243,11695.253884
428.784276,-9622.677246,-4979.620737,11769.274478
428.784601,-8364.327145,-7507.735880,11029.068536
428.784926,-5995.668130,-6358.592633,12361.439231
428.785252,-4441.235652,-1149.143247,12065.356855
428.785577,-2146.597232,689.485948,10658.965565
428.785902,1850.514855,1225.752797,9474.636058
428.786228,4515.256246,4673.182538,7476.080014
428.786553,4367.215058,6511.811733,6217.729913
428.786878,4737.318029,5286.058936,4515.256246
428.787204,6439.791695,4903.011187,4219.173869
428.787529,4441.235652,6128.763984,7031.956449
428.787854,0.000000,3524.039291,8290.306550
428.788180,-2590.720797,0.000000,9696.697840
428.788505,-5403.503377,-229.828649,11695.253884
428.788830,-8068.244768,-3447.429741,12879.583391
428.789156,-7402.059420,-7584.345430,11917.315666
428.789481,-6069.688724,-9116.536426,11843.295072
428.789806,-4737.318029,-3294.210641,12213.398043
428.790132,-1480.411884,536.266849,11103.089130
428.790457,1850.514855,1685.410096,10510.924376
428.790782,4663.297435,2834.553343,6661.853478
428.791108,5921.647536,5439.278036,4885.359217
428.791433,7476.080014,6971.469032,3997.112087
428.791758,7105.977043,5592.497135,4811.338623
428.792084,6069.688724,4826.401637,6661.853478
428.792409,2590.720797,2911.162892,8512.368333
428.792734,-296.082377,153.219100,9844.739029
428.793060,-1850.514855,-1608.800546,12139.377449
428.793385,-4959.379811,-3447.429741,14137.933492
428.793710,-5995.668130,-6128.763984,13545.768739
428.794036,-3478.967927,-8427.050478,14285.974681
428.794361,-2590.720797,-6205.373534,13693.809927
428.794686,-1332.370696,-612.876398,11251.130318
428.795012,2590.720797,1685.410096,9548.656652
428.795337,5477.523971,3294.210641,7550.100608
428.795662,4145.153275,5669.106685,6217.729913
428.795988,4959.379811,5592.497135,5033.400406
428.796313,6957.935855,5362.668486,3775.050304
428.796638,4293.194464,5056.230287,4811.338623
428.796964,296.082377,3753.867940,7179.997637
428.797289,-1406.391290,2145.067394,9326.594869
428.797614,-3182.885551,383.047749,11917.315666
428.797940,-6217.729913,-2987.772442,13027.624579
428.798265,-7476.080014,-5286.058936,11843.295072
428.798590,-7105.977043,-7354.516781,10362.883188
428.798916,-4737.318029,-3447.429741,12361.439231
428.799241,-1850.514855,229.828649,12065.356855
428.799566,296.082377,842.705048,11029.068536
428.799892,3627.009116,2987.772442,7550.100608
428.800217,5995.668130,7277.907231,6513.812290
428.800542,6587.832884,7354.516781,4515.256246
428.800868,6143.709319,5592.497135,3478.967927
428.801193,5625.565159,6128.763984,5847.626942
428.801518,3701.029710,6511.811733,8956.491898
428.801844,592.164754,3294.210641,9474.636058
428.802169,-2886.803174,-153.219100,11103.089130
428.802494,-6883.915261,-1838.629195,11251.130318
428.802820,-8216.285956,-5209.449386,12657.521608
428.803145,-7179.997637,-7584.345430,11769.274478
428.803470,-6365.771101,-5515.887586,12583.501014
428.803796,-5773.606348,-1991.848295,11917.315666
428.804121,-2516.700203,-919.314598,9474.636058
428.804446,2220.617826,1685.410096,7772.162391
428.804772,4071.132681,4290.134789,7402.059420
428.805097,3627.009116,4903.011187,6069.688724
428.805422,5699.585753,3677.258390,4737.318029
428.805748,8290.306550,5669.106685,5477.523971
428.806073,5477.523971,5209.449386,7179.997637
428.806398,962.267725,2145.067394,7920.203579
428.806724,0.000000,-153.219100,9992.780217
428.807049,-740.205942,-766.095498,13101.645173
428.807374,-3330.926739,-4060.306139,14285.974681
428.807700,-4885.359217,-7354.516781,12361.439231
428.808025,-4367.215058,-8273.831378,11029.068536
428.808351,-2516.700203,-2604.724693,11325.150913
428.808676,444.123565,0.000000,11769.274478
428.809001,2812.782580,995.924147,9770.718434
428.809327,3775.050304,2834.553343,7179.997637
428.809652,5033.400406,4673.182538,6957.935855
428.809977,6957.935855,5515.887586,5181.441594
428.810303,6365.771101,4979.620737,4663.297435
428.810628,3404.947333,4136.915689,6217.729913
428.810953,0.000000,2757.943793,7994.224174
428.811279,-1998.556043,229.828649,10362.883188
428.811604,-4293.194464,-1608.800546,12657.521608
428.811929,-6957.935855,-3983.696590,12879.583391
428.812255,-9474.636058,-6588.421283,10436.903782
428.812580,-7105.977043,-8656.879127,10955.047942
428.812905,-4071.132681,-5439.278036,13249.686362
428.813231,-2590.720797,766.095498,13323.706956
428.813556,518.144159,1991.848295,10066.800811
428.813881,4811.338623,2987.772442,6883.915261
428.814207,6217.729913,6435.202183,6291.750507
428.814532,7105.977043,7584.345430,4367.215058
428.814857,5921.647536,6435.202183,3552.988522
428.815183,4737.318029,5439.278036,5995.668130
428.815508,2220.617826,4366.744339,7550.100608
428.815833,-740.205942,1991.848295,9918.759623
428.816159,-4293.194464,-919.314598,10881.027347
428.816484,-8660.409521,-3753.867940,12213.398043
428.816809,-10288.862594,-6818.249932,11621.233289
428.817135,-7550.100608,-9269.755526,12361.439231
428.817460,-5403.503377,-6052.154434,13471.748144
428.817785,-3849.070898,1072.533697,10955.047942
428.818111,1332.370696,1532.190996,9770.718434
428.818436,5329.482782,2068.457845,7550.100608
428.818761,5551.544565,6665.030833,6291.750507
428.819087,5181.441594,6511.811733,4367.215058
428.819412,7624.121203,6511.811733,3478.967927
428.819737,7254.018232,5975.544884,6809.894666
428.820063,3108.864956,5056.230287,8808.450710
428.820388,-370.102971,1455.581446,9844.739029
428.820713,-2294.638420,-1991.848295,11029.068536
428.821039,-5403.503377,-3753.867940,13027.624579
428.821364,-7846.182985,-6052.154434,12435.459826
428.821689,-6217.729913,-9039.926876,11843.295072
428.822015,-4367.215058,-7354.516781,13471.748144
428.822340,-1924.535449,-1302.362347,11917.315666
428.822665,2072.576638,1455.581446,10362.883188
428.822991,5033.400406,2528.115143,8142.265362
428.823316,6883.915261,5209.449386,6143.709319
428.823641,7772.162391,5975.544884,4737.318029
428.823967,7476.080014,5822.325785,3552.988522
428.824292,7105.977043,5439.278036,5107.421000
428.824617,3923.091493,4826.401637,7698.141797
428.824943,148.041188,2145.067394,9178.553681
428.825268,-2664.741391,-766.095498,11621.233289
428.825593,-4737.318029,-4136.915689,14063.912898
428.825919,-7846.182985,-5132.839837,13323.706956
428.826244,-7698.141797,-8120.612279,11103.089130
428.826569,-6069.688724,-8656.879127,12657.521608
428.826895,-4663.297435,-1762.019645,12953.603985
428.827220,-1628.453072,1149.143247,11325.150913
428.827545,1850.514855,1455.581446,8512.368333
428.827871,3404.947333,4213.525239,5181.441594
428.828196,4441.235652,7277.907231,4441.235652
428.828521,5847.626942,6511.811733,3034.844362
428.828847,5329.482782,5822.325785,5107.421000
428.829172,2220.617826,5056.230287,7772.162391
428.829497,-370.102971,3600.648841,8882.471304
428.829823,-1332.370696,536.266849,9918.759623
428.830148,-4663.297435,-1149.143247,11843.295072
428.830473,-7328.038826,-3983.696590,13101.645173
428.830799,-6661.853478,-6358.592633,12065.356855
428.831124,-3701.029710,-6358.592633,12139.377449
428.831449,-2368.659014,-1455.581446,13101.645173
428.831775,-888.247130,1378.971896,11103.089130
428.832100,2146.597232,2145.067394,9696.697840
428.832425,5329.482782,3907.087040,7698.141797
428.832751,5551.544565,6971.469032,6735.874072
428.833076,5477.523971,5822.325785,4663.297435
428.833401,5773.606348,6665.030833,4145.153275
428.833727,4811.338623,5745.716235,6883.915261
428.834052,1998.556043,3753.867940,8216.285956
428.834377,-1258.350101,1072.533697,9696.697840
428.834703,-4293.194464,-689.485948,9992.780217
428.835028,-5699.585753,-3524.039291,11843.295072
428.835353,-5181.441594,-6971.469032,11547.212695
428.835679,-4515.256246,-7124.688131,11399.171507
428.836004,-4071.132681,-3064.381992,12287.418637
428.836329,-1406.391290,-612.876398,11029.068536
428.836655,3034.844362,995.924147,9548.656652
428.836980,5921.647536,2757.943793,8734.430116
428.837305,4885.359217,5439.278036,6513.812290
428.837631,6365.771101,4366.744339,4885.359217
428.837956,8290.306550,5592.497135,5551.544565
428.838281,7254.018232,6052.154434,7994.224174
428.838607,1776.494261,3140.991542,8586.388927
428.838932,-148.041188,229.828649,9252.574275
428.839257,-1998.556043,-1685.410096,11473.192101
428.839583,-5181.441594,-3907.087040,13175.665768
428.839908,-7402.059420,-6971.469032,12805.562797
428.840233,-7105.977043,-9346.365076,12139.377449
428.840559,-5329.482782,-6358.592633,12879.583391
428.840884,-3108.864956,-2068.457845,12361.439231
428.841210,-296.082377,-306.438199,11103.089130
428.841535,1702.473667,2374.896044,8068.244768
428.841860,3256.906145,4290.134789,6439.791695
428.842186,5255.462188,4903.011187,4663.297435
428.842511,7402.059420,5132.839837,4737.318029
428.842836,4663.297435,5669.106685,5551.544565
428.843162,666.185348,4213.525239,6587.832884
428.843487,-1702.473667,1532.190996,8808.450710
428.843812,-2886.803174,0.000000,10436.903782
428.844138,-7105.977043,-2374.896044,11917.315666
428.844463,-9992.780217,-4903.011187,10140.821405
428.844788,-8364.327145,-8503.660028,9770.718434
428.845114,-5995.668130,-6128.763984,12731.542202
428.845439,-4663.297435,-689.485948,12361.439231
428.845764,-2442.679609,1149.143247,11399.171507
428.846090,2590.720797,919.314598,8142.265362
428.846415,6217.729913,4903.011187,7328.038826
428.846740,7105.977043,6435.202183,7254.018232
428.847066,6291.750507,6511.811733,5403.503377
428.847391,6661.853478,5669.106685,5699.585753
428.847716,5625.565159,5592.497135,8068.244768
428.848042,2294.638420,3753.867940,8882.471304
428.848367,-1332.370696,459.657299,10732.986159
428.848692,-3627.009116,-1149.143247,11103.089130
428.849018,-6291.750507,-3983.696590,11695.253884
428.849343,-5773.606348,-7431.126331,11325.150913
428.849668,-4293.194464,-6281.983084,12435.459826
428.849994,-3701.029710,-995.924147,12139.377449
428.850319,-1258.350101,766.095498,10658.965565
428.850644,2368.659014,306.438199,10140.821405
428.850970,4515.256246,3753.867940,7254.018232
428.851295,5625.565159,6052.154434,5107.421000
428.851620,6587.832884,6052.154434,3478.967927
428.851946,7179.997637,6665.030833,5033.400406
428.852271,5033.400406,6205.373534,7328.038826
428.852596,1776.494261,3753.867940,7772.162391
428.852922,-370.102971,229.828649,9400.615463
428.853247,-2738.761985,-689.485948,10362.883188
428.853572,-4663.297435,-2757.943793,12583.501014
428.853898,-4737.318029,-5515.887586,13175.665768
428.854223,-3849.070898,-5822.325785,12953.603985
428.854548,-2294.638420,-2451.505594,13249.686362
428.854874,962.267725,-842.705048,11325.150913
428.855199,2886.803174,1455.581446,9844.739029
428.855524,4367.215058,4213.525239,8364.327145
428.855850,5625.565159,5056.230287,7031.956449
428.856175,5403.503377,4979.620737,5625.565159
428.856500,4811.338623,5286.058936,5033.400406
428.856826,2886.803174,5515.887586,7031.956449
428.857151,-1184.329507,3370.820191,8364.327145
428.857476,-3775.050304,-229.828649,8438.347739
428.857802,-6513.812290,-2834.553343,11029.068536
428.858127,-9770.718434,-4366.744339,12435.459826
428.858452,-9622.677246,-7354.516781,10362.883188
428.858778,-7476.080014,-9116.536426,11399.171507
428.859103,-6291.750507,-6128.763984,12583.501014
428.859428,-4515.256246,-536.266849,12213.398043
428.859754,1110.308913,1149.143247,9992.780217
428.860079,5033.400406,2221.676944,7402.059420
428.860404,5181.441594,4749.792088,6069.688724
428.860730,7402.059420,5822.325785,5181.441594
428.861055,8882.471304,7048.078582,5181.441594
428.861380,6513.812290,5362.668486,6661.853478
428.861706,3404.947333,3524.039291,8586.388927
428.862031,2072.576638,2068.457845,10066.800811
428.862356,-814.226536,0.000000,10881.027347
428.862682,-3923.091493,-3140.991542,11843.295072
428.863007,-6809.894666,-6818.249932,12065.356855
428.863332,-6291.750507,-8656.879127,11621.233289
428.863658,-5181.441594,-5822.325785,13175.665768
428.863983,-4515.256246,-1762.019645,12731.542202
428.864308,-2146.597232,-536.266849,10658.965565
428.864634,1924.535449,-383.047749,8068.244768
428.864959,4441.235652,4213.525239,7105.977043
428.865284,5625.565159,5439.278036,5477.523971
428.865610,5255.462188,5132.839837,5033.400406
428.865935,5921.647536,5362.668486,6217.729913
428.866260,4959.379811,5286.058936,7994.224174
428.866586,1998.556043,3524.039291,8808.450710
428.866911,-370.102971,612.876398,9474.636058
428.867236,-2516.700203,-1762.019645,11103.089130
428.867562,-4441.235652,-3524.039291,12805.562797
428.867887,-4293.194464,-6511.811733,12657.521608
428.868212,-4145.153275,-5132.839837,12213.398043
428.868538,-2886.803174,-1455.581446,11621.233289
428.868863,888.247130,689.485948,9992.780217
428.869188,3923.091493,2604.724693,8660.409521
428.869514,4145.153275,5209.449386,7328.038826
428.869839,3478.967927,5745.716235,4811.338623
428.870164,6217.729913,5132.839837,3997.112087
428.870490,6735.874072,6894.859482,5847.626942
428.870815,2368.659014,5898.935335,7698.141797
428.871140,-1480.411884,2987.772442,8956.491898
428.871466,-3478.967927,153.219100,9548.656652
428.871791,-6439.791695,-2681.334243,11029.068536
428.872116,-7994.224174,-4366.744339,12657.521608
428.872442,-9030.512492,-7277.907231,10732.986159
428.872767,-8438.347739,-7277.907231,11843.295072
428.873092,-5699.585753,-3447.429741,12805.562797
428.873418,-2368.659014,153.219100,12509.480420
428.873743,148.041188,1532.190996,9696.697840
428.874068,1924.535449,2681.334243,7105.977043
428.874394,4441.235652,4519.963438,6439.791695
428.874719,6957.935855,6818.249932,6217.729913
428.875044,6587.832884,6818.249932,6587.832884
428.875369,3552.988522,4596.572988,6069.688724
428.875695,1332.370696,2451.505594,6365.771101
428.876020,1776.494261,1149.143247,8956.491898
428.876345,-1110.308913,383.047749,12435.459826
428.876670,-5551.544565,-2374.896044,13915.871710
428.876995,-5699.585753,-7048.078582,10140.821405
428.877321,-2738.761985,-8120.612279,10584.944971
428.877646,-1554.432478,-2451.505594,11695.253884
428.877971,-148.041188,1225.752797,10362.883188
428.878296,2072.576638,612.876398,9252.574275
428.878621,4515.256246,1455.581446,8882.471304
428.878947,5329.482782,3753.867940,9030.512492
428.879272,5255.462188,4903.011187,6217.729913
428.879597,4663.297435,4060.306139,4589.276840
428.879922,3627.009116,3677.258390,6883.915261
428.880247,1776.494261,2451.505594,9104.533087
428.880572,-666.185348,459.657299,10881.027347
428.880898,-3478.967927,-1838.629195,10955.047942
428.881223,-6513.812290,-3524.039291,11029.068536
428.881548,-6957.935855,-6281.983084,10732.986159
428.881873,-4293.194464,-7431.126331,12435.459826
428.882198,-2738.761985,-3600.648841,13471.748144
428.882524,-740.205942,-306.438199,11399.171507
428.882849,2442.679609,689.485948,10362.883188
428.883174,4959.379811,3983.696590,8586.388927
428.883499,5847.626942,5822.325785,6809.894666
428.883824,5995.668130,5745.716235,5181.441594
428.884150,7328.038826,6281.983084,5033.400406
428.884475,5847.626942,6435.202183,7402.059420
428.884800,2368.659014,4826.401637,7476.080014
428.885125,-222.061783,2145.067394,7624.121203
428.885450,-3330.926739,153.219100,9548.656652
428.885776,-6809.894666,-919.314598,11177.109724
428.886101,-7846.182985,-4443.353888,12065.356855
428.886426,-7105.977043,-5898.935335,10807.006753
428.886751,-6069.688724,-3983.696590,10881.027347
428.887076,-4663.297435,0.000000,11695.253884
428.887401,-962.267725,1302.362347,10288.862594
428.887727,1998.556043,1608.800546,8068.244768
428.888052,2886.803174,4290.134789,8438.347739
428.888377,3404.947333,5439.278036,7105.977043
428.888702,5033.400406,5209.449386,6217.729913
428.889027,5255.462188,4903.011187,6883.915261
428.889353,2220.617826,4060.306139,7624.121203
428.889678,0.000000,2528.115143,7846.182985
428.890003,-666.185348,1302.362347,11325.150913
428.890328,-3775.050304,-1378.971896,13471.748144
428.890653,-6513.812290,-3983.696590,12361.439231
428.890979,-5329.482782,-7584.345430,9918.759623
428.891304,-3108.864956,-6358.592633,11399.171507
428.891629,-1332.370696,-383.047749,10807.006753
428.891954,1258.350101,995.924147,10436.903782
428.892279,3849.070898,1762.019645,8734.430116
428.892605,4959.379811,3217.601092,7179.997637
428.892930,5847.626942,4366.744339,4737.318029
428.893255,7328.038826,4903.011187,3701.029710
428.893580,6513.812290,5362.668486,5625.565159
428.893905,4293.194464,4366.744339,8438.347739
428.894230,2368.659014,1915.238745,10214.842000
428.894556,370.102971,-919.314598,11843.295072
428.894881,-3923.091493,-2451.505594,11769.274478
428.895206,-6069.688724,-4903.011187,12139.377449
428.895531,-5773.606348,-7584.345430,12287.418637
428.895856,-4441.235652,-8197.221829,13767.830521
428.896182,-4293.194464,-4519.963438,13471.748144
428.896507,-1998.556043,-1072.533697,11843.295072
428.896832,1776.494261,689.485948,8142.265362
428.897157,3552.988522,3370.820191,7105.977043
428.897482,3923.091493,4443.353888,6069.688724
428.897808,5181.441594,4979.620737,5181.441594
428.898133,4959.379811,4979.620737,5625.565159
428.898458,3997.112087,4596.572988,7254.018232
428.898783,1702.473667,4060.306139,8512.368333
428.899108,-1332.370696,1608.800546,9104.533087
428.899434,-3627.009116,-1608.800546,10732.986159
428.899759,-5551.544565,-2911.162892,12361.439231
428.900084,-6143.709319,-6435.202183,11769.274478
428.900409,-6883.915261,-6435.202183,11251.130318
428.900734,-5699.585753,-3370.820191,11251.130318
428.901060,-3701.029710,-689.485948,10510.924376
428.901385,148.041188,1149.143247,9030.512492
428.901710,1924.535449,3753.867940,7772.162391
428.902035,1702.473667,5669.106685,6587.832884
428.902360,3404.947333,5439.278036,3997.112087
428.902685,5773.606348,5515.887586,5107.421000
428.903011,3997.112087,5439.278036,6883.915261
428.903336,0.000000,4596.572988,7920.203579
428.903661,-1332.370696,995.924147,9548.656652
428.903986,-3108.864956,-919.314598,12361.439231
428.904311,-5847.626942,-2681.334243,14434.015869
428.904637,-7105.977043,-5439.278036,13027.624579
428.904962,-6143.709319,-8733.488677,10955.047942
428.905287,-4441.235652,-6588.421283,12139.377449
428.905612,-1110.308913,76.609550,12731.542202
428.905937,2220.617826,3064.381992,11251.130318
428.906263,4663.297435,2834.553343,7698.141797
428.906588,5921.647536,4213.525239,6587.832884
428.906913,8290.306550,6818.249932,4885.359217
428.907238,9252.574275,7660.954980,4737.318029
428.907563,7179.997637,5822.325785,5329.482782
428.907889,3404.947333,4060.306139,6883.915261
428.908214,1406.391290,2451.505594,9178.553681
428.908539,222.061783,153.219100,11547.212695
428.908864,-4071.132681,-3677.258390,12361.439231
428.909189,-7476.080014,-6665.030833,10584.944971
428.909514,-5625.565159,-9039.926876,10732.986159
428.909840,-2590.720797,-6281.983084,13619.789333
428.910165,-1036.288319,-689.485948,12213.398043
428.910490,814.226536,689.485948,10436.903782
428.910815,4959.379811,2681.334243,8808.450710
428.911140,6587.832884,5898.935335,8068.244768
428.911466,7031.956449,5209.449386,5847.626942
428.911791,6809.894666,4596.572988,4219.173869
428.912116,5329.482782,5592.497135,6365.771101
428.912441,2516.700203,4749.792088,8956.491898
428.912766,-740.205942,2068.457845,9992.780217
428.913092,-4071.132681,-1455.581446,10584.944971
428.913417,-8290.306550,-2681.334243,11473.192101
428.913742,-9326.594869,-5132.839837,10510.924376
428.914067,-6957.935855,-8273.831378,10436.903782
428.914392,-5477.523971,-6588.421283,12435.459826
428.914718,-5403.503377,76.609550,11769.274478
428.915043,-592.164754,1455.581446,9992.780217
428.915368,4367.215058,1991.848295,7920.203579
428.915693,4663.297435,4749.792088,6143.709319
428.916018,4589.276840,6281.983084,6217.729913
428.916343,5847.626942,5822.325785,4737.318029
428.916669,5847.626942,5132.839837,7105.977043
428.916994,1628.453072,3600.648841,9104.533087
428.917319,-1480.411884,2528.115143,9030.512492
428.917644,-3701.029710,0.000000,9696.697840
428.917969,-6439.791695,-2374.896044,12879.583391
428.918295,-8956.491898,-4443.353888,14063.912898
428.918620,-9030.512492,-7737.564530,12287.418637
428.918945,-6661.853478,-8120.612279,11177.109724
428.919270,-3997.112087,-2451.505594,11177.109724
428.919595,-1406.391290,1991.848295,10362.883188
428.919921,2294.638420,2757.943793,8956.491898
428.920246,4737.318029,3447.429741,7105.977043
428.920571,5847.626942,4673.182538,6217.729913
428.920896,6365.771101,6971.469032,4293.194464
428.921221,7772.162391,6818.249932,4145.153275
428.921547,7105.977043,5362.668486,5773.606348
428.921872,2738.761985,3677.258390,7254.018232
428.922197,814.226536,1991.848295,9770.718434
428.922522,0.000000,-689.485948,13175.665768
428.922847,-3701.029710,-3447.429741,13471.748144
428.923173,-5033.400406,-6358.592633,11177.109724
428.923498,-2146.597232,-7201.297681,12065.356855
428.923823,-1776.494261,-1608.800546,12953.603985
428.924148,-518.144159,-306.438199,11103.089130
428.924473,2886.803174,0.000000,9696.697840
428.924798,4589.276840,3064.381992,7920.203579
428.925124,4737.318029,4673.182538,6587.832884
428.925449,5033.400406,4903.011187,4811.338623
428.925774,4811.338623,4366.744339,5255.462188
428.926099,2368.659014,3524.039291,7402.059420
428.926424,518.144159,3064.381992,8364.327145
428.926750,-666.185348,536.266849,10881.027347
428.927075,-4219.173869,-1225.752797,11547.212695
428.927400,-6735.874072,-4519.963438,11621.233289
428.927725,-7550.100608,-7201.297681,11177.109724
428.928050,-4441.235652,-7967.393179,11991.336260
428.928376,-3182.885551,-3524.039291,12805.562797
428.928701,-1406.391290,-306.438199,11843.295072
428.929026,1628.453072,919.314598,10066.800811
428.929351,4885.359217,3217.601092,7328.038826
428.929676,5255.462188,4979.620737,5921.647536
428.930002,5033.400406,5209.449386,4071.132681
428.930327,4737.318029,4979.620737,4515.256246
428.930652,4293.194464,4903.011187,7328.038826
428.930977,1110.308913,3677.258390,9178.553681
428.931302,-2812.782580,612.876398,9104.533087
428.931627,-6439.791695,-1149.143247,9992.780217
428.931953,-7994.224174,-3064.381992,12805.562797
428.932278,-8660.409521,-7201.297681,11547.212695
428.932603,-7994.224174,-9346.365076,11621.233289
428.932928,-7402.059420,-6511.811733,11843.295072
428.933253,-5033.400406,-1149.143247,10955.047942
428.933579,444.123565,1378.971896,10140.821405
428.933904,3997.112087,2911.162892,9696.697840
428.934229,4441.235652,4136.915689,7698.141797
428.934554,5255.462188,5286.058936,5477.523971
428.934879,8808.450710,5822.325785,5625.565159
428.935205,8512.368333,6971.469032,7698.141797
428.935530,4441.235652,4903.011187,8068.244768
428.935855,814.226536,2068.457845,9030.512492
428.936180,-1258.350101,383.047749,10362.883188
428.936505,-3701.029710,-2068.457845,12361.439231
428.936831,-6069.688724,-5286.058936,12139.377449
428.937156,-7105.977043,-7660.954980,9548.656652
428.937481,-4959.379811,-5209.449386,11251.130318
428.937806,-1850.514855,-612.876398,11917.315666
428.938131,592.164754,842.705048,9548.656652
428.938456,3330.926739,2298.286494,7031.956449
428.938782,5255.462188,5822.325785,6587.832884
428.939107,6957.935855,7354.516781,5773.606348
428.939432,9400.615463,7048.078582,6069.688724
428.939757,8882.471304,6435.202183,6809.894666
428.940082,4219.173869,5745.716235,7402.059420
428.940408,1406.391290,3447.429741,8734.430116
428.940733,296.082377,459.657299,11325.150913
428.941058,-3775.050304,-1762.019645,13397.727550
428.941383,-7920.203579,-4060.306139,12435.459826
428.941708,-8438.347739,-7737.564530,10362.883188
428.942034,-5477.523971,-7431.126331,11917.315666
428.942359,-3627.009116,-1302.362347,12435.459826
428.942684,-2368.659014,612.876398,10362.883188
428.943009,444.123565,1685.410096,8734.430116
428.943334,3849.070898,4519.963438,7179.997637
428.943660,5033.400406,5362.668486,6439.791695
428.943985,4663.297435,5592.497135,4515.256246
428.944310,4663.297435,5286.058936,5625.565159
428.944635,2960.823768,4903.011187,7624.121203
428.944960,148.041188,2681.334243,10066.800811
428.945285,-2516.700203,-536.266849,11177.109724
428.945611,-5625.565159,-2528.115143,11029.068536
428.945936,-7846.182985,-4596.572988,11251.130318
428.946261,-7031.956449,-7354.516781,11103.089130
428.946586,-4293.194464,-7124.688131,12065.356855
428.946911,-3849.070898,-1685.410096,11029.068536
428.947237,-1628.453072,536.266849,10066.800811
428.947562,2886.803174,842.705048,9252.574275
428.947887,5033.400406,3983.696590,8068.244768
428.948212,4663.297435,4979.620737,6957.935855
428.948537,4663.297435,4136.915689,5403.503377
428.948863,5921.647536,3830.477490,6735.874072
428.949188,4071.132681,3907.087040,9622.677246
428.949513,296.082377,1991.848295,9844.739029
428.949838,-1998.556043,-536.266849,9548.656652
428.950163,-4589.276840,-2911.162892,9918.759623
428.950489,-6217.729913,-3600.648841,11621.233289
428.950814,-6291.750507,-5745.716235,10807.006753
428.951139,-4663.297435,-6358.592633,9030.512492
428.951464,-3256.906145,-2298.286494,10881.027347
428.951789,-962.267725,306.438199,11547.212695
428.952115,2442.679609,1302.362347,9770.718434
428.952440,4071.132681,2145.067394,8438.347739
428.952765,5847.626942,3830.477490,6957.935855
428.953090,5847.626942,5439.278036,6439.791695
428.953415,7105.977043,5669.106685,6439.791695
428.953740,6809.894666,4903.011187,7105.977043
428.954066,2442.679609,3140.991542,8364.327145
428.954391,370.102971,2298.286494,9178.553681
428.954716,296.082377,1225.752797,11621.233289
428.955041,-2664.741391,-1838.629195,12435.459826
428.955366,-6513.812290,-4979.620737,11473.192101
428.955692,-4737.318029,-6128.763984,10955.047942
428.956017,-3330.926739,-2757.943793,11991.336260
428.956342,-2442.679609,76.609550,11103.089130
428.956667,-222.061783,842.705048,10288.862594
428.956992,2146.597232,2221.676944,8216.285956
428.957318,2738.761985,4443.353888,7328.038826
428.957643,2960.823768,4366.744339,5773.606348
428.957968,3552.988522,4596.572988,4663.297435
428.958293,2072.576638,5439.278036,6143.709319
428.958618,-814.226536,4826.401637,8068.244768
428.958944,-1702.473667,1838.629195,9178.553681
428.959269,-2738.761985,0.000000,9844.739029
428.959594,-6439.791695,-1915.238745,10584.944971
428.959919,-7624.121203,-4290.134789,10881.027347
428.960244,-5477.523971,-6435.202183,10066.800811
428.960569,-3923.091493,-3677.258390,11991.336260
428.960895,-2664.741391,-536.266849,12361.439231
428.961220,0.000000,306.438199,9844.739029
428.961545,3108.864956,1838.629195,7179.997637
428.961870,5255.462188,4826.401637,7772.162391
428.962195,5329.482782,5209.449386,7772.162391
428.962521,4441.235652,4366.744339,6069.688724
428.962846,4663.297435,4060.306139,7179.997637
428.963171,2812.782580,3830.477490,9474.636058
428.963496,74.020594,2681.334243,9770.718434
428.963821,-2146.597232,-612.876398,9770.718434
428.964147,-5033.400406,-3677.258390,10436.903782
428.964472,-6883.915261,-4903.011187,11547.212695
428.964797,-5329.482782,-6358.592633,11029.068536
428.965122,-3701.029710,-5209.449386,10510.924376
428.965447,-3478.967927,-2374.896044,11325.150913
428.965773,148.041188,-306.438199,9918.759623
428.966098,4737.318029,995.924147,8290.306550
428.966423,6513.812290,3064.381992,8808.450710
428.966748,5847.626942,4060.306139,6957.935855
428.967073,7105.977043,5439.278036,5699.585753
428.967398,9326.594869,5669.106685,7254.018232
428.967724,6513.812290,4596.572988,8586.388927
428.968049,1850.514855,2221.676944,8734.430116
428.968374,0.000000,766.095498,9696.697840
428.968699,-1184.329507,-2221.676944,11843.295072
428.969024,-5033.400406,-3907.087040,12139.377449
428.969350,-6883.915261,-6435.202183,10732.986159
428.969675,-5921.647536,-6665.030833,10510.924376
428.970000,-4293.194464,-2528.115143,11843.295072
428.970325,-2368.659014,-536.266849,11621.233289
428.970650,0.000000,536.266849,9474.636058
428.970976,2442.679609,2068.457845,7550.100608
428.971301,3627.009116,5286.058936,6957.935855
428.971626,4219.173869,5132.839837,6513.812290
428.971951,4959.379811,4903.011187,6439.791695
428.972276,3330.926739,5286.058936,7550.100608
428.972602,-444.123565,4136.915689,9326.594869
428.972927,-962.267725,612.876398,9622.677246
428.973252,-2738.761985,-1149.143247,10732.986159
428.973577,-6957.935855,-3217.601092,11177.109724
428.973902,-8586.388927,-5132.839837,10362.883188
428.974228,-5847.626942,-6358.592633,11029.068536
428.974553,-3330.926739,-2145.067394,12509.480420
428.974878,-2368.659014,76.609550,11251.130318
428.975203,-296.082377,459.657299,7846.182985
428.975528,3330.926739,3907.087040,7105.977043
428.975853,5995.668130,5439.278036,7254.018232
428.976179,5403.503377,5822.325785,5699.585753
428.976504,4959.379811,5286.058936,5625.565159
428.976829,3997.112087,5439.278036,7105.977043
428.977154,1702.473667,3753.867940,8660.409521
428.977479,-370.102971,1149.143247,9178.553681
428.977804,-3849.070898,-1532.190996,9622.677246
428.978129,-6439.791695,-3217.601092,12213.398043
428.978455,-6069.688724,-6128.763984,11991.336260
428.978780,-4515.256246,-7431.126331,11843.295072
428.979105,-3404.947333,-4060.306139,12657.521608
428.979430,-1776.494261,-383.047749,10066.800811
428.979755,2442.679609,842.705048,10066.800811
428.980080,6809.894666,2221.676944,8660.409521
428.980406,6439.791695,4596.572988,8290.306550
428.980731,6143.709319,5132.839837,6513.812290
428.981056,7402.059420,4979.620737,5107.421000
428.981381,6883.915261,4673.182538,7254.018232
428.981706,2368.659014,3677.258390,8956.491898
428.982031,-370.102971,612.876398,9548.656652
428.982356,-2220.617826,-1915.238745,11251.130318
428.982682,-4811.338623,-3064.381992,11843.295072
428.983007,-6069.688724,-5515.887586,11917.315666
428.983332,-5181.441594,-7354.516781,10955.047942
428.983657,-3256.906145,-3600.648841,11325.150913
428.983982,-1258.350101,0.000000,11251.130318
428.984307,592.164754,229.828649,10584.944971
428.984633,3627.009116,2221.676944,7328.038826
428.984958,4737.318029,4519.963438,7328.038826
428.985283,4589.276840,5745.716235,6883.915261
428.985608,4589.276840,4443.353888,6217.729913
428.985933,4219.173869,3830.477490,7105.977043
428.986258,1184.329507,3370.820191,8216.285956
428.986583,-2368.659014,1991.848295,9030.512492
428.986909,-4071.132681,-995.924147,10140.821405
428.987234,-5847.626942,-2987.772442,11177.109724
428.987559,-8882.471304,-4596.572988,11251.130318
428.987884,-7031.956449,-6894.859482,9474.636058
428.988209,-4737.318029,-4979.620737,11473.192101
428.988534,-3627.009116,-689.485948,10955.047942
428.988860,-1924.535449,842.705048,10362.883188
428.989185,2072.576638,1762.019645,7994.224174
428.989510,3775.050304,4290.134789,7402.059420
428.989835,3256.906145,4749.792088,5921.647536
428.990160,4663.297435,4903.011187,5403.503377
428.990485,4885.359217,5056.230287,7698.141797
428.990810,2220.617826,4213.525239,9252.574275
428.991136,888.247130,1991.848295,9474.636058
428.991461,-592.164754,-383.047749,10362.883188
428.991786,-3256.906145,-995.924147,10362.883188
428.992111,-4885.359217,-4213.525239,11547.212695
428.992436,-5107.421000,-5975.544884,11473.192101
428.992761,-3775.050304,-4749.792088,11399.171507
428.993087,-2442.679609,-1455.581446,11325.150913
428.993412,-962.267725,-1072.533697,9770.718434
428.993737,1702.473667,919.314598,8364.327145
428.994062,3775.050304,4060.306139,8216.285956
428.994387,5033.400406,4366.744339,7550.100608
428.994712,4663.297435,3370.820191,5625.565159
428.995038,4663.297435,4060.306139,5329.482782
428.995363,4515.256246,4979.620737,8216.285956
428.995688,2072.576638,3140.991542,9400.615463
428.996013,-296.082377,383.047749,9992.780217
428.996338,-1776.494261,-2298.286494,11251.130318
428.996663,-3256.906145,-2374.896044,11843.295072
428.996988,-3701.029710,-4596.572988,11473.192101
428.997314,-2516.700203,-4443.353888,10807.006753
428.997639,-1998.556043,-1915.238745,10362.883188
428.997964,-666.185348,0.000000,9252.574275
428.998289,2960.823768,2068.457845,9252.574275
428.998614,4737.318029,4290.134789,8512.368333
428.998939,3997.112087,4979.620737,7179.997637
428.999265,4071.132681,4749.792088,5699.585753
428.999590,5995.668130,4826.401637,5847.626942
428.999915,4071.132681,4903.011187,8068.244768
429.000240,222.061783,3064.381992,9400.615463
429.000565,-1776.494261,689.485948,10362.883188
429.000890,-2960.823768,-536.266849,11399.171507
429.001215,-5847.626942,-3217.601092,11917.315666
429.001541,-7772.162391,-5592.497135,11251.130318
429.001866,-7476.080014,-6665.030833,10362.883188
429.002191,-5699.585753,-3370.820191,10732.986159
429.002516,-2516.700203,-842.705048,10584.944971
429.002841,0.000000,1608.800546,9622.677246
429.003166,2220.617826,3600.648841,6957.935855
429.003492,3627.009116,4443.353888,7328.038826
429.003817,4071.132681,4903.011187,6957.935855
429.004142,5551.544565,5439.278036,6143.709319
429.004467,5255.462188,5132.839837,6883.915261
429.004792,1406.391290,3907.087040,8142.265362
429.005117,0.000000,1915.238745,8734.430116
429.005442,-1850.514855,-383.047749,10955.047942
429.005768,-4737.318029,-2911.162892,11917.315666
429.006093,-7698.141797,-5515.887586,9474.636058
429.006418,-5995.668130,-7507.735880,8660.409521
429.006743,-3256.906145,-3447.429741,11621.233289
429.007068,-2220.617826,229.828649,12065.356855
429.007393,-1628.453072,-612.876398,10584.944971
429.007719,2442.679609,-306.438199,7698.141797
429.008044,5329.482782,3217.601092,7994.224174
429.008369,6365.771101,5362.668486,7772.162391
429.008694,5403.503377,4366.744339,7328.038826
429.009019,5033.400406,3294.210641,7476.080014
429.009344,3849.070898,3140.991542,8586.388927
429.009669,1480.411884,1685.410096,9770.718434
429.009995,-1036.288319,-689.485948,10584.944971
429.010320,-4071.132681,-2834.553343,11251.130318
429.010645,-6069.688724,-5056.230287,12509.480420
429.010970,-4293.194464,-7277.907231,11991.336260
429.011295,-2516.700203,-5898.935335,11843.295072
429.011620,-2146.597232,-766.095498,9992.780217
429.011946,888.247130,919.314598,9400.615463
429.012271,3997.112087,2298.286494,9178.553681
429.012596,5033.400406,4366.744339,8364.327145
429.012921,5403.503377,5592.497135,6513.812290
429.013246,5477.523971,4979.620737,4293.194464
429.013571,5329.482782,4903.011187,6069.688724
429.013896,2516.700203,4596.572988,8364.327145
429.014222,-370.102971,2911.162892,9252.574275
429.014547,-2072.576638,229.828649,9844.739029
429.014872,-4811.338623,-2221.676944,10436.903782
429.015197,-6957.935855,-3524.039291,12139.377449
429.015522,-6291.750507,-5592.497135,10658.965565
429.015847,-5107.421000,-5439.278036,10732.986159
429.016173,-4145.153275,-2068.457845,11547.212695
429.016498,-1480.411884,689.485948,10955.047942
429.016823,1258.350101,2298.286494,8882.471304
429.017148,3404.947333,3830.477490,7476.080014
429.017473,4145.153275,4136.915689,7179.997637
429.017798,4145.153275,5439.278036,6513.812290
429.018123,4959.379811,5515.887586,6291.750507
429.018449,2886.803174,4519.963438,7476.080014
429.018774,-888.247130,3217.601092,8068.244768
429.019099,-2442.679609,2374.896044,8808.450710
429.019424,-2960.823768,-689.485948,10955.047942
429.019749,-5255.462188,-3217.601092,11547.212695
429.020074,-6365.771101,-5209.449386,9992.780217
429.020400,-3775.050304,-4596.572988,10584.944971
429.020725,-1924.535449,-1378.971896,11177.109724
429.021050,-1036.288319,0.000000,9992.780217
429.021375,1184.329507,612.876398,8882.471304
429.021700,4663.297435,3600.648841,7402.059420
429.022025,4737.318029,4903.011187,7179.997637
429.022350,4737.318029,3907.087040,5699.585753
429.022676,5107.421000,3524.039291,6069.688724
429.023001,3552.988522,4366.744339,7994.224174
429.023326,740.205942,2681.334243,9992.780217
429.023651,-296.082377,0.000000,10732.986159
429.023976,-2442.679609,-2068.457845,11177.109724
429.024301,-5921.647536,-4136.915689,11399.171507
429.024627,-5403.503377,-6281.983084,12065.356855
429.024952,-3701.029710,-7431.126331,12139.377449
429.025277,-2590.720797,-4366.744339,12805.562797
429.025602,-370.102971,-612.876398,11843.295072
429.025927,2294.638420,995.924147,10288.862594
429.026252,4959.379811,2681.334243,7624.121203
429.026577,6661.853478,4213.525239,7698.141797
429.026903,6439.791695,4826.401637,5995.668130
429.027228,4811.338623,4903.011187,4293.194464
429.027553,5403.503377,4979.620737,6069.688724
429.027878,2812.782580,4366.744339,7994.224174
429.028203,-1850.514855,1915.238745,9252.574275
429.028528,-4811.338623,0.000000,9548.656652
429.028854,-5033.400406,-2681.334243,10807.006753
429.029179,-6365.771101,-4673.182538,11621.233289
429.029504,-7105.977043,-6281.983084,9548.656652
429.029829,-6217.729913,-5898.935335,10658.965565
429.030154,-4219.173869,-1149.143247,11251.130318
429.030479,-1184.329507,995.924147,11103.089130
429.030804,2812.782580,919.314598,9326.594869
429.031130,3478.967927,3140.991542,8734.430116
429.031455,3701.029710,5132.839837,7105.977043
429.031780,5625.565159,6052.154434,6661.853478
429.032105,7105.977043,5592.497135,8068.244768
429.032430,3997.112087,4826.401637,8068.244768
429.032755,222.061783,3447.429741,8586.388927
429.033081,-444.123565,1072.533697,10436.903782
429.033406,-1998.556043,-1378.971896,11991.336260
429.033731,-5847.626942,-3600.648841,12657.521608
429.034056,-7031.956449,-6358.592633,10584.944971
429.034381,-5033.400406,-5669.106685,10288.862594
429.034706,-3034.844362,-1378.971896,10881.027347
429.035031,-148.041188,536.266849,10214.842000
429.035357,1554.432478,1838.629195,8068.244768
429.035682,2812.782580,3830.477490,6587.832884
429.036007,5329.482782,5362.668486,6661.853478
429.036332,7179.997637,5975.544884,5033.400406
429.036657,5995.668130,5822.325785,5995.668130
429.036982,2738.761985,5439.278036,6587.832884
429.037308,0.000000,3294.210641,8660.409521
429.037633,-444.123565,0.000000,9844.739029
429.037958,-2220.617826,-2221.676944,11325.150913
429.038283,-6883.915261,-3830.477490,11177.109724
429.038608,-7476.080014,-6205.373534,11177.109724
429.038933,-3849.070898,-7737.564530,12657.521608
429.039258,-1998.556043,-3983.696590,13619.789333
429.039584,-1406.391290,0.000000,11325.150913
429.039909,1998.556043,1532.190996,9400.615463
429.040234,6217.729913,3753.867940,8512.368333
429.040559,7846.182985,4979.620737,8290.306550
429.040884,6513.812290,5515.887586,6735.874072
429.041209,5995.668130,5898.935335,5551.544565
429.041535,5255.462188,5439.278036,6957.935855
429.041860,2294.638420,3140.991542,9030.512492
429.042185,-962.267725,995.924147,10140.821405
429.042510,-4367.215058,-1608.800546,10510.924376
429.042835,-7920.203579,-3524.039291,11325.150913
429.043160,-7550.100608,-6741.640382,10066.800811
429.043486,-5551.544565,-8350.440928,10881.027347
429.043811,-5699.585753,-3064.381992,11103.089130
429.044136,-4145.153275,842.705048,9252.574275
429.044461,296.082377,689.485948,9326.594869
429.044786,3627.009116,2451.505594,7846.182985
429.045111,4071.132681,4826.401637,6365.771101
429.045436,3775.050304,5898.935335,3997.112087
429.045762,5773.606348,5515.887586,3849.070898
429.046087,4219.173869,5286.058936,7402.059420
429.046412,740.205942,3907.087040,9030.512492
429.046737,-962.267725,1608.800546,9548.656652
429.047062,-2960.823768,-1915.238745,10288.862594
429.047387,-6217.729913,-3524.039291,12731.542202
429.047713,-6439.791695,-5132.839837,13471.748144
429.048038,-4737.318029,-7737.564530,13175.665768
429.048363,-3627.009116,-5286.058936,12731.542202
429.048688,-1702.473667,-1072.533697,12361.439231
429.049013,2368.659014,1532.190996,11325.150913
429.049338,4219.173869,3217.601092,8734.430116
429.049663,4737.318029,3064.381992,7550.100608
429.049989,5033.400406,5515.887586,6587.832884
429.050314,5477.523971,6358.592633,5033.400406
429.050639,4663.297435,4979.620737,5995.668130
429.050964,1258.350101,3064.381992,6957.935855
429.051289,-2886.803174,1915.238745,7550.100608
429.051614,-3478.967927,-383.047749,9992.780217
429.051940,-4811.338623,-4136.915689,11103.089130
429.052265,-7846.182985,-5209.449386,10807.006753
429.052590,-6661.853478,-7814.174080,10807.006753
429.052915,-3330.926739,-6588.421283,11621.233289
429.053240,-1332.370696,-1378.971896,11177.109724
429.053565,1406.391290,689.485948,11325.150913
429.053890,4885.359217,2298.286494,8956.491898
429.054216,7476.080014,4903.011187,8512.368333
429.054541,7328.038826,5669.106685,7550.100608
429.054866,7402.059420,5898.935335,5551.544565
429.055191,6513.812290,5439.278036,5699.585753
429.055516,3775.050304,4903.011187,7994.224174
429.055841,962.267725,3677.258390,10140.821405
429.056167,-962.267725,536.266849,11843.295072
429.056492,-4515.256246,-2145.067394,11769.274478
429.056817,-7772.162391,-4519.963438,11695.253884
429.057142,-6661.853478,-8427.050478,10436.903782
429.057467,-5477.523971,-6894.859482,11695.253884
429.057792,-5403.503377,-1378.971896,11991.336260
429.058117,-2072.576638,842.705048,9696.697840
429.058443,2294.638420,2374.896044,7698.141797
429.058768,3849.070898,5209.449386,6735.874072
429.059093,4515.256246,6741.640382,5255.462188
429.059418,4367.215058,6511.811733,3849.070898
429.059743,4737.318029,5898.935335,6143.709319
429.060068,3775.050304,5286.058936,7772.162391
429.060394,1332.370696,4136.915689,8364.327145
429.060719,-1258.350101,1455.581446,9622.677246
429.061044,-4515.256246,-766.095498,11029.068536
429.061369,-6291.750507,-4596.572988,11991.336260
429.061694,-4811.338623,-7354.516781,12139.377449
429.062019,-4367.215058,-6894.859482,11991.336260
429.062344,-4293.194464,-2528.115143,11843.295072
429.062670,-1406.391290,-536.266849,10881.027347
429.062995,2886.803174,1455.581446,9622.677246
429.063320,5181.441594,3830.477490,8882.471304
429.063645,4589.276840,4060.306139,6957.935855
429.063970,4959.379811,5132.839837,5329.482782
429.064295,7698.141797,5439.278036,6883.915261
429.064621,5403.503377,4903.011187,7920.203579
429.064946,592.164754,2681.334243,8364.327145
429.065271,-2072.576638,689.485948,8438.347739
429.065596,-2812.782580,-1532.190996,11177.109724
429.065921,-5699.585753,-2987.772442,12731.542202
429.066246,-8216.285956,-6205.373534,11843.295072
429.066571,-7179.997637,-9039.926876,9992.780217
429.066897,-4737.318029,-7660.954980,9770.718434
429.067222,-1554.432478,-1378.971896,10584.944971
429.067547,1628.453072,2374.896044,10288.862594
429.067872,3182.885551,2987.772442,9474.636058
429.068197,5181.441594,2681.334243,7254.018232
429.068522,7031.956449,4903.011187,6587.832884
429.068848,9178.553681,6205.373534,5551.544565
429.069173,7105.977043,5592.497135,7031.956449
429.069498,3404.947333,3524.039291,8586.388927
429.069823,1184.329507,1608.800546,10436.903782
429.070148,-1110.308913,0.000000,11843.295072
429.070473,-4663.297435,-3447.429741,12509.480420
429.070798,-7994.224174,-5822.325785,10214.842000
429.071124,-6883.915261,-8656.879127,10807.006753
429.071449,-4811.338623,-6205.373534,13767.830521
429.071774,-3923.091493,-1149.143247,12583.501014
429.072099,-1776.494261,0.000000,9474.636058
429.072424,1406.391290,1915.238745,7550.100608
429.072749,4811.338623,5439.278036,7550.100608
429.073075,5033.400406,6588.421283,6439.791695
429.073400,5255.462188,6205.373534,4737.318029
429.073725,5329.482782,6205.373534,5625.565159
429.074050,3182.885551,6894.859482,7328.038826
429.074376,148.041188,4596.572988,8216.285956
429.074701,-2368.659014,306.438199,9252.574275
429.075026,-6217.729913,-2068.457845,10510.924376
429.075352,-8734.430116,-3983.696590,11695.253884
429.075677,-6217.729913,-6358.592633,11029.068536
429.076002,-5033.400406,-5056.230287,12065.356855
429.076327,-4663.297435,-1072.533697,11103.089130
429.076653,-1702.473667,76.609550,9770.718434
429.076978,2590.720797,1455.581446,8956.491898
429.077303,4441.235652,4596.572988,8068.244768
429.077628,4071.132681,5822.325785,7031.956449
429.077954,5107.421000,5209.449386,4885.359217
429.078279,5773.606348,5362.668486,7105.977043
429.078604,2442.679609,4749.792088,8808.450710
429.078929,-222.061783,2681.334243,9474.636058
429.079255,-1480.411884,153.219100,9696.697840
429.079580,-3701.029710,-1915.238745,11325.150913
429.079905,-6069.688724,-3907.087040,11991.336260
429.080231,-5847.626942,-7048.078582,12065.356855
429.080556,-4959.379811,-7354.516781,11547.212695
429.080881,-2886.803174,-3064.381992,12139.377449
429.081206,148.041188,-766.095498,11325.150913
429.081532,3108.864956,1072.533697,9696.697840
429.081857,4737.318029,2757.943793,7920.203579
429.082182,5847.626942,3907.087040,7031.956449
429.082507,6587.832884,4903.011187,4737.318029
429.082833,7624.121203,5822.325785,5107.421000
429.083158,5551.544565,5592.497135,7179.997637
429.083483,1406.391290,3830.477490,8808.450710
429.083808,-1184.329507,995.924147,9030.512492
429.084134,-2960.823768,-1149.143247,10288.862594
429.084459,-5847.626942,-4060.306139,11251.130318
429.084784,-6735.874072,-7354.516781,8216.285956
429.085110,-3997.112087,-7124.688131,10658.965565
429.085435,-3478.967927,-2528.115143,13397.727550
429.085760,-2812.782580,-1225.752797,12583.501014
429.086085,1110.308913,-919.314598,10436.903782
429.086411,4737.318029,1762.019645,8142.265362
429.086736,5255.462188,5286.058936,7698.141797
429.087061,6661.853478,6128.763984,6365.771101
429.087386,7031.956449,6205.373534,6735.874072
429.087712,4293.194464,5056.230287,8216.285956
429.088037,370.102971,4290.134789,9104.533087
429.088362,74.020594,2068.457845,9474.636058
429.088687,-2590.720797,-536.266849,10214.842000
429.089013,-6957.935855,-3217.601092,11769.274478
429.089338,-8364.327145,-6281.983084,11029.068536
429.089663,-4885.359217,-7890.783629,11103.089130
429.089989,-4737.318029,-3140.991542,11843.295072
429.090314,-3330.926739,0.000000,9844.739029
429.090639,0.000000,766.095498,8586.388927
429.090964,3256.906145,2911.162892,7402.059420
429.091290,5477.523971,5439.278036,7476.080014
429.091615,4885.359217,6511.811733,6069.688724
429.091940,5329.482782,5286.058936,4885.359217
429.092265,5033.400406,6358.592633,6661.853478
429.092591,3182.885551,5515.887586,9178.553681
429.092916,-518.144159,2451.505594,8882.471304
429.093241,-3404.947333,-383.047749,9622.677246
429.093566,-5699.585753,-3447.429741,11473.192101
429.093892,-6883.915261,-5745.716235,12435.459826
429.094217,-5773.606348,-7660.954980,11473.192101
429.094542,-5329.482782,-6588.421283,12287.418637
429.094868,-4737.318029,-2834.553343,11547.212695
429.095193,0.000000,76.609550,9844.739029
429.095518,4885.359217,2451.505594,10140.821405
429.095843,5551.544565,3830.477490,8364.327145
429.096169,5181.441594,4903.011187,6069.688724
429.096494,8290.306550,6128.763984,6291.750507
429.096819,8660.409521,6358.592633,8290.306550
429.097144,4293.194464,5056.230287,8882.471304
429.097470,1184.329507,2145.067394,8882.471304
429.097795,0.000000,383.047749,9474.636058
429.098120,-2886.803174,-1991.848295,11843.295072
429.098445,-5551.544565,-4749.792088,11843.295072
429.098771,-6143.709319,-6971.469032,10066.800811
429.099096,-5699.585753,-6205.373534,10288.862594
429.099421,-3627.009116,-2145.067394,11029.068536
429.099747,-444.123565,0.000000,9770.718434
429.100072,2664.741391,2145.067394,7920.203579
429.100397,3256.906145,4060.306139,7328.038826
429.100722,5181.441594,5515.887586,6957.935855
429.101048,7105.977043,6281.983084,6143.709319
429.101373,6439.791695,5898.935335,6809.894666
429.101698,2442.679609,4596.572988,7550.100608
429.102023,-888.247130,2911.162892,8512.368333
429.102349,-1258.350101,536.266849,10658.965565
429.102674,-4071.132681,-2604.724693,12361.439231
429.102999,-8808.450710,-4290.134789,12213.398043
429.103324,-8734.430116,-7048.078582,10732.986159
429.103650,-6365.771101,-7660.954980,12213.398043
429.103975,-4885.359217,-3140.991542,12731.542202
429.104300,-2960.823768,-153.219100,10510.924376
429.104626,888.247130,1608.800546,8734.430116
429.104951,4737.318029,3524.039291,7698.141797
429.105276,6661.853478,5975.544884,7402.059420
429.105601,6365.771101,6665.030833,5477.523971
429.105927,6513.812290,6665.030833,5995.668130
429.106252,5107.421000,5286.058936,7698.141797
429.106577,2072.576638,2987.772442,9104.533087
429.106902,-740.205942,842.705048,9622.677246
429.107228,-2886.803174,-1762.019645,11103.089130
429.107553,-6587.832884,-4060.306139,11843.295072
429.107878,-7254.018232,-6665.030833,11695.253884
429.108203,-5403.503377,-7967.393179,11769.274478
429.108529,-5255.462188,-4519.963438,11843.295072
429.108854,-3849.070898,-1225.752797,9252.574275
429.109179,148.041188,0.000000,9178.553681
429.109505,3552.988522,2604.724693,9030.512492
429.109830,3552.988522,3294.210641,7105.977043
429.110155,4441.235652,4749.792088,5847.626942
429.110480,6143.709319,5132.839837,5995.668130
429.110806,5255.462188,5209.449386,7994.224174
429.111131,1406.391290,3217.601092,8512.368333
429.111456,-296.082377,689.485948,8956.491898
429.111781,-1110.308913,-1072.533697,9844.739029
429.112107,-3330.926739,-2451.505594,11769.274478
429.112432,-3849.070898,-4136.915689,12657.521608
429.112757,-2960.823768,-4903.011187,11029.068536
429.113082,-1110.308913,-2834.553343,11843.295072
429.113408,0.000000,-689.485948,11399.171507
429.113733,2368.659014,1455.581446,9252.574275
429.114058,3849.070898,3370.820191,8438.347739
429.114384,5773.606348,4903.011187,7624.121203
429.114709,5477.523971,5669.106685,7402.059420
429.115034,4737.318029,5822.325785,5921.647536
429.115359,3923.091493,5056.230287,6365.771101
429.115685,370.102971,3830.477490,7698.141797
429.116010,-2294.638420,2374.896044,8660.409521
429.116335,-3330.926739,229.828649,10658.965565
429.116660,-6809.894666,-2757.943793,10584.944971
429.116986,-8734.430116,-5439.278036,9918.759623
429.117311,-6439.791695,-6128.763984,10807.006753
429.117636,-3997.112087,-3447.429741,12213.398043
429.117961,-3404.947333,-919.314598,11473.192101
429.118287,-592.164754,-612.876398,10584.944971
429.118612,3627.009116,2068.457845,9104.533087
429.118937,5403.503377,5362.668486,8512.368333
429.119263,5995.668130,5898.935335,6365.771101
429.119588,7254.018232,5209.449386,5551.544565
429.119913,6513.812290,6281.983084,6143.709319
429.120238,2664.741391,5745.716235,7624.121203
429.120564,666.185348,3140.991542,8808.450710
429.120889,-1480.411884,766.095498,9548.656652
429.121214,-5699.585753,-1838.629195,10955.047942
429.121539,-7994.224174,-5669.106685,10362.883188
429.121865,-7105.977043,-8733.488677,9992.780217
429.122190,-6069.688724,-7354.516781,11473.192101
429.122515,-4811.338623,-3064.381992,12509.480420
429.122840,-2442.679609,-1378.971896,11473.192101
429.123166,1776.494261,76.609550,8956.491898
429.123491,4885.359217,2604.724693,8364.327145
429.123816,6217.729913,4749.792088,7328.038826
429.124142,6069.688724,5592.497135,6217.729913
429.124467,6365.771101,4979.620737,7105.977043
429.124792,6291.750507,4213.525239,9030.512492
429.125117,2960.823768,3064.381992,10066.800811
429.125443,-444.123565,766.095498,10140.821405
429.125768,-2886.803174,-2068.457845,10881.027347
429.126093,-4737.318029,-4979.620737,11399.171507
429.126418,-4885.359217,-7737.564530,10732.986159
429.126744,-3849.070898,-6435.202183,11621.233289
429.127069,-3330.926739,-1991.848295,10732.986159
429.127394,-1184.329507,-689.485948,9400.615463
429.127719,3404.947333,1149.143247,8290.306550
429.128045,5329.482782,4443.353888,7624.121203
429.128370,3849.070898,6818.249932,6587.832884
429.128695,5699.585753,6358.592633,4811.338623
429.129021,7994.224174,6358.592633,7698.141797
429.129346,4441.235652,5592.497135,8586.388927
429.129671,-444.123565,3600.648841,8660.409521
429.129996,-2294.638420,383.047749,9030.512492
429.130322,-4515.256246,-842.705048,12065.356855
429.130647,-7254.018232,-3524.039291,12953.603985
429.130972,-8808.450710,-6665.030833,10436.903782
429.131297,-7920.203579,-7431.126331,10436.903782
429.131623,-6143.709319,-2681.334243,11177.109724
429.131948,-2738.761985,536.266849,10584.944971
429.132273,74.020594,1685.410096,9252.574275
429.132598,2146.597232,2987.772442,7846.182985
429.132924,3923.091493,5822.325785,7772.162391
429.133249,6291.750507,6588.421283,6217.729913
429.133574,7105.977043,7277.907231,6957.935855
429.133900,4885.359217,5975.544884,6957.935855
429.134225,1258.350101,4673.182538,7846.182985
429.134550,74.020594,2221.676944,9252.574275
429.134875,-1554.432478,-459.657299,11251.130318
429.135201,-5699.585753,-2757.943793,11917.315666
429.135526,-7698.141797,-5209.449386,9474.636058
429.135851,-5107.421000,-7660.954980,8956.491898
429.136176,-3182.885551,-3830.477490,12213.398043
429.136502,-2516.700203,-1149.143247,11325.150913
429.136827,-1110.308913,-306.438199,10140.821405
429.137152,3478.967927,1991.848295,8808.450710
429.137477,5773.606348,4596.572988,9252.574275
429.137803,5625.565159,4903.011187,6143.709319
429.138128,5477.523971,4290.134789,4811.338623
429.138453,3701.029710,5056.230287,7179.997637
429.138779,1480.411884,3983.696590,9030.512492
429.139104,-518.144159,229.828649,9474.636058
429.139429,-3478.967927,-2681.334243,9474.636058
429.139754,-6735.874072,-3600.648841,11251.130318
429.140080,-6661.853478,-5898.935335,11695.253884
429.140405,-4145.153275,-9499.584175,11177.109724
429.140730,-2738.761985,-6205.373534,13101.645173
429.141055,-1850.514855,-612.876398,11547.212695
429.141381,2664.741391,1532.190996,10214.842000
429.141706,6217.729913,2221.676944,9252.574275
429.142031,8068.244768,4443.353888,7994.224174
429.142356,7994.224174,7048.078582,7179.997637
429.142682,8586.388927,6818.249932,5773.606348
429.143007,7179.997637,5362.668486,6957.935855
429.143332,3256.906145,3907.087040,8068.244768
429.143658,-962.267725,2604.724693,8216.285956
429.143983,-4219.173869,-612.876398,8586.388927
429.144308,-6365.771101,-3677.258390,10436.903782
429.144633,-7402.059420,-4290.134789,11325.150913
429.144959,-8068.244768,-6281.983084,10732.986159
429.145284,-7254.018232,-6281.983084,10140.821405
429.145609,-5255.462188,-3370.820191,10362.883188
429.145934,-1480.411884,-153.219100,10140.821405
429.146260,2368.659014,2987.772442,9844.739029
429.146585,3923.091493,3753.867940,9030.512492
429.146910,4737.318029,5439.278036,7105.977043
429.147235,5477.523971,5822.325785,6217.729913
429.147561,5477.523971,6511.811733,6735.874072
429.147886,2738.761985,4596.572988,8290.306550
429.148211,-444.123565,2681.334243,8586.388927
429.148537,-1924.535449,919.314598,9844.739029
429.148862,-2960.823768,-1225.752797,12139.377449
429.149187,-5847.626942,-3677.258390,11547.212695
429.149512,-5255.462188,-6052.154434,9918.759623
429.149838,-3330.926739,-5209.449386,11399.171507
429.150163,-2590.720797,-1608.800546,11917.315666
429.150488,-740.205942,0.000000,11251.130318
429.150813,2664.741391,1225.752797,8586.388927
429.151139,4885.359217,3907.087040,7254.018232
429.151464,4663.297435,5822.325785,6513.812290
429.151789,6069.688724,5362.668486,5329.482782
429.152114,5995.668130,5286.058936,6587.832884
429.152440,2516.700203,4673.182538,7402.059420
429.152765,-666.185348,3370.820191,8142.265362
429.153090,-1110.308913,536.266849,9548.656652
429.153416,-3701.029710,-919.314598,11103.089130
429.153741,-5921.647536,-4366.744339,11103.089130
429.154066,-5699.585753,-7277.907231,10732.986159
429.154391,-4885.359217,-7431.126331,10955.047942
429.154717,-3849.070898,-2451.505594,12435.459826
429.155042,-592.164754,-1302.362347,11621.233289
429.155367,2146.597232,0.000000,9548.656652
429.155692,5255.462188,2451.505594,8512.368333
429.156018,7402.059420,5745.716235,8364.327145
429.156343,7920.203579,6971.469032,6809.894666
429.156668,7179.997637,5822.325785,5773.606348
429.156993,6957.935855,6281.983084,7772.162391
429.157319,4145.153275,5362.668486,9252.574275
429.157644,74.020594,2757.943793,9474.636058
429.157969,-3034.844362,-536.266849,9548.656652
429.158295,-5477.523971,-3294.210641,11473.192101
429.158620,-6513.812290,-5975.544884,11029.068536
429.158945,-6291.750507,-7584.345430,10732.986159
429.159270,-5699.585753,-5209.449386,12287.418637
429.159596,-4219.173869,-2451.505594,11547.212695
