#time,accel_x,accel_y,accel_z
5361.392162,148.041188,919.314598,8660.409521
5361.392485,-1554.432478,229.828649,9400.615463
5361.392808,-962.267725,0.000000,9622.677246
5361.393131,-518.144159,306.438199,9548.656652
5361.393454,-592.164754,919.314598,8882.471304
5361.393776,-962.267725,229.828649,9326.594869
5361.394099,-1110.308913,383.047749,9918.759623
5361.394422,740.205942,1072.533697,9474.636058
5361.394745,296.082377,1072.533697,8660.409521
5361.395068,0.000000,995.924147,8808.450710
5361.395390,0.000000,459.657299,9696.697840
5361.395713,0.000000,459.657299,9474.636058
5361.396036,666.185348,1072.533697,8586.388927
5361.396359,0.000000,1072.533697,8512.368333
5361.396682,-814.226536,766.095498,9400.615463
5361.397005,-518.144159,76.609550,9696.697840
5361.397327,222.061783,766.095498,9474.636058
5361.397650,0.000000,1302.362347,9326.594869
5361.397973,-740.205942,766.095498,9548.656652
5361.398296,-296.082377,689.485948,10214.842000
5361.398619,1110.308913,1455.581446,9104.533087
5361.398942,740.205942,1915.238745,8586.388927
5361.399264,148.041188,919.314598,8882.471304
5361.399587,222.061783,842.705048,10066.800811
5361.399910,0.000000,919.314598,9474.636058
5361.400233,1036.288319,1532.190996,8660.409521
5361.400556,74.020594,766.095498,8734.430116
5361.400879,-888.247130,536.266849,9622.677246
5361.401201,222.061783,1378.971896,9696.697840
5361.401524,296.082377,842.705048,9104.533087
5361.401847,666.185348,1685.410096,9178.553681
5361.402170,-148.041188,1532.190996,9696.697840
5361.402493,592.164754,1225.752797,10140.821405
5361.402815,2368.659014,2451.505594,9474.636058
5361.403138,2220.617826,2987.772442,8882.471304
5361.403461,1776.494261,2298.286494,9548.656652
5361.403784,1628.453072,1991.848295,10288.862594
5361.404107,2516.700203,2451.505594,9918.759623
5361.404430,3775.050304,3447.429741,8734.430116
5361.404752,2590.720797,2987.772442,9400.615463
5361.405075,2590.720797,3140.991542,10066.800811
5361.405398,3478.967927,3677.258390,9844.739029
5361.405721,4219.173869,3677.258390,9474.636058
5361.406044,3404.947333,4290.134789,8660.409521
5361.406367,3034.844362,3294.210641,10066.800811
5361.406689,3849.070898,3753.867940,10140.821405
5361.407012,4441.235652,4136.915689,8586.388927
5361.407335,3182.885551,4290.134789,7846.182985
5361.407658,3034.844362,3677.258390,9030.512492
5361.407981,1924.535449,3064.381992,8586.388927
5361.408304,2072.576638,3677.258390,7476.080014
5361.408626,2294.638420,3753.867940,6735.874072
5361.408949,1332.370696,3677.258390,7402.059420
5361.409272,592.164754,3294.210641,8586.388927
5361.409595,1406.391290,3830.477490,8364.327145
5361.409918,1776.494261,4290.134789,8068.244768
5361.410240,1258.350101,4136.915689,8216.285956
5361.410563,444.123565,3140.991542,9918.759623
5361.410886,1480.411884,2757.943793,10066.800811
5361.411209,2072.576638,2987.772442,9770.718434
5361.411532,1184.329507,2911.162892,9622.677246
5361.411855,148.041188,1378.971896,10732.986159
5361.412177,222.061783,1302.362347,10732.986159
5361.412500,1258.350101,2145.067394,9770.718434
5361.412823,1110.308913,2221.676944,8586.388927
5361.413146,1110.308913,2068.457845,9770.718434
5361.413469,2146.597232,2528.115143,10214.842000
5361.413792,3108.864956,3217.601092,9474.636058
5361.414114,3627.009116,4060.306139,8882.471304
5361.414437,3256.906145,4443.353888,9474.636058
5361.414760,1850.514855,2987.772442,10807.006753
5361.415083,3182.885551,3140.991542,10066.800811
5361.415406,1406.391290,2298.286494,8808.450710
5361.415729,296.082377,1455.581446,9400.615463
5361.416051,296.082377,689.485948,10288.862594
5361.416374,-148.041188,1149.143247,9770.718434
5361.416697,1184.329507,1378.971896,8290.306550
5361.417020,1258.350101,1685.410096,8216.285956
5361.417343,-148.041188,1455.581446,9252.574275
5361.417665,222.061783,766.095498,9178.553681
5361.417988,370.102971,1149.143247,8586.388927
5361.418311,518.144159,1685.410096,7920.203579
5361.418634,518.144159,1762.019645,9474.636058
5361.418957,1332.370696,1991.848295,10066.800811
5361.419280,2442.679609,2451.505594,9178.553681
5361.419602,2738.761985,2987.772442,7476.080014
5361.419925,2220.617826,2145.067394,7846.182985
5361.420248,3404.947333,2528.115143,9474.636058
5361.420571,4589.276840,2987.772442,9474.636058
5361.420894,5699.585753,3983.696590,8586.388927
5361.421217,4737.318029,3524.039291,9326.594869
5361.421539,3404.947333,2374.896044,10288.862594
5361.421862,3182.885551,2298.286494,10955.047942
5361.422185,2812.782580,2298.286494,10584.944971
5361.422508,1776.494261,2374.896044,11325.150913
5361.422831,-444.123565,1149.143247,11991.336260
5361.423154,-888.247130,842.705048,11547.212695
5361.423476,888.247130,1608.800546,9252.574275
5361.423799,814.226536,1991.848295,6883.915261
5361.424122,1998.556043,3524.039291,7920.203579
5361.424445,2812.782580,4443.353888,8512.368333
5361.424768,4367.215058,5132.839837,7698.141797
5361.425090,5477.523971,5515.887586,6883.915261
5361.425413,4367.215058,5209.449386,7846.182985
5361.425736,2516.700203,4443.353888,10658.965565
5361.426059,1406.391290,3524.039291,10955.047942
5361.426382,370.102971,3524.039291,11029.068536
5361.426705,370.102971,1762.019645,10214.842000
5361.427027,-592.164754,2068.457845,10584.944971
5361.427350,-666.185348,1762.019645,10140.821405
5361.427673,222.061783,2451.505594,7994.224174
5361.427996,814.226536,3447.429741,6587.832884
5361.428319,2516.700203,4136.915689,6883.915261
5361.428642,2812.782580,4366.744339,7254.018232
5361.428964,2590.720797,6128.763984,7254.018232
5361.429287,2886.803174,5745.716235,7105.977043
5361.429610,2738.761985,4903.011187,8734.430116
5361.429933,2664.741391,4596.572988,9770.718434
5361.430256,2516.700203,3983.696590,11029.068536
5361.430578,2220.617826,3447.429741,11177.109724
5361.430901,1850.514855,2681.334243,11251.130318
5361.431224,888.247130,2221.676944,11103.089130
5361.431547,1702.473667,2068.457845,10362.883188
5361.431870,2220.617826,1685.410096,9252.574275
5361.432193,2220.617826,2604.724693,8216.285956
5361.432515,1776.494261,2528.115143,9326.594869
5361.432838,1850.514855,2757.943793,8438.347739
5361.433161,2886.803174,3447.429741,7550.100608
5361.433484,3256.906145,3753.867940,7550.100608
5361.433807,1332.370696,2911.162892,9400.615463
5361.434130,1998.556043,2757.943793,10214.842000
5361.434452,2738.761985,2834.553343,10584.944971
5361.434775,2368.659014,3064.381992,10510.924376
5361.435098,962.267725,1532.190996,11769.274478
5361.435421,1036.288319,919.314598,11177.109724
5361.435744,2516.700203,612.876398,9844.739029
5361.436067,2368.659014,1455.581446,8068.244768
5361.436389,1850.514855,1378.971896,8142.265362
5361.436712,2886.803174,1378.971896,8364.327145
5361.437035,2516.700203,1915.238745,8586.388927
5361.437358,3478.967927,2987.772442,8142.265362
5361.437681,3108.864956,3830.477490,8882.471304
5361.438003,1406.391290,2987.772442,9474.636058
5361.438326,1850.514855,2298.286494,10732.986159
5361.438649,1998.556043,2374.896044,9844.739029
5361.438972,1184.329507,2145.067394,10288.862594
5361.439295,-592.164754,1532.190996,10807.006753
5361.439618,-814.226536,1072.533697,10362.883188
5361.439940,-518.144159,1072.533697,7254.018232
5361.440263,0.000000,995.924147,5699.585753
5361.440586,1258.350101,1378.971896,6735.874072
5361.440909,962.267725,1915.238745,7476.080014
5361.441232,1110.308913,2298.286494,8364.327145
5361.441555,1628.453072,2374.896044,8216.285956
5361.441877,0.000000,1838.629195,8808.450710
5361.442200,-518.144159,2068.457845,10066.800811
5361.442523,74.020594,1915.238745,12731.542202
5361.442846,-296.082377,2221.676944,11769.274478
5361.443169,-1332.370696,1378.971896,11177.109724
5361.443492,-1702.473667,0.000000,11769.274478
5361.443814,-2368.659014,-842.705048,10066.800811
5361.444137,-962.267725,-383.047749,8364.327145
5361.444460,-962.267725,383.047749,7550.100608
5361.444783,370.102971,1455.581446,7994.224174
5361.445106,1702.473667,1378.971896,7846.182985
5361.445428,2368.659014,1762.019645,6883.915261
5361.445751,3627.009116,2298.286494,7254.018232
5361.446074,2886.803174,2145.067394,9252.574275
5361.446397,1480.411884,1532.190996,12435.459826
5361.446720,2368.659014,1838.629195,12435.459826
5361.447043,1258.350101,1072.533697,12805.562797
5361.447365,-148.041188,153.219100,11621.233289
5361.447688,-444.123565,-612.876398,12065.356855
5361.448013,888.247130,-306.438199,9992.780217
5361.448336,2072.576638,1302.362347,8956.491898
5361.448659,1406.391290,1762.019645,7624.121203
5361.448982,1480.411884,1225.752797,7328.038826
5361.449305,1998.556043,1149.143247,5403.503377
5361.449628,3108.864956,2145.067394,5107.421000
5361.449951,1628.453072,2834.553343,6365.771101
5361.450274,740.205942,2145.067394,8882.471304
5361.450597,814.226536,1685.410096,11251.130318
5361.450920,74.020594,1762.019645,10140.821405
5361.451243,444.123565,1302.362347,9622.677246
5361.451566,-1480.411884,1302.362347,10955.047942
5361.451889,-1924.535449,1838.629195,11695.253884
5361.452212,888.247130,1455.581446,10066.800811
5361.452535,222.061783,1915.238745,7846.182985
5361.452858,0.000000,2068.457845,5921.647536
5361.453181,0.000000,919.314598,7772.162391
5361.453504,-1702.473667,1225.752797,8512.368333
5361.453827,-222.061783,2145.067394,8216.285956
5361.454150,-74.020594,1302.362347,9400.615463
5361.454473,-1554.432478,383.047749,9992.780217
5361.454796,-666.185348,612.876398,11325.150913
5361.455119,-1554.432478,995.924147,11769.274478
5361.455442,-1554.432478,1762.019645,11103.089130
5361.455765,-1184.329507,459.657299,10955.047942
5361.456088,-592.164754,229.828649,9474.636058
5361.456411,1110.308913,995.924147,9030.512492
5361.456734,-740.205942,1762.019645,7254.018232
5361.457057,-1554.432478,383.047749,8734.430116
5361.457380,-2294.638420,536.266849,8660.409521
5361.457703,-2960.823768,-1072.533697,8512.368333
5361.458026,-1776.494261,-383.047749,7624.121203
5361.458349,-2590.720797,-766.095498,9178.553681
5361.458672,-3478.967927,-1455.581446,10288.862594
5361.458995,-2738.761985,-383.047749,10955.047942
5361.459318,-2886.803174,-995.924147,9030.512492
5361.459641,-1554.432478,-1149.143247,8068.244768
5361.459964,-518.144159,-459.657299,8956.491898
5361.460287,666.185348,-459.657299,9622.677246
5361.460610,2664.741391,76.609550,8438.347739
5361.460933,1036.288319,0.000000,8438.347739
5361.461256,-592.164754,-612.876398,8882.471304
5361.461579,1036.288319,-1302.362347,9548.656652
5361.461902,2590.720797,0.000000,9400.615463
5361.462225,2146.597232,1149.143247,10214.842000
5361.462548,1776.494261,-459.657299,10214.842000
5361.462871,444.123565,-1072.533697,11325.150913
5361.463194,2072.576638,-229.828649,9622.677246
5361.463517,1628.453072,-306.438199,9474.636058
5361.463840,-222.061783,306.438199,9770.718434
5361.464163,0.000000,-612.876398,11325.150913
5361.464486,0.000000,-612.876398,10436.903782
5361.464809,592.164754,-306.438199,8068.244768
5361.465132,74.020594,-919.314598,7846.182985
5361.465455,-2072.576638,-1225.752797,9030.512492
5361.465778,-962.267725,-229.828649,9622.677246
5361.466101,-740.205942,459.657299,9178.553681
5361.466424,-518.144159,1072.533697,8660.409521
5361.466747,-1036.288319,-536.266849,8586.388927
5361.467070,-1406.391290,-919.314598,9474.636058
5361.467393,-370.102971,612.876398,10140.821405
5361.467716,444.123565,1302.362347,10066.800811
5361.468039,-1110.308913,306.438199,9400.615463
5361.468362,-740.205942,0.000000,10510.924376
5361.468685,592.164754,383.047749,9770.718434
5361.469008,148.041188,1608.800546,8438.347739
5361.469331,1110.308913,1915.238745,9178.553681
5361.469654,1036.288319,1532.190996,9918.759623
5361.469977,1554.432478,1302.362347,9252.574275
5361.470300,2220.617826,2374.896044,8290.306550
5361.470623,1110.308913,2451.505594,8438.347739
5361.470946,74.020594,2528.115143,9252.574275
5361.471269,-888.247130,1225.752797,9844.739029
5361.471592,-888.247130,1991.848295,8290.306550
5361.471915,888.247130,2068.457845,7920.203579
5361.472238,-1776.494261,2145.067394,9474.636058
5361.472561,-1924.535449,2145.067394,8956.491898
5361.472884,518.144159,1608.800546,8586.388927
5361.473207,-444.123565,2681.334243,6365.771101
5361.473530,814.226536,2451.505594,7624.121203
5361.473853,296.082377,1608.800546,9400.615463
5361.474177,-1924.535449,2145.067394,10658.965565
5361.474500,-518.144159,2374.896044,9622.677246
5361.474823,-2220.617826,459.657299,9104.533087
5361.475146,-2442.679609,-229.828649,8956.491898
5361.475469,-1628.453072,612.876398,9696.697840
5361.475792,-1406.391290,536.266849,9104.533087
5361.476115,-296.082377,1455.581446,8586.388927
5361.476438,-1998.556043,612.876398,9178.553681
5361.476761,-1776.494261,76.609550,9104.533087
5361.477084,1258.350101,842.705048,7698.141797
5361.477407,1332.370696,1225.752797,7179.997637
5361.477730,1258.350101,919.314598,9474.636058
5361.478053,592.164754,76.609550,11843.295072
5361.478376,0.000000,-153.219100,11399.171507
5361.478699,1850.514855,-383.047749,9326.594869
5361.479022,370.102971,-1072.533697,9400.615463
5361.479345,-1110.308913,-536.266849,10955.047942
5361.479668,740.205942,0.000000,11029.068536
5361.479991,148.041188,-842.705048,9474.636058
5361.480314,370.102971,-842.705048,7920.203579
5361.480637,222.061783,-995.924147,8586.388927
5361.480960,-1776.494261,-1302.362347,9252.574275
5361.481283,962.267725,-153.219100,9178.553681
5361.481606,0.000000,-459.657299,8068.244768
5361.481929,-814.226536,-1302.362347,9696.697840
5361.482252,-148.041188,-1455.581446,9696.697840
5361.482575,-1110.308913,-1149.143247,9770.718434
5361.482898,74.020594,-306.438199,8660.409521
5361.483221,-370.102971,-612.876398,10214.842000
5361.483544,-1184.329507,-919.314598,9770.718434
5361.483867,814.226536,-612.876398,9326.594869
5361.484190,148.041188,-536.266849,8882.471304
5361.484513,-222.061783,153.219100,8438.347739
5361.484836,-962.267725,-689.485948,9622.677246
5361.485159,-1258.350101,-995.924147,9252.574275
5361.485482,-444.123565,-306.438199,8364.327145
5361.485805,-740.205942,-612.876398,8808.450710
5361.486128,-1998.556043,76.609550,10732.986159
5361.486451,-518.144159,-153.219100,10584.944971
5361.486774,-1184.329507,-229.828649,9474.636058
5361.487097,0.000000,612.876398,8364.327145
5361.487420,148.041188,-153.219100,9104.533087
5361.487743,-1036.288319,306.438199,10140.821405
5361.488066,0.000000,1302.362347,10288.862594
5361.488389,-222.061783,1072.533697,9770.718434
5361.488712,-1184.329507,383.047749,9400.615463
5361.489035,296.082377,153.219100,9622.677246
5361.489358,1776.494261,1685.410096,9400.615463
5361.489681,962.267725,2068.457845,10288.862594
5361.490004,0.000000,1991.848295,10510.924376
5361.490327,-814.226536,766.095498,9622.677246
5361.490650,222.061783,995.924147,8142.265362
5361.490973,1332.370696,2298.286494,7031.956449
5361.491296,0.000000,2374.896044,7920.203579
5361.491619,-1036.288319,1838.629195,8956.491898
5361.491942,-1480.411884,842.705048,9844.739029
5361.492265,-592.164754,459.657299,8142.265362
5361.492588,370.102971,1455.581446,7994.224174
5361.492911,-1702.473667,1455.581446,9030.512492
5361.493234,-148.041188,1455.581446,10807.006753
5361.493557,2220.617826,2451.505594,10288.862594
5361.493880,2442.679609,3677.258390,8586.388927
5361.494203,3108.864956,2911.162892,8808.450710
5361.494526,1776.494261,2451.505594,9474.636058
5361.494849,1850.514855,3217.601092,9474.636058
5361.495172,2886.803174,3294.210641,8438.347739
5361.495495,740.205942,2451.505594,8438.347739
5361.495818,0.000000,1685.410096,8586.388927
5361.496141,-222.061783,919.314598,9178.553681
5361.496464,-888.247130,2298.286494,8660.409521
5361.496787,-74.020594,995.924147,9178.553681
5361.497110,-2220.617826,1225.752797,9696.697840
5361.497433,-1628.453072,536.266849,9474.636058
5361.497756,0.000000,766.095498,9178.553681
5361.498079,-1406.391290,1455.581446,8808.450710
5361.498402,-1702.473667,1149.143247,9992.780217
5361.498725,-2368.659014,-306.438199,10658.965565
5361.499048,-1554.432478,306.438199,9326.594869
5361.499371,148.041188,459.657299,7994.224174
5361.499694,-888.247130,612.876398,9252.574275
5361.500017,-1702.473667,306.438199,10510.924376
5361.500340,-740.205942,229.828649,10288.862594
5361.500663,-370.102971,0.000000,8438.347739
5361.500986,740.205942,306.438199,7846.182985
5361.501309,-148.041188,-536.266849,10140.821405
5361.501632,-222.061783,0.000000,9844.739029
5361.501955,1480.411884,0.000000,10214.842000
5361.502278,-888.247130,-536.266849,8882.471304
5361.502601,-444.123565,-689.485948,9474.636058
5361.502924,148.041188,-1225.752797,9844.739029
5361.503248,0.000000,0.000000,9474.636058
5361.503571,1702.473667,-612.876398,8956.491898
5361.503894,-148.041188,-76.609550,9474.636058
5361.504217,-740.205942,-766.095498,9326.594869
5361.504540,666.185348,-306.438199,9400.615463
5361.504863,-370.102971,-229.828649,8512.368333
5361.505186,-592.164754,0.000000,9104.533087
5361.505509,-1554.432478,-995.924147,10584.944971
5361.505832,-1332.370696,-1225.752797,9474.636058
5361.506155,592.164754,-1149.143247,8660.409521
5361.506478,-1184.329507,-536.266849,8290.306550
5361.506801,-1776.494261,-766.095498,10066.800811
5361.507124,-1036.288319,-995.924147,10658.965565
5361.507447,-814.226536,-306.438199,9326.594869
5361.507770,666.185348,-229.828649,8364.327145
5361.508093,0.000000,-306.438199,9474.636058
5361.508416,-518.144159,0.000000,11325.150913
5361.508739,444.123565,536.266849,10510.924376
5361.509062,74.020594,459.657299,10140.821405
5361.509385,0.000000,459.657299,9252.574275
5361.509708,1332.370696,229.828649,10140.821405
5361.510031,1332.370696,766.095498,9918.759623
5361.510354,2294.638420,2298.286494,9178.553681
5361.510677,1480.411884,1149.143247,9252.574275
5361.511000,666.185348,919.314598,9326.594869
5361.511323,1702.473667,1225.752797,9474.636058
5361.511646,1554.432478,1762.019645,8290.306550
5361.511969,666.185348,1991.848295,8808.450710
5361.512292,-888.247130,1532.190996,10288.862594
5361.512615,-2146.597232,919.314598,10066.800811
5361.512938,-1628.453072,612.876398,8660.409521
5361.513261,-1406.391290,1455.581446,7624.121203
5361.513584,-2442.679609,1378.971896,8216.285956
5361.513907,-1554.432478,2068.457845,9696.697840
5361.514230,-592.164754,1915.238745,8586.388927
5361.514553,0.000000,2451.505594,6365.771101
5361.514876,1184.329507,2451.505594,7105.977043
5361.515199,148.041188,1915.238745,8142.265362
5361.515522,148.041188,2911.162892,8882.471304
5361.515845,962.267725,2604.724693,8734.430116
5361.516168,592.164754,2145.067394,8290.306550
5361.516491,592.164754,1608.800546,9178.553681
5361.516814,148.041188,1915.238745,10584.944971
5361.517137,0.000000,1762.019645,9844.739029
5361.517460,148.041188,2298.286494,9030.512492
5361.517783,-1702.473667,1302.362347,10140.821405
5361.518106,0.000000,1455.581446,8956.491898
5361.518429,1110.308913,1072.533697,9770.718434
5361.518752,-740.205942,2145.067394,8734.430116
5361.519075,-222.061783,1149.143247,9770.718434
5361.519398,-1332.370696,229.828649,9844.739029
5361.519721,-888.247130,1149.143247,8956.491898
5361.520044,-370.102971,383.047749,8808.450710
5361.520367,-2368.659014,-306.438199,9622.677246
5361.520690,-1776.494261,306.438199,10436.903782
5361.521013,-1554.432478,-153.219100,10214.842000
5361.521336,-1702.473667,0.000000,9104.533087
5361.521659,-814.226536,-459.657299,8512.368333
5361.521982,-1332.370696,-1302.362347,9178.553681
5361.522305,-666.185348,-459.657299,10214.842000
5361.522628,444.123565,153.219100,10214.842000
5361.522951,-1332.370696,-842.705048,8586.388927
5361.523274,74.020594,-1302.362347,9030.512492
5361.523597,962.267725,-1072.533697,8586.388927
5361.523920,518.144159,612.876398,8956.491898
5361.524243,1480.411884,1072.533697,9400.615463
5361.524566,370.102971,-842.705048,9400.615463
5361.524889,222.061783,-689.485948,9252.574275
5361.525212,1702.473667,-383.047749,8882.471304
5361.525535,74.020594,-229.828649,8734.430116
5361.525858,0.000000,-383.047749,10214.842000
5361.526181,-1480.411884,-1455.581446,10510.924376
5361.526504,-888.247130,-1685.410096,9474.636058
5361.526827,1036.288319,-766.095498,8512.368333
5361.527150,-1036.288319,-612.876398,8290.306550
5361.527473,-1628.453072,-1149.143247,9770.718434
5361.527796,-740.205942,-1225.752797,10436.903782
5361.528119,-592.164754,0.000000,8882.471304
5361.528442,1036.288319,-153.219100,7698.141797
5361.528765,74.020594,-612.876398,9252.574275
5361.529088,-1036.288319,306.438199,10288.862594
5361.529411,0.000000,76.609550,9548.656652
5361.529734,-962.267725,306.438199,9474.636058
5361.530057,-666.185348,383.047749,8808.450710
5361.530380,-1036.288319,-995.924147,10214.842000
5361.530703,-814.226536,-383.047749,9770.718434
5361.531026,148.041188,76.609550,10140.821405
5361.531349,-1184.329507,-459.657299,9474.636058
5361.531672,-1036.288319,-689.485948,9992.780217
5361.531995,-74.020594,-459.657299,9622.677246
5361.532319,370.102971,919.314598,9178.553681
5361.532642,296.082377,1378.971896,9548.656652
5361.532965,-296.082377,1455.581446,9548.656652
5361.533288,0.000000,1455.581446,9474.636058
5361.533611,1110.308913,1838.629195,7105.977043
5361.533934,0.000000,1762.019645,7846.182985
5361.534257,-814.226536,1991.848295,7846.182985
5361.534580,222.061783,2374.896044,9474.636058
5361.534903,296.082377,1762.019645,8068.244768
5361.535226,518.144159,1838.629195,7402.059420
5361.535549,296.082377,1532.190996,8438.347739
5361.535872,-666.185348,1455.581446,9474.636058
5361.536195,0.000000,2068.457845,9918.759623
5361.536518,518.144159,1762.019645,8586.388927
5361.536841,148.041188,1608.800546,8734.430116
5361.537164,666.185348,1762.019645,10066.800811
5361.537487,518.144159,1991.848295,10288.862594
5361.537810,1406.391290,2298.286494,9178.553681
5361.538133,518.144159,2528.115143,9326.594869
5361.538456,-740.205942,2374.896044,9326.594869
5361.538779,1110.308913,1149.143247,9326.594869
5361.539102,1850.514855,1685.410096,7846.182985
5361.539425,444.123565,2451.505594,7402.059420
5361.539748,-444.123565,919.314598,9252.574275
5361.540071,-1776.494261,689.485948,9770.718434
5361.540394,-1184.329507,459.657299,8734.430116
5361.540717,-1850.514855,383.047749,9178.553681
5361.541040,-1850.514855,1302.362347,10140.821405
5361.541363,-1258.350101,229.828649,10955.047942
5361.541686,-1406.391290,0.000000,10288.862594
5361.542009,-1036.288319,842.705048,9400.615463
5361.542332,-296.082377,0.000000,8290.306550
5361.542655,-2220.617826,0.000000,10066.800811
5361.542978,-370.102971,229.828649,9770.718434
5361.543301,1036.288319,383.047749,8882.471304
5361.543624,666.185348,153.219100,6957.935855
5361.543947,1998.556043,0.000000,9030.512492
5361.544270,1258.350101,-229.828649,9622.677246
5361.544593,888.247130,689.485948,9622.677246
5361.544916,2294.638420,842.705048,8956.491898
5361.545239,518.144159,536.266849,10214.842000
5361.545562,888.247130,229.828649,9548.656652
5361.545885,1036.288319,0.000000,10510.924376
5361.546208,-1036.288319,0.000000,9474.636058
5361.546531,-1702.473667,-919.314598,10436.903782
5361.546854,-3478.967927,-1455.581446,10732.986159
5361.547177,-2368.659014,-1378.971896,9326.594869
5361.547500,-1480.411884,-1149.143247,7994.224174
5361.547823,-2368.659014,-842.705048,7105.977043
5361.548146,-1554.432478,-1072.533697,7846.182985
5361.548469,-592.164754,-459.657299,8142.265362
5361.548792,-592.164754,229.828649,7846.182985
5361.549115,1258.350101,383.047749,7624.121203
5361.549438,-592.164754,76.609550,10362.883188
5361.549761,0.000000,689.485948,10510.924376
5361.550084,148.041188,842.705048,10955.047942
5361.550407,222.061783,306.438199,9104.533087
5361.550730,444.123565,76.609550,9622.677246
5361.551053,1406.391290,0.000000,10140.821405
5361.551376,1554.432478,612.876398,10510.924376
5361.551699,1776.494261,766.095498,9474.636058
5361.552022,222.061783,0.000000,9400.615463
5361.552345,1036.288319,229.828649,9400.615463
5361.552668,1036.288319,229.828649,9918.759623
5361.552990,370.102971,1225.752797,9326.594869
5361.553313,-444.123565,766.095498,9548.656652
5361.553636,-2738.761985,0.000000,10066.800811
5361.553959,-3182.885551,0.000000,10732.986159
5361.554282,-1554.432478,229.828649,8364.327145
5361.554605,-2220.617826,153.219100,8290.306550
5361.554928,-2072.576638,306.438199,7994.224174
5361.555251,-1850.514855,689.485948,9696.697840
5361.555574,-592.164754,1762.019645,8882.471304
5361.555897,1480.411884,1685.410096,7105.977043
5361.556220,296.082377,1225.752797,9252.574275
5361.556543,0.000000,1608.800546,10288.862594
5361.556866,1702.473667,1838.629195,11103.089130
5361.557189,1110.308913,2604.724693,9474.636058
5361.557512,1628.453072,1915.238745,9252.574275
5361.557835,1110.308913,689.485948,9770.718434
5361.558158,592.164754,2145.067394,9252.574275
5361.558481,2072.576638,2757.943793,8956.491898
5361.558804,1184.329507,2757.943793,7772.162391
5361.559127,222.061783,1915.238745,7846.182985
5361.559450,1110.308913,2298.286494,7402.059420
5361.559773,1332.370696,2145.067394,7179.997637
5361.560096,-296.082377,1838.629195,7476.080014
5361.560419,-1184.329507,1915.238745,9178.553681
5361.560742,-2442.679609,689.485948,9918.759623
5361.561065,-1480.411884,1072.533697,8438.347739
5361.561388,-1184.329507,1225.752797,9178.553681
5361.561710,-2516.700203,1072.533697,9252.574275
5361.562033,-1036.288319,1072.533697,10288.862594
5361.562356,-1258.350101,766.095498,9770.718434
5361.562679,-592.164754,1225.752797,8808.450710
5361.563002,296.082377,842.705048,8734.430116
5361.563325,-888.247130,995.924147,9844.739029
5361.563648,592.164754,1225.752797,10510.924376
5361.563971,-148.041188,689.485948,9992.780217
5361.564294,-1036.288319,536.266849,8660.409521
5361.564617,370.102971,-306.438199,10140.821405
5361.564940,-1036.288319,153.219100,10732.986159
5361.565263,1110.308913,766.095498,9918.759623
5361.565586,444.123565,459.657299,10362.883188
5361.565909,-1184.329507,0.000000,9326.594869
5361.566232,0.000000,-229.828649,9918.759623
5361.566555,74.020594,0.000000,8438.347739
5361.566878,148.041188,-612.876398,9326.594869
5361.567201,-518.144159,0.000000,9400.615463
5361.567524,-1924.535449,-995.924147,10510.924376
5361.567847,1924.535449,0.000000,8142.265362
5361.568170,1628.453072,0.000000,8142.265362
5361.568493,0.000000,229.828649,8660.409521
5361.568816,-370.102971,-383.047749,11251.130318
5361.569139,296.082377,-153.219100,9474.636058
5361.569462,1036.288319,229.828649,8512.368333
5361.569785,1924.535449,-306.438199,7772.162391
5361.570108,-1924.535449,-1378.971896,10584.944971
5361.570431,-1554.432478,-995.924147,10214.842000
5361.570753,-962.267725,-1072.533697,9844.739029
5361.571076,-1332.370696,-306.438199,8512.368333
5361.571399,-370.102971,-689.485948,8142.265362
5361.571722,-1702.473667,-842.705048,9474.636058
5361.572045,-222.061783,536.266849,9622.677246
5361.572368,-370.102971,766.095498,8882.471304
5361.572691,-2516.700203,0.000000,8586.388927
5361.573014,-1036.288319,-612.876398,9252.574275
5361.573337,-1036.288319,-612.876398,9104.533087
5361.573660,-518.144159,383.047749,9104.533087
5361.573983,-370.102971,0.000000,10066.800811
5361.574306,-2368.659014,-1378.971896,10955.047942
5361.574629,-1332.370696,-1378.971896,9844.739029
5361.574952,222.061783,-919.314598,9696.697840
5361.575275,-296.082377,306.438199,9918.759623
5361.575598,962.267725,612.876398,10510.924376
5361.575921,1110.308913,689.485948,11473.192101
5361.576244,3108.864956,1991.848295,9474.636058
5361.576567,2664.741391,1915.238745,8290.306550
5361.576890,2368.659014,2221.676944,9400.615463
5361.577213,1480.411884,2068.457845,11029.068536
5361.577536,962.267725,2145.067394,10658.965565
5361.577859,1628.453072,2451.505594,8808.450710
5361.578182,296.082377,1378.971896,8660.409521
5361.578505,-666.185348,383.047749,8734.430116
5361.578828,-1998.556043,842.705048,8586.388927
5361.579151,-518.144159,1302.362347,7624.121203
5361.579474,-1184.329507,1762.019645,8068.244768
5361.579796,-1036.288319,1455.581446,7402.059420
5361.580119,0.000000,995.924147,9104.533087
5361.580442,222.061783,2374.896044,7402.059420
5361.580765,296.082377,2834.553343,8364.327145
5361.581088,-888.247130,1685.410096,9622.677246
5361.581411,-1480.411884,1378.971896,9918.759623
5361.581734,222.061783,1455.581446,8364.327145
5361.582057,-222.061783,1991.848295,8808.450710
5361.582380,0.000000,1685.410096,9104.533087
5361.582703,-592.164754,842.705048,9844.739029
5361.583026,222.061783,1685.410096,8364.327145
5361.583349,1480.411884,1991.848295,7624.121203
5361.583672,888.247130,1608.800546,8364.327145
5361.583995,-962.267725,1838.629195,9770.718434
5361.584318,1480.411884,1302.362347,10214.842000
5361.584641,0.000000,612.876398,10362.883188
5361.584964,-666.185348,842.705048,9326.594869
5361.585287,-962.267725,-689.485948,10807.006753
5361.585610,-2072.576638,76.609550,10140.821405
5361.585933,-444.123565,612.876398,10214.842000
5361.586256,-370.102971,0.000000,8586.388927
5361.586579,-2146.597232,-383.047749,9844.739029
5361.586902,-592.164754,-459.657299,8956.491898
5361.587225,-814.226536,-919.314598,8956.491898
5361.587548,-814.226536,76.609550,8068.244768
5361.587871,-1258.350101,-459.657299,9770.718434
5361.588194,-2368.659014,-1378.971896,10066.800811
5361.588517,370.102971,-766.095498,9548.656652
5361.588839,592.164754,-306.438199,9252.574275
5361.589162,-444.123565,-229.828649,9104.533087
5361.589485,-148.041188,-1149.143247,10658.965565
5361.589808,-962.267725,-995.924147,10140.821405
5361.590131,222.061783,-536.266849,8216.285956
5361.590454,962.267725,-689.485948,8216.285956
5361.590777,-1776.494261,-612.876398,9474.636058
5361.591100,-1110.308913,-689.485948,9918.759623
5361.591423,-370.102971,-1149.143247,9548.656652
5361.591746,0.000000,-306.438199,7179.997637
5361.592069,888.247130,-689.485948,8734.430116
5361.592392,0.000000,-995.924147,9844.739029
5361.592715,962.267725,919.314598,10732.986159
5361.593038,1110.308913,766.095498,9992.780217
5361.593361,74.020594,0.000000,9474.636058
5361.593684,1480.411884,-536.266849,9696.697840
5361.594007,814.226536,-153.219100,10510.924376
5361.594330,1036.288319,842.705048,9992.780217
5361.594653,296.082377,-536.266849,10658.965565
5361.594976,-2368.659014,-1072.533697,10214.842000
5361.595299,-1480.411884,-1225.752797,9844.739029
5361.595622,-518.144159,-612.876398,8438.347739
5361.595945,-1554.432478,76.609550,9326.594869
5361.596268,-962.267725,689.485948,10288.862594
5361.596591,-1110.308913,459.657299,11029.068536
5361.596914,888.247130,1149.143247,8290.306550
5361.597237,518.144159,1378.971896,7550.100608
5361.597559,-592.164754,1302.362347,8882.471304
5361.597882,518.144159,1455.581446,10140.821405
5361.598205,888.247130,1532.190996,9326.594869
5361.598528,888.247130,1762.019645,8068.244768
5361.598851,1110.308913,1149.143247,8142.265362
5361.599174,0.000000,1225.752797,9844.739029
5361.599497,74.020594,2528.115143,9474.636058
5361.599820,1702.473667,2068.457845,8586.388927
5361.600143,1184.329507,2374.896044,7994.224174
5361.600466,1332.370696,2528.115143,8660.409521
5361.600789,2072.576638,2681.334243,9104.533087
5361.601112,1702.473667,3217.601092,8216.285956
5361.601435,1258.350101,3217.601092,7105.977043
5361.601758,-814.226536,1762.019645,8734.430116
5361.602081,-1480.411884,1915.238745,8364.327145
5361.602404,0.000000,1838.629195,7920.203579
5361.602727,-888.247130,1685.410096,6957.935855
5361.603050,-1554.432478,1378.971896,8882.471304
5361.603373,-2442.679609,842.705048,9918.759623
5361.603696,-1702.473667,1225.752797,9696.697840
5361.604019,-1036.288319,1225.752797,8808.450710
5361.604342,-1480.411884,1302.362347,9104.533087
5361.604665,-2146.597232,995.924147,11103.089130
5361.604988,-962.267725,689.485948,11399.171507
5361.605311,-962.267725,612.876398,10362.883188
5361.605634,-444.123565,536.266849,9178.553681
5361.605957,-962.267725,-536.266849,11251.130318
5361.606280,-962.267725,-383.047749,9770.718434
5361.606602,74.020594,1072.533697,9992.780217
5361.606925,222.061783,383.047749,9104.533087
5361.607248,-444.123565,153.219100,9400.615463
5361.607571,0.000000,-459.657299,9326.594869
5361.607894,370.102971,76.609550,9474.636058
5361.608217,1554.432478,842.705048,9622.677246
5361.608540,74.020594,0.000000,11843.295072
5361.608863,-962.267725,-766.095498,10362.883188
5361.609186,1406.391290,-153.219100,9474.636058
5361.609509,296.082377,0.000000,7624.121203
5361.609832,-370.102971,-229.828649,8290.306550
5361.610155,0.000000,-306.438199,9474.636058
5361.610478,-592.164754,0.000000,9474.636058
5361.610801,962.267725,842.705048,7476.080014
5361.611124,-296.082377,-76.609550,7846.182985
5361.611447,-1258.350101,-766.095498,9030.512492
5361.611770,-592.164754,-612.876398,9400.615463
5361.612093,-1110.308913,-306.438199,8882.471304
5361.612416,-518.144159,0.000000,7994.224174
5361.612739,-666.185348,-383.047749,9178.553681
5361.613062,-1480.411884,-383.047749,9770.718434
5361.613385,222.061783,76.609550,8956.491898
5361.613708,0.000000,0.000000,8660.409521
5361.614031,-666.185348,-229.828649,9178.553681
5361.614354,740.205942,-612.876398,10436.903782
5361.614677,74.020594,-229.828649,10881.027347
5361.615000,444.123565,842.705048,9844.739029
5361.615323,-518.144159,-383.047749,10658.965565
5361.615645,-2294.638420,-919.314598,9992.780217
5361.615968,-444.123565,-995.924147,10362.883188
5361.616291,814.226536,306.438199,9326.594869
5361.616614,222.061783,536.266849,9474.636058
5361.616937,-222.061783,536.266849,10584.944971
5361.617260,-222.061783,229.828649,10658.965565
5361.617583,1406.391290,766.095498,8660.409521
5361.617906,1332.370696,1225.752797,7772.162391
5361.618229,370.102971,842.705048,9252.574275
5361.618552,0.000000,1762.019645,11547.212695
5361.618875,0.000000,766.095498,10510.924376
5361.619198,74.020594,1072.533697,8216.285956
5361.619521,148.041188,536.266849,8290.306550
5361.619844,-1776.494261,689.485948,9622.677246
5361.620167,0.000000,1838.629195,9918.759623
5361.620490,370.102971,2145.067394,9400.615463
5361.620813,222.061783,2068.457845,7698.141797
5361.621136,592.164754,1302.362347,8290.306550
5361.621459,74.020594,1302.362347,8512.368333
5361.621782,740.205942,2911.162892,8068.244768
5361.622105,2146.597232,2911.162892,7254.018232
5361.622428,148.041188,1762.019645,9252.574275
5361.622751,740.205942,1072.533697,7920.203579
5361.623074,0.000000,1455.581446,8142.265362
5361.623397,0.000000,2681.334243,7846.182985
5361.623720,-666.185348,2221.676944,9844.739029
5361.624043,-962.267725,1685.410096,9696.697840
5361.624366,148.041188,2068.457845,9104.533087
5361.624688,888.247130,2604.724693,8216.285956
5361.625011,-814.226536,1838.629195,9252.574275
5361.625334,-740.205942,1225.752797,9918.759623
5361.625657,0.000000,1608.800546,9548.656652
5361.625980,-740.205942,1378.971896,8660.409521
5361.626303,-592.164754,1072.533697,9030.512492
5361.626626,-1480.411884,689.485948,9918.759623
5361.626949,-1406.391290,919.314598,9992.780217
5361.627272,-740.205942,689.485948,8586.388927
5361.627595,-1406.391290,-459.657299,8512.368333
5361.627918,-888.247130,306.438199,9104.533087
5361.628241,-296.082377,0.000000,10362.883188
5361.628564,-444.123565,842.705048,10066.800811
5361.628887,-740.205942,842.705048,10140.821405
5361.629210,-1480.411884,0.000000,10288.862594
5361.629533,-1406.391290,-153.219100,9844.739029
5361.629856,1628.453072,0.000000,9844.739029
5361.630179,296.082377,1302.362347,8956.491898
5361.630502,148.041188,306.438199,9104.533087
5361.630825,-1110.308913,-689.485948,10658.965565
5361.631148,-1110.308913,-229.828649,8364.327145
5361.631471,592.164754,-306.438199,7846.182985
5361.631794,74.020594,-459.657299,7105.977043
5361.632117,-222.061783,0.000000,9104.533087
5361.632440,-1258.350101,-153.219100,10140.821405
5361.632763,-814.226536,-459.657299,9400.615463
5361.633086,-740.205942,-842.705048,8068.244768
5361.633408,-1628.453072,-1302.362347,9030.512492
5361.633731,-592.164754,-1225.752797,9992.780217
5361.634054,962.267725,-306.438199,9696.697840
5361.634377,1184.329507,536.266849,8956.491898
5361.634700,0.000000,-306.438199,8956.491898
5361.635023,148.041188,-1072.533697,9770.718434
5361.635346,74.020594,-612.876398,9326.594869
5361.635669,1036.288319,306.438199,9474.636058
5361.635992,666.185348,-536.266849,9844.739029
5361.636315,-1628.453072,-1149.143247,11103.089130
5361.636638,370.102971,-995.924147,9622.677246
5361.636961,-148.041188,-766.095498,9844.739029
5361.637284,-1258.350101,0.000000,9992.780217
5361.637607,-1036.288319,-766.095498,10955.047942
5361.637930,-444.123565,-842.705048,10066.800811
5361.638253,1480.411884,229.828649,8586.388927
5361.638576,518.144159,536.266849,8216.285956
5361.638899,-222.061783,689.485948,9844.739029
5361.639222,0.000000,383.047749,10881.027347
5361.639545,296.082377,689.485948,8734.430116
5361.639868,1036.288319,1302.362347,8438.347739
5361.640191,888.247130,995.924147,9178.553681
5361.640514,-518.144159,689.485948,10214.842000
5361.640837,222.061783,1455.581446,9844.739029
5361.641160,222.061783,1685.410096,9030.512492
5361.641483,-444.123565,1915.238745,8586.388927
5361.641806,666.185348,1915.238745,8364.327145
5361.642129,666.185348,2145.067394,9474.636058
5361.642451,888.247130,2604.724693,7698.141797
5361.642774,0.000000,2298.286494,7772.162391
5361.643097,-666.185348,1915.238745,8364.327145
5361.643420,148.041188,1991.848295,8882.471304
5361.643743,-296.082377,2451.505594,8290.306550
5361.644066,0.000000,2987.772442,8068.244768
5361.644389,-666.185348,2145.067394,9178.553681
5361.644712,-1480.411884,1608.800546,9474.636058
5361.645035,0.000000,2145.067394,8364.327145
5361.645358,370.102971,2604.724693,8290.306550
5361.645681,-888.247130,2604.724693,9400.615463
5361.646004,-592.164754,2374.896044,10362.883188
5361.646327,370.102971,1608.800546,9844.739029
5361.646650,-444.123565,1915.238745,8512.368333
5361.646973,-296.082377,1302.362347,9030.512492
5361.647296,-1184.329507,689.485948,10436.903782
5361.647619,-666.185348,1149.143247,9992.780217
5361.647942,148.041188,1532.190996,9326.594869
5361.648265,-1480.411884,842.705048,8364.327145
5361.648588,-1924.535449,229.828649,9178.553681
5361.648910,-1332.370696,-689.485948,9178.553681
5361.649233,-222.061783,0.000000,9326.594869
5361.649556,0.000000,536.266849,8586.388927
5361.649879,-2664.741391,-229.828649,10288.862594
5361.650202,-2146.597232,-612.876398,9474.636058
5361.650525,-592.164754,-1072.533697,9252.574275
5361.650848,-740.205942,-612.876398,8068.244768
5361.651170,-222.061783,153.219100,10362.883188
5361.651493,518.144159,-919.314598,10732.986159
5361.651816,814.226536,-306.438199,9918.759623
5361.652139,2442.679609,0.000000,8660.409521
5361.652462,592.164754,-766.095498,9326.594869
5361.652785,74.020594,-1149.143247,10066.800811
5361.653107,518.144159,-919.314598,11029.068536
5361.653430,1702.473667,-689.485948,9770.718434
5361.653753,1998.556043,-459.657299,8882.471304
5361.654076,148.041188,-536.266849,10362.883188
5361.654399,-222.061783,-842.705048,9992.780217
5361.654722,814.226536,-383.047749,9918.759623
5361.655045,148.041188,0.000000,7624.121203
5361.655367,222.061783,-306.438199,8808.450710
5361.655690,-148.041188,-459.657299,10584.944971
5361.656013,-1184.329507,-229.828649,9770.718434
5361.656336,-518.144159,0.000000,9474.636058
5361.656659,-1554.432478,-612.876398,8068.244768
5361.656982,-1924.535449,-612.876398,9622.677246
5361.657304,-370.102971,-229.828649,9030.512492
5361.657627,-1628.453072,383.047749,8586.388927
5361.657950,-592.164754,536.266849,8068.244768
5361.658273,-2146.597232,0.000000,9622.677246
5361.658596,-1406.391290,153.219100,9696.697840
5361.658919,1184.329507,1149.143247,8290.306550
5361.659242,74.020594,689.485948,8734.430116
5361.659564,-518.144159,766.095498,9696.697840
5361.659887,-814.226536,536.266849,10955.047942
5361.660210,-740.205942,383.047749,9178.553681
5361.660533,296.082377,995.924147,8512.368333
5361.660856,1332.370696,689.485948,8808.450710
5361.661179,-296.082377,1072.533697,10955.047942
5361.661502,1628.453072,2451.505594,10066.800811
5361.661824,1036.288319,2451.505594,10288.862594
5361.662147,1184.329507,2451.505594,8438.347739
5361.662470,296.082377,1532.190996,9770.718434
5361.662793,1258.350101,2145.067394,9548.656652
5361.663116,888.247130,1762.019645,9326.594869
5361.663439,-518.144159,2068.457845,8882.471304
5361.663761,-2294.638420,459.657299,9474.636058
5361.664084,-1554.432478,919.314598,7624.121203
5361.664407,-592.164754,1685.410096,7476.080014
5361.664730,-444.123565,2451.505594,7179.997637
5361.665053,-888.247130,1608.800546,9918.759623
5361.665376,-296.082377,1608.800546,8586.388927
5361.665699,740.205942,1608.800546,8290.306550
5361.666021,370.102971,1762.019645,8586.388927
5361.666344,-1628.453072,1762.019645,9696.697840
5361.666667,-740.205942,1302.362347,10658.965565
5361.666990,740.205942,1455.581446,9992.780217
5361.667313,1554.432478,1991.848295,7550.100608
5361.667636,1554.432478,1149.143247,8512.368333
5361.667958,444.123565,995.924147,9770.718434
5361.668281,740.205942,1532.190996,9992.780217
5361.668604,1480.411884,1608.800546,8216.285956
5361.668927,888.247130,842.705048,8734.430116
5361.669250,740.205942,459.657299,8734.430116
5361.669573,-1110.308913,0.000000,10955.047942
5361.669896,-1480.411884,612.876398,10288.862594
5361.670218,-1850.514855,-383.047749,10066.800811
5361.670541,-3330.926739,-1072.533697,9770.718434
5361.670864,-2294.638420,-995.924147,9844.739029
5361.671187,-814.226536,0.000000,9844.739029
5361.671510,-518.144159,612.876398,7698.141797
5361.671833,-1184.329507,-306.438199,9548.656652
5361.672156,-814.226536,-766.095498,9326.594869
5361.672478,222.061783,0.000000,9252.574275
5361.672801,1702.473667,536.266849,8734.430116
5361.673124,0.000000,229.828649,10288.862594
5361.673447,-444.123565,0.000000,10955.047942
5361.673770,-444.123565,-153.219100,10658.965565
5361.674093,-888.247130,-612.876398,9030.512492
5361.674415,592.164754,-153.219100,8364.327145
5361.674738,-740.205942,-459.657299,9178.553681
5361.675061,-296.082377,0.000000,10214.842000
5361.675384,1628.453072,612.876398,8660.409521
5361.675707,592.164754,612.876398,7624.121203
5361.676030,74.020594,76.609550,7772.162391
5361.676353,-296.082377,-306.438199,9474.636058
5361.676675,-814.226536,842.705048,9400.615463
5361.676998,-148.041188,766.095498,9474.636058
5361.677321,-1776.494261,-459.657299,9474.636058
5361.677644,-2294.638420,-1149.143247,9844.739029
5361.677967,-1406.391290,-842.705048,9030.512492
5361.678290,-2220.617826,-153.219100,9400.615463
5361.678612,-1258.350101,0.000000,8660.409521
5361.678935,-1480.411884,0.000000,10140.821405
5361.679258,444.123565,306.438199,8734.430116
5361.679581,1998.556043,612.876398,8364.327145
5361.679904,518.144159,766.095498,7994.224174
5361.680227,592.164754,612.876398,10140.821405
5361.680550,444.123565,383.047749,10288.862594
5361.680872,592.164754,383.047749,9030.512492
5361.681195,1184.329507,0.000000,8882.471304
5361.681518,444.123565,459.657299,9770.718434
5361.681841,-814.226536,0.000000,11769.274478
5361.682164,-666.185348,-229.828649,10436.903782
5361.682487,-370.102971,-306.438199,8734.430116
5361.682810,-296.082377,153.219100,8808.450710
5361.683132,-962.267725,689.485948,9770.718434
5361.683455,-592.164754,229.828649,9696.697840
5361.683778,296.082377,919.314598,8216.285956
5361.684101,-666.185348,1072.533697,8512.368333
5361.684424,-592.164754,766.095498,9030.512492
5361.684747,222.061783,459.657299,9474.636058
5361.685069,370.102971,1149.143247,9474.636058
5361.685392,444.123565,1532.190996,8586.388927
5361.685715,148.041188,1072.533697,10066.800811
5361.686038,222.061783,919.314598,9400.615463
5361.686361,1554.432478,1685.410096,9178.553681
5361.686684,1480.411884,1685.410096,8734.430116
5361.687007,592.164754,1608.800546,9474.636058
5361.687329,222.061783,1685.410096,10214.842000
5361.687652,888.247130,1838.629195,9622.677246
5361.687975,592.164754,2221.676944,8438.347739
5361.688298,370.102971,1532.190996,8142.265362
5361.688621,-444.123565,2068.457845,9770.718434
5361.688944,592.164754,2528.115143,8882.471304
5361.689266,1110.308913,2911.162892,9178.553681
5361.689589,-222.061783,2451.505594,8068.244768
5361.689912,-1258.350101,1302.362347,8586.388927
5361.690235,-1924.535449,1225.752797,8142.265362
5361.690558,-1332.370696,1991.848295,8438.347739
5361.690881,-1924.535449,1149.143247,8882.471304
5361.691204,-3552.988522,383.047749,9252.574275
5361.691526,-1850.514855,0.000000,9178.553681
5361.691849,-296.082377,0.000000,8882.471304
5361.692172,-444.123565,1455.581446,8734.430116
5361.692495,-1702.473667,1532.190996,9844.739029
5361.692818,-888.247130,612.876398,10214.842000
5361.693141,222.061783,919.314598,9696.697840
5361.693464,1184.329507,1685.410096,8660.409521
5361.693786,0.000000,995.924147,10140.821405
5361.694109,-1036.288319,306.438199,10658.965565
5361.694432,-1184.329507,76.609550,10436.903782
5361.694755,0.000000,383.047749,7920.203579
5361.695078,-666.185348,229.828649,8734.430116
5361.695401,-814.226536,-536.266849,9400.615463
5361.695723,-296.082377,-536.266849,10436.903782
5361.696046,666.185348,0.000000,8438.347739
5361.696369,370.102971,306.438199,7476.080014
5361.696692,814.226536,153.219100,8586.388927
5361.697015,444.123565,0.000000,9844.739029
5361.697338,-666.185348,229.828649,8808.450710
5361.697661,518.144159,0.000000,9178.553681
5361.697983,-1110.308913,-689.485948,9474.636058
5361.698306,-1332.370696,-1302.362347,9918.759623
5361.698629,-1110.308913,-1225.752797,10140.821405
5361.698952,-444.123565,-919.314598,9178.553681
5361.699275,0.000000,-766.095498,9178.553681
5361.699598,-1554.432478,-1225.752797,10066.800811
5361.699920,0.000000,-1072.533697,9844.739029
5361.700243,1702.473667,-1225.752797,8438.347739
5361.700566,444.123565,-459.657299,8734.430116
5361.700889,370.102971,-766.095498,9992.780217
5361.701212,-222.061783,-766.095498,11695.253884
5361.701535,-148.041188,-689.485948,9918.759623
5361.701858,1480.411884,-689.485948,8364.327145
5361.702180,-740.205942,-459.657299,9696.697840
5361.702503,-592.164754,-306.438199,10881.027347
5361.702826,-592.164754,-536.266849,10955.047942
5361.703149,-296.082377,-306.438199,8438.347739
5361.703472,0.000000,-383.047749,9474.636058
5361.703795,-1480.411884,-459.657299,10436.903782
5361.704118,-370.102971,-766.095498,10658.965565
5361.704440,148.041188,-536.266849,9252.574275
5361.704763,-962.267725,-153.219100,9326.594869
5361.705086,-370.102971,-383.047749,9474.636058
5361.705409,-222.061783,153.219100,9770.718434
5361.705732,740.205942,1915.238745,8808.450710
5361.706055,1110.308913,1991.848295,8808.450710
5361.706377,0.000000,1302.362347,8734.430116
5361.706700,0.000000,1685.410096,8364.327145
5361.707023,1628.453072,2145.067394,7328.038826
5361.707346,370.102971,2145.067394,8512.368333
5361.707669,0.000000,2298.286494,8438.347739
5361.707992,-888.247130,1149.143247,10362.883188
5361.708315,0.000000,1762.019645,8882.471304
5361.708637,0.000000,2451.505594,8660.409521
5361.708960,-370.102971,1685.410096,8438.347739
5361.709283,-666.185348,1991.848295,10288.862594
5361.709606,0.000000,1991.848295,10140.821405
5361.709929,0.000000,2681.334243,9178.553681
5361.710252,-148.041188,2528.115143,8660.409521
5361.710574,-666.185348,2068.457845,8512.368333
5361.710897,-1036.288319,2145.067394,9104.533087
5361.711220,-740.205942,2604.724693,7920.203579
5361.711543,-1406.391290,1838.629195,8660.409521
5361.711866,-1332.370696,1378.971896,7550.100608
5361.712189,-296.082377,1608.800546,9474.636058
5361.712512,-148.041188,2068.457845,8734.430116
5361.712834,-444.123565,2145.067394,8216.285956
5361.713157,0.000000,1149.143247,8660.409521
5361.713480,666.185348,1838.629195,9548.656652
5361.713803,1628.453072,1762.019645,9178.553681
5361.714126,1406.391290,1991.848295,9400.615463
5361.714449,0.000000,1762.019645,9918.759623
5361.714771,-1258.350101,842.705048,11325.150913
5361.715094,-592.164754,383.047749,9696.697840
5361.715417,444.123565,612.876398,8364.327145
5361.715740,296.082377,306.438199,8290.306550
5361.716063,-666.185348,383.047749,9696.697840
5361.716386,-888.247130,-229.828649,9178.553681
5361.716709,0.000000,229.828649,8882.471304
5361.717031,74.020594,-153.219100,7254.018232
5361.717354,0.000000,-995.924147,9252.574275
5361.717677,-592.164754,-536.266849,10066.800811
5361.718000,666.185348,153.219100,10658.965565
5361.718323,888.247130,153.219100,9770.718434
5361.718646,-1998.556043,-1149.143247,10362.883188
5361.718969,-962.267725,-1532.190996,10288.862594
5361.719291,296.082377,-1532.190996,9696.697840
5361.719614,444.123565,-689.485948,9770.718434
5361.719937,370.102971,-612.876398,9844.739029
5361.720260,-666.185348,-1225.752797,10140.821405
5361.720583,1036.288319,-1149.143247,8734.430116
5361.720906,888.247130,-536.266849,7994.224174
5361.721228,0.000000,-459.657299,8216.285956
5361.721551,0.000000,-689.485948,10362.883188
5361.721874,-666.185348,-1378.971896,10214.842000
5361.722197,-148.041188,-1225.752797,8290.306550
5361.722520,296.082377,-689.485948,8512.368333
5361.722843,-2368.659014,0.000000,9622.677246
5361.723166,-1480.411884,-1225.752797,10362.883188
5361.723488,-592.164754,-1072.533697,10362.883188
5361.723811,0.000000,0.000000,9104.533087
5361.724134,444.123565,-459.657299,9104.533087
5361.724457,-296.082377,-766.095498,10881.027347
5361.724780,518.144159,0.000000,10732.986159
5361.725103,0.000000,689.485948,11473.192101
5361.725425,-814.226536,306.438199,9992.780217
5361.725748,-444.123565,-536.266849,10436.903782
5361.726071,-148.041188,-383.047749,9400.615463
5361.726394,-296.082377,1225.752797,9474.636058
5361.726717,0.000000,919.314598,8808.450710
5361.727040,-962.267725,612.876398,9474.636058
5361.727363,-296.082377,1072.533697,8512.368333
5361.727685,370.102971,1532.190996,8290.306550
5361.728008,-518.144159,1838.629195,8734.430116
5361.728331,-1184.329507,2068.457845,9400.615463
5361.728654,-814.226536,1608.800546,9844.739029
5361.728977,296.082377,1838.629195,9030.512492
5361.729300,1110.308913,2757.943793,7328.038826
5361.729623,444.123565,2221.676944,8142.265362
5361.729945,296.082377,2298.286494,9474.636058
5361.730268,518.144159,2987.772442,8216.285956
5361.730591,888.247130,2987.772442,7476.080014
5361.730914,1406.391290,2528.115143,6513.812290
5361.731237,740.205942,2528.115143,8882.471304
5361.731560,1036.288319,3140.991542,9326.594869
5361.731882,1332.370696,2604.724693,9770.718434
5361.732205,-296.082377,2681.334243,9622.677246
5361.732528,-1258.350101,2145.067394,9326.594869
5361.732851,-888.247130,842.705048,9844.739029
5361.733174,222.061783,1915.238745,9104.533087
5361.733497,-592.164754,2298.286494,9326.594869
5361.733820,-1184.329507,1915.238745,9622.677246
5361.734142,-1702.473667,995.924147,9622.677246
5361.734465,0.000000,842.705048,8512.368333
5361.734788,-370.102971,1225.752797,8364.327145
5361.735111,-1702.473667,995.924147,9548.656652
5361.735434,-1998.556043,306.438199,11325.150913
5361.735757,-1776.494261,612.876398,10584.944971
5361.736079,-296.082377,383.047749,9326.594869
5361.736402,-814.226536,-76.609550,8808.450710
5361.736725,-1332.370696,76.609550,10362.883188
5361.737048,666.185348,919.314598,9844.739029
5361.737371,1480.411884,536.266849,8956.491898
5361.737694,2294.638420,1225.752797,7105.977043
5361.738017,1628.453072,153.219100,8290.306550
5361.738339,296.082377,0.000000,8956.491898
5361.738662,888.247130,612.876398,9252.574275
5361.738985,518.144159,995.924147,8734.430116
5361.739308,0.000000,-842.705048,8882.471304
5361.739631,296.082377,-1225.752797,9400.615463
5361.739954,-74.020594,-76.609550,9696.697840
5361.740277,-148.041188,0.000000,9770.718434
5361.740599,-1036.288319,-766.095498,9770.718434
5361.740922,-1554.432478,-995.924147,9844.739029
5361.741245,1036.288319,-842.705048,8216.285956
5361.741568,962.267725,-383.047749,8438.347739
5361.741891,-296.082377,0.000000,8438.347739
5361.742214,-1184.329507,-1302.362347,10436.903782
5361.742536,-1776.494261,-2221.676944,8586.388927
5361.742859,-740.205942,-1608.800546,7698.141797
5361.743182,-1184.329507,-1225.752797,8956.491898
5361.743505,-3330.926739,-1455.581446,10807.006753
5361.743828,-2294.638420,-1762.019645,10881.027347
5361.744151,-962.267725,-1685.410096,9622.677246
5361.744474,444.123565,-1302.362347,9474.636058
5361.744796,-592.164754,-1685.410096,10955.047942
5361.745119,-1110.308913,-1072.533697,12287.418637
5361.745442,1480.411884,-229.828649,11473.192101
5361.745765,1924.535449,153.219100,9918.759623
5361.746088,814.226536,766.095498,9696.697840
5361.746411,370.102971,-995.924147,10658.965565
5361.746733,888.247130,459.657299,10066.800811
5361.747056,2220.617826,1532.190996,8956.491898
5361.747379,1480.411884,1072.533697,9252.574275
5361.747702,-592.164754,689.485948,10066.800811
5361.748025,-592.164754,766.095498,9548.656652
5361.748348,0.000000,536.266849,8142.265362
5361.748670,0.000000,1149.143247,8068.244768
5361.748993,-1406.391290,1225.752797,9030.512492
5361.749315,-2516.700203,995.924147,10288.862594
5361.749638,0.000000,1072.533697,8512.368333
5361.749961,444.123565,1915.238745,7179.997637
5361.750283,-148.041188,2374.896044,7328.038826
5361.750606,-666.185348,2298.286494,9622.677246
5361.750928,222.061783,2834.553343,9252.574275
5361.751251,962.267725,3830.477490,8142.265362
5361.751574,1924.535449,2681.334243,7105.977043
5361.751896,-370.102971,2451.505594,8586.388927
5361.752219,-518.144159,2757.943793,9178.553681
5361.752542,0.000000,2757.943793,8956.491898
5361.752864,0.000000,2374.896044,7105.977043
5361.753187,-962.267725,2068.457845,7624.121203
5361.753509,-1110.308913,1762.019645,8438.347739
5361.753832,74.020594,2451.505594,8290.306550
5361.754155,-666.185348,2681.334243,8290.306550
5361.754477,-814.226536,1991.848295,9326.594869
5361.754800,-370.102971,1762.019645,9400.615463
5361.755123,74.020594,2068.457845,9474.636058
5361.755445,518.144159,2911.162892,9400.615463
5361.755768,-1480.411884,1915.238745,10436.903782
5361.756090,-1184.329507,1149.143247,10214.842000
5361.756413,-592.164754,766.095498,9696.697840
5361.756736,-370.102971,1072.533697,9474.636058
5361.757058,-1110.308913,842.705048,9844.739029
5361.757381,-1554.432478,306.438199,10732.986159
5361.757704,-222.061783,-153.219100,10214.842000
5361.758026,666.185348,459.657299,8882.471304
5361.758349,518.144159,229.828649,8882.471304
5361.758671,296.082377,153.219100,10214.842000
5361.758994,0.000000,-383.047749,10288.862594
5361.759317,518.144159,-153.219100,9252.574275
5361.759639,-592.164754,0.000000,9104.533087
5361.759962,-1258.350101,-1225.752797,9252.574275
5361.760285,-814.226536,-2528.115143,9992.780217
5361.760607,0.000000,-1225.752797,8438.347739
5361.760930,370.102971,-612.876398,8216.285956
5361.761252,0.000000,-689.485948,8956.491898
5361.761575,-518.144159,-995.924147,9400.615463
5361.761898,1924.535449,-1149.143247,8364.327145
5361.762220,2072.576638,-536.266849,7994.224174
5361.762543,0.000000,-612.876398,8512.368333
5361.762865,-740.205942,-1455.581446,11251.130318
5361.763188,-518.144159,-1378.971896,10436.903782
5361.763511,740.205942,-1225.752797,9474.636058
5361.763833,814.226536,-1378.971896,9030.512492
5361.764156,-1036.288319,-1915.238745,10732.986159
5361.764479,-1258.350101,-1225.752797,10881.027347
5361.764801,-962.267725,-1225.752797,9844.739029
5361.765124,592.164754,-689.485948,8438.347739
5361.765446,-296.082377,-612.876398,9696.697840
5361.765769,-1110.308913,-689.485948,11325.150913
5361.766092,148.041188,-383.047749,11399.171507
5361.766414,-370.102971,-459.657299,9622.677246
5361.766737,-1332.370696,-536.266849,9104.533087
5361.767060,0.000000,-1072.533697,10214.842000
5361.767382,-962.267725,153.219100,10732.986159
5361.767705,0.000000,1225.752797,10140.821405
5361.768027,-518.144159,153.219100,9474.636058
5361.768350,-1776.494261,0.000000,9326.594869
5361.768673,-666.185348,153.219100,9104.533087
5361.768995,-740.205942,995.924147,8660.409521
5361.769318,-296.082377,1225.752797,8586.388927
5361.769641,-1480.411884,1225.752797,9918.759623
5361.769963,-148.041188,1072.533697,8364.327145
5361.770286,962.267725,1838.629195,7772.162391
5361.770608,592.164754,2451.505594,5995.668130
5361.770931,370.102971,2374.896044,7846.182985
5361.771254,1184.329507,2451.505594,8660.409521
5361.771576,1480.411884,3370.820191,8586.388927
5361.771899,2886.803174,3600.648841,8142.265362
5361.772222,1184.329507,2528.115143,8586.388927
5361.772544,222.061783,2451.505594,10288.862594
5361.772867,592.164754,2451.505594,10066.800811
5361.773189,222.061783,2604.724693,9474.636058
5361.773512,-592.164754,2374.896044,8660.409521
5361.773835,-296.082377,1685.410096,8882.471304
5361.774157,-814.226536,383.047749,8956.491898
5361.774480,814.226536,3140.991542,7772.162391
5361.774803,-444.123565,2451.505594,7846.182985
5361.775125,-444.123565,2374.896044,8882.471304
5361.775448,74.020594,1915.238745,9474.636058
5361.775770,296.082377,2298.286494,8290.306550
5361.776093,148.041188,2528.115143,9548.656652
5361.776416,-1850.514855,1685.410096,10732.986159
5361.776738,-2368.659014,229.828649,11547.212695
5361.777061,-1480.411884,0.000000,9770.718434
5361.777383,-1036.288319,383.047749,9104.533087
5361.777706,-814.226536,995.924147,9178.553681
5361.778029,-2072.576638,229.828649,10510.924376
5361.778351,148.041188,612.876398,9770.718434
5361.778674,1406.391290,1608.800546,7698.141797
5361.778997,1998.556043,1838.629195,7402.059420
5361.779319,814.226536,689.485948,9696.697840
5361.779642,444.123565,536.266849,10362.883188
5361.779964,222.061783,766.095498,9918.759623
5361.780287,0.000000,689.485948,9030.512492
5361.780610,-666.185348,0.000000,9252.574275
5361.780932,-1110.308913,-995.924147,9770.718434
5361.781255,-370.102971,-306.438199,8882.471304
5361.781578,0.000000,76.609550,8660.409521
5361.781900,-740.205942,0.000000,8512.368333
5361.782223,-962.267725,-612.876398,9918.759623
5361.782545,148.041188,-1225.752797,8512.368333
5361.782868,74.020594,-842.705048,8438.347739
5361.783191,-370.102971,-383.047749,8364.327145
5361.783513,-1480.411884,-1915.238745,11473.192101
5361.783836,-1998.556043,-1685.410096,10436.903782
5361.784159,-222.061783,-1685.410096,9696.697840
5361.784481,-444.123565,-995.924147,9178.553681
5361.784804,-1480.411884,-919.314598,9918.759623
5361.785126,-740.205942,-1378.971896,9992.780217
5361.785449,-370.102971,-766.095498,9030.512492
5361.785772,148.041188,-919.314598,7920.203579
5361.786094,-888.247130,-612.876398,9400.615463
5361.786417,-148.041188,-536.266849,10510.924376
5361.786740,444.123565,-919.314598,10584.944971
5361.787062,-148.041188,-612.876398,9474.636058
5361.787385,-666.185348,-995.924147,9918.759623
5361.787707,-518.144159,-1685.410096,11399.171507
5361.788030,-444.123565,-1072.533697,11325.150913
5361.788353,-370.102971,-306.438199,10140.821405
5361.788675,-222.061783,-383.047749,9770.718434
5361.788998,-444.123565,0.000000,10140.821405
5361.789320,296.082377,536.266849,10362.883188
5361.789643,222.061783,536.266849,9326.594869
5361.789966,740.205942,766.095498,8068.244768
5361.790288,-296.082377,459.657299,9326.594869
5361.790611,0.000000,1302.362347,9622.677246
5361.790934,1554.432478,1302.362347,8660.409521
5361.791256,370.102971,1072.533697,7698.141797
5361.791579,0.000000,1072.533697,8364.327145
5361.791901,-1036.288319,689.485948,9178.553681
5361.792224,-444.123565,1532.190996,8882.471304
5361.792547,888.247130,2451.505594,7772.162391
5361.792869,518.144159,2068.457845,7550.100608
5361.793192,-888.247130,1072.533697,9770.718434
5361.793515,222.061783,2145.067394,8882.471304
5361.793837,-296.082377,2528.115143,8660.409521
5361.794160,222.061783,2681.334243,7476.080014
5361.794482,444.123565,2068.457845,9178.553681
5361.794805,1258.350101,2298.286494,8956.491898
5361.795128,1480.411884,3677.258390,8438.347739
5361.795450,1554.432478,3064.381992,8290.306550
5361.795773,962.267725,1838.629195,8956.491898
5361.796096,1184.329507,2145.067394,9178.553681
5361.796418,740.205942,2298.286494,9178.553681
5361.796741,518.144159,2834.553343,9474.636058
5361.797063,-740.205942,2604.724693,10881.027347
5361.797386,-2220.617826,1532.190996,10288.862594
5361.797709,-1036.288319,1072.533697,9992.780217
5361.798031,-1258.350101,995.924147,8808.450710
5361.798354,-1924.535449,1072.533697,9992.780217
5361.798677,-2368.659014,995.924147,10955.047942
5361.798999,-1332.370696,995.924147,10658.965565
5361.799322,-148.041188,1532.190996,7920.203579
5361.799644,-962.267725,919.314598,8216.285956
5361.799967,-518.144159,612.876398,9474.636058
5361.800290,-666.185348,766.095498,9696.697840
5361.800612,-222.061783,689.485948,8660.409521
5361.800935,-592.164754,459.657299,8216.285956
5361.801258,-1110.308913,-306.438199,9400.615463
5361.801580,-1480.411884,0.000000,9696.697840
5361.801903,-296.082377,306.438199,9696.697840
5361.802225,296.082377,459.657299,8512.368333
5361.802548,222.061783,-229.828649,9030.512492
5361.802871,592.164754,-229.828649,9178.553681
5361.803193,1850.514855,0.000000,8956.491898
5361.803516,1258.350101,536.266849,8734.430116
5361.803838,666.185348,229.828649,9474.636058
5361.804161,296.082377,-1378.971896,9992.780217
5361.804484,1036.288319,-1149.143247,9252.574275
5361.804806,1406.391290,-689.485948,9030.512492
5361.805129,444.123565,-766.095498,8660.409521
5361.805452,-1036.288319,-1532.190996,10140.821405
5361.805774,-888.247130,-1149.143247,9992.780217
5361.806097,-74.020594,-919.314598,9400.615463
5361.806419,148.041188,-1225.752797,8512.368333
5361.806742,-1258.350101,-1302.362347,10436.903782
5361.807065,-888.247130,-2451.505594,10658.965565
5361.807387,-1036.288319,-1532.190996,11769.274478
5361.807710,-1406.391290,-1149.143247,9844.739029
5361.808033,-1554.432478,-1762.019645,10288.862594
5361.808355,-1406.391290,-2221.676944,10658.965565
5361.808678,-1702.473667,-1455.581446,10436.903782
5361.809000,296.082377,-766.095498,9178.553681
5361.809323,-592.164754,-842.705048,10140.821405
5361.809646,-1850.514855,-1072.533697,9622.677246
5361.809968,-148.041188,-995.924147,9400.615463
5361.810291,666.185348,306.438199,8364.327145
5361.810614,370.102971,1149.143247,9474.636058
5361.810936,-1702.473667,-536.266849,11103.089130
5361.811259,0.000000,459.657299,10214.842000
5361.811581,1850.514855,612.876398,8142.265362
5361.811904,814.226536,1072.533697,8068.244768
5361.812227,-148.041188,1225.752797,10140.821405
5361.812549,-370.102971,612.876398,10732.986159
5361.812872,592.164754,1455.581446,9400.615463
5361.813195,2368.659014,1608.800546,7031.956449
5361.813517,1110.308913,1838.629195,8364.327145
5361.813840,0.000000,1455.581446,9252.574275
5361.814162,74.020594,1991.848295,9844.739029
5361.814485,74.020594,2221.676944,8512.368333
5361.814808,0.000000,2451.505594,8142.265362
5361.815130,-222.061783,1915.238745,9178.553681
5361.815453,74.020594,1915.238745,9474.636058
5361.815775,740.205942,2987.772442,7994.224174
5361.816098,-296.082377,3064.381992,7476.080014
5361.816421,-444.123565,2374.896044,7550.100608
5361.816743,-444.123565,1838.629195,8660.409521
5361.817066,-740.205942,2451.505594,8586.388927
5361.817389,-1036.288319,2145.067394,8808.450710
5361.817711,-1776.494261,1838.629195,8586.388927
5361.818034,-2072.576638,1608.800546,9252.574275
5361.818356,-592.164754,1838.629195,9622.677246
5361.818679,-888.247130,2451.505594,8660.409521
5361.819002,-296.082377,2528.115143,9474.636058
5361.819324,148.041188,1991.848295,9918.759623
5361.819647,1184.329507,1991.848295,9474.636058
5361.819970,2294.638420,2068.457845,8142.265362
5361.820292,1110.308913,2374.896044,9030.512492
5361.820615,814.226536,1685.410096,10140.821405
5361.820937,518.144159,995.924147,10214.842000
5361.821260,-296.082377,1072.533697,9104.533087
5361.821583,0.000000,536.266849,8660.409521
5361.821905,-2368.659014,-689.485948,9844.739029
5361.822228,-1776.494261,0.000000,9770.718434
5361.822551,0.000000,229.828649,9844.739029
5361.822873,-888.247130,612.876398,8808.450710
5361.823196,-1110.308913,-153.219100,8882.471304
5361.823518,-1184.329507,-766.095498,9992.780217
5361.823841,296.082377,0.000000,9030.512492
5361.824164,74.020594,-76.609550,8586.388927
5361.824486,-888.247130,-689.485948,8438.347739
5361.824809,-962.267725,-1838.629195,10066.800811
5361.825132,-518.144159,-1762.019645,9548.656652
5361.825454,518.144159,-1149.143247,8438.347739
5361.825777,-222.061783,-1915.238745,9992.780217
5361.826099,-1554.432478,-2068.457845,10807.006753
5361.826422,-444.123565,-1991.848295,10584.944971
5361.826745,740.205942,-1762.019645,9030.512492
5361.827067,1258.350101,-1149.143247,8808.450710
5361.827390,74.020594,-1225.752797,10362.883188
5361.827712,-518.144159,-1532.190996,10066.800811
5361.828035,222.061783,-1302.362347,10066.800811
5361.828358,296.082377,-919.314598,7920.203579
5361.828680,-222.061783,-1455.581446,9474.636058
5361.829003,-296.082377,-1378.971896,10881.027347
5361.829326,-666.185348,-1225.752797,11325.150913
5361.829648,74.020594,76.609550,9992.780217
5361.829971,-592.164754,-766.095498,9770.718434
5361.830293,-592.164754,-1608.800546,9474.636058
5361.830616,-962.267725,-1532.190996,10510.924376
5361.830939,-222.061783,-383.047749,9030.512492
5361.831261,74.020594,-306.438199,9770.718434
5361.831584,-518.144159,153.219100,9992.780217
5361.831907,296.082377,153.219100,9474.636058
5361.832229,1258.350101,1072.533697,7772.162391
5361.832552,222.061783,1838.629195,7698.141797
5361.832874,296.082377,1378.971896,9400.615463
5361.833197,0.000000,842.705048,9696.697840
5361.833520,74.020594,1762.019645,9030.512492
5361.833842,962.267725,1838.629195,7476.080014
5361.834165,-814.226536,1225.752797,7994.224174
5361.834488,-1110.308913,1685.410096,9548.656652
5361.834810,-1258.350101,1455.581446,9252.574275
5361.835133,-666.185348,1608.800546,8660.409521
5361.835455,-296.082377,2298.286494,8290.306550
5361.835778,-444.123565,1991.848295,9400.615463
5361.836101,1184.329507,2451.505594,9252.574275
5361.836423,2294.638420,3370.820191,8216.285956
5361.836746,370.102971,3830.477490,8364.327145
5361.837069,2146.597232,3294.210641,9104.533087
5361.837391,1776.494261,3064.381992,8734.430116
5361.837714,1554.432478,3753.867940,8068.244768
5361.838036,1332.370696,3140.991542,8882.471304
5361.838359,-666.185348,2145.067394,9474.636058
5361.838682,-1850.514855,1991.848295,9474.636058
5361.839004,-296.082377,1455.581446,9030.512492
5361.839327,-962.267725,1455.581446,9030.512492
5361.839650,-1258.350101,1762.019645,8956.491898
5361.839972,-1776.494261,1225.752797,10510.924376
5361.840295,-444.123565,1915.238745,9252.574275
5361.840617,0.000000,1838.629195,8364.327145
5361.840940,-1110.308913,1302.362347,8142.265362
5361.841263,-1554.432478,1072.533697,10288.862594
5361.841585,-1332.370696,919.314598,9474.636058
5361.841908,-592.164754,306.438199,8808.450710
5361.842230,-518.144159,153.219100,8290.306550
5361.842553,-1554.432478,-689.485948,9400.615463
5361.842876,-1036.288319,-229.828649,9918.759623
5361.843198,222.061783,689.485948,9696.697840
5361.843521,222.061783,842.705048,9326.594869
5361.843844,0.000000,76.609550,9326.594869
5361.844166,148.041188,-383.047749,9992.780217
5361.844489,1702.473667,-153.219100,9474.636058
5361.844811,1110.308913,383.047749,9696.697840
5361.845134,-148.041188,-459.657299,10436.903782
5361.845457,-666.185348,-1149.143247,10658.965565
5361.845779,296.082377,-1225.752797,9844.739029
5361.846102,1110.308913,-612.876398,8734.430116
5361.846425,518.144159,-1225.752797,9104.533087
5361.846747,-814.226536,-1302.362347,9844.739029
5361.847070,-814.226536,-1225.752797,9474.636058
5361.847392,148.041188,-1072.533697,7846.182985
5361.847715,0.000000,-919.314598,7698.141797
5361.848038,-1480.411884,-1302.362347,9992.780217
5361.848360,-814.226536,-766.095498,9622.677246
5361.848683,296.082377,-919.314598,10362.883188
5361.849005,-1184.329507,-995.924147,8290.306550
5361.849328,-592.164754,-1302.362347,9622.677246
5361.849650,-1554.432478,-1762.019645,10584.944971
5361.849973,-592.164754,-536.266849,9622.677246
5361.850296,0.000000,0.000000,9918.759623
5361.850618,-1110.308913,-766.095498,8956.491898
5361.850941,-592.164754,-1532.190996,9844.739029
5361.851263,-296.082377,-995.924147,8660.409521
5361.851586,148.041188,0.000000,9770.718434
5361.851908,-1184.329507,383.047749,9918.759623
5361.852231,-1406.391290,-306.438199,10807.006753
5361.852554,0.000000,-383.047749,9770.718434
5361.852876,962.267725,76.609550,8586.388927
5361.853199,518.144159,1608.800546,8882.471304
5361.853521,666.185348,1455.581446,9844.739029
5361.853844,148.041188,536.266849,10584.944971
5361.854166,814.226536,919.314598,8586.388927
5361.854489,740.205942,919.314598,8808.450710
5361.854811,-518.144159,1225.752797,9622.677246
5361.855134,-814.226536,536.266849,10436.903782
5361.855457,-444.123565,1302.362347,9326.594869
5361.855779,0.000000,1532.190996,8142.265362
5361.856102,592.164754,2298.286494,7624.121203
5361.856424,-740.205942,2221.676944,10214.842000
5361.856747,814.226536,2834.553343,9326.594869
5361.857069,1924.535449,2911.162892,7846.182985
5361.857392,740.205942,3140.991542,7105.977043
5361.857715,1184.329507,2451.505594,8660.409521
5361.858037,1184.329507,2221.676944,9104.533087
5361.858360,0.000000,2451.505594,8734.430116
5361.858682,592.164754,2604.724693,7846.182985
5361.859005,-814.226536,1762.019645,8808.450710
5361.859327,-962.267725,1838.629195,8586.388927
5361.859650,740.205942,2221.676944,8512.368333
5361.859972,740.205942,2681.334243,7476.080014
5361.860295,296.082377,1685.410096,8512.368333
5361.860618,-370.102971,2374.896044,9622.677246
5361.860940,444.123565,2451.505594,9178.553681
5361.861263,1258.350101,2451.505594,8216.285956
5361.861585,0.000000,2221.676944,8808.450710
5361.861908,-444.123565,689.485948,10658.965565
5361.862230,-1480.411884,612.876398,10510.924376
5361.862553,74.020594,1608.800546,9474.636058
5361.862876,-1332.370696,919.314598,9696.697840
5361.863198,-1924.535449,0.000000,9918.759623
5361.863521,-2146.597232,-306.438199,10288.862594
5361.863843,-296.082377,229.828649,8956.491898
5361.864166,-814.226536,383.047749,9918.759623
5361.864488,-888.247130,76.609550,9770.718434
5361.864811,-370.102971,-306.438199,10288.862594
5361.865133,1110.308913,536.266849,9622.677246
5361.865456,222.061783,766.095498,9400.615463
5361.865779,-962.267725,76.609550,10955.047942
5361.866101,-814.226536,-766.095498,11029.068536
5361.866424,222.061783,-842.705048,9030.512492
5361.866746,0.000000,-536.266849,7476.080014
5361.867069,-814.226536,-153.219100,8216.285956
5361.867391,-2442.679609,-612.876398,9474.636058
5361.867714,-1184.329507,-766.095498,8512.368333
5361.868037,0.000000,-842.705048,8512.368333
5361.868359,-222.061783,-766.095498,8216.285956
5361.868682,-1258.350101,-1608.800546,10510.924376
5361.869004,-518.144159,-1685.410096,10066.800811
5361.869327,592.164754,-842.705048,9548.656652
5361.869649,518.144159,-459.657299,7698.141797
5361.869972,370.102971,-306.438199,8512.368333
5361.870294,1258.350101,-306.438199,10140.821405
5361.870617,1480.411884,76.609550,8734.430116
5361.870940,1850.514855,689.485948,8438.347739
5361.871262,962.267725,306.438199,8364.327145
5361.871585,518.144159,-612.876398,8882.471304
5361.871907,0.000000,-766.095498,9844.739029
5361.872230,-222.061783,0.000000,9548.656652
5361.872552,-1850.514855,-766.095498,10288.862594
5361.872875,-2368.659014,-1455.581446,10362.883188
5361.873198,-1406.391290,-1685.410096,10510.924376
5361.873520,-148.041188,-459.657299,9030.512492
5361.873843,-1480.411884,0.000000,9178.553681
5361.874165,-1480.411884,-536.266849,10362.883188
5361.874488,-518.144159,0.000000,10807.006753
5361.874810,444.123565,536.266849,9326.594869
5361.875133,814.226536,766.095498,8956.491898
5361.875455,0.000000,612.876398,9918.759623
5361.875778,-296.082377,1072.533697,10881.027347
5361.876101,296.082377,383.047749,10362.883188
5361.876423,962.267725,1838.629195,9326.594869
5361.876746,814.226536,1455.581446,9104.533087
5361.877068,592.164754,1149.143247,10214.842000
5361.877391,1406.391290,1838.629195,9696.697840
5361.877713,1480.411884,1915.238745,8438.347739
5361.878036,1332.370696,2298.286494,8142.265362
5361.878359,1110.308913,1915.238745,8586.388927
5361.878681,296.082377,2374.896044,9326.594869
5361.879004,592.164754,3064.381992,8290.306550
5361.879326,148.041188,2298.286494,7920.203579
5361.879649,-1554.432478,1532.190996,8438.347739
5361.879971,-1110.308913,1762.019645,8660.409521
5361.880294,-518.144159,1991.848295,7550.100608
5361.880616,-592.164754,2528.115143,7179.997637
5361.880939,-1184.329507,2451.505594,8068.244768
5361.881262,-74.020594,1838.629195,8882.471304
5361.881584,814.226536,2834.553343,9030.512492
5361.881907,888.247130,2681.334243,7846.182985
5361.882229,0.000000,2068.457845,9474.636058
5361.882552,-1258.350101,1685.410096,10510.924376
5361.882874,-1110.308913,2068.457845,10510.924376
5361.883197,-222.061783,1378.971896,8882.471304
5361.883520,-1110.308913,1072.533697,8808.450710
5361.883842,-1776.494261,383.047749,10658.965565
5361.884165,-1850.514855,0.000000,9770.718434
5361.884487,-1184.329507,229.828649,9326.594869
5361.884810,-1332.370696,612.876398,8068.244768
5361.885132,-1258.350101,383.047749,8586.388927
5361.885455,-518.144159,-153.219100,9178.553681
5361.885777,962.267725,919.314598,8882.471304
5361.886100,148.041188,153.219100,9400.615463
5361.886423,-740.205942,0.000000,9918.759623
5361.886745,0.000000,-229.828649,11473.192101
5361.887068,1332.370696,153.219100,10066.800811
5361.887390,1924.535449,536.266849,9918.759623
5361.887713,962.267725,0.000000,9918.759623
5361.888035,148.041188,-229.828649,11251.130318
5361.888358,1332.370696,-766.095498,9252.574275
5361.888681,1702.473667,-306.438199,8438.347739
5361.889003,888.247130,0.000000,9474.636058
5361.889326,-370.102971,-383.047749,10140.821405
5361.889648,0.000000,-1072.533697,10362.883188
5361.889971,0.000000,-229.828649,8438.347739
5361.890293,-1850.514855,-995.924147,8290.306550
5361.890616,-2294.638420,-1608.800546,8882.471304
5361.890938,-1850.514855,-1149.143247,9548.656652
5361.891261,-1258.350101,-536.266849,8660.409521
5361.891584,-1702.473667,-612.876398,8068.244768
5361.891906,-2516.700203,-1685.410096,8660.409521
5361.892229,-1998.556043,-1455.581446,8290.306550
5361.892551,-1406.391290,-689.485948,9400.615463
5361.892874,-518.144159,0.000000,9474.636058
5361.893196,-222.061783,-766.095498,9918.759623
5361.893519,222.061783,-689.485948,10214.842000
5361.893842,2294.638420,0.000000,9622.677246
5361.894164,3182.885551,919.314598,9104.533087
5361.894487,2738.761985,1915.238745,10658.965565
5361.894809,2294.638420,1072.533697,11251.130318
5361.895132,2812.782580,1072.533697,10140.821405
5361.895454,3627.009116,1225.752797,8734.430116
5361.895777,2738.761985,1608.800546,9178.553681
5361.896099,740.205942,842.705048,10362.883188
5361.896422,-962.267725,153.219100,11029.068536
5361.896745,-1628.453072,229.828649,9622.677246
5361.897067,-814.226536,76.609550,8808.450710
5361.897390,-3701.029710,0.000000,8660.409521
5361.897712,-3627.009116,0.000000,9474.636058
5361.898035,-3330.926739,76.609550,9474.636058
5361.898357,-2368.659014,919.314598,7254.018232
5361.898680,-2664.741391,612.876398,8068.244768
5361.899002,-1924.535449,995.924147,7772.162391
5361.899325,-1332.370696,1072.533697,9770.718434
5361.899648,-592.164754,2221.676944,8142.265362
5361.899970,-740.205942,1838.629195,9474.636058
5361.900293,-962.267725,1608.800546,9104.533087
5361.900615,518.144159,1838.629195,9030.512492
5361.900938,1702.473667,2374.896044,8142.265362
5361.901260,3108.864956,3677.258390,7846.182985
5361.901583,1702.473667,3524.039291,9548.656652
5361.901906,2368.659014,2681.334243,9252.574275
5361.902228,3330.926739,2528.115143,9104.533087
5361.902551,3108.864956,2911.162892,7698.141797
5361.902873,1850.514855,2374.896044,9622.677246
5361.903196,666.185348,1991.848295,10288.862594
5361.903518,-296.082377,1455.581446,10510.924376
5361.903841,-666.185348,1685.410096,8512.368333
5361.904163,-1110.308913,153.219100,8808.450710
5361.904486,-3256.906145,612.876398,9474.636058
5361.904809,-3404.947333,229.828649,9548.656652
5361.905131,-2368.659014,536.266849,8068.244768
5361.905454,-2368.659014,842.705048,8734.430116
5361.905776,-2664.741391,536.266849,9252.574275
5361.906099,-2664.741391,76.609550,9770.718434
5361.906421,-962.267725,536.266849,9252.574275
5361.906744,-1850.514855,-229.828649,9548.656652
5361.907067,-2368.659014,-689.485948,9622.677246
5361.907389,-1924.535449,-1302.362347,10658.965565
5361.907712,-222.061783,-459.657299,10288.862594
5361.908034,666.185348,383.047749,9696.697840
5361.908357,888.247130,689.485948,9918.759623
5361.908679,2294.638420,383.047749,9770.718434
5361.909002,3108.864956,1225.752797,8586.388927
5361.909324,3775.050304,2145.067394,8808.450710
5361.909647,2738.761985,1455.581446,9622.677246
5361.909970,1406.391290,1149.143247,10732.986159
5361.910292,1998.556043,383.047749,9104.533087
5361.910615,1924.535449,0.000000,8068.244768
5361.910937,666.185348,383.047749,7624.121203
5361.911260,-1110.308913,-766.095498,9696.697840
5361.911582,-1628.453072,-1225.752797,9178.553681
5361.911905,-1850.514855,-1302.362347,7698.141797
5361.912228,-1554.432478,-612.876398,7550.100608
5361.912550,-2220.617826,-919.314598,8512.368333
5361.912873,-2368.659014,-536.266849,9918.759623
5361.913195,-1702.473667,0.000000,9474.636058
5361.913518,-888.247130,153.219100,9474.636058
5361.913840,-2590.720797,0.000000,9474.636058
5361.914163,-2220.617826,-153.219100,10881.027347
5361.914485,-222.061783,-383.047749,10066.800811
5361.914808,666.185348,0.000000,9104.533087
5361.915131,0.000000,-383.047749,9400.615463
5361.915453,0.000000,0.000000,10066.800811
5361.915776,222.061783,-306.438199,10732.986159
5361.916098,962.267725,153.219100,9178.553681
5361.916421,740.205942,0.000000,9252.574275
5361.916743,0.000000,-306.438199,10732.986159
5361.917066,0.000000,0.000000,11325.150913
5361.917389,0.000000,306.438199,11103.089130
5361.917711,296.082377,229.828649,9178.553681
5361.918034,-296.082377,459.657299,9770.718434
5361.918356,-888.247130,229.828649,9474.636058
5361.918679,962.267725,842.705048,9770.718434
5361.919001,592.164754,1072.533697,8216.285956
5361.919324,740.205942,1455.581446,8068.244768
5361.919646,222.061783,766.095498,9770.718434
5361.919969,370.102971,1149.143247,8808.450710
5361.920292,1332.370696,2298.286494,8808.450710
5361.920614,888.247130,1838.629195,8586.388927
5361.920937,0.000000,1455.581446,10214.842000
5361.921259,0.000000,1149.143247,9400.615463
5361.921582,0.000000,1685.410096,9770.718434
5361.921904,0.000000,2068.457845,8882.471304
5361.922227,-962.267725,1838.629195,9474.636058
5361.922550,-148.041188,2681.334243,9030.512492
5361.922872,1110.308913,1915.238745,8438.347739
5361.923195,518.144159,2604.724693,6587.832884
5361.923517,-666.185348,2068.457845,7772.162391
5361.923840,-888.247130,1915.238745,9252.574275
5361.924162,-1406.391290,1838.629195,8808.450710
5361.924485,-592.164754,2298.286494,7920.203579
5361.924807,-962.267725,1838.629195,7550.100608
5361.925130,-518.144159,1072.533697,9474.636058
5361.925453,-814.226536,1991.848295,10288.862594
5361.925775,-444.123565,2374.896044,8808.450710
5361.926098,296.082377,1685.410096,8734.430116
5361.926420,-296.082377,1762.019645,9030.512492
5361.926743,296.082377,1532.190996,9696.697840
5361.927065,518.144159,2374.896044,10066.800811
5361.927388,-370.102971,1608.800546,8808.450710
5361.927711,-222.061783,153.219100,9696.697840
5361.928033,222.061783,76.609550,9252.574275
5361.928356,74.020594,306.438199,9622.677246
5361.928678,148.041188,995.924147,9326.594869
5361.929001,-1628.453072,153.219100,10510.924376
5361.929323,-1480.411884,-383.047749,10066.800811
5361.929646,-370.102971,-536.266849,9326.594869
5361.929968,-370.102971,229.828649,8586.388927
5361.930291,-1776.494261,-153.219100,9474.636058
5361.930614,-1924.535449,-842.705048,9992.780217
5361.930936,-1480.411884,-919.314598,10436.903782
5361.931259,-1184.329507,-1072.533697,8660.409521
5361.931581,-2220.617826,-1915.238745,9178.553681
5361.931904,-2072.576638,-1378.971896,8734.430116
5361.932226,-962.267725,-1455.581446,10584.944971
5361.932549,740.205942,-153.219100,7550.100608
5361.932872,666.185348,-383.047749,9474.636058
5361.933194,740.205942,-842.705048,8734.430116
5361.933517,592.164754,-995.924147,10214.842000
5361.933839,1184.329507,-306.438199,9178.553681
5361.934162,1258.350101,459.657299,10436.903782
5361.934484,148.041188,-76.609550,10288.862594
5361.934807,148.041188,-383.047749,11029.068536
5361.935129,1998.556043,-306.438199,9104.533087
5361.935452,1184.329507,459.657299,9400.615463
5361.935775,518.144159,0.000000,9178.553681
5361.936097,-888.247130,-1225.752797,9992.780217
5361.936420,-222.061783,-229.828649,9252.574275
5361.936742,518.144159,153.219100,8512.368333
5361.937065,-740.205942,-306.438199,8956.491898
5361.937387,-2368.659014,-536.266849,10732.986159
5361.937710,-2738.761985,-689.485948,10510.924376
5361.938033,-2220.617826,-383.047749,9178.553681
5361.938355,-370.102971,-306.438199,7698.141797
5361.938678,-1332.370696,306.438199,9548.656652
5361.939000,-740.205942,1455.581446,10510.924376
5361.939323,666.185348,1149.143247,9992.780217
5361.939645,888.247130,1685.410096,7105.977043
5361.939968,1850.514855,1685.410096,8660.409521
5361.940290,1184.329507,1225.752797,9474.636058
5361.940613,1184.329507,1762.019645,10658.965565
5361.940936,1554.432478,2681.334243,9104.533087
5361.941258,518.144159,1838.629195,9252.574275
5361.941581,518.144159,1685.410096,9326.594869
5361.941903,74.020594,1378.971896,9326.594869
5361.942226,592.164754,1838.629195,8734.430116
5361.942548,592.164754,2374.896044,8216.285956
5361.942871,0.000000,2221.676944,8956.491898
5361.943194,888.247130,2451.505594,8734.430116
5361.943516,1110.308913,2757.943793,7624.121203
5361.943839,0.000000,2987.772442,7402.059420
5361.944161,0.000000,2757.943793,9400.615463
5361.944484,-814.226536,1991.848295,10140.821405
5361.944806,-592.164754,1685.410096,9474.636058
5361.945129,-296.082377,1455.581446,8364.327145
5361.945451,-1998.556043,612.876398,9474.636058
5361.945774,-1554.432478,76.609550,9178.553681
5361.946097,-2072.576638,842.705048,9474.636058
5361.946419,-592.164754,1302.362347,7550.100608
5361.946742,-592.164754,919.314598,8882.471304
5361.947064,-592.164754,995.924147,7846.182985
5361.947387,148.041188,536.266849,9252.574275
5361.947709,296.082377,1302.362347,8364.327145
5361.948032,-1554.432478,459.657299,8956.491898
5361.948355,-1924.535449,-995.924147,9326.594869
5361.948677,-1258.350101,-1149.143247,10362.883188
5361.949000,-1406.391290,-612.876398,9326.594869
5361.949323,-888.247130,-689.485948,9104.533087
5361.949645,-1628.453072,-1378.971896,9622.677246
5361.949968,-1184.329507,-1225.752797,9474.636058
5361.950291,370.102971,0.000000,9696.697840
5361.950613,1184.329507,306.438199,9548.656652
5361.950936,1850.514855,1072.533697,11769.274478
5361.951259,1184.329507,919.314598,12731.542202
5361.951581,2812.782580,919.314598,11547.212695
5361.951904,3034.844362,1149.143247,10881.027347
5361.952226,2442.679609,842.705048,10807.006753
5361.952549,2368.659014,383.047749,11991.336260
5361.952872,1258.350101,0.000000,10955.047942
5361.953194,666.185348,306.438199,9696.697840
5361.953517,0.000000,306.438199,8586.388927
5361.953840,-1702.473667,-842.705048,9030.512492
5361.954162,-2368.659014,-689.485948,8956.491898
5361.954485,-2664.741391,-612.876398,8660.409521
5361.954808,-3478.967927,-612.876398,7550.100608
5361.955130,-4293.194464,-536.266849,8216.285956
5361.955453,-4071.132681,-612.876398,8882.471304
5361.955776,-2960.823768,0.000000,7105.977043
5361.956098,-2072.576638,383.047749,6217.729913
5361.956421,-2368.659014,1072.533697,6513.812290
5361.956744,-1702.473667,919.314598,8364.327145
5361.957066,1332.370696,1302.362347,7105.977043
5361.957389,3330.926739,2451.505594,5921.647536
5361.957712,2886.803174,1608.800546,7550.100608
5361.958034,2442.679609,1302.362347,9622.677246
5361.958357,2590.720797,1762.019645,10436.903782
5361.958680,4737.318029,2068.457845,9326.594869
5361.959002,5033.400406,2145.067394,9844.739029
5361.959325,3775.050304,1838.629195,11399.171507
5361.959648,3256.906145,1915.238745,12879.583391
5361.959970,3849.070898,1608.800546,11029.068536
5361.960293,2664.741391,1455.581446,10066.800811
5361.960616,1850.514855,842.705048,10214.842000
5361.960938,-592.164754,0.000000,11251.130318
5361.961261,-1850.514855,0.000000,10732.986159
5361.961583,-2442.679609,-153.219100,9844.739029
5361.961906,-4367.215058,-1915.238745,9252.574275
5361.962229,-5699.585753,-2681.334243,9548.656652
5361.962551,-5773.606348,-1762.019645,9844.739029
5361.962874,-6217.729913,-1455.581446,9252.574275
5361.963197,-5403.503377,-1532.190996,8586.388927
5361.963519,-5181.441594,-995.924147,9400.615463
5361.963842,-2590.720797,-612.876398,9030.512492
5361.964165,-888.247130,612.876398,8734.430116
5361.964487,296.082377,1302.362347,8290.306550
5361.964810,666.185348,1455.581446,9400.615463
5361.965133,962.267725,536.266849,9178.553681
5361.965455,2590.720797,1532.190996,8068.244768
5361.965778,3701.029710,2374.896044,8142.265362
5361.966101,2960.823768,1991.848295,8808.450710
5361.966423,3330.926739,1685.410096,9770.718434
5361.966746,3108.864956,1608.800546,8068.244768
5361.967069,2960.823768,2681.334243,7994.224174
5361.967391,2738.761985,2068.457845,8068.244768
5361.967714,1406.391290,1532.190996,8734.430116
5361.968037,1184.329507,1838.629195,9104.533087
5361.968359,0.000000,1455.581446,8438.347739
5361.968682,-2368.659014,689.485948,8734.430116
5361.969005,-2516.700203,76.609550,9400.615463
5361.969327,-3182.885551,-536.266849,9326.594869
5361.969650,-3256.906145,-1072.533697,8882.471304
5361.969973,-3775.050304,0.000000,8956.491898
5361.970295,-4737.318029,-919.314598,10362.883188
5361.970618,-3701.029710,-842.705048,9992.780217
5361.970941,-2146.597232,-153.219100,9770.718434
5361.971263,-666.185348,229.828649,8956.491898
5361.971586,-1480.411884,1225.752797,11177.109724
5361.971908,-444.123565,612.876398,11399.171507
5361.972231,1406.391290,995.924147,11325.150913
5361.972554,2590.720797,1762.019645,9400.615463
5361.972876,2220.617826,1915.238745,10510.924376
5361.973199,2590.720797,1455.581446,10732.986159
5361.973522,3923.091493,1455.581446,11103.089130
5361.973844,4515.256246,2681.334243,8586.388927
5361.974167,4219.173869,2604.724693,8364.327145
5361.974490,2590.720797,1225.752797,9104.533087
5361.974812,1850.514855,1532.190996,9770.718434
5361.975135,1702.473667,1608.800546,8734.430116
5361.975458,370.102971,1149.143247,7550.100608
5361.975780,-740.205942,1072.533697,8512.368333
5361.976103,-1628.453072,0.000000,7846.182985
5361.976426,-592.164754,612.876398,7624.121203
5361.976748,-1258.350101,766.095498,6291.750507
5361.977071,-2812.782580,0.000000,7772.162391
5361.977394,-3478.967927,-1072.533697,8512.368333
5361.977716,-2368.659014,-1072.533697,7994.224174
5361.978039,-1554.432478,-306.438199,7402.059420
5361.978362,-2294.638420,-766.095498,8956.491898
5361.978684,-3775.050304,-1378.971896,10436.903782
5361.979007,-1702.473667,-1072.533697,10066.800811
5361.979330,-1036.288319,-766.095498,10436.903782
5361.979652,-444.123565,-306.438199,9622.677246
5361.979975,-740.205942,-995.924147,11399.171507
5361.980298,666.185348,0.000000,11547.212695
5361.980620,1406.391290,0.000000,10658.965565
5361.980943,888.247130,306.438199,9400.615463
5361.981265,962.267725,0.000000,9622.677246
5361.981588,1110.308913,-153.219100,10584.944971
5361.981911,518.144159,0.000000,10732.986159
5361.982233,148.041188,459.657299,10362.883188
5361.982556,-1628.453072,-459.657299,10658.965565
5361.982879,-1554.432478,-1225.752797,10288.862594
5361.983201,-740.205942,-766.095498,9844.739029
5361.983524,-962.267725,-76.609550,9622.677246
5361.983847,-2146.597232,0.000000,9992.780217
5361.984169,-2516.700203,-383.047749,10807.006753
5361.984492,-1258.350101,-612.876398,9326.594869
5361.984815,740.205942,306.438199,6587.832884
5361.985137,666.185348,1685.410096,7254.018232
5361.985460,0.000000,1455.581446,8660.409521
5361.985783,0.000000,1991.848295,9104.533087
5361.986105,1702.473667,1838.629195,7402.059420
5361.986428,1480.411884,1991.848295,6513.812290
5361.986751,74.020594,1991.848295,8364.327145
5361.987073,444.123565,2145.067394,9400.615463
5361.987396,888.247130,1991.848295,9400.615463
5361.987719,1850.514855,3140.991542,7179.997637
5361.988041,1036.288319,1838.629195,7846.182985
5361.988364,-148.041188,1532.190996,9030.512492
5361.988687,518.144159,1762.019645,10066.800811
5361.989009,444.123565,1991.848295,9622.677246
5361.989332,0.000000,1915.238745,9548.656652
5361.989655,296.082377,1149.143247,10510.924376
5361.989977,592.164754,1072.533697,9474.636058
5361.990300,1036.288319,1915.238745,9400.615463
5361.990623,-222.061783,2528.115143,9992.780217
5361.990945,-1628.453072,1685.410096,9770.718434
5361.991268,-1110.308913,536.266849,9770.718434
5361.991590,-666.185348,1225.752797,8734.430116
5361.991913,-740.205942,1378.971896,9178.553681
5361.992236,-1924.535449,842.705048,9770.718434
5361.992558,-2886.803174,-229.828649,10066.800811
5361.992881,-1480.411884,689.485948,9104.533087
5361.993204,-1332.370696,306.438199,8438.347739
5361.993526,-1110.308913,383.047749,8586.388927
5361.993849,-814.226536,536.266849,10807.006753
5361.994172,-370.102971,842.705048,9696.697840
5361.994494,222.061783,766.095498,8216.285956
5361.994817,888.247130,229.828649,7698.141797
5361.995140,74.020594,153.219100,8660.409521
5361.995462,74.020594,995.924147,9844.739029
5361.995785,296.082377,1072.533697,9030.512492
5361.996108,74.020594,842.705048,8734.430116
5361.996430,148.041188,229.828649,7920.203579
5361.996753,1184.329507,0.000000,8660.409521
5361.997076,1924.535449,1225.752797,7624.121203
5361.997398,888.247130,689.485948,8586.388927
5361.997721,74.020594,459.657299,9326.594869
5361.998044,-296.082377,0.000000,10362.883188
5361.998366,0.000000,-306.438199,9326.594869
5361.998689,370.102971,153.219100,8882.471304
5361.999012,-1628.453072,-306.438199,10066.800811
5361.999334,-2294.638420,-766.095498,11029.068536
5361.999657,-1628.453072,-1378.971896,10436.903782
5361.999980,-1258.350101,-919.314598,8438.347739
5362.000302,-1036.288319,-1225.752797,8216.285956
5362.000625,-1554.432478,-766.095498,9622.677246
5362.000948,0.000000,-383.047749,9992.780217
5362.001270,814.226536,0.000000,8586.388927
5362.001593,962.267725,76.609550,8808.450710
5362.001915,740.205942,-306.438199,9770.718434
5362.002238,0.000000,-919.314598,11473.192101
5362.002561,296.082377,76.609550,10436.903782
5362.002883,666.185348,-229.828649,10362.883188
5362.003206,0.000000,-766.095498,10288.862594
5362.003529,0.000000,-995.924147,10658.965565
5362.003851,666.185348,-612.876398,9992.780217
5362.004174,-740.205942,-383.047749,10362.883188
5362.004497,-1184.329507,306.438199,9474.636058
5362.004819,-666.185348,-306.438199,9326.594869
5362.005142,1110.308913,0.000000,8660.409521
5362.005465,1184.329507,919.314598,8290.306550
5362.005787,0.000000,1072.533697,8882.471304
5362.006110,-888.247130,383.047749,10214.842000
5362.006433,-666.185348,76.609550,8882.471304
5362.006755,0.000000,995.924147,8216.285956
5362.007078,0.000000,1378.971896,7624.121203
5362.007401,-1258.350101,689.485948,9696.697840
5362.007723,-888.247130,919.314598,9474.636058
5362.008046,-518.144159,1225.752797,8660.409521
5362.008369,592.164754,1302.362347,7179.997637
5362.008691,-148.041188,1302.362347,8068.244768
5362.009014,-370.102971,2145.067394,9918.759623
5362.009337,592.164754,2451.505594,11029.068536
5362.009659,518.144159,2374.896044,9178.553681
5362.009982,-740.205942,1225.752797,8660.409521
5362.010305,-444.123565,689.485948,8882.471304
5362.010627,0.000000,1378.971896,9104.533087
5362.010950,222.061783,2911.162892,9548.656652
5362.011272,-370.102971,1991.848295,8068.244768
5362.011595,-1332.370696,1378.971896,9030.512492
5362.011918,-518.144159,1608.800546,8956.491898
5362.012240,-296.082377,1455.581446,8216.285956
5362.012563,222.061783,1991.848295,9326.594869
5362.012886,-740.205942,1532.190996,10140.821405
5362.013208,-370.102971,766.095498,11103.089130
5362.013531,0.000000,919.314598,8882.471304
5362.013854,-592.164754,919.314598,7476.080014
5362.014176,-222.061783,153.219100,8956.491898
5362.014499,0.000000,306.438199,10066.800811
5362.014822,0.000000,1225.752797,9918.759623
5362.015144,1406.391290,2068.457845,8660.409521
5362.015467,444.123565,1149.143247,9400.615463
5362.015790,0.000000,766.095498,9104.533087
5362.016112,222.061783,842.705048,10066.800811
5362.016435,814.226536,1302.362347,9474.636058
5362.016758,666.185348,1455.581446,9696.697840
5362.017080,74.020594,153.219100,9918.759623
5362.017403,1110.308913,0.000000,9030.512492
5362.017726,1332.370696,229.828649,9400.615463
5362.018048,296.082377,995.924147,8216.285956
5362.018371,666.185348,0.000000,10066.800811
5362.018694,1258.350101,0.000000,9474.636058
5362.019016,1628.453072,536.266849,8882.471304
5362.019339,-222.061783,536.266849,8660.409521
5362.019662,-2738.761985,0.000000,9770.718434
5362.019984,-3256.906145,-766.095498,9474.636058
5362.020307,-2072.576638,-1302.362347,9252.574275
5362.020630,-1924.535449,0.000000,7476.080014
5362.020952,-1850.514855,-153.219100,8586.388927
5362.021275,-2590.720797,-459.657299,9844.739029
5362.021597,-1332.370696,-612.876398,9030.512492
5362.021920,-222.061783,-842.705048,6883.915261
5362.022243,-296.082377,76.609550,7179.997637
5362.022565,296.082377,612.876398,9326.594869
5362.022888,888.247130,76.609550,10732.986159
5362.023211,1406.391290,766.095498,9844.739029
5362.023533,2368.659014,459.657299,9178.553681
5362.023856,1184.329507,-459.657299,10584.944971
5362.024179,74.020594,-842.705048,11399.171507
5362.024501,1332.370696,-153.219100,11843.295072
5362.024824,2442.679609,612.876398,9918.759623
5362.025147,962.267725,689.485948,11251.130318
5362.025469,1110.308913,306.438199,10881.027347
5362.025792,740.205942,0.000000,9400.615463
5362.026115,1258.350101,306.438199,8216.285956
5362.026437,-1184.329507,76.609550,9474.636058
5362.026760,-2516.700203,0.000000,9844.739029
5362.027083,-3108.864956,-1455.581446,9548.656652
5362.027405,-2960.823768,-919.314598,8364.327145
5362.027728,-2738.761985,-995.924147,7179.997637
5362.028051,-3849.070898,-1225.752797,9252.574275
5362.028373,-3701.029710,0.000000,10140.821405
5362.028696,-2072.576638,0.000000,9548.656652
5362.029019,-444.123565,229.828649,8068.244768
5362.029341,-222.061783,1302.362347,8512.368333
5362.029664,148.041188,1762.019645,9844.739029
5362.029987,2738.761985,2451.505594,9474.636058
5362.030309,2516.700203,2757.943793,9030.512492
5362.030632,3478.967927,2834.553343,8364.327145
5362.030954,3182.885551,1991.848295,9770.718434
5362.031277,3775.050304,2757.943793,9252.574275
5362.031600,3552.988522,3524.039291,9622.677246
5362.031922,2368.659014,2298.286494,9030.512492
5362.032245,1776.494261,1302.362347,9326.594869
5362.032568,1480.411884,2068.457845,9030.512492
5362.032890,148.041188,2681.334243,9252.574275
5362.033213,-592.164754,2604.724693,9844.739029
5362.033536,-2886.803174,1532.190996,9918.759623
5362.033858,-2590.720797,842.705048,9178.553681
5362.034181,-1702.473667,995.924147,7994.224174
5362.034504,-2442.679609,995.924147,7476.080014
5362.034826,-2812.782580,76.609550,8290.306550
5362.035149,-2812.782580,612.876398,9474.636058
5362.035472,-2516.700203,1532.190996,9252.574275
5362.035794,-1036.288319,2145.067394,8142.265362
5362.036117,-1258.350101,1378.971896,8956.491898
5362.036440,-888.247130,919.314598,9992.780217
5362.036762,-222.061783,1225.752797,10658.965565
5362.037085,740.205942,1685.410096,9770.718434
5362.037408,-222.061783,1532.190996,9770.718434
5362.037730,0.000000,-76.609550,10214.842000
5362.038053,74.020594,459.657299,9474.636058
5362.038376,1998.556043,995.924147,8216.285956
5362.038698,1554.432478,1532.190996,7328.038826
5362.039021,1110.308913,842.705048,9696.697840
5362.039344,740.205942,612.876398,8956.491898
5362.039666,740.205942,612.876398,7698.141797
5362.039989,592.164754,536.266849,7402.059420
5362.040312,-1628.453072,0.000000,9400.615463
5362.040634,-1998.556043,-1302.362347,9696.697840
5362.040957,-1110.308913,-1455.581446,9474.636058
5362.041279,-1110.308913,-1149.143247,7846.182985
5362.041602,-1554.432478,-995.924147,8512.368333
5362.041925,-2664.741391,-1685.410096,10140.821405
5362.042247,-814.226536,-2298.286494,9992.780217
5362.042570,-296.082377,-1838.629195,8660.409521
5362.042893,-962.267725,-1762.019645,8956.491898
5362.043215,-444.123565,-2145.067394,10732.986159
5362.043538,-444.123565,-1608.800546,11843.295072
5362.043861,148.041188,-1762.019645,10881.027347
5362.044183,-296.082377,-2451.505594,10807.006753
5362.044506,-592.164754,-1991.848295,10955.047942
5362.044829,148.041188,-2221.676944,11769.274478
5362.045151,1110.308913,-1762.019645,11103.089130
5362.045474,222.061783,-1072.533697,10362.883188
5362.045797,-518.144159,-1302.362347,10732.986159
5362.046119,444.123565,-1532.190996,10658.965565
5362.046442,1110.308913,229.828649,10732.986159
5362.046765,1554.432478,689.485948,10436.903782
5362.047087,888.247130,76.609550,10881.027347
5362.047410,222.061783,0.000000,11399.171507
5362.047733,1406.391290,1149.143247,10140.821405
5362.048055,1850.514855,1685.410096,9992.780217
5362.048378,1406.391290,1838.629195,8216.285956
5362.048701,222.061783,1072.533697,9696.697840
5362.049023,222.061783,1991.848295,8290.306550
5362.049346,962.267725,3140.991542,7179.997637
5362.049669,1110.308913,2834.553343,6217.729913
5362.049991,-370.102971,2911.162892,6957.935855
5362.050314,-666.185348,2681.334243,7994.224174
5362.050637,-740.205942,3447.429741,7550.100608
5362.050959,-1554.432478,3370.820191,6217.729913
5362.051282,-1702.473667,2528.115143,7179.997637
5362.051605,-2220.617826,2528.115143,7031.956449
5362.051927,-1850.514855,2834.553343,7624.121203
5362.052250,-1110.308913,3753.867940,6883.915261
5362.052573,-1998.556043,3294.210641,7105.977043
5362.052895,-1924.535449,2757.943793,7846.182985
5362.053218,0.000000,3677.258390,6883.915261
5362.053541,962.267725,4213.525239,7105.977043
5362.053863,1406.391290,3830.477490,7772.162391
5362.054186,370.102971,2911.162892,9696.697840
5362.054509,1110.308913,2681.334243,10066.800811
5362.054831,2590.720797,3064.381992,10066.800811
5362.055154,2294.638420,2757.943793,10214.842000
5362.055477,2072.576638,2145.067394,11991.336260
5362.055799,1998.556043,1762.019645,13101.645173
5362.056122,1924.535449,1532.190996,11547.212695
5362.056445,1332.370696,1149.143247,10140.821405
5362.056767,-888.247130,306.438199,11029.068536
5362.057090,-1554.432478,-306.438199,12139.377449
5362.057413,-2516.700203,-383.047749,12435.459826
5362.057735,-3034.844362,-612.876398,9696.697840
5362.058058,-3923.091493,-1532.190996,9400.615463
5362.058381,-4737.318029,-2374.896044,8734.430116
5362.058703,-3997.112087,-2987.772442,8956.491898
5362.059026,-3478.967927,-1685.410096,7698.141797
5362.059349,-4441.235652,-1532.190996,8290.306550
5362.059671,-3256.906145,-2757.943793,8290.306550
5362.059994,-2220.617826,-2221.676944,8586.388927
5362.060317,-1258.350101,-1225.752797,7402.059420
5362.060639,0.000000,-842.705048,8660.409521
5362.060962,-666.185348,-1532.190996,9992.780217
5362.061285,518.144159,-1455.581446,9400.615463
5362.061607,1998.556043,-1302.362347,8660.409521
5362.061930,2368.659014,-612.876398,7994.224174
5362.062253,2294.638420,0.000000,9252.574275
5362.062575,2220.617826,-689.485948,9844.739029
5362.062898,3701.029710,-766.095498,9400.615463
5362.063221,3923.091493,-229.828649,8364.327145
5362.063543,2220.617826,-229.828649,9252.574275
5362.063866,2442.679609,-919.314598,10066.800811
5362.064189,1184.329507,-842.705048,11695.253884
5362.064511,444.123565,-536.266849,9548.656652
5362.064834,-444.123565,-1378.971896,10584.944971
5362.065157,-1776.494261,-1838.629195,9844.739029
5362.065479,-2072.576638,-1915.238745,10066.800811
5362.065802,-1258.350101,-1532.190996,9400.615463
5362.066125,-2886.803174,-919.314598,9474.636058
5362.066447,-3256.906145,-1225.752797,9696.697840
5362.066770,-2146.597232,-1072.533697,10362.883188
5362.067093,-592.164754,-153.219100,9992.780217
5362.067415,-740.205942,383.047749,9770.718434
5362.067738,-1554.432478,306.438199,10732.986159
5362.068061,-1480.411884,383.047749,11843.295072
5362.068383,0.000000,842.705048,11473.192101
5362.068706,1406.391290,1838.629195,9104.533087
5362.069029,1406.391290,2221.676944,9252.574275
5362.069351,518.144159,2604.724693,10362.883188
5362.069674,1258.350101,2528.115143,9400.615463
5362.069997,2664.741391,3524.039291,7105.977043
5362.070319,2738.761985,3677.258390,7105.977043
5362.070642,1554.432478,3294.210641,6957.935855
5362.070965,1924.535449,3217.601092,8808.450710
5362.071287,1184.329507,3677.258390,8068.244768
5362.071610,370.102971,3447.429741,7254.018232
5362.071933,-222.061783,2221.676944,7328.038826
5362.072255,-370.102971,2528.115143,7994.224174
5362.072578,0.000000,3447.429741,7846.182985
5362.072901,-444.123565,2604.724693,7772.162391
5362.073223,-1184.329507,2451.505594,7476.080014
5362.073546,-1480.411884,1838.629195,9030.512492
5362.073868,-2368.659014,2298.286494,8882.471304
5362.074191,-2146.597232,1532.190996,8808.450710
5362.074514,-2664.741391,1302.362347,9030.512492
5362.074836,-3478.967927,995.924147,9622.677246
5362.075159,-1776.494261,919.314598,10362.883188
5362.075482,-1480.411884,919.314598,8882.471304
5362.075804,-2072.576638,766.095498,8586.388927
5362.076127,-1036.288319,0.000000,9326.594869
5362.076450,-814.226536,306.438199,9474.636058
5362.076772,0.000000,1455.581446,9326.594869
5362.077095,1036.288319,1608.800546,9474.636058
5362.077418,444.123565,536.266849,9918.759623
5362.077740,888.247130,689.485948,10955.047942
5362.078063,1184.329507,995.924147,11621.233289
5362.078386,814.226536,1072.533697,10732.986159
5362.078708,1110.308913,306.438199,11103.089130
5362.079031,592.164754,-383.047749,10214.842000
5362.079354,2886.803174,689.485948,9918.759623
5362.079676,2516.700203,842.705048,8956.491898
5362.079999,0.000000,536.266849,8068.244768
5362.080322,592.164754,-306.438199,8660.409521
5362.080644,518.144159,-612.876398,8216.285956
5362.080967,814.226536,153.219100,7328.038826
5362.081290,0.000000,-995.924147,7920.203579
5362.081612,-1628.453072,-2374.896044,8290.306550
5362.081935,-1850.514855,-2451.505594,9474.636058
5362.082258,-1628.453072,-1532.190996,8882.471304
5362.082580,-2294.638420,-1455.581446,9104.533087
5362.082903,-1702.473667,-1455.581446,9696.697840
5362.083226,-1258.350101,-1991.848295,10436.903782
5362.083548,1332.370696,-766.095498,9030.512492
5362.083871,1850.514855,0.000000,8660.409521
5362.084194,-148.041188,0.000000,8956.491898
5362.084516,-222.061783,-612.876398,11769.274478
5362.084839,-1036.288319,-766.095498,11843.295072
5362.085162,-962.267725,-383.047749,10140.821405
5362.085484,-962.267725,-1302.362347,9918.759623
5362.085807,-1998.556043,-2451.505594,9770.718434
5362.086130,-2146.597232,-1838.629195,9474.636058
5362.086452,-666.185348,-995.924147,9844.739029
5362.086775,-1258.350101,-612.876398,9548.656652
5362.087098,-1776.494261,-766.095498,10214.842000
5362.087420,-444.123565,-689.485948,10140.821405
5362.087743,1850.514855,766.095498,8882.471304
5362.088066,2294.638420,1762.019645,9252.574275
5362.088388,740.205942,1072.533697,11325.150913
5362.088711,74.020594,689.485948,11695.253884
5362.089034,1258.350101,842.705048,10288.862594
5362.089356,1332.370696,1608.800546,8364.327145
5362.089679,444.123565,1072.533697,9252.574275
5362.090002,-518.144159,1225.752797,9992.780217
5362.090324,-370.102971,1532.190996,8808.450710
5362.090647,1702.473667,1915.238745,6587.832884
5362.090970,444.123565,2298.286494,6291.750507
5362.091292,-1480.411884,1225.752797,8438.347739
5362.091615,-1258.350101,1685.410096,9474.636058
5362.091938,-1924.535449,1532.190996,8512.368333
5362.092260,-1628.453072,1838.629195,7846.182985
5362.092583,-962.267725,2374.896044,9178.553681
5362.092906,-1332.370696,2298.286494,9548.656652
5362.093228,-370.102971,2834.553343,7772.162391
5362.093551,296.082377,2528.115143,6883.915261
5362.093874,222.061783,2987.772442,6587.832884
5362.094196,740.205942,2451.505594,8364.327145
5362.094519,1332.370696,3524.039291,8290.306550
5362.094842,2368.659014,3600.648841,8586.388927
5362.095164,1998.556043,3217.601092,8956.491898
5362.095487,1406.391290,2911.162892,9992.780217
5362.095810,2738.761985,2451.505594,10881.027347
5362.096132,2072.576638,3064.381992,10288.862594
5362.096455,1554.432478,2757.943793,10658.965565
5362.096778,1480.411884,1455.581446,10510.924376
5362.097100,148.041188,1225.752797,9548.656652
5362.097423,148.041188,1225.752797,8586.388927
5362.097746,74.020594,1225.752797,8068.244768
5362.098068,-1110.308913,1608.800546,9474.636058
5362.098391,-1628.453072,383.047749,9696.697840
5362.098714,-962.267725,76.609550,9104.533087
5362.099036,-1554.432478,306.438199,8290.306550
5362.099359,-2886.803174,-612.876398,9252.574275
5362.099682,-3849.070898,-1532.190996,10214.842000
5362.100004,-1924.535449,-1225.752797,9992.780217
5362.100327,-1924.535449,-459.657299,9104.533087
5362.100650,-2738.761985,-995.924147,8734.430116
5362.100972,-1406.391290,-2068.457845,9622.677246
5362.101295,-1184.329507,-1762.019645,9474.636058
5362.101618,148.041188,-1072.533697,8364.327145
5362.101940,222.061783,-1685.410096,9992.780217
5362.102263,-1702.473667,-1302.362347,9844.739029
5362.102586,-592.164754,-2221.676944,11177.109724
5362.102908,888.247130,-1149.143247,8808.450710
5362.103231,1850.514855,-995.924147,7994.224174
5362.103554,1110.308913,-1455.581446,10140.821405
5362.103876,1258.350101,-1378.971896,10288.862594
5362.104199,1258.350101,-689.485948,9992.780217
5362.104522,962.267725,-153.219100,7994.224174
5362.104844,296.082377,-1378.971896,8956.491898
5362.105167,-962.267725,-1991.848295,10658.965565
5362.105490,-2294.638420,-2221.676944,10955.047942
5362.105812,-2368.659014,-1455.581446,10140.821405
5362.106135,-2516.700203,-2298.286494,9548.656652
5362.106458,-3034.844362,-3064.381992,9918.759623
5362.106780,-2368.659014,-1532.190996,9770.718434
5362.107103,-2072.576638,-612.876398,9770.718434
5362.107426,-2146.597232,-153.219100,9474.636058
5362.107748,-1702.473667,153.219100,9696.697840
5362.108071,-296.082377,383.047749,9252.574275
5362.108394,1258.350101,1149.143247,8290.306550
5362.108716,518.144159,1685.410096,8808.450710
5362.109039,-222.061783,1378.971896,9844.739029
5362.109362,-222.061783,1455.581446,10658.965565
5362.109684,962.267725,1991.848295,9548.656652
5362.110007,1258.350101,2451.505594,7698.141797
5362.110330,518.144159,2221.676944,9178.553681
5362.110652,74.020594,1991.848295,10288.862594
5362.110975,3108.864956,2987.772442,8068.244768
5362.111298,3034.844362,3753.867940,8364.327145
5362.111620,2442.679609,4519.963438,7402.059420
5362.111943,962.267725,3140.991542,9992.780217
5362.112266,2294.638420,3370.820191,8586.388927
5362.112588,2516.700203,4366.744339,7402.059420
5362.112911,1554.432478,3753.867940,7328.038826
5362.113234,962.267725,2604.724693,7994.224174
5362.113556,1110.308913,2757.943793,8734.430116
5362.113879,444.123565,3294.210641,7698.141797
5362.114202,0.000000,3370.820191,8068.244768
5362.114524,-888.247130,2604.724693,9474.636058
5362.114847,-740.205942,2145.067394,9770.718434
5362.115170,-592.164754,1838.629195,8956.491898
5362.115492,-222.061783,2298.286494,8808.450710
5362.115815,-1628.453072,2451.505594,10214.842000
5362.116138,-2516.700203,1991.848295,11029.068536
5362.116460,0.000000,1915.238745,10140.821405
5362.116783,-222.061783,1915.238745,8882.471304
5362.117106,-592.164754,1378.971896,8216.285956
5362.117428,74.020594,689.485948,9770.718434
5362.117751,-370.102971,689.485948,9104.533087
5362.118074,444.123565,919.314598,8364.327145
5362.118396,296.082377,612.876398,7772.162391
5362.118719,-962.267725,766.095498,9474.636058
5362.119042,-518.144159,919.314598,10066.800811
5362.119364,-814.226536,536.266849,10584.944971
5362.119687,-518.144159,-689.485948,9178.553681
5362.120010,-814.226536,-1455.581446,9770.718434
5362.120332,-1110.308913,-1072.533697,10510.924376
5362.120655,-740.205942,-1455.581446,10436.903782
5362.120978,-1554.432478,-1608.800546,8660.409521
5362.121300,-1998.556043,-1762.019645,8882.471304
5362.121623,-814.226536,-2298.286494,8586.388927
5362.121946,-740.205942,-2068.457845,8586.388927
5362.122268,148.041188,-1302.362347,8660.409521
5362.122591,-666.185348,-1225.752797,9548.656652
5362.122914,-2220.617826,-2298.286494,10881.027347
5362.123236,-1998.556043,-2757.943793,10807.006753
5362.123559,-1628.453072,-1762.019645,9400.615463
5362.123882,-592.164754,-1532.190996,9770.718434
5362.124204,-1036.288319,-1302.362347,11103.089130
5362.124527,-740.205942,-1302.362347,10807.006753
5362.124850,888.247130,-1608.800546,9178.553681
5362.125172,444.123565,-995.924147,8068.244768
5362.125495,592.164754,-1225.752797,8660.409521
5362.125818,148.041188,-1072.533697,10955.047942
5362.126140,296.082377,-383.047749,10807.006753
5362.126463,888.247130,0.000000,9474.636058
5362.126786,1184.329507,-536.266849,10066.800811
5362.127108,370.102971,76.609550,10362.883188
5362.127431,814.226536,766.095498,11103.089130
5362.127754,814.226536,1532.190996,10066.800811
5362.128076,666.185348,1685.410096,9770.718434
5362.128399,518.144159,1302.362347,9474.636058
5362.128722,1110.308913,1685.410096,8438.347739
5362.129044,2220.617826,2145.067394,7772.162391
5362.129367,0.000000,1915.238745,7920.203579
5362.129690,-1554.432478,1072.533697,9104.533087
5362.130012,-1036.288319,1149.143247,8734.430116
5362.130335,-1036.288319,1225.752797,8068.244768
5362.130658,-444.123565,2451.505594,7179.997637
5362.130980,-1480.411884,1685.410096,8364.327145
5362.131303,-1406.391290,1608.800546,8216.285956
5362.131626,-148.041188,1991.848295,7772.162391
5362.131948,74.020594,2681.334243,7476.080014
5362.132271,-222.061783,2681.334243,8142.265362
5362.132594,-666.185348,2451.505594,9918.759623
5362.132916,814.226536,2911.162892,9622.677246
5362.133239,1406.391290,2528.115143,8068.244768
5362.133562,1110.308913,2451.505594,8216.285956
5362.133884,518.144159,1455.581446,9474.636058
5362.134207,-222.061783,1072.533697,10214.842000
5362.134530,592.164754,1608.800546,10140.821405
5362.134852,0.000000,1302.362347,8882.471304
5362.135175,0.000000,-383.047749,9326.594869
5362.135498,0.000000,536.266849,9252.574275
5362.135820,222.061783,1149.143247,9918.759623
5362.136143,-148.041188,1532.190996,10140.821405
5362.136466,-1184.329507,383.047749,9696.697840
5362.136788,-1406.391290,0.000000,10288.862594
5362.137111,444.123565,1072.533697,10066.800811
5362.137434,-1110.308913,689.485948,9548.656652
5362.137756,-1776.494261,229.828649,10214.842000
5362.138079,0.000000,-766.095498,9622.677246
5362.138402,-370.102971,-459.657299,9252.574275
5362.138724,1110.308913,842.705048,7698.141797
5362.139047,-296.082377,689.485948,9844.739029
5362.139370,-814.226536,306.438199,10066.800811
5362.139692,-222.061783,153.219100,11103.089130
5362.140015,962.267725,0.000000,7105.977043
5362.140338,1332.370696,306.438199,8068.244768
5362.140660,814.226536,459.657299,9844.739029
5362.140983,1332.370696,766.095498,10807.006753
5362.141306,2072.576638,1149.143247,10140.821405
5362.141628,1036.288319,1762.019645,8364.327145
5362.141951,370.102971,612.876398,9400.615463
5362.142274,0.000000,0.000000,9252.574275
5362.142596,1184.329507,229.828649,7920.203579
5362.142919,814.226536,1072.533697,8882.471304
5362.143242,0.000000,1378.971896,9400.615463
5362.143564,-1924.535449,0.000000,10436.903782
5362.143887,-1480.411884,229.828649,9326.594869
5362.144210,-1406.391290,1302.362347,8956.491898
5362.144532,-666.185348,1072.533697,7105.977043
5362.144855,-2072.576638,459.657299,8290.306550
5362.145178,-1480.411884,-306.438199,8142.265362
5362.145500,-1036.288319,0.000000,7476.080014
5362.145823,-2220.617826,0.000000,6587.832884
5362.146146,-3034.844362,-306.438199,8882.471304
5362.146468,-2146.597232,-1149.143247,9844.739029
5362.146791,-1850.514855,-995.924147,9770.718434
5362.147114,0.000000,76.609550,8438.347739
5362.147436,-1110.308913,-76.609550,10510.924376
5362.147759,-1110.308913,0.000000,11325.150913
5362.148082,0.000000,536.266849,11843.295072
5362.148404,666.185348,919.314598,9770.718434
5362.148727,444.123565,459.657299,9770.718434
5362.149050,1036.288319,306.438199,9474.636058
5362.149372,2516.700203,383.047749,9992.780217
5362.149695,2220.617826,612.876398,8586.388927
5362.150018,740.205942,459.657299,9252.574275
5362.150340,-518.144159,-306.438199,9622.677246
5362.150663,-370.102971,-536.266849,9918.759623
5362.150986,148.041188,0.000000,9104.533087
5362.151308,-370.102971,-459.657299,8882.471304
5362.151631,-1850.514855,-306.438199,9548.656652
5362.151953,-1628.453072,-383.047749,9326.594869
5362.152276,-1036.288319,-383.047749,9252.574275
5362.152599,0.000000,0.000000,6661.853478
5362.152921,-1480.411884,-383.047749,8882.471304
5362.153244,-592.164754,-766.095498,9474.636058
5362.153567,-814.226536,-76.609550,10881.027347
5362.153889,-1110.308913,-306.438199,8364.327145
5362.154212,-518.144159,-1532.190996,8956.491898
5362.154535,-592.164754,-1149.143247,9252.574275
5362.154857,-1110.308913,-766.095498,10362.883188
5362.155180,0.000000,306.438199,10066.800811
5362.155502,-888.247130,229.828649,9400.615463
5362.155825,0.000000,-689.485948,8956.491898
5362.156148,-148.041188,-536.266849,8586.388927
5362.156470,222.061783,766.095498,8216.285956
5362.156793,-444.123565,842.705048,9918.759623
5362.157116,-1406.391290,612.876398,9992.780217
5362.157438,-1554.432478,-229.828649,10510.924376
5362.157761,-222.061783,76.609550,8142.265362
5362.158084,-888.247130,306.438199,7772.162391
5362.158406,-1184.329507,-459.657299,9770.718434
5362.158729,-888.247130,229.828649,10732.986159
5362.159051,-370.102971,153.219100,9770.718434
5362.159374,74.020594,306.438199,8290.306550
5362.159697,-1406.391290,-612.876398,8512.368333
5362.160019,-2072.576638,-612.876398,9918.759623
5362.160342,-1406.391290,0.000000,10510.924376
5362.160665,-1332.370696,153.219100,9252.574275
5362.160987,-1628.453072,612.876398,8586.388927
5362.161310,-3404.947333,-229.828649,8882.471304
5362.161633,-2294.638420,0.000000,8734.430116
5362.161955,-1776.494261,612.876398,8586.388927
5362.162278,-2220.617826,383.047749,7846.182985
5362.162601,-2368.659014,-689.485948,8290.306550
5362.162923,-3108.864956,-1608.800546,8512.368333
5362.163246,-3701.029710,-1149.143247,7772.162391
5362.163568,-3627.009116,-1378.971896,7846.182985
5362.163891,-4219.173869,-2374.896044,8660.409521
5362.164214,-4367.215058,-2528.115143,9918.759623
5362.164536,-3108.864956,-2681.334243,9918.759623
5362.164859,-3034.844362,-2374.896044,8882.471304
5362.165182,-3923.091493,-1608.800546,9252.574275
5362.165504,-3034.844362,-2374.896044,9622.677246
5362.165827,-1036.288319,-1991.848295,10584.944971
5362.166150,0.000000,-536.266849,9548.656652
5362.166472,-296.082377,-689.485948,10214.842000
5362.166795,-1184.329507,-1838.629195,11473.192101
5362.167117,-2072.576638,-2451.505594,11473.192101
5362.167440,-2294.638420,-3217.601092,9918.759623
5362.167763,-2368.659014,-3447.429741,8438.347739
5362.168085,-4145.153275,-4290.134789,9844.739029
5362.168408,-4515.256246,-4213.525239,10140.821405
5362.168731,-4441.235652,-4213.525239,9696.697840
5362.169053,-3997.112087,-3677.258390,8660.409521
5362.169376,-4589.276840,-3753.867940,8808.450710
5362.169699,-3182.885551,-3217.601092,9548.656652
5362.170021,444.123565,-995.924147,9696.697840
5362.170344,962.267725,306.438199,9696.697840
5362.170666,370.102971,383.047749,10214.842000
5362.170989,296.082377,-459.657299,11177.109724
5362.171312,74.020594,-229.828649,11251.130318
5362.171634,74.020594,0.000000,9918.759623
5362.171957,-888.247130,-1455.581446,9622.677246
5362.172280,-1628.453072,-1762.019645,9252.574275
5362.172602,-2146.597232,-1685.410096,9400.615463
5362.172925,-2590.720797,-2068.457845,7846.182985
5362.173248,-3404.947333,-1762.019645,7105.977043
5362.173570,-3701.029710,-2068.457845,7846.182985
5362.173893,-3182.885551,-1532.190996,8586.388927
5362.174215,-2516.700203,-612.876398,8734.430116
5362.174538,-3849.070898,229.828649,7994.224174
5362.174861,-4219.173869,536.266849,9104.533087
5362.175183,-3701.029710,0.000000,9252.574275
5362.175506,-3404.947333,0.000000,7994.224174
5362.175829,-3108.864956,919.314598,8068.244768
5362.176151,-3256.906145,76.609550,7994.224174
5362.176474,-3330.926739,-1149.143247,7772.162391
5362.176797,-2886.803174,-1532.190996,7105.977043
5362.177119,-2738.761985,-1838.629195,7476.080014
5362.177442,-2516.700203,-1149.143247,8216.285956
5362.177764,-1702.473667,-1072.533697,8956.491898
5362.178087,296.082377,-1302.362347,10140.821405
5362.178410,1406.391290,76.609550,9474.636058
5362.178732,1258.350101,919.314598,11103.089130
5362.179055,1110.308913,612.876398,12065.356855
5362.179378,1702.473667,612.876398,12657.521608
5362.179700,2072.576638,536.266849,10732.986159
5362.180023,962.267725,536.266849,10584.944971
5362.180346,-1998.556043,-1149.143247,11029.068536
5362.180668,-3923.091493,-2374.896044,10955.047942
5362.180991,-4071.132681,-3064.381992,8956.491898
5362.181313,-4145.153275,-3524.039291,7402.059420
5362.181636,-4737.318029,-3830.477490,7476.080014
5362.181959,-6069.688724,-3830.477490,9400.615463
5362.182281,-4811.338623,-4443.353888,9104.533087
5362.182604,-4071.132681,-3677.258390,8438.347739
5362.182927,-4293.194464,-3370.820191,8364.327145
5362.183249,-4145.153275,-3524.039291,10288.862594
5362.183572,-3775.050304,-2911.162892,11029.068536
5362.183895,-2368.659014,-2068.457845,9844.739029
5362.184217,-1184.329507,-1608.800546,8882.471304
5362.184540,-1406.391290,-2757.943793,8956.491898
5362.184862,-814.226536,-2757.943793,8956.491898
5362.185185,370.102971,-1302.362347,8438.347739
5362.185508,2294.638420,-383.047749,7772.162391
5362.185830,2368.659014,0.000000,8364.327145
5362.186153,1332.370696,-1072.533697,9918.759623
5362.186476,1110.308913,-995.924147,10658.965565
5362.186798,-370.102971,-1608.800546,9770.718434
5362.187121,-1554.432478,-1991.848295,10732.986159
5362.187444,-3182.885551,-2987.772442,11695.253884
5362.187766,-4293.194464,-3370.820191,11325.150913
5362.188089,-4811.338623,-3524.039291,9474.636058
5362.188411,-5551.544565,-3064.381992,7772.162391
5362.188734,-6957.935855,-3907.087040,7698.141797
5362.189057,-6069.688724,-3524.039291,7994.224174
5362.189379,-5181.441594,-1838.629195,7254.018232
5362.189702,-3552.988522,-919.314598,7254.018232
5362.190025,-3256.906145,-459.657299,8290.306550
5362.190347,-2442.679609,0.000000,10214.842000
5362.190670,-1480.411884,612.876398,11177.109724
5362.190993,-1332.370696,842.705048,10436.903782
5362.191315,-1110.308913,-306.438199,11695.253884
5362.191638,-2294.638420,-1532.190996,11325.150913
5362.191960,-2220.617826,-2298.286494,10807.006753
5362.192283,-2368.659014,-2068.457845,9030.512492
5362.192606,-3182.885551,-2604.724693,8216.285956
5362.192928,-3108.864956,-3064.381992,7624.121203
5362.193251,-2072.576638,-2221.676944,7254.018232
5362.193574,-740.205942,-766.095498,6883.915261
5362.193896,-370.102971,766.095498,7624.121203
5362.194219,518.144159,919.314598,9252.574275
5362.194542,1036.288319,1685.410096,10732.986159
5362.194864,1850.514855,2145.067394,10510.924376
5362.195187,592.164754,1608.800546,10658.965565
5362.195509,-962.267725,689.485948,11251.130318
5362.195832,-2664.741391,-1762.019645,11325.150913
5362.196155,-3182.885551,-2221.676944,9474.636058
5362.196477,-4071.132681,-2911.162892,7698.141797
5362.196800,-5847.626942,-4213.525239,7105.977043
5362.197123,-6069.688724,-4903.011187,6883.915261
5362.197445,-5107.421000,-4443.353888,6809.894666
5362.197768,-4145.153275,-2604.724693,6365.771101
5362.198091,-3256.906145,-1991.848295,8068.244768
5362.198413,-2960.823768,-1685.410096,9548.656652
5362.198736,-518.144159,0.000000,11769.274478
5362.199058,814.226536,842.705048,10881.027347
5362.199381,0.000000,306.438199,11621.233289
5362.199704,-740.205942,-306.438199,12657.521608
5362.200026,-1110.308913,-766.095498,11917.315666
5362.200349,-1332.370696,-1532.190996,9622.677246
5362.200672,-1480.411884,-2451.505594,8216.285956
5362.200994,-3182.885551,-3294.210641,8364.327145
5362.201317,-4071.132681,-4290.134789,7994.224174
5362.201640,-2812.782580,-3753.867940,7328.038826
5362.201962,-1998.556043,-3294.210641,6587.832884
5362.202285,-592.164754,-1991.848295,7772.162391
5362.202607,-1110.308913,-1608.800546,10658.965565
5362.202930,888.247130,0.000000,11251.130318
