#time,accel_x,accel_y,accel_z
5757.229215,0.000000,766.095498,9474.636058
5757.229539,518.144159,536.266849,9992.780217
5757.229862,962.267725,995.924147,9400.615463
5757.230186,0.000000,995.924147,8512.368333
5757.230509,222.061783,383.047749,9548.656652
5757.230833,222.061783,536.266849,9770.718434
5757.231156,-222.061783,842.705048,9104.533087
5757.231480,0.000000,919.314598,8438.347739
5757.231803,-962.267725,229.828649,9030.512492
5757.232127,-1110.308913,153.219100,10066.800811
5757.232450,-222.061783,229.828649,9844.739029
5757.232774,-962.267725,612.876398,9474.636058
5757.233098,-888.247130,1302.362347,9400.615463
5757.233421,-370.102971,1072.533697,10140.821405
5757.233745,-444.123565,1072.533697,9400.615463
5757.234068,518.144159,1149.143247,9030.512492
5757.234392,0.000000,1532.190996,8586.388927
5757.234715,-296.082377,1072.533697,9178.553681
5757.235039,0.000000,612.876398,9474.636058
5757.235362,-518.144159,1302.362347,8660.409521
5757.235686,-222.061783,1915.238745,8142.265362
5757.236009,-1406.391290,689.485948,9326.594869
5757.236333,-1184.329507,612.876398,9696.697840
5757.236656,-592.164754,1225.752797,9474.636058
5757.236980,-592.164754,1762.019645,9030.512492
5757.237304,-1036.288319,1762.019645,9548.656652
5757.237627,-1184.329507,1838.629195,10066.800811
5757.237951,0.000000,2221.676944,9474.636058
5757.238274,-444.123565,2451.505594,8956.491898
5757.238598,-1480.411884,2374.896044,9474.636058
5757.238921,-2146.597232,1915.238745,10214.842000
5757.239245,-1628.453072,2221.676944,9992.780217
5757.239568,-2072.576638,2604.724693,8808.450710
5757.239892,-2812.782580,2374.896044,8734.430116
5757.240215,-4219.173869,1302.362347,10288.862594
5757.240539,-3923.091493,2374.896044,10288.862594
5757.240862,-4367.215058,3294.210641,9622.677246
5757.241186,-4811.338623,3370.820191,9104.533087
5757.241509,-5477.523971,3140.991542,9992.780217
5757.241833,-4885.359217,3294.210641,10288.862594
5757.242157,-3997.112087,4366.744339,8586.388927
5757.242480,-4367.215058,4519.963438,7105.977043
5757.242804,-4663.297435,3830.477490,7550.100608
5757.243127,-4219.173869,3294.210641,7846.182985
5757.243451,-3478.967927,3370.820191,7179.997637
5757.243774,-2516.700203,3600.648841,6217.729913
5757.244098,-3849.070898,2757.943793,6735.874072
5757.244421,-3923.091493,2451.505594,8216.285956
5757.244745,-2812.782580,2834.553343,8734.430116
5757.245068,-3108.864956,3140.991542,8512.368333
5757.245392,-3034.844362,2911.162892,9326.594869
5757.245715,-3552.988522,2987.772442,11029.068536
5757.246039,-2368.659014,3370.820191,11399.171507
5757.246363,-1258.350101,4443.353888,10584.944971
5757.246686,-2072.576638,5132.839837,10066.800811
5757.247010,-1332.370696,4979.620737,10510.924376
5757.247333,-888.247130,4673.182538,9844.739029
5757.247657,666.185348,4673.182538,8586.388927
5757.247980,962.267725,4519.963438,7179.997637
5757.248304,-592.164754,3217.601092,7994.224174
5757.248627,-1184.329507,2298.286494,8512.368333
5757.248951,-1776.494261,1991.848295,8438.347739
5757.249274,-2886.803174,1532.190996,8660.409521
5757.249598,-4071.132681,0.000000,9252.574275
5757.249921,-4441.235652,76.609550,10881.027347
5757.250245,-2960.823768,383.047749,10658.965565
5757.250568,-2220.617826,1302.362347,9548.656652
5757.250892,-2368.659014,1685.410096,9770.718434
5757.251216,-1184.329507,1532.190996,10732.986159
5757.251539,-740.205942,1762.019645,10658.965565
5757.251863,-296.082377,3064.381992,9252.574275
5757.252186,-592.164754,2757.943793,9178.553681
5757.252510,-888.247130,2451.505594,9252.574275
5757.252833,222.061783,2068.457845,9030.512492
5757.253157,962.267725,2298.286494,7920.203579
5757.253480,-222.061783,2221.676944,7920.203579
5757.253804,-814.226536,2068.457845,9252.574275
5757.254127,-1036.288319,1455.581446,10362.883188
5757.254451,-370.102971,1685.410096,9548.656652
5757.254774,-962.267725,2068.457845,8586.388927
5757.255098,-1776.494261,1149.143247,9178.553681
5757.255422,-2220.617826,766.095498,10066.800811
5757.255745,-3404.947333,612.876398,10436.903782
5757.256069,-4219.173869,919.314598,9992.780217
5757.256392,-6513.812290,0.000000,10658.965565
5757.256716,-6883.915261,0.000000,11103.089130
5757.257039,-5255.462188,1378.971896,10436.903782
5757.257363,-5551.544565,1991.848295,9030.512492
5757.257686,-4811.338623,2451.505594,9104.533087
5757.258010,-4737.318029,2987.772442,9696.697840
5757.258333,-2738.761985,3447.429741,9548.656652
5757.258657,-1036.288319,4290.134789,7476.080014
5757.258980,-740.205942,3830.477490,7402.059420
5757.259304,-1776.494261,3524.039291,8142.265362
5757.259627,-2590.720797,2911.162892,9326.594869
5757.259951,-2664.741391,2987.772442,9400.615463
5757.260275,-2812.782580,2757.943793,9104.533087
5757.260598,-4589.276840,1685.410096,9326.594869
5757.260922,-5773.606348,1991.848295,9918.759623
5757.261245,-4737.318029,3294.210641,10140.821405
5757.261569,-2738.761985,3907.087040,9770.718434
5757.261892,-2146.597232,4826.401637,8734.430116
5757.262216,-1628.453072,4519.963438,9400.615463
5757.262539,-592.164754,5209.449386,9252.574275
5757.262863,74.020594,6435.202183,7846.182985
5757.263186,74.020594,6435.202183,7254.018232
5757.263510,-888.247130,4979.620737,8586.388927
5757.263833,-1628.453072,4443.353888,8660.409521
5757.264157,-740.205942,4213.525239,8290.306550
5757.264481,-296.082377,3830.477490,7254.018232
5757.264804,-2146.597232,3217.601092,8586.388927
5757.265128,-2886.803174,2528.115143,10214.842000
5757.265451,-3478.967927,2451.505594,10140.821405
5757.265775,-2960.823768,3294.210641,9474.636058
5757.266098,-2516.700203,3830.477490,10140.821405
5757.266422,-3330.926739,2987.772442,11103.089130
5757.266745,-1184.329507,4136.915689,10214.842000
5757.267069,-222.061783,4519.963438,7846.182985
5757.267392,-444.123565,4136.915689,8068.244768
5757.267716,-370.102971,4903.011187,8512.368333
5757.268039,-666.185348,2911.162892,8438.347739
5757.268363,148.041188,3600.648841,7402.059420
5757.268686,-1998.556043,2681.334243,8142.265362
5757.269010,-3108.864956,1378.971896,9030.512492
5757.269334,-1184.329507,842.705048,8808.450710
5757.269657,-962.267725,1455.581446,8660.409521
5757.269981,-3108.864956,1225.752797,9844.739029
5757.270304,-3775.050304,1225.752797,11547.212695
5757.270628,-2886.803174,1149.143247,11473.192101
5757.270951,-1184.329507,2068.457845,10510.924376
5757.271275,-2072.576638,2221.676944,9474.636058
5757.271598,-1998.556043,1378.971896,9548.656652
5757.271922,-1406.391290,1302.362347,9918.759623
5757.272245,-1998.556043,2068.457845,8660.409521
5757.272569,-2590.720797,1762.019645,8290.306550
5757.272892,-3330.926739,689.485948,7846.182985
5757.273216,-3701.029710,76.609550,9474.636058
5757.273540,-3330.926739,459.657299,9696.697840
5757.273863,-3627.009116,766.095498,9622.677246
5757.274187,-3404.947333,612.876398,9696.697840
5757.274510,-4145.153275,766.095498,10955.047942
5757.274834,-4145.153275,766.095498,12139.377449
5757.275157,-3404.947333,1302.362347,11177.109724
5757.275481,-3108.864956,1685.410096,9400.615463
5757.275804,-2516.700203,995.924147,8956.491898
5757.276128,-3701.029710,689.485948,9844.739029
5757.276451,-3552.988522,1608.800546,9326.594869
5757.276775,-3478.967927,1991.848295,8808.450710
5757.277098,-4293.194464,2145.067394,8586.388927
5757.277422,-3108.864956,766.095498,8956.491898
5757.277746,-2738.761985,2604.724693,8364.327145
5757.278069,-3849.070898,3140.991542,8660.409521
5757.278393,-2368.659014,3600.648841,8586.388927
5757.278716,-2812.782580,3217.601092,9918.759623
5757.279040,-888.247130,4136.915689,8956.491898
5757.279363,296.082377,3830.477490,8438.347739
5757.279687,-1332.370696,3983.696590,8808.450710
5757.280010,-962.267725,3140.991542,9474.636058
5757.280334,-666.185348,3217.601092,9104.533087
5757.280657,-888.247130,3907.087040,8734.430116
5757.280981,-592.164754,3524.039291,8364.327145
5757.281304,-2368.659014,2451.505594,8216.285956
5757.281628,-2294.638420,2451.505594,9030.512492
5757.281951,-1332.370696,4749.792088,8142.265362
5757.282275,-1554.432478,3753.867940,8068.244768
5757.282599,-814.226536,3830.477490,8216.285956
5757.282922,592.164754,3907.087040,8956.491898
5757.283246,666.185348,3983.696590,8808.450710
5757.283569,370.102971,4673.182538,9030.512492
5757.283893,74.020594,3907.087040,8808.450710
5757.284216,-1258.350101,2374.896044,10807.006753
5757.284540,-370.102971,1608.800546,9252.574275
5757.284863,-518.144159,1762.019645,9622.677246
5757.285186,-592.164754,1915.238745,8512.368333
5757.285510,-888.247130,1685.410096,10881.027347
5757.285833,-222.061783,2145.067394,10584.944971
5757.286157,296.082377,2451.505594,9548.656652
5757.286480,296.082377,2145.067394,8438.347739
5757.286804,296.082377,2374.896044,9696.697840
5757.287127,1184.329507,2298.286494,9844.739029
5757.287451,1332.370696,2604.724693,8956.491898
5757.287774,888.247130,2221.676944,8364.327145
5757.288097,-1480.411884,842.705048,8734.430116
5757.288421,-2294.638420,0.000000,10066.800811
5757.288744,-1258.350101,842.705048,8290.306550
5757.289068,-444.123565,-229.828649,7476.080014
5757.289391,-1110.308913,-1838.629195,8068.244768
5757.289715,-2442.679609,-1532.190996,8512.368333
5757.290038,-1850.514855,-1762.019645,10066.800811
5757.290362,-1628.453072,-459.657299,8734.430116
5757.290685,-2516.700203,-766.095498,10436.903782
5757.291008,-1850.514855,-1991.848295,10362.883188
5757.291332,-222.061783,-1302.362347,9992.780217
5757.291655,0.000000,-383.047749,9844.739029
5757.291979,1480.411884,-612.876398,8142.265362
5757.292302,444.123565,-1225.752797,10362.883188
5757.292626,444.123565,-1685.410096,9104.533087
5757.292949,666.185348,-1608.800546,9030.512492
5757.293273,296.082377,-1225.752797,8364.327145
5757.293596,74.020594,-1378.971896,9400.615463
5757.293919,296.082377,-3140.991542,10066.800811
5757.294243,-444.123565,-3524.039291,10955.047942
5757.294566,-814.226536,-1915.238745,10955.047942
5757.294890,-296.082377,-1608.800546,11399.171507
5757.295213,740.205942,-1455.581446,12139.377449
5757.295537,1998.556043,-383.047749,11473.192101
5757.295860,1998.556043,229.828649,10807.006753
5757.296184,1776.494261,229.828649,10140.821405
5757.296507,814.226536,76.609550,9844.739029
5757.296830,-1184.329507,0.000000,10214.842000
5757.297154,1110.308913,229.828649,8364.327145
5757.297477,-1332.370696,153.219100,9844.739029
5757.297801,-888.247130,459.657299,9400.615463
5757.298124,-592.164754,-306.438199,9400.615463
5757.298448,0.000000,383.047749,7920.203579
5757.298771,-1406.391290,153.219100,7550.100608
5757.299094,-2368.659014,842.705048,7994.224174
5757.299418,-2072.576638,306.438199,9474.636058
5757.299741,222.061783,1302.362347,7994.224174
5757.300065,-370.102971,1685.410096,8068.244768
5757.300388,-1184.329507,1762.019645,8142.265362
5757.300712,-1776.494261,2221.676944,9474.636058
5757.301035,-370.102971,2681.334243,8586.388927
5757.301359,888.247130,3140.991542,7846.182985
5757.301682,518.144159,2834.553343,7550.100608
5757.302005,0.000000,2604.724693,8438.347739
5757.302329,1258.350101,2757.943793,8586.388927
5757.302652,1776.494261,3447.429741,7402.059420
5757.302976,2368.659014,3524.039291,7328.038826
5757.303299,148.041188,3064.381992,8734.430116
5757.303623,148.041188,2451.505594,9474.636058
5757.303946,1924.535449,2451.505594,9104.533087
5757.304270,1036.288319,3064.381992,9252.574275
5757.304593,962.267725,1991.848295,9696.697840
5757.304916,-370.102971,1225.752797,10584.944971
5757.305240,-148.041188,1149.143247,9178.553681
5757.305563,-370.102971,2451.505594,9474.636058
5757.305887,-1480.411884,1915.238745,9548.656652
5757.306210,-1406.391290,383.047749,10658.965565
5757.306534,-1332.370696,383.047749,10362.883188
5757.306857,-1480.411884,689.485948,8734.430116
5757.307181,-1480.411884,842.705048,9844.739029
5757.307504,-1998.556043,919.314598,9548.656652
5757.307827,-1258.350101,0.000000,9918.759623
5757.308151,-814.226536,-612.876398,8438.347739
5757.308474,-2072.576638,-995.924147,8364.327145
5757.308798,-1332.370696,-842.705048,9326.594869
5757.309121,-444.123565,-612.876398,9326.594869
5757.309445,-814.226536,-1072.533697,9548.656652
5757.309768,-518.144159,-995.924147,8438.347739
5757.310092,-1036.288319,-1149.143247,10214.842000
5757.310415,0.000000,-536.266849,9622.677246
5757.310738,1628.453072,-229.828649,9252.574275
5757.311062,1924.535449,-229.828649,7846.182985
5757.311385,2516.700203,76.609550,8660.409521
5757.311709,2368.659014,459.657299,9622.677246
5757.312032,2738.761985,612.876398,9696.697840
5757.312356,3108.864956,0.000000,7476.080014
5757.312679,2516.700203,-689.485948,8956.491898
5757.313003,1332.370696,-1072.533697,9400.615463
5757.313326,888.247130,-919.314598,10955.047942
5757.313649,1110.308913,-1072.533697,9178.553681
5757.313973,-444.123565,-1838.629195,9918.759623
5757.314296,-2738.761985,-2757.943793,10140.821405
5757.314620,-2368.659014,-2757.943793,10436.903782
5757.314943,-2738.761985,-1838.629195,10436.903782
5757.315267,-1036.288319,-1455.581446,9918.759623
5757.315590,-2220.617826,-1991.848295,10807.006753
5757.315913,-2146.597232,-1838.629195,10214.842000
5757.316237,-1332.370696,-766.095498,10066.800811
5757.316560,-1480.411884,76.609550,9548.656652
5757.316884,-222.061783,459.657299,10288.862594
5757.317207,666.185348,0.000000,10362.883188
5757.317531,0.000000,-153.219100,9622.677246
5757.317854,-444.123565,0.000000,8660.409521
5757.318178,-222.061783,0.000000,9104.533087
5757.318501,-296.082377,536.266849,10288.862594
5757.318824,148.041188,383.047749,10658.965565
5757.319148,296.082377,1378.971896,10066.800811
5757.319471,-814.226536,1991.848295,9474.636058
5757.319795,518.144159,1685.410096,9844.739029
5757.320118,666.185348,1991.848295,8956.491898
5757.320442,1036.288319,2451.505594,8068.244768
5757.320765,0.000000,2604.724693,7772.162391
5757.321089,-222.061783,2528.115143,8438.347739
5757.321412,0.000000,2834.553343,7846.182985
5757.321735,-592.164754,2757.943793,6883.915261
5757.322059,-1406.391290,2451.505594,6291.750507
5757.322382,-2590.720797,1685.410096,7328.038826
5757.322706,-2442.679609,1762.019645,8364.327145
5757.323029,0.000000,2834.553343,7772.162391
5757.323353,-666.185348,2451.505594,8142.265362
5757.323676,-1480.411884,1838.629195,8068.244768
5757.324000,-1332.370696,2221.676944,9770.718434
5757.324323,592.164754,3140.991542,9622.677246
5757.324646,2368.659014,3447.429741,9030.512492
5757.324970,222.061783,2604.724693,9770.718434
5757.325293,-148.041188,1915.238745,10658.965565
5757.325617,0.000000,2145.067394,10732.986159
5757.325940,888.247130,2911.162892,9622.677246
5757.326264,1628.453072,3294.210641,9030.512492
5757.326587,-148.041188,1455.581446,9178.553681
5757.326911,1110.308913,1302.362347,9918.759623
5757.327234,740.205942,1838.629195,9326.594869
5757.327557,740.205942,1762.019645,8438.347739
5757.327881,444.123565,995.924147,9104.533087
5757.328204,-592.164754,76.609550,9992.780217
5757.328528,592.164754,0.000000,9474.636058
5757.328851,1554.432478,153.219100,7994.224174
5757.329175,-888.247130,-229.828649,10288.862594
5757.329498,-2220.617826,-1608.800546,10436.903782
5757.329822,-1406.391290,-1991.848295,10214.842000
5757.330145,148.041188,-612.876398,8882.471304
5757.330468,518.144159,76.609550,9178.553681
5757.330792,1184.329507,-536.266849,9030.512492
5757.331115,1110.308913,-1762.019645,9474.636058
5757.331439,-148.041188,-459.657299,7476.080014
5757.331762,-222.061783,-995.924147,7920.203579
5757.332086,-592.164754,0.000000,9696.697840
5757.332409,518.144159,-766.095498,10732.986159
5757.332733,888.247130,-1608.800546,8734.430116
5757.333056,-1406.391290,-1608.800546,9474.636058
5757.333379,-814.226536,-1455.581446,10066.800811
5757.333703,-1850.514855,-2528.115143,11769.274478
5757.334026,-1332.370696,-2145.067394,9918.759623
5757.334350,-1184.329507,-2298.286494,10288.862594
5757.334673,-2294.638420,-1991.848295,9622.677246
5757.334997,-1702.473667,-1915.238745,11251.130318
5757.335320,-370.102971,-919.314598,10140.821405
5757.335643,-296.082377,-689.485948,9770.718434
5757.335967,-814.226536,-1072.533697,9844.739029
5757.336290,-592.164754,-383.047749,11177.109724
5757.336614,-444.123565,306.438199,11029.068536
5757.336937,1184.329507,459.657299,8660.409521
5757.337261,-370.102971,0.000000,8956.491898
5757.337584,-1184.329507,0.000000,9178.553681
5757.337908,-1776.494261,306.438199,10140.821405
5757.338231,-222.061783,536.266849,9326.594869
5757.338554,-518.144159,306.438199,8216.285956
5757.338878,-2368.659014,-306.438199,8734.430116
5757.339201,-2442.679609,153.219100,9104.533087
5757.339525,-1776.494261,1072.533697,9622.677246
5757.339848,-666.185348,2298.286494,8586.388927
5757.340172,74.020594,1685.410096,8142.265362
5757.340495,-518.144159,2145.067394,8586.388927
5757.340819,592.164754,2528.115143,7698.141797
5757.341142,592.164754,3217.601092,7698.141797
5757.341465,1406.391290,3983.696590,7994.224174
5757.341789,2516.700203,3447.429741,8586.388927
5757.342112,1406.391290,3140.991542,9030.512492
5757.342436,2072.576638,2757.943793,7994.224174
5757.342759,1110.308913,3830.477490,7920.203579
5757.343083,-296.082377,3370.820191,9178.553681
5757.343406,888.247130,2757.943793,9844.739029
5757.343730,296.082377,2528.115143,9696.697840
5757.344053,444.123565,2451.505594,8438.347739
5757.344376,-814.226536,2757.943793,10066.800811
5757.344700,1110.308913,3140.991542,9326.594869
5757.345023,592.164754,3140.991542,9992.780217
5757.345347,74.020594,2757.943793,6735.874072
5757.345670,222.061783,2145.067394,8660.409521
5757.345994,444.123565,2451.505594,8586.388927
5757.346317,962.267725,2834.553343,9030.512492
5757.346641,222.061783,1685.410096,8438.347739
5757.346964,-1184.329507,842.705048,8660.409521
5757.347287,-2072.576638,1072.533697,9992.780217
5757.347611,0.000000,689.485948,9252.574275
5757.347934,370.102971,536.266849,9474.636058
5757.348258,-222.061783,153.219100,9104.533087
5757.348581,-1258.350101,-1072.533697,9844.739029
5757.348905,-666.185348,-919.314598,10214.842000
5757.349228,740.205942,0.000000,9474.636058
5757.349552,222.061783,0.000000,8586.388927
5757.349875,-296.082377,-1532.190996,9992.780217
5757.350198,-296.082377,-2221.676944,10436.903782
5757.350522,148.041188,-995.924147,9252.574275
5757.350845,1110.308913,-689.485948,8660.409521
5757.351169,-1258.350101,-1225.752797,10214.842000
5757.351492,-1850.514855,-1991.848295,9918.759623
5757.351816,-370.102971,-1762.019645,9474.636058
5757.352139,0.000000,-1225.752797,8216.285956
5757.352462,-296.082377,-1302.362347,8882.471304
5757.352786,-1554.432478,-2374.896044,10658.965565
5757.353109,-1110.308913,-2451.505594,10955.047942
5757.353433,-1406.391290,-1762.019645,10066.800811
5757.353756,-1332.370696,-1838.629195,9696.697840
5757.354080,-370.102971,-1378.971896,10584.944971
5757.354403,-1332.370696,-1762.019645,10732.986159
5757.354727,-444.123565,-1762.019645,9400.615463
5757.355050,-1628.453072,-1532.190996,9104.533087
5757.355373,-2368.659014,-1225.752797,9844.739029
5757.355697,-1776.494261,-1225.752797,9696.697840
5757.356020,-2368.659014,-1149.143247,10584.944971
5757.356344,-1184.329507,-766.095498,7994.224174
5757.356667,-962.267725,-229.828649,10140.821405
5757.356991,592.164754,306.438199,9548.656652
5757.357314,2294.638420,612.876398,10066.800811
5757.357638,518.144159,689.485948,8290.306550
5757.357961,740.205942,766.095498,9104.533087
5757.358284,888.247130,995.924147,9400.615463
5757.358608,1850.514855,1072.533697,9252.574275
5757.358931,2368.659014,1762.019645,8660.409521
5757.359255,962.267725,1302.362347,8808.450710
5757.359578,592.164754,1455.581446,9030.512492
5757.359902,1036.288319,2221.676944,9622.677246
5757.360225,1258.350101,2834.553343,8142.265362
5757.360549,962.267725,2911.162892,8216.285956
5757.360872,0.000000,2068.457845,7846.182985
5757.361195,592.164754,2374.896044,8216.285956
5757.361519,1776.494261,3140.991542,6587.832884
5757.361842,2590.720797,3294.210641,6735.874072
5757.362166,962.267725,2987.772442,8882.471304
5757.362489,518.144159,2757.943793,9622.677246
5757.362813,888.247130,2681.334243,9548.656652
5757.363136,1702.473667,3217.601092,8660.409521
5757.363460,740.205942,3064.381992,9696.697840
5757.363783,-740.205942,1608.800546,10881.027347
5757.364106,-888.247130,995.924147,10955.047942
5757.364430,-888.247130,1915.238745,9474.636058
5757.364753,-296.082377,2221.676944,9252.574275
5757.365077,-592.164754,1455.581446,8956.491898
5757.365400,0.000000,1455.581446,9622.677246
5757.365724,1110.308913,2298.286494,8142.265362
5757.366047,-1110.308913,2298.286494,9622.677246
5757.366371,-222.061783,766.095498,9030.512492
5757.366694,-1628.453072,766.095498,10807.006753
5757.367017,-2368.659014,76.609550,8512.368333
5757.367341,-1924.535449,0.000000,7846.182985
5757.367664,-2960.823768,-842.705048,9400.615463
5757.367988,-1480.411884,-995.924147,8956.491898
5757.368311,-1628.453072,-612.876398,9992.780217
5757.368635,-3034.844362,-459.657299,8216.285956
5757.368958,-1776.494261,-306.438199,9474.636058
5757.369282,-1036.288319,-919.314598,9326.594869
5757.369605,1554.432478,76.609550,9104.533087
5757.369928,1184.329507,536.266849,8956.491898
5757.370252,370.102971,0.000000,8660.409521
5757.370575,592.164754,-459.657299,9844.739029
5757.370899,1184.329507,-306.438199,9104.533087
5757.371222,1332.370696,0.000000,7920.203579
5757.371546,74.020594,-919.314598,8734.430116
5757.371869,-370.102971,-1455.581446,9474.636058
5757.372192,-1554.432478,-1991.848295,11843.295072
5757.372516,296.082377,-1455.581446,9030.512492
5757.372839,-888.247130,-2374.896044,9474.636058
5757.373163,-1628.453072,-2451.505594,9918.759623
5757.373486,-1406.391290,-2068.457845,11621.233289
5757.373810,-296.082377,-1149.143247,11177.109724
5757.374133,0.000000,-1072.533697,9770.718434
5757.374457,-814.226536,-1455.581446,10807.006753
5757.374780,-1036.288319,-1532.190996,11473.192101
5757.375103,-1998.556043,-612.876398,10436.903782
5757.375427,74.020594,0.000000,9918.759623
5757.375750,296.082377,76.609550,9326.594869
5757.376074,0.000000,-689.485948,10066.800811
5757.376397,370.102971,-612.876398,10066.800811
5757.376721,-592.164754,0.000000,9474.636058
5757.377044,148.041188,229.828649,9030.512492
5757.377368,74.020594,995.924147,9326.594869
5757.377691,592.164754,1378.971896,10362.883188
5757.378014,1406.391290,1225.752797,9104.533087
5757.378338,444.123565,1532.190996,8142.265362
5757.378661,1184.329507,1838.629195,8660.409521
5757.378985,1628.453072,1915.238745,8512.368333
5757.379308,814.226536,1838.629195,8290.306550
5757.379632,1036.288319,2451.505594,6809.894666
5757.379955,296.082377,1915.238745,7920.203579
5757.380279,74.020594,2451.505594,7402.059420
5757.380602,0.000000,2451.505594,8956.491898
5757.380925,-962.267725,2068.457845,7624.121203
5757.381249,-1332.370696,2298.286494,8586.388927
5757.381572,-1110.308913,2681.334243,9178.553681
5757.381896,888.247130,2911.162892,8882.471304
5757.382219,518.144159,2987.772442,8290.306550
5757.382543,-370.102971,2451.505594,8438.347739
5757.382866,-814.226536,1608.800546,9400.615463
5757.383190,-888.247130,1378.971896,9400.615463
5757.383513,74.020594,2451.505594,8882.471304
5757.383836,-444.123565,1991.848295,8956.491898
5757.384160,-2812.782580,842.705048,9992.780217
5757.384483,-2294.638420,995.924147,10584.944971
5757.384806,0.000000,1838.629195,9400.615463
5757.385130,-592.164754,1915.238745,9178.553681
5757.385453,-1258.350101,1608.800546,9326.594869
5757.385776,-666.185348,766.095498,10288.862594
5757.386100,296.082377,2145.067394,9178.553681
5757.386423,1258.350101,1915.238745,8808.450710
5757.386746,592.164754,1072.533697,8808.450710
5757.387069,444.123565,153.219100,10732.986159
5757.387393,0.000000,229.828649,9474.636058
5757.387716,1184.329507,0.000000,9178.553681
5757.388039,-1110.308913,0.000000,10288.862594
5757.388362,-1036.288319,-689.485948,9548.656652
5757.388686,-1184.329507,-1455.581446,10732.986159
5757.389009,-370.102971,-766.095498,8586.388927
5757.389332,-148.041188,-306.438199,8956.491898
5757.389656,74.020594,-459.657299,7698.141797
5757.389979,0.000000,-842.705048,10436.903782
5757.390302,0.000000,-383.047749,8956.491898
5757.390625,-1332.370696,-1149.143247,8660.409521
5757.390949,-666.185348,-766.095498,8956.491898
5757.391272,-296.082377,-766.095498,9918.759623
5757.391595,222.061783,-612.876398,8882.471304
5757.391919,370.102971,-1455.581446,8660.409521
5757.392242,-1110.308913,-842.705048,9400.615463
5757.392565,-592.164754,-1149.143247,10510.924376
5757.392888,518.144159,-1225.752797,10140.821405
5757.393212,0.000000,-1149.143247,9548.656652
5757.393535,740.205942,-612.876398,9696.697840
5757.393858,74.020594,-995.924147,10955.047942
5757.394182,1554.432478,0.000000,11547.212695
5757.394505,1480.411884,76.609550,10140.821405
5757.394828,-74.020594,0.000000,9474.636058
5757.395151,-962.267725,-689.485948,10807.006753
5757.395475,-888.247130,-612.876398,9844.739029
5757.395798,666.185348,306.438199,9992.780217
5757.396121,666.185348,766.095498,8216.285956
5757.396444,-1850.514855,76.609550,10066.800811
5757.396768,-2368.659014,0.000000,9474.636058
5757.397091,-1628.453072,612.876398,9622.677246
5757.397414,-296.082377,1532.190996,7698.141797
5757.397738,-222.061783,1225.752797,8586.388927
5757.398061,-444.123565,842.705048,9400.615463
5757.398384,74.020594,1378.971896,9918.759623
5757.398707,666.185348,2145.067394,8068.244768
5757.399031,148.041188,1838.629195,8438.347739
5757.399354,-1110.308913,1532.190996,9548.656652
5757.399677,-1480.411884,1378.971896,9696.697840
5757.400001,1036.288319,2451.505594,7624.121203
5757.400324,2072.576638,2451.505594,6957.935855
5757.400647,2368.659014,3064.381992,6883.915261
5757.400970,1776.494261,3217.601092,9696.697840
5757.401294,1406.391290,3370.820191,8512.368333
5757.401617,518.144159,3753.867940,8956.491898
5757.401940,1184.329507,2911.162892,7624.121203
5757.402264,814.226536,2298.286494,9918.759623
5757.402587,518.144159,2451.505594,9696.697840
5757.402910,-370.102971,2298.286494,9474.636058
5757.403233,-2146.597232,1838.629195,9326.594869
5757.403557,-1332.370696,1532.190996,9474.636058
5757.403880,-2516.700203,766.095498,9400.615463
5757.404203,-1480.411884,1378.971896,8290.306550
5757.404526,-1702.473667,1378.971896,9622.677246
5757.404850,-1924.535449,842.705048,8734.430116
5757.405173,0.000000,1455.581446,9770.718434
5757.405496,-1184.329507,1302.362347,7994.224174
5757.405820,-2590.720797,1149.143247,9252.574275
5757.406143,-1924.535449,612.876398,8956.491898
5757.406466,222.061783,536.266849,9844.739029
5757.406789,2664.741391,1455.581446,9178.553681
5757.407113,1110.308913,1072.533697,8808.450710
5757.407436,592.164754,0.000000,9474.636058
5757.407759,0.000000,-383.047749,9474.636058
5757.408083,814.226536,536.266849,8734.430116
5757.408406,814.226536,153.219100,7846.182985
5757.408729,-518.144159,-842.705048,9770.718434
5757.409052,-518.144159,-995.924147,10288.862594
5757.409376,666.185348,-689.485948,9400.615463
5757.409699,666.185348,0.000000,9252.574275
5757.410022,148.041188,76.609550,9844.739029
5757.410346,-962.267725,-919.314598,11177.109724
5757.410669,962.267725,-1302.362347,8734.430116
5757.410992,2146.597232,-995.924147,9178.553681
5757.411315,518.144159,-536.266849,8364.327145
5757.411639,0.000000,-1532.190996,11029.068536
5757.411962,-1184.329507,-2298.286494,11029.068536
5757.412285,-370.102971,-1225.752797,9844.739029
5757.412608,296.082377,-766.095498,9326.594869
5757.412932,-1110.308913,-919.314598,10658.965565
5757.413255,-1258.350101,-1915.238745,12065.356855
5757.413578,-1332.370696,-1915.238745,11177.109724
5757.413902,-2294.638420,-1302.362347,9548.656652
5757.414225,-1850.514855,-1072.533697,9622.677246
5757.414548,-1850.514855,-1378.971896,9844.739029
5757.414871,-962.267725,-612.876398,10436.903782
5757.415195,-962.267725,-459.657299,7624.121203
5757.415518,-1406.391290,-919.314598,8734.430116
5757.415841,-518.144159,-306.438199,8956.491898
5757.416165,-592.164754,0.000000,9178.553681
5757.416488,222.061783,76.609550,8290.306550
5757.416811,444.123565,459.657299,8142.265362
5757.417134,-148.041188,612.876398,8956.491898
5757.417458,1480.411884,1762.019645,9548.656652
5757.417781,2220.617826,1838.629195,8882.471304
5757.418104,1850.514855,1762.019645,8290.306550
5757.418428,1480.411884,2145.067394,8882.471304
5757.418751,1850.514855,2451.505594,10066.800811
5757.419074,3404.947333,3217.601092,8660.409521
5757.419397,2220.617826,2911.162892,7476.080014
5757.419721,1702.473667,2298.286494,8290.306550
5757.420044,370.102971,1378.971896,9326.594869
5757.420367,-666.185348,1762.019645,9400.615463
5757.420690,666.185348,2374.896044,7994.224174
5757.421014,-1702.473667,1532.190996,8882.471304
5757.421337,-3404.947333,306.438199,9770.718434
5757.421660,-3256.906145,1225.752797,10584.944971
5757.421984,-2738.761985,2145.067394,8882.471304
5757.422307,-1924.535449,1608.800546,8438.347739
5757.422630,-2886.803174,1225.752797,9696.697840
5757.422953,-2516.700203,1532.190996,9918.759623
5757.423277,-592.164754,2834.553343,8734.430116
5757.423600,74.020594,2911.162892,7846.182985
5757.423923,222.061783,2068.457845,8956.491898
5757.424247,518.144159,1762.019645,9178.553681
5757.424570,0.000000,1225.752797,9104.533087
5757.424893,1036.288319,2528.115143,8216.285956
5757.425216,592.164754,1532.190996,9030.512492
5757.425540,1406.391290,1378.971896,9104.533087
5757.425863,1036.288319,1685.410096,9918.759623
5757.426186,592.164754,1838.629195,7772.162391
5757.426510,518.144159,766.095498,8882.471304
5757.426833,1036.288319,842.705048,8882.471304
5757.427156,1036.288319,459.657299,9474.636058
5757.427479,148.041188,536.266849,8956.491898
5757.427803,-962.267725,0.000000,9252.574275
5757.428126,-888.247130,-229.828649,9548.656652
5757.428449,444.123565,-383.047749,8290.306550
5757.428772,814.226536,-842.705048,8216.285956
5757.429096,-740.205942,-919.314598,7476.080014
5757.429419,-2590.720797,-1608.800546,9178.553681
5757.429742,-1850.514855,-1915.238745,9696.697840
5757.430066,-592.164754,-1302.362347,9548.656652
5757.430389,-2072.576638,-1838.629195,10140.821405
5757.430712,-1776.494261,-1838.629195,10658.965565
5757.431035,-592.164754,-2374.896044,11769.274478
5757.431359,1702.473667,-766.095498,10510.924376
5757.431682,962.267725,0.000000,10584.944971
5757.432005,-962.267725,-1532.190996,11029.068536
5757.432329,-666.185348,-1838.629195,11251.130318
5757.432652,296.082377,-1072.533697,10732.986159
5757.432975,1554.432478,-153.219100,9844.739029
5757.433298,740.205942,-995.924147,10362.883188
5757.433622,-888.247130,-1532.190996,10955.047942
5757.433945,-592.164754,-766.095498,10140.821405
5757.434268,-1184.329507,-1149.143247,9474.636058
5757.434592,296.082377,-306.438199,7476.080014
5757.434915,-666.185348,-766.095498,9474.636058
5757.435238,-1850.514855,-1532.190996,10066.800811
5757.435561,-1702.473667,-919.314598,9548.656652
5757.435885,-1036.288319,0.000000,7846.182985
5757.436208,-740.205942,0.000000,8660.409521
5757.436531,-666.185348,-383.047749,9030.512492
5757.436854,-740.205942,842.705048,8882.471304
5757.437178,296.082377,1991.848295,7994.224174
5757.437501,222.061783,2221.676944,7994.224174
5757.437824,814.226536,2451.505594,8438.347739
5757.438148,666.185348,1762.019645,9030.512492
5757.438471,370.102971,2068.457845,7772.162391
5757.438794,814.226536,1762.019645,8882.471304
5757.439117,518.144159,2221.676944,9622.677246
5757.439441,1258.350101,1762.019645,9622.677246
5757.439764,814.226536,1762.019645,9104.533087
5757.440087,-814.226536,1991.848295,8290.306550
5757.440411,-740.205942,1762.019645,9918.759623
5757.440734,296.082377,1685.410096,9326.594869
5757.441057,444.123565,3064.381992,9030.512492
5757.441380,0.000000,2451.505594,8216.285956
5757.441704,-1554.432478,2221.676944,9474.636058
5757.442027,-1110.308913,2451.505594,9474.636058
5757.442350,1036.288319,3140.991542,8956.491898
5757.442674,444.123565,3140.991542,7994.224174
5757.442997,1036.288319,2834.553343,8660.409521
5757.443320,370.102971,2221.676944,8882.471304
5757.443643,2294.638420,2451.505594,9474.636058
5757.443967,2664.741391,2757.943793,8438.347739
5757.444290,370.102971,1378.971896,9474.636058
5757.444613,-962.267725,689.485948,10436.903782
5757.444936,518.144159,1149.143247,10510.924376
5757.445260,74.020594,1378.971896,9770.718434
5757.445583,0.000000,1225.752797,8142.265362
5757.445906,-2072.576638,-1072.533697,9918.759623
5757.446230,-1850.514855,-383.047749,10510.924376
5757.446553,-1702.473667,0.000000,9178.553681
5757.446876,-296.082377,229.828649,7698.141797
5757.447199,-666.185348,76.609550,7994.224174
5757.447523,-666.185348,-229.828649,9770.718434
5757.447846,518.144159,306.438199,8512.368333
5757.448169,-296.082377,0.000000,8216.285956
5757.448493,444.123565,-306.438199,8142.265362
5757.448816,-296.082377,-1378.971896,9474.636058
5757.449139,-1184.329507,-1838.629195,9770.718434
5757.449462,-444.123565,-689.485948,10140.821405
5757.449786,-740.205942,-459.657299,10658.965565
5757.450109,0.000000,-1762.019645,9992.780217
5757.450432,666.185348,-2221.676944,10881.027347
5757.450756,-740.205942,-1378.971896,9992.780217
5757.451079,-1776.494261,-1302.362347,10584.944971
5757.451402,-2146.597232,-1608.800546,11473.192101
5757.451725,-666.185348,-1072.533697,10436.903782
5757.452049,-592.164754,-1991.848295,9326.594869
5757.452372,-1628.453072,-1532.190996,7920.203579
5757.452695,-2442.679609,-919.314598,9474.636058
5757.453018,-740.205942,-919.314598,9844.739029
5757.453342,-666.185348,-842.705048,8956.491898
5757.453665,-1258.350101,-612.876398,8586.388927
5757.453988,-2516.700203,-1072.533697,9252.574275
5757.454312,-2072.576638,-1225.752797,9844.739029
5757.454635,-148.041188,-536.266849,9178.553681
5757.454958,444.123565,459.657299,8882.471304
5757.455281,0.000000,383.047749,9770.718434
5757.455605,-1036.288319,306.438199,11177.109724
5757.455928,962.267725,689.485948,9844.739029
5757.456251,2812.782580,2298.286494,8290.306550
5757.456575,2220.617826,2145.067394,8586.388927
5757.456898,1554.432478,2374.896044,9844.739029
5757.457221,1702.473667,2145.067394,9178.553681
5757.457544,3034.844362,2911.162892,7476.080014
5757.457868,2738.761985,2987.772442,7105.977043
5757.458191,0.000000,1991.848295,8438.347739
5757.458514,-1184.329507,1762.019645,9622.677246
5757.458838,0.000000,2145.067394,8808.450710
5757.459161,222.061783,2451.505594,7772.162391
5757.459484,518.144159,3064.381992,7698.141797
5757.459807,-1406.391290,2451.505594,10658.965565
5757.460131,-592.164754,2681.334243,9770.718434
5757.460454,-518.144159,2681.334243,9178.553681
5757.460777,0.000000,3140.991542,7772.162391
5757.461100,666.185348,2681.334243,9548.656652
5757.461424,-740.205942,1915.238745,8660.409521
5757.461747,-740.205942,2298.286494,8808.450710
5757.462070,0.000000,2221.676944,8142.265362
5757.462394,-666.185348,1915.238745,9326.594869
5757.462717,222.061783,1685.410096,9622.677246
5757.463040,-666.185348,1455.581446,9992.780217
5757.463363,74.020594,1532.190996,8290.306550
5757.463687,0.000000,1149.143247,10066.800811
5757.464010,1184.329507,1455.581446,9104.533087
5757.464333,888.247130,995.924147,9696.697840
5757.464657,0.000000,689.485948,7994.224174
5757.464980,-962.267725,306.438199,8882.471304
5757.465303,0.000000,153.219100,8734.430116
5757.465626,1036.288319,306.438199,8068.244768
5757.465950,148.041188,153.219100,8512.368333
5757.466273,-1184.329507,-459.657299,9030.512492
5757.466596,-1110.308913,0.000000,9622.677246
5757.466920,-74.020594,-459.657299,9770.718434
5757.467243,-444.123565,-229.828649,8364.327145
5757.467566,-1332.370696,-1072.533697,9622.677246
5757.467889,-1554.432478,-1532.190996,10510.924376
5757.468213,-888.247130,-1072.533697,10362.883188
5757.468536,1258.350101,-612.876398,8142.265362
5757.468859,-518.144159,-459.657299,9622.677246
5757.469182,-1480.411884,-1762.019645,10214.842000
5757.469506,-1036.288319,-2374.896044,10584.944971
5757.469829,-518.144159,-1225.752797,9992.780217
5757.470152,0.000000,-1149.143247,10807.006753
5757.470476,-1924.535449,-1762.019645,10658.965565
5757.470799,-3182.885551,-2374.896044,12435.459826
5757.471122,-1480.411884,-1149.143247,10436.903782
5757.471445,-1628.453072,-766.095498,10214.842000
5757.471769,0.000000,0.000000,8512.368333
5757.472092,-518.144159,0.000000,9992.780217
5757.472415,592.164754,0.000000,9400.615463
5757.472739,592.164754,536.266849,8142.265362
5757.473062,-1110.308913,995.924147,8216.285956
5757.473385,222.061783,536.266849,7920.203579
5757.473708,-740.205942,0.000000,10807.006753
5757.474032,-592.164754,383.047749,9104.533087
5757.474355,-740.205942,459.657299,9474.636058
5757.474678,-740.205942,-383.047749,8364.327145
5757.475002,518.144159,383.047749,9474.636058
5757.475325,222.061783,536.266849,8586.388927
5757.475648,148.041188,766.095498,8438.347739
5757.475971,370.102971,1378.971896,9030.512492
5757.476295,1628.453072,2221.676944,9030.512492
5757.476618,2516.700203,2451.505594,8364.327145
5757.476941,2294.638420,2757.943793,8290.306550
5757.477264,814.226536,2298.286494,8512.368333
5757.477588,1036.288319,2145.067394,9252.574275
5757.477911,1480.411884,2298.286494,9030.512492
5757.478234,2146.597232,2681.334243,8290.306550
5757.478558,-74.020594,2068.457845,8956.491898
5757.478881,-814.226536,995.924147,9252.574275
5757.479204,222.061783,1072.533697,10214.842000
5757.479527,666.185348,1991.848295,9104.533087
5757.479851,-296.082377,2911.162892,9844.739029
5757.480174,-1110.308913,1072.533697,10955.047942
5757.480497,-370.102971,612.876398,10807.006753
5757.480821,1036.288319,1915.238745,9474.636058
5757.481144,740.205942,2757.943793,8290.306550
5757.481467,-814.226536,1915.238745,10732.986159
5757.481790,-222.061783,1685.410096,9844.739029
5757.482114,-296.082377,2451.505594,8660.409521
5757.482437,666.185348,2145.067394,7031.956449
5757.482760,-592.164754,2068.457845,8142.265362
5757.483084,-1110.308913,459.657299,9178.553681
5757.483407,-814.226536,612.876398,9326.594869
5757.483730,-740.205942,995.924147,8290.306550
5757.484053,-1184.329507,919.314598,9474.636058
5757.484377,-1776.494261,536.266849,8956.491898
5757.484700,-814.226536,-689.485948,9696.697840
5757.485023,666.185348,536.266849,7254.018232
5757.485346,-518.144159,689.485948,8290.306550
5757.485669,0.000000,306.438199,8882.471304
5757.485993,-222.061783,0.000000,9844.739029
5757.486316,-814.226536,-383.047749,8956.491898
5757.486639,-814.226536,-459.657299,7698.141797
5757.486962,-2368.659014,-1608.800546,9104.533087
5757.487285,-888.247130,-1302.362347,8512.368333
5757.487609,-518.144159,-1072.533697,9622.677246
5757.487932,-1184.329507,-1225.752797,9030.512492
5757.488255,-1924.535449,-995.924147,10214.842000
5757.488578,-1406.391290,-1608.800546,10807.006753
5757.488901,370.102971,-1532.190996,9770.718434
5757.489225,-962.267725,-995.924147,10436.903782
5757.489548,-1702.473667,-1149.143247,11103.089130
5757.489871,-1406.391290,-1685.410096,12139.377449
5757.490194,-370.102971,-1762.019645,10881.027347
5757.490517,1184.329507,-689.485948,10362.883188
5757.490841,-222.061783,-1149.143247,10436.903782
5757.491164,-1258.350101,-995.924147,11399.171507
5757.491487,0.000000,-766.095498,10955.047942
5757.491810,888.247130,-536.266849,9696.697840
5757.492133,666.185348,0.000000,8808.450710
5757.492456,-592.164754,0.000000,9696.697840
5757.492780,-814.226536,-229.828649,10140.821405
5757.493103,740.205942,0.000000,8956.491898
5757.493426,1110.308913,919.314598,7846.182985
5757.493749,1332.370696,229.828649,7254.018232
5757.494072,0.000000,-229.828649,9548.656652
5757.494396,0.000000,766.095498,8956.491898
5757.494719,814.226536,1225.752797,8364.327145
5757.495042,666.185348,995.924147,6957.935855
5757.495365,148.041188,612.876398,9252.574275
5757.495688,0.000000,995.924147,9548.656652
5757.496012,74.020594,1608.800546,8142.265362
5757.496335,1850.514855,2451.505594,8068.244768
5757.496658,2368.659014,2681.334243,7846.182985
5757.496981,2960.823768,1762.019645,9474.636058
5757.497304,2368.659014,2451.505594,8290.306550
5757.497628,1184.329507,2451.505594,8438.347739
5757.497951,1554.432478,1762.019645,8512.368333
5757.498274,814.226536,1608.800546,9400.615463
5757.498597,-814.226536,919.314598,10140.821405
5757.498920,-1332.370696,1455.581446,9178.553681
5757.499244,-2146.597232,536.266849,9770.718434
5757.499567,-1406.391290,842.705048,9178.553681
5757.499890,-1480.411884,1302.362347,10288.862594
5757.500213,-3108.864956,1378.971896,10066.800811
5757.500536,-2960.823768,995.924147,9548.656652
5757.500860,-2220.617826,995.924147,10140.821405
5757.501183,148.041188,2221.676944,9178.553681
5757.501506,0.000000,2604.724693,9178.553681
5757.501829,-1258.350101,1838.629195,9696.697840
5757.502152,-592.164754,1532.190996,9918.759623
5757.502476,518.144159,1532.190996,9770.718434
5757.502799,1258.350101,2374.896044,8882.471304
5757.503122,740.205942,1762.019645,9400.615463
5757.503445,0.000000,306.438199,10214.842000
5757.503768,0.000000,229.828649,9474.636058
5757.504092,740.205942,995.924147,8808.450710
5757.504415,222.061783,1455.581446,7994.224174
5757.504738,-1184.329507,766.095498,9400.615463
5757.505061,-1036.288319,76.609550,8438.347739
5757.505384,962.267725,536.266849,7846.182985
5757.505707,740.205942,1762.019645,7550.100608
5757.506031,-592.164754,153.219100,8660.409521
5757.506354,-2664.741391,-919.314598,10140.821405
5757.506677,-2146.597232,-919.314598,8660.409521
5757.507000,-518.144159,-306.438199,8142.265362
5757.507323,0.000000,536.266849,7402.059420
5757.507647,-1110.308913,-1302.362347,8956.491898
5757.507970,0.000000,-306.438199,9252.574275
5757.508293,148.041188,0.000000,9030.512492
5757.508616,0.000000,0.000000,8586.388927
5757.508939,74.020594,-229.828649,10066.800811
5757.509263,-296.082377,-1225.752797,11399.171507
5757.509586,592.164754,-1149.143247,11621.233289
5757.509909,74.020594,-1149.143247,9696.697840
5757.510232,-222.061783,-1378.971896,11695.253884
5757.510555,222.061783,-1302.362347,12065.356855
5757.510879,-1628.453072,-1532.190996,12065.356855
5757.511202,-222.061783,-995.924147,10066.800811
5757.511525,0.000000,-842.705048,9918.759623
5757.511848,148.041188,-612.876398,9992.780217
5757.512171,962.267725,0.000000,9844.739029
5757.512495,-1036.288319,-306.438199,9992.780217
5757.512818,-222.061783,0.000000,8586.388927
5757.513141,-518.144159,0.000000,9918.759623
5757.513464,-518.144159,229.828649,8882.471304
5757.513787,1110.308913,689.485948,8290.306550
5757.514111,-814.226536,0.000000,8438.347739
5757.514434,-370.102971,229.828649,8660.409521
5757.514757,-1184.329507,0.000000,8882.471304
5757.515080,-296.082377,0.000000,6883.915261
5757.515403,222.061783,919.314598,7772.162391
5757.515727,-1258.350101,306.438199,7772.162391
5757.516050,0.000000,306.438199,8882.471304
5757.516373,1628.453072,1455.581446,9104.533087
5757.516696,1554.432478,2681.334243,7994.224174
5757.517019,740.205942,2374.896044,9918.759623
5757.517342,0.000000,2145.067394,9622.677246
5757.517666,1184.329507,2681.334243,9992.780217
5757.517989,1702.473667,3140.991542,8364.327145
5757.518312,592.164754,2681.334243,9474.636058
5757.518635,-444.123565,1685.410096,10362.883188
5757.518958,-518.144159,1225.752797,9326.594869
5757.519282,-222.061783,1608.800546,8956.491898
5757.519605,-518.144159,1608.800546,8808.450710
5757.519928,-2516.700203,1225.752797,9474.636058
5757.520251,-2220.617826,766.095498,10584.944971
5757.520574,-1110.308913,1455.581446,9474.636058
5757.520898,-740.205942,2298.286494,8956.491898
5757.521221,-814.226536,2068.457845,9252.574275
5757.521544,592.164754,1685.410096,9622.677246
5757.521867,1258.350101,2451.505594,9030.512492
5757.522190,296.082377,3064.381992,7254.018232
5757.522514,518.144159,1991.848295,8734.430116
5757.522837,740.205942,1838.629195,8882.471304
5757.523160,592.164754,1608.800546,8660.409521
5757.523483,518.144159,1149.143247,8290.306550
5757.523806,-888.247130,766.095498,8068.244768
5757.524130,-666.185348,919.314598,9474.636058
5757.524453,0.000000,229.828649,9252.574275
5757.524776,-592.164754,76.609550,8586.388927
5757.525099,-1480.411884,-76.609550,7476.080014
5757.525422,-740.205942,-229.828649,8808.450710
5757.525746,148.041188,459.657299,9548.656652
5757.526069,1628.453072,919.314598,8068.244768
5757.526392,-592.164754,0.000000,8586.388927
5757.526715,-518.144159,-383.047749,8290.306550
5757.527038,222.061783,-383.047749,10584.944971
5757.527362,222.061783,-612.876398,9474.636058
5757.527685,814.226536,-383.047749,9918.759623
5757.528008,-814.226536,-1532.190996,10362.883188
5757.528331,-1036.288319,-2145.067394,10732.986159
5757.528654,-370.102971,-2221.676944,11473.192101
5757.528977,0.000000,-995.924147,9844.739029
5757.529301,-518.144159,-1072.533697,10436.903782
5757.529624,-888.247130,-1915.238745,11991.336260
5757.529947,-222.061783,-1991.848295,11621.233289
5757.530270,-444.123565,-1378.971896,10881.027347
5757.530593,-740.205942,-612.876398,9622.677246
5757.530917,-370.102971,-919.314598,10955.047942
5757.531240,-814.226536,-1149.143247,10584.944971
5757.531563,0.000000,-1072.533697,8734.430116
5757.531886,444.123565,-842.705048,8364.327145
5757.532209,-888.247130,-383.047749,8586.388927
5757.532533,-740.205942,-612.876398,9844.739029
5757.532856,-444.123565,-689.485948,8512.368333
5757.533179,-1258.350101,0.000000,8364.327145
5757.533502,962.267725,689.485948,8290.306550
5757.533825,1258.350101,842.705048,8660.409521
5757.534149,2368.659014,1378.971896,9030.512492
5757.534472,1628.453072,1072.533697,8068.244768
5757.534795,444.123565,612.876398,8512.368333
5757.535118,592.164754,1455.581446,9474.636058
5757.535441,814.226536,1838.629195,9622.677246
5757.535765,74.020594,1915.238745,9178.553681
5757.536088,-296.082377,1532.190996,8290.306550
5757.536411,-1998.556043,612.876398,9474.636058
5757.536734,0.000000,1685.410096,8142.265362
5757.537057,814.226536,2451.505594,8512.368333
5757.537381,-740.205942,2221.676944,8290.306550
5757.537704,-1332.370696,1762.019645,8956.491898
5757.538027,-1110.308913,1838.629195,9474.636058
5757.538350,1332.370696,2987.772442,8438.347739
5757.538673,740.205942,3677.258390,8882.471304
5757.538997,-518.144159,2145.067394,10066.800811
5757.539320,74.020594,2068.457845,10658.965565
5757.539643,592.164754,2451.505594,9474.636058
5757.539966,2072.576638,2987.772442,8660.409521
5757.540289,-296.082377,2145.067394,10510.924376
5757.540613,-888.247130,2221.676944,10214.842000
5757.540936,-592.164754,1915.238745,10140.821405
5757.541259,592.164754,2451.505594,7994.224174
5757.541582,888.247130,2451.505594,8882.471304
5757.541905,-1554.432478,1378.971896,9326.594869
5757.542228,-1110.308913,919.314598,10584.944971
5757.542552,592.164754,842.705048,7994.224174
5757.542875,-592.164754,1455.581446,7772.162391
5757.543198,-518.144159,1072.533697,8512.368333
5757.543521,-962.267725,-153.219100,9400.615463
5757.543844,-1702.473667,-153.219100,8068.244768
5757.544168,-1036.288319,0.000000,7476.080014
5757.544491,-1998.556043,-612.876398,7624.121203
5757.544814,-2220.617826,-1302.362347,9622.677246
5757.545137,-2442.679609,-612.876398,10066.800811
5757.545460,-1406.391290,0.000000,8068.244768
5757.545784,-222.061783,0.000000,8882.471304
5757.546107,666.185348,0.000000,9992.780217
5757.546430,1776.494261,-383.047749,10214.842000
5757.546753,1998.556043,-229.828649,9474.636058
5757.547076,814.226536,0.000000,10510.924376
5757.547400,888.247130,-766.095498,10214.842000
5757.547723,1628.453072,-1378.971896,11547.212695
5757.548046,222.061783,-919.314598,9696.697840
5757.548369,-370.102971,-1302.362347,9918.759623
5757.548692,-1850.514855,-1762.019645,11621.233289
5757.549016,-370.102971,-1149.143247,11843.295072
5757.549339,592.164754,-995.924147,10066.800811
5757.549662,-962.267725,-1378.971896,9252.574275
5757.549985,-2368.659014,-842.705048,10881.027347
5757.550308,-2146.597232,-1378.971896,10066.800811
5757.550632,296.082377,0.000000,9474.636058
5757.550955,296.082377,229.828649,8216.285956
5757.551278,-1628.453072,-766.095498,9918.759623
5757.551601,-2368.659014,-1608.800546,10214.842000
5757.551924,-1924.535449,-1149.143247,9548.656652
5757.552248,592.164754,76.609550,8142.265362
5757.552571,222.061783,0.000000,9178.553681
5757.552894,0.000000,0.000000,9622.677246
5757.553217,1184.329507,1072.533697,9474.636058
5757.553540,1776.494261,1838.629195,8142.265362
5757.553863,2812.782580,2221.676944,7550.100608
5757.554187,1702.473667,2068.457845,7624.121203
5757.554510,1480.411884,1455.581446,10436.903782
5757.554833,1036.288319,2451.505594,7994.224174
5757.555156,1258.350101,2757.943793,7624.121203
5757.555479,1258.350101,2451.505594,7179.997637
5757.555803,148.041188,1302.362347,8882.471304
5757.556126,-740.205942,1149.143247,8660.409521
5757.556449,0.000000,2221.676944,8068.244768
5757.556772,-518.144159,2145.067394,8364.327145
5757.557095,-370.102971,1762.019645,9326.594869
5757.557419,-1110.308913,1225.752797,10066.800811
5757.557742,-1702.473667,2145.067394,9252.574275
5757.558065,-740.205942,2451.505594,10214.842000
5757.558388,-370.102971,2068.457845,10214.842000
5757.558711,222.061783,2145.067394,10584.944971
5757.559035,-370.102971,1762.019645,9844.739029
5757.559358,-1702.473667,2221.676944,9474.636058
5757.559681,-1850.514855,1225.752797,10510.924376
5757.560004,-666.185348,1378.971896,9696.697840
5757.560327,518.144159,1225.752797,8660.409521
5757.560651,-814.226536,1149.143247,9030.512492
5757.560974,-2516.700203,536.266849,8364.327145
5757.561297,-1628.453072,76.609550,9770.718434
5757.561620,-518.144159,1915.238745,8808.450710
5757.561943,-296.082377,1455.581446,8364.327145
5757.562267,-888.247130,306.438199,8364.327145
5757.562590,-518.144159,1149.143247,9178.553681
5757.562913,592.164754,1302.362347,9030.512492
5757.563236,1480.411884,1302.362347,6809.894666
5757.563559,296.082377,995.924147,7920.203579
5757.563883,222.061783,0.000000,8512.368333
5757.564206,222.061783,76.609550,8734.430116
5757.564529,1998.556043,919.314598,9030.512492
5757.564852,1924.535449,766.095498,8586.388927
5757.565175,0.000000,-689.485948,9844.739029
5757.565499,74.020594,-689.485948,10214.842000
5757.565822,-370.102971,-1072.533697,9696.697840
5757.566145,-740.205942,-689.485948,9104.533087
5757.566468,-814.226536,-1685.410096,9104.533087
5757.566791,-1480.411884,-1532.190996,11621.233289
5757.567114,-1406.391290,-1532.190996,10066.800811
5757.567438,-2146.597232,-1225.752797,10066.800811
5757.567761,-814.226536,-1072.533697,9474.636058
5757.568084,-1480.411884,-1302.362347,11399.171507
5757.568407,-1776.494261,-995.924147,11177.109724
5757.568730,-1406.391290,-689.485948,9770.718434
5757.569054,-1480.411884,-1608.800546,9844.739029
5757.569377,-740.205942,-919.314598,10140.821405
5757.569700,-148.041188,-1149.143247,10881.027347
5757.570023,0.000000,-612.876398,9844.739029
5757.570346,296.082377,306.438199,10288.862594
5757.570670,296.082377,76.609550,9992.780217
5757.570993,2146.597232,1225.752797,9400.615463
5757.571316,2516.700203,1225.752797,9178.553681
5757.571639,1480.411884,1455.581446,9030.512492
5757.571962,888.247130,689.485948,9696.697840
5757.572286,1332.370696,612.876398,9548.656652
5757.572609,2294.638420,1302.362347,8216.285956
5757.572932,1258.350101,1302.362347,8290.306550
5757.573255,-962.267725,1302.362347,8290.306550
5757.573578,-1406.391290,0.000000,8882.471304
5757.573902,74.020594,1225.752797,7846.182985
5757.574225,296.082377,1378.971896,7031.956449
5757.574548,-1036.288319,1225.752797,8142.265362
5757.574871,-1702.473667,1302.362347,9178.553681
5757.575194,-888.247130,1532.190996,9474.636058
5757.575518,1110.308913,1685.410096,7105.977043
5757.575841,0.000000,1608.800546,8290.306550
5757.576164,-148.041188,1225.752797,9992.780217
5757.576487,-592.164754,1455.581446,10658.965565
5757.576810,518.144159,2145.067394,9992.780217
5757.577134,1406.391290,2451.505594,9104.533087
5757.577457,-370.102971,1532.190996,9474.636058
5757.577780,0.000000,1455.581446,9474.636058
5757.578103,0.000000,1685.410096,9326.594869
5757.578426,666.185348,2451.505594,8586.388927
5757.578749,592.164754,2145.067394,8956.491898
5757.579073,-370.102971,1685.410096,10362.883188
5757.579396,296.082377,1608.800546,10362.883188
5757.579719,-296.082377,1685.410096,8734.430116
5757.580042,-1036.288319,919.314598,9252.574275
5757.580365,0.000000,689.485948,9326.594869
5757.580689,-1258.350101,612.876398,10066.800811
5757.581012,-888.247130,1225.752797,10066.800811
5757.581335,-1554.432478,459.657299,8660.409521
5757.581658,-1258.350101,76.609550,8956.491898
5757.581981,0.000000,306.438199,8882.471304
5757.582305,-1184.329507,153.219100,9400.615463
5757.582628,-296.082377,306.438199,8808.450710
5757.582951,-962.267725,76.609550,9474.636058
5757.583274,666.185348,153.219100,8216.285956
5757.583597,666.185348,0.000000,8438.347739
5757.583921,-148.041188,153.219100,8290.306550
5757.584244,814.226536,0.000000,9474.636058
5757.584567,518.144159,383.047749,10140.821405
5757.584890,1110.308913,383.047749,9474.636058
5757.585213,370.102971,-153.219100,8956.491898
5757.585537,-2516.700203,-689.485948,9770.718434
5757.585860,-2220.617826,-842.705048,10510.924376
5757.586183,-1110.308913,-842.705048,10288.862594
5757.586506,-740.205942,0.000000,8364.327145
5757.586829,-1036.288319,-536.266849,9400.615463
5757.587152,-1924.535449,-1532.190996,9548.656652
5757.587476,-962.267725,-1072.533697,9770.718434
5757.587799,0.000000,0.000000,9178.553681
5757.588122,222.061783,0.000000,9104.533087
5757.588445,-518.144159,-919.314598,10658.965565
5757.588768,-814.226536,-766.095498,11029.068536
5757.589091,74.020594,306.438199,11103.089130
5757.589415,1554.432478,76.609550,9030.512492
5757.589738,0.000000,-153.219100,9548.656652
5757.590061,-518.144159,-229.828649,10510.924376
5757.590384,222.061783,229.828649,9696.697840
5757.590707,-74.020594,919.314598,9326.594869
5757.591031,296.082377,1378.971896,8956.491898
5757.591354,-370.102971,689.485948,9622.677246
5757.591677,0.000000,1302.362347,9622.677246
5757.592000,0.000000,2451.505594,8364.327145
5757.592323,0.000000,689.485948,7772.162391
5757.592646,1480.411884,1302.362347,7772.162391
5757.592970,888.247130,1532.190996,8364.327145
5757.593293,962.267725,1991.848295,7994.224174
5757.593616,370.102971,2451.505594,8216.285956
5757.593939,74.020594,1378.971896,8660.409521
5757.594262,1258.350101,1685.410096,8068.244768
5757.594585,666.185348,1532.190996,9104.533087
5757.594909,-370.102971,1685.410096,8142.265362
5757.595232,-1702.473667,1455.581446,10732.986159
5757.595555,296.082377,1302.362347,9178.553681
5757.595878,444.123565,2145.067394,10066.800811
5757.596201,518.144159,2145.067394,7328.038826
5757.596525,-592.164754,1302.362347,9030.512492
5757.596848,-370.102971,1838.629195,9400.615463
5757.597171,0.000000,2145.067394,9178.553681
5757.597494,-370.102971,1991.848295,8956.491898
5757.597817,-2368.659014,919.314598,9548.656652
5757.598140,-2664.741391,536.266849,9696.697840
5757.598464,-888.247130,842.705048,9622.677246
5757.598787,370.102971,1149.143247,9474.636058
5757.599110,0.000000,919.314598,9548.656652
5757.599433,-666.185348,0.000000,10955.047942
5757.599756,0.000000,0.000000,9622.677246
5757.600079,1184.329507,919.314598,9326.594869
5757.600403,1628.453072,1225.752797,8364.327145
5757.600726,1332.370696,612.876398,9918.759623
5757.601049,1628.453072,0.000000,9104.533087
5757.601372,1850.514855,0.000000,9400.615463
5757.601695,2220.617826,995.924147,8364.327145
5757.602019,370.102971,383.047749,9030.512492
5757.602342,-1480.411884,-1149.143247,9622.677246
5757.602665,-1184.329507,-1149.143247,8882.471304
5757.602988,-1924.535449,-766.095498,8290.306550
5757.603311,-1332.370696,-536.266849,7846.182985
5757.603634,-1702.473667,-1149.143247,9252.574275
5757.603958,-1850.514855,-1225.752797,9400.615463
5757.604281,-1480.411884,-1072.533697,8734.430116
5757.604604,-1628.453072,-842.705048,8364.327145
5757.604927,-1480.411884,-689.485948,10288.862594
5757.605250,-1110.308913,-689.485948,9770.718434
5757.605573,-592.164754,-1225.752797,10510.924376
5757.605897,370.102971,-689.485948,8512.368333
5757.606220,-1480.411884,-1378.971896,10658.965565
5757.606543,0.000000,-1225.752797,9622.677246
5757.606866,222.061783,-1072.533697,10436.903782
5757.607189,-296.082377,-536.266849,9474.636058
5757.607513,-1332.370696,76.609550,11029.068536
5757.607836,0.000000,-306.438199,11177.109724
5757.608159,1480.411884,0.000000,9770.718434
5757.608482,1332.370696,306.438199,8586.388927
5757.608805,-1110.308913,-306.438199,10658.965565
5757.609128,-444.123565,0.000000,10881.027347
5757.609452,-444.123565,229.828649,12213.398043
5757.609775,0.000000,766.095498,8882.471304
5757.610098,-814.226536,76.609550,9696.697840
5757.610421,-1850.514855,0.000000,8438.347739
5757.610744,-296.082377,689.485948,9400.615463
5757.611067,518.144159,1302.362347,8734.430116
5757.611391,1036.288319,1762.019645,7031.956449
5757.611714,296.082377,1685.410096,8882.471304
5757.612037,814.226536,2068.457845,8438.347739
5757.612360,1184.329507,2374.896044,9474.636058
5757.612683,2146.597232,2987.772442,6661.853478
5757.613007,2590.720797,2451.505594,9030.512492
5757.613330,222.061783,2451.505594,10066.800811
5757.613653,0.000000,2528.115143,9474.636058
5757.613976,444.123565,2374.896044,8808.450710
5757.614299,296.082377,2145.067394,6883.915261
5757.614622,-518.144159,2068.457845,9252.574275
5757.614946,-592.164754,1532.190996,9326.594869
5757.615269,-1480.411884,2757.943793,9622.677246
5757.615592,-1258.350101,2604.724693,9104.533087
5757.615915,-518.144159,2374.896044,8290.306550
5757.616238,-2368.659014,1838.629195,10584.944971
5757.616561,-1258.350101,2528.115143,8068.244768
5757.616885,-1406.391290,2221.676944,9326.594869
5757.617208,-296.082377,1838.629195,9252.574275
5757.617531,370.102971,2068.457845,9252.574275
5757.617854,0.000000,1149.143247,7476.080014
5757.618177,444.123565,1762.019645,8290.306550
5757.618501,-1184.329507,1455.581446,9326.594869
5757.618824,592.164754,1072.533697,9548.656652
5757.619147,1776.494261,536.266849,9104.533087
5757.619470,222.061783,1378.971896,8808.450710
5757.619793,-592.164754,383.047749,10362.883188
5757.620116,-1184.329507,0.000000,10436.903782
5757.620440,666.185348,1149.143247,10288.862594
5757.620763,1184.329507,842.705048,7698.141797
5757.621086,-592.164754,-229.828649,8364.327145
5757.621409,-296.082377,0.000000,8216.285956
5757.621732,-1110.308913,-229.828649,9326.594869
5757.622055,-222.061783,383.047749,7846.182985
5757.622379,-518.144159,-919.314598,7624.121203
5757.622702,-2960.823768,-1991.848295,9104.533087
5757.623025,-2146.597232,-1685.410096,9770.718434
5757.623348,0.000000,-1149.143247,10066.800811
5757.623671,0.000000,-383.047749,8956.491898
5757.623995,-148.041188,-1149.143247,10807.006753
5757.624318,-222.061783,-1225.752797,10658.965565
5757.624641,1036.288319,-766.095498,10658.965565
5757.624964,1110.308913,-536.266849,9400.615463
5757.625287,1406.391290,-995.924147,9992.780217
5757.625610,74.020594,-2374.896044,11843.295072
5757.625934,-1184.329507,-2068.457845,11029.068536
5757.626257,0.000000,-995.924147,10732.986159
5757.626580,-296.082377,-919.314598,9622.677246
5757.626903,0.000000,-612.876398,10658.965565
5757.627226,0.000000,-919.314598,10881.027347
5757.627549,-1184.329507,-766.095498,9992.780217
5757.627873,-518.144159,0.000000,9326.594869
5757.628196,-370.102971,-153.219100,8956.491898
5757.628519,592.164754,-842.705048,9178.553681
5757.628842,-814.226536,0.000000,9252.574275
5757.629165,-888.247130,612.876398,8290.306550
5757.629489,-296.082377,-153.219100,9696.697840
5757.629812,666.185348,0.000000,8364.327145
5757.630135,740.205942,229.828649,8586.388927
5757.630458,962.267725,919.314598,7920.203579
5757.630781,-518.144159,536.266849,9252.574275
5757.631104,-1702.473667,76.609550,10288.862594
5757.631428,0.000000,995.924147,8512.368333
5757.631751,-592.164754,1532.190996,8438.347739
5757.632074,-296.082377,1762.019645,7920.203579
5757.632397,0.000000,2068.457845,9178.553681
5757.632720,1258.350101,2757.943793,8808.450710
5757.633043,2368.659014,3524.039291,6587.832884
5757.633367,518.144159,2757.943793,7698.141797
5757.633690,-1184.329507,1915.238745,8808.450710
5757.634013,-888.247130,1838.629195,9696.697840
5757.634336,0.000000,2145.067394,8586.388927
5757.634659,592.164754,2221.676944,8882.471304
5757.634983,-1998.556043,1532.190996,10436.903782
5757.635306,-1406.391290,1225.752797,10584.944971
5757.635629,-592.164754,1685.410096,10881.027347
5757.635952,814.226536,2987.772442,8290.306550
5757.636275,888.247130,1532.190996,10140.821405
5757.636598,222.061783,2298.286494,10584.944971
5757.636922,1776.494261,2757.943793,10436.903782
5757.637245,1776.494261,2451.505594,8660.409521
5757.637568,370.102971,2451.505594,8216.285956
5757.637891,222.061783,1302.362347,10214.842000
5757.638214,-1258.350101,1455.581446,10436.903782
5757.638537,-1110.308913,1149.143247,9178.553681
5757.638861,-1036.288319,536.266849,8216.285956
5757.639184,-1480.411884,229.828649,8290.306550
5757.639507,-1924.535449,0.000000,9992.780217
5757.639830,-1924.535449,229.828649,8438.347739
5757.640153,-814.226536,76.609550,8586.388927
5757.640477,74.020594,229.828649,7550.100608
5757.640800,592.164754,766.095498,8956.491898
5757.641123,370.102971,766.095498,8734.430116
5757.641446,444.123565,842.705048,7772.162391
5757.641769,666.185348,459.657299,8660.409521
5757.642092,2072.576638,76.609550,7994.224174
5757.642416,2072.576638,229.828649,9030.512492
5757.642739,1480.411884,612.876398,8734.430116
5757.643062,222.061783,-919.314598,9474.636058
5757.643385,-370.102971,-1762.019645,10288.862594
5757.643708,592.164754,-1225.752797,9770.718434
5757.644032,-370.102971,-1225.752797,10362.883188
5757.644355,-1628.453072,-1762.019645,10955.047942
5757.644678,-2146.597232,-1762.019645,11473.192101
5757.645001,-666.185348,-1608.800546,11251.130318
5757.645324,148.041188,-842.705048,9548.656652
5757.645647,-1924.535449,-689.485948,10288.862594
5757.645971,-1480.411884,-1685.410096,10732.986159
5757.646294,-1110.308913,-2068.457845,10584.944971
5757.646617,-296.082377,-919.314598,9474.636058
5757.646940,370.102971,0.000000,9326.594869
5757.647263,-2738.761985,-1455.581446,10436.903782
5757.647586,-2590.720797,-1685.410096,10955.047942
5757.647910,-222.061783,-1685.410096,8808.450710
5757.648233,74.020594,-306.438199,9474.636058
5757.648556,888.247130,612.876398,8808.450710
5757.648879,-592.164754,-306.438199,12065.356855
5757.649202,1480.411884,995.924147,9104.533087
5757.649526,2664.741391,1762.019645,9622.677246
5757.649849,1036.288319,2528.115143,7328.038826
5757.650172,1258.350101,1378.971896,10214.842000
5757.650495,740.205942,1149.143247,9252.574275
5757.650818,1332.370696,1991.848295,7550.100608
5757.651141,592.164754,2298.286494,7328.038826
5757.651465,-1036.288319,2451.505594,7846.182985
5757.651788,-1406.391290,1378.971896,8808.450710
5757.652111,-1036.288319,995.924147,7772.162391
5757.652434,-1258.350101,1838.629195,6883.915261
5757.652757,-1480.411884,1762.019645,8290.306550
5757.653080,-1406.391290,1915.238745,9400.615463
5757.653404,-1184.329507,1532.190996,9474.636058
5757.653727,-1776.494261,1302.362347,9474.636058
5757.654050,-1406.391290,2374.896044,8808.450710
5757.654373,-666.185348,1532.190996,11177.109724
5757.654696,518.144159,2604.724693,9548.656652
5757.655020,592.164754,1991.848295,10288.862594
5757.655343,666.185348,2451.505594,8142.265362
5757.655666,0.000000,2451.505594,10436.903782
5757.655989,1036.288319,3217.601092,9548.656652
5757.656312,1184.329507,2757.943793,9030.512492
5757.656635,1258.350101,1532.190996,8290.306550
5757.656959,1406.391290,1991.848295,9104.533087
5757.657282,888.247130,1225.752797,9104.533087
5757.657605,1554.432478,1838.629195,9474.636058
5757.657928,666.185348,1302.362347,8142.265362
5757.658251,74.020594,229.828649,9030.512492
5757.658574,0.000000,1455.581446,10066.800811
5757.658898,-296.082377,229.828649,10288.862594
5757.659221,1776.494261,306.438199,7920.203579
5757.659544,-296.082377,-459.657299,8808.450710
5757.659867,-1628.453072,-1225.752797,9474.636058
5757.660190,-1332.370696,-689.485948,9326.594869
5757.660514,-1036.288319,0.000000,9178.553681
5757.660837,222.061783,-153.219100,8290.306550
5757.661160,-296.082377,-1608.800546,9844.739029
5757.661483,-592.164754,-1685.410096,9030.512492
5757.661806,592.164754,-229.828649,8364.327145
5757.662129,-444.123565,-842.705048,9252.574275
5757.662453,-296.082377,-1149.143247,10066.800811
5757.662776,-1036.288319,-2068.457845,11621.233289
5757.663099,-1110.308913,-1608.800546,9622.677246
5757.663422,-666.185348,-1608.800546,9622.677246
5757.663745,-1554.432478,-1762.019645,9104.533087
5757.664068,-370.102971,-1378.971896,10807.006753
5757.664392,-444.123565,-1149.143247,10881.027347
5757.664715,-740.205942,-919.314598,9696.697840
5757.665038,-1036.288319,-842.705048,10436.903782
5757.665361,-296.082377,-612.876398,10732.986159
5757.665684,-370.102971,-995.924147,10140.821405
5757.666008,0.000000,-229.828649,9474.636058
5757.666331,-1628.453072,-766.095498,9104.533087
5757.666654,-1110.308913,-766.095498,9992.780217
5757.666977,-666.185348,0.000000,9992.780217
5757.667300,-814.226536,536.266849,9030.512492
5757.667623,-1998.556043,76.609550,9400.615463
5757.667947,-3108.864956,-383.047749,9178.553681
5757.668270,-1998.556043,536.266849,9252.574275
5757.668593,-148.041188,766.095498,7994.224174
5757.668916,-888.247130,1378.971896,8364.327145
5757.669239,-1332.370696,1149.143247,8734.430116
5757.669562,-592.164754,1225.752797,9474.636058
5757.669886,1554.432478,2374.896044,8068.244768
5757.670209,2220.617826,3524.039291,6957.935855
5757.670532,1628.453072,2374.896044,8216.285956
5757.670855,1924.535449,2528.115143,9030.512492
5757.671178,1628.453072,3064.381992,9104.533087
5757.671502,2886.803174,3677.258390,7772.162391
5757.671825,1628.453072,3217.601092,8512.368333
5757.672148,74.020594,1991.848295,9770.718434
5757.672471,296.082377,2374.896044,10140.821405
5757.672794,0.000000,1762.019645,9548.656652
5757.673117,1258.350101,2681.334243,8882.471304
5757.673441,74.020594,2528.115143,10955.047942
5757.673764,74.020594,1915.238745,9844.739029
5757.674087,1776.494261,2298.286494,7698.141797
5757.674410,888.247130,2757.943793,8142.265362
5757.674733,1258.350101,3370.820191,8586.388927
5757.675056,0.000000,1915.238745,9918.759623
5757.675380,-814.226536,1685.410096,8290.306550
5757.675703,0.000000,1225.752797,7328.038826
5757.676026,-1480.411884,459.657299,8216.285956
5757.676349,-1258.350101,689.485948,9474.636058
5757.676672,-592.164754,153.219100,10214.842000
5757.676996,-1332.370696,0.000000,9030.512492
5757.677319,-962.267725,76.609550,8734.430116
5757.677642,-592.164754,-612.876398,9622.677246
5757.677965,1184.329507,0.000000,9622.677246
5757.678288,666.185348,536.266849,10658.965565
5757.678611,-740.205942,383.047749,9548.656652
5757.678935,0.000000,-229.828649,10510.924376
5757.679258,1184.329507,-383.047749,9030.512492
5757.679581,1924.535449,-459.657299,7698.141797
5757.679904,518.144159,-459.657299,7402.059420
5757.680227,-888.247130,-536.266849,9326.594869
5757.680550,-370.102971,-842.705048,10584.944971
5757.680874,222.061783,-612.876398,9104.533087
5757.681197,-888.247130,-995.924147,9030.512492
5757.681520,-1406.391290,-919.314598,9622.677246
5757.681843,-2442.679609,-995.924147,11103.089130
5757.682166,-296.082377,-229.828649,10436.903782
5757.682490,444.123565,-153.219100,9400.615463
5757.682813,-1924.535449,-1685.410096,10140.821405
5757.683136,-2590.720797,-1915.238745,10436.903782
5757.683459,-2886.803174,-1838.629195,10362.883188
5757.683782,-1554.432478,-689.485948,9770.718434
5757.684105,-1258.350101,-919.314598,9474.636058
5757.684429,-2738.761985,-2374.896044,9696.697840
5757.684752,-2590.720797,-1762.019645,10955.047942
5757.685075,-2960.823768,0.000000,9400.615463
5757.685398,-1776.494261,0.000000,9400.615463
5757.685721,-888.247130,-612.876398,8956.491898
5757.686044,0.000000,-459.657299,10066.800811
5757.686368,1184.329507,919.314598,8882.471304
5757.686691,444.123565,1991.848295,9104.533087
5757.687014,1628.453072,1302.362347,9548.656652
5757.687337,1776.494261,1455.581446,9622.677246
5757.687660,444.123565,842.705048,9992.780217
5757.687984,814.226536,1608.800546,8882.471304
5757.688307,518.144159,1302.362347,9178.553681
5757.688630,2072.576638,1838.629195,9696.697840
5757.688953,2738.761985,2145.067394,9030.512492
5757.689276,1850.514855,2374.896044,9030.512492
5757.689600,1036.288319,2681.334243,8364.327145
5757.689923,518.144159,2528.115143,9252.574275
5757.690246,2294.638420,2451.505594,8438.347739
5757.690569,2368.659014,2604.724693,7772.162391
5757.690893,444.123565,2528.115143,8438.347739
5757.691216,74.020594,2221.676944,9474.636058
5757.691539,-222.061783,2068.457845,9030.512492
5757.691862,518.144159,2374.896044,7476.080014
5757.692185,-296.082377,1685.410096,8660.409521
5757.692509,-2590.720797,1685.410096,9326.594869
5757.692832,-1850.514855,1149.143247,10066.800811
5757.693155,-666.185348,1685.410096,8734.430116
5757.693478,0.000000,2528.115143,7772.162391
5757.693802,-1480.411884,2298.286494,8956.491898
5757.694125,-2442.679609,1149.143247,10214.842000
5757.694448,-666.185348,1685.410096,10214.842000
5757.694771,962.267725,2221.676944,7920.203579
5757.695094,814.226536,2221.676944,8216.285956
5757.695418,518.144159,1225.752797,9474.636058
5757.695741,0.000000,1072.533697,9696.697840
5757.696064,1258.350101,1991.848295,8882.471304
5757.696387,2294.638420,2298.286494,8586.388927
5757.696711,-148.041188,766.095498,9992.780217
5757.697034,-518.144159,0.000000,11251.130318
5757.697357,0.000000,-153.219100,9474.636058
5757.697680,444.123565,76.609550,8216.285956
5757.698003,-370.102971,306.438199,9178.553681
5757.698327,-222.061783,-153.219100,9474.636058
5757.698650,0.000000,-612.876398,9474.636058
5757.698973,-444.123565,-76.609550,6957.935855
5757.699296,-444.123565,-1302.362347,8364.327145
5757.699620,0.000000,-1608.800546,8734.430116
5757.699943,-1554.432478,-2145.067394,10436.903782
5757.700266,-1480.411884,-1762.019645,9696.697840
5757.700589,-2442.679609,-2374.896044,9696.697840
5757.700912,-2368.659014,-2451.505594,9696.697840
5757.701236,-740.205942,-1685.410096,10436.903782
5757.701559,-888.247130,-1762.019645,9918.759623
5757.701882,-1036.288319,-1915.238745,10214.842000
5757.702205,-740.205942,-2068.457845,11029.068536
5757.702529,1110.308913,-1072.533697,10658.965565
5757.702852,1258.350101,-919.314598,9770.718434
5757.703175,296.082377,-536.266849,9918.759623
5757.703498,0.000000,-689.485948,10732.986159
5757.703821,518.144159,-612.876398,10658.965565
5757.704145,1332.370696,0.000000,9696.697840
5757.704468,1406.391290,0.000000,9104.533087
5757.704791,-1110.308913,-536.266849,10658.965565
5757.705114,-666.185348,-842.705048,9696.697840
5757.705438,0.000000,-153.219100,10510.924376
5757.705761,74.020594,1685.410096,8142.265362
5757.706084,-888.247130,689.485948,9178.553681
5757.706407,-1776.494261,536.266849,9622.677246
5757.706731,-296.082377,1455.581446,9178.553681
5757.707054,1258.350101,2068.457845,7772.162391
5757.707377,444.123565,2374.896044,7402.059420
5757.707700,-222.061783,766.095498,8734.430116
5757.708023,-148.041188,229.828649,8364.327145
5757.708347,-296.082377,1378.971896,8364.327145
5757.708670,0.000000,2451.505594,7698.141797
5757.708993,-1184.329507,1378.971896,9474.636058
5757.709316,-1628.453072,612.876398,9770.718434
5757.709640,-1110.308913,1685.410096,9400.615463
5757.709963,518.144159,1532.190996,7772.162391
5757.710286,888.247130,3524.039291,9326.594869
5757.710609,1628.453072,2987.772442,9030.512492
5757.710932,3182.885551,3600.648841,9326.594869
5757.711256,2738.761985,4596.572988,7550.100608
5757.711579,1628.453072,3830.477490,8290.306550
5757.711902,2368.659014,3524.039291,8734.430116
5757.712225,1480.411884,2911.162892,9696.697840
5757.712549,592.164754,2604.724693,9622.677246
5757.712872,-814.226536,1225.752797,9252.574275
5757.713195,-2368.659014,766.095498,10510.924376
5757.713518,-888.247130,995.924147,9992.780217
5757.713841,-2146.597232,766.095498,10584.944971
5757.714165,-2220.617826,766.095498,8586.388927
5757.714488,-2294.638420,612.876398,9326.594869
5757.714811,-1480.411884,766.095498,9696.697840
5757.715134,0.000000,995.924147,7624.121203
5757.715458,-1554.432478,76.609550,7328.038826
5757.715781,-2738.761985,0.000000,8216.285956
5757.716104,-1850.514855,76.609550,9178.553681
5757.716427,-1184.329507,306.438199,9252.574275
5757.716750,962.267725,536.266849,7698.141797
5757.717074,0.000000,-1685.410096,9400.615463
5757.717397,-1036.288319,-842.705048,9178.553681
5757.717720,-296.082377,-766.095498,10436.903782
5757.718043,2442.679609,0.000000,8216.285956
5757.718367,2590.720797,0.000000,9696.697840
5757.718690,1036.288319,-306.438199,11325.150913
5757.719013,1924.535449,0.000000,11769.274478
5757.719336,3182.885551,-383.047749,9844.739029
5757.719659,2738.761985,459.657299,8660.409521
5757.719983,2220.617826,-689.485948,10066.800811
5757.720306,666.185348,-1455.581446,10436.903782
5757.720629,0.000000,-383.047749,10732.986159
5757.720952,148.041188,-459.657299,8512.368333
5757.721276,-1924.535449,-1532.190996,8586.388927
5757.721599,-3182.885551,-1991.848295,9104.533087
5757.721922,-2516.700203,-2145.067394,9474.636058
5757.722245,-3478.967927,-1532.190996,9474.636058
5757.722568,-3034.844362,-1149.143247,9622.677246
5757.722892,-2664.741391,-1685.410096,9696.697840
5757.723215,-2590.720797,-1915.238745,10881.027347
5757.723538,-3404.947333,-1302.362347,9030.512492
5757.723861,-3923.091493,-995.924147,9548.656652
5757.724185,-1850.514855,-919.314598,10288.862594
5757.724508,-814.226536,-153.219100,10362.883188
5757.724831,-740.205942,0.000000,9474.636058
5757.725154,-222.061783,229.828649,9474.636058
5757.725477,-444.123565,383.047749,9474.636058
5757.725801,1406.391290,612.876398,9474.636058
5757.726124,2220.617826,1762.019645,8512.368333
5757.726447,1776.494261,1762.019645,9770.718434
5757.726770,2368.659014,1991.848295,9178.553681
5757.727094,2738.761985,2451.505594,10214.842000
5757.727417,4663.297435,2834.553343,8956.491898
5757.727740,3256.906145,3140.991542,8586.388927
5757.728063,1406.391290,2757.943793,9548.656652
5757.728386,1702.473667,3140.991542,10288.862594
5757.728710,1628.453072,2145.067394,9548.656652
5757.729033,1480.411884,2528.115143,7920.203579
5757.729356,-740.205942,2068.457845,7624.121203
5757.729679,-2812.782580,995.924147,8734.430116
5757.730003,-1850.514855,1532.190996,7994.224174
5757.730326,-1776.494261,1762.019645,8290.306550
5757.730649,-1776.494261,1838.629195,6439.791695
5757.730972,-2664.741391,1225.752797,9326.594869
5757.731296,-2516.700203,842.705048,8956.491898
5757.731619,-888.247130,2145.067394,8808.450710
5757.731942,-222.061783,2068.457845,7772.162391
5757.732265,0.000000,1685.410096,9474.636058
5757.732588,-592.164754,1455.581446,10214.842000
5757.732912,-962.267725,1455.581446,9696.697840
5757.733235,370.102971,2374.896044,9252.574275
5757.733558,-370.102971,1532.190996,8142.265362
5757.733881,888.247130,383.047749,8956.491898
5757.734205,444.123565,689.485948,9696.697840
5757.734528,222.061783,1455.581446,8290.306550
5757.734851,222.061783,766.095498,9844.739029
5757.735174,1776.494261,536.266849,8438.347739
5757.735497,1702.473667,76.609550,10066.800811
5757.735821,1850.514855,383.047749,8438.347739
5757.736144,814.226536,689.485948,11029.068536
5757.736467,1110.308913,459.657299,10436.903782
5757.736790,1924.535449,76.609550,11251.130318
5757.737114,1036.288319,76.609550,10658.965565
5757.737437,1406.391290,-383.047749,9326.594869
5757.737760,-518.144159,-919.314598,10288.862594
5757.738083,222.061783,-995.924147,10510.924376
5757.738406,444.123565,-766.095498,9326.594869
5757.738730,-1406.391290,-1302.362347,8290.306550
5757.739053,-2294.638420,-1225.752797,9030.512492
5757.739376,-2590.720797,-1838.629195,9622.677246
5757.739699,-814.226536,-1991.848295,9474.636058
5757.740023,-1406.391290,-995.924147,8216.285956
5757.740346,-3627.009116,-1838.629195,8808.450710
5757.740669,-4737.318029,-1991.848295,9474.636058
5757.740992,-3923.091493,-1685.410096,9770.718434
5757.741315,-2220.617826,-766.095498,7698.141797
5757.741639,-1998.556043,-995.924147,8216.285956
5757.741962,-3182.885551,-1608.800546,9696.697840
5757.742285,-1184.329507,-766.095498,9252.574275
5757.742608,74.020594,0.000000,10140.821405
5757.742932,962.267725,459.657299,7476.080014
5757.743255,1406.391290,0.000000,10362.883188
5757.743578,1924.535449,689.485948,11029.068536
5757.743901,2368.659014,2221.676944,11843.295072
5757.744224,3182.885551,2068.457845,9992.780217
5757.744548,4071.132681,1685.410096,9622.677246
5757.744871,3404.947333,1838.629195,9918.759623
5757.745194,2812.782580,1915.238745,9474.636058
5757.745517,2516.700203,2145.067394,9474.636058
5757.745841,1258.350101,1915.238745,8956.491898
5757.746164,74.020594,842.705048,8364.327145
5757.746487,-666.185348,0.000000,8808.450710
5757.746810,-2590.720797,612.876398,8290.306550
5757.747133,-4737.318029,842.705048,8142.265362
5757.747457,-2960.823768,0.000000,8142.265362
5757.747780,-3330.926739,-536.266849,8364.327145
5757.748103,-2960.823768,229.828649,8512.368333
5757.748426,-3849.070898,1072.533697,8290.306550
5757.748750,-2516.700203,689.485948,9474.636058
5757.749073,-370.102971,1225.752797,8586.388927
5757.749396,814.226536,2298.286494,8660.409521
5757.749719,1332.370696,3370.820191,8808.450710
5757.750042,0.000000,2528.115143,9326.594869
5757.750366,2368.659014,2451.505594,10066.800811
5757.750689,4885.359217,3524.039291,9474.636058
5757.751012,3552.988522,4213.525239,10362.883188
5757.751335,3182.885551,3370.820191,11029.068536
5757.751659,2146.597232,2604.724693,11473.192101
5757.751982,3849.070898,2374.896044,10140.821405
5757.752305,3478.967927,2604.724693,7846.182985
5757.752628,592.164754,1991.848295,9770.718434
5757.752951,-740.205942,1608.800546,10066.800811
5757.753275,-1110.308913,842.705048,9030.512492
5757.753598,-370.102971,1378.971896,6291.750507
5757.753921,-1110.308913,919.314598,5699.585753
5757.754244,-4737.318029,-229.828649,7254.018232
5757.754568,-4293.194464,-995.924147,8068.244768
5757.754891,-3108.864956,-842.705048,7402.059420
5757.755214,-3256.906145,-383.047749,6661.853478
5757.755537,-3478.967927,-689.485948,7254.018232
5757.755861,-4441.235652,-2145.067394,9844.739029
5757.756184,-1628.453072,-1455.581446,8586.388927
5757.756507,-148.041188,-995.924147,8142.265362
5757.756830,1036.288319,-153.219100,8734.430116
5757.757153,740.205942,-383.047749,11621.233289
5757.757477,1480.411884,-842.705048,11843.295072
5757.757800,3849.070898,-689.485948,9770.718434
5757.758123,4145.153275,-536.266849,9844.739029
5757.758446,3478.967927,-536.266849,11251.130318
5757.758770,3849.070898,-229.828649,13323.706956
5757.759093,2664.741391,-766.095498,12583.501014
5757.759416,2516.700203,-153.219100,11177.109724
5757.759739,1554.432478,-612.876398,11991.336260
5757.760062,1184.329507,-1149.143247,11325.150913
5757.760386,592.164754,-1302.362347,10732.986159
5757.760709,-1776.494261,-1532.190996,10066.800811
5757.761032,-3256.906145,-2221.676944,9696.697840
5757.761355,-4219.173869,-2451.505594,10658.965565
5757.761679,-4885.359217,-2221.676944,8808.450710
5757.762002,-5329.482782,-2451.505594,9326.594869
5757.762325,-6217.729913,-2451.505594,8808.450710
5757.762648,-5255.462188,-1915.238745,9474.636058
5757.762971,-3182.885551,-1149.143247,8734.430116
5757.763295,-3256.906145,0.000000,8438.347739
5757.763618,-2960.823768,0.000000,8734.430116
5757.763941,-1406.391290,612.876398,9030.512492
5757.764264,888.247130,1838.629195,9548.656652
5757.764588,3552.988522,3294.210641,7698.141797
5757.764911,1702.473667,3370.820191,9400.615463
5757.765234,2812.782580,3753.867940,9252.574275
5757.765557,4367.215058,4366.744339,8956.491898
5757.765880,4811.338623,4903.011187,8512.368333
5757.766204,5995.668130,5822.325785,7550.100608
5757.766527,3256.906145,4596.572988,9178.553681
5757.766850,2516.700203,4060.306139,9474.636058
5757.767173,2294.638420,4749.792088,8734.430116
5757.767497,1480.411884,4673.182538,7624.121203
5757.767820,0.000000,4213.525239,7328.038826
5757.768143,-1554.432478,3140.991542,9030.512492
5757.768466,-370.102971,3370.820191,8512.368333
5757.768789,-2146.597232,3600.648841,7994.224174
5757.769113,-3849.070898,2834.553343,7402.059420
5757.769436,-3923.091493,1608.800546,7994.224174
5757.769759,-5181.441594,1378.971896,8734.430116
5757.770082,-3923.091493,2221.676944,7031.956449
5757.770406,-3997.112087,2298.286494,7402.059420
5757.770729,-5033.400406,1225.752797,8586.388927
5757.771052,-3330.926739,459.657299,8808.450710
5757.771375,-3108.864956,459.657299,8660.409521
5757.771698,-1332.370696,1378.971896,7105.977043
5757.772022,-222.061783,1915.238745,9918.759623
5757.772345,2072.576638,2068.457845,9548.656652
5757.772668,4071.132681,1838.629195,10584.944971
5757.772991,3775.050304,1455.581446,8142.265362
5757.773315,4885.359217,842.705048,9844.739029
5757.773638,5255.462188,689.485948,11769.274478
5757.773961,5847.626942,612.876398,11399.171507
5757.774284,5477.523971,229.828649,11029.068536
5757.774607,3330.926739,-1225.752797,10362.883188
5757.774931,1480.411884,-1685.410096,11029.068536
5757.775254,1998.556043,-2374.896044,10214.842000
5757.775577,1480.411884,-2987.772442,9696.697840
5757.775900,-444.123565,-3447.429741,9992.780217
5757.776224,-2220.617826,-4519.963438,10584.944971
5757.776547,-2812.782580,-4826.401637,10288.862594
5757.776870,-2886.803174,-4136.915689,9104.533087
5757.777193,-3775.050304,-4290.134789,8142.265362
5757.777517,-4959.379811,-5669.106685,9844.739029
5757.777840,-4219.173869,-5362.668486,9844.739029
5757.778163,-2516.700203,-4366.744339,9474.636058
5757.778486,-1628.453072,-3294.210641,8956.491898
5757.778809,-2368.659014,-3140.991542,9770.718434
5757.779133,-1924.535449,-3677.258390,11399.171507
5757.779456,-518.144159,-2911.162892,10288.862594
5757.779779,962.267725,-2068.457845,10584.944971
5757.780102,1184.329507,-1302.362347,10732.986159
5757.780426,1924.535449,-1225.752797,11917.315666
5757.780749,1998.556043,-919.314598,13545.768739
5757.781072,2368.659014,1072.533697,10881.027347
5757.781395,2368.659014,1915.238745,11177.109724
5757.781718,3404.947333,2987.772442,9474.636058
5757.782042,1998.556043,2911.162892,9622.677246
5757.782365,1332.370696,2681.334243,8734.430116
5757.782688,444.123565,3064.381992,6735.874072
5757.783011,-1776.494261,2451.505594,7402.059420
5757.783335,-1554.432478,2451.505594,6735.874072
5757.783658,-3330.926739,2145.067394,8142.265362
5757.783981,-4811.338623,2604.724693,7031.956449
5757.784304,-4219.173869,2145.067394,7920.203579
5757.784627,-3775.050304,2451.505594,7550.100608
5757.784951,-1480.411884,2911.162892,8216.285956
5757.785274,-1628.453072,3830.477490,7920.203579
5757.785597,-2072.576638,4136.915689,8142.265362
5757.785920,-740.205942,4290.134789,9178.553681
5757.786244,-370.102971,5132.839837,8512.368333
5757.786567,1776.494261,5439.278036,6883.915261
5757.786890,1036.288319,5439.278036,8364.327145
5757.787213,-518.144159,4290.134789,8438.347739
5757.787536,1480.411884,4366.744339,9696.697840
5757.787860,2294.638420,4749.792088,8068.244768
5757.788183,1776.494261,4596.572988,7624.121203
5757.788510,-888.247130,3217.601092,9770.718434
5757.788833,1036.288319,3524.039291,9474.636058
5757.789157,2664.741391,3753.867940,8882.471304
5757.789480,1480.411884,3217.601092,7624.121203
5757.789803,444.123565,1838.629195,10066.800811
5757.790126,-222.061783,689.485948,10732.986159
5757.790449,-444.123565,1149.143247,10288.862594
5757.790773,1406.391290,1762.019645,9696.697840
5757.791096,1036.288319,1302.362347,8956.491898
5757.791419,0.000000,-229.828649,10510.924376
5757.791742,592.164754,0.000000,9474.636058
5757.792065,74.020594,-536.266849,9030.512492
5757.792389,666.185348,-153.219100,8808.450710
5757.792712,148.041188,-1302.362347,8808.450710
5757.793035,-148.041188,-2681.334243,10066.800811
5757.793358,370.102971,-2298.286494,7994.224174
5757.793681,-962.267725,-2145.067394,8956.491898
5757.794005,-296.082377,-2451.505594,9622.677246
5757.794328,-1184.329507,-2911.162892,11251.130318
5757.794651,-1184.329507,-3217.601092,10214.842000
5757.794974,-740.205942,-2987.772442,8956.491898
5757.795297,-962.267725,-2451.505594,10362.883188
5757.795621,148.041188,-3600.648841,9992.780217
5757.795944,-592.164754,-2528.115143,10732.986159
5757.796267,-740.205942,-1838.629195,9178.553681
5757.796590,0.000000,-1991.848295,9400.615463
5757.796913,0.000000,-2221.676944,10732.986159
5757.797237,2368.659014,-1225.752797,9770.718434
5757.797560,1554.432478,-919.314598,9992.780217
5757.797883,-888.247130,-1762.019645,10436.903782
5757.798206,-296.082377,-1762.019645,10732.986159
5757.798529,-1258.350101,-2298.286494,10732.986159
5757.798853,-888.247130,-1455.581446,8734.430116
5757.799176,-2220.617826,-1838.629195,10362.883188
5757.799499,-4589.276840,-1685.410096,9844.739029
5757.799822,-3256.906145,-612.876398,10955.047942
5757.800145,-2368.659014,-1072.533697,8290.306550
5757.800468,-1702.473667,229.828649,7698.141797
5757.800792,-3552.988522,-153.219100,8364.327145
5757.801115,-3256.906145,919.314598,9992.780217
5757.801438,-592.164754,1838.629195,8734.430116
5757.801761,592.164754,1762.019645,6587.832884
5757.802084,-296.082377,1608.800546,7920.203579
5757.802408,592.164754,1532.190996,9474.636058
5757.802731,370.102971,1378.971896,9474.636058
5757.803054,2072.576638,3370.820191,9548.656652
5757.803377,2072.576638,2528.115143,8882.471304
5757.803700,740.205942,2068.457845,9918.759623
5757.804024,1924.535449,2681.334243,10288.862594
5757.804347,1924.535449,3600.648841,9030.512492
5757.804670,962.267725,3370.820191,9622.677246
5757.804993,1998.556043,2911.162892,8364.327145
5757.805316,1258.350101,2757.943793,11029.068536
5757.805640,1258.350101,3983.696590,7846.182985
5757.805963,296.082377,3830.477490,9178.553681
5757.806286,370.102971,2911.162892,8364.327145
5757.806609,1110.308913,2681.334243,8586.388927
5757.806932,148.041188,2681.334243,7624.121203
5757.807256,296.082377,2757.943793,6587.832884
5757.807579,-740.205942,2834.553343,8586.388927
5757.807902,-518.144159,2298.286494,8882.471304
5757.808225,0.000000,2451.505594,9030.512492
5757.808548,-444.123565,2834.553343,9252.574275
5757.808872,-814.226536,3217.601092,9178.553681
5757.809195,-740.205942,2451.505594,10140.821405
5757.809518,740.205942,2528.115143,9104.533087
5757.809841,1554.432478,2987.772442,8290.306550
5757.810164,-222.061783,1915.238745,8882.471304
5757.810488,-740.205942,1455.581446,9178.553681
5757.810811,-1184.329507,766.095498,9252.574275
5757.811134,370.102971,919.314598,6883.915261
5757.811457,0.000000,1378.971896,7920.203579
5757.811780,-2220.617826,842.705048,8142.265362
5757.812104,-1702.473667,0.000000,9844.739029
5757.812427,-666.185348,153.219100,8068.244768
5757.812750,-444.123565,0.000000,7105.977043
5757.813073,-2072.576638,-612.876398,9474.636058
5757.813396,-2812.782580,-536.266849,11029.068536
5757.813720,-444.123565,-1225.752797,10066.800811
5757.814043,740.205942,-842.705048,8142.265362
5757.814366,0.000000,-383.047749,8808.450710
5757.814689,-592.164754,-2221.676944,11769.274478
5757.815012,-370.102971,-2298.286494,11251.130318
5757.815336,2368.659014,-1915.238745,10288.862594
5757.815659,1776.494261,-2451.505594,9918.759623
5757.815982,-1184.329507,-3064.381992,11769.274478
5757.816305,-666.185348,-3600.648841,12435.459826
5757.816628,370.102971,-2834.553343,11473.192101
5757.816952,888.247130,-2221.676944,9770.718434
5757.817275,1406.391290,-2221.676944,9696.697840
5757.817598,1184.329507,-2145.067394,10658.965565
5757.817921,1184.329507,-1072.533697,11251.130318
5757.818244,0.000000,-842.705048,8734.430116
5757.818568,-740.205942,-2374.896044,9104.533087
5757.818891,-296.082377,-1302.362347,9474.636058
5757.819214,-1258.350101,-1915.238745,9326.594869
5757.819537,-1480.411884,-1915.238745,8808.450710
5757.819860,-2516.700203,-1838.629195,9326.594869
5757.820184,-2368.659014,-2451.505594,10066.800811
5757.820507,-1628.453072,-1762.019645,9622.677246
5757.820830,-1850.514855,-1455.581446,9252.574275
5757.821153,-1554.432478,-919.314598,8808.450710
5757.821476,-1036.288319,229.828649,9030.512492
5757.821800,1184.329507,459.657299,8734.430116
5757.822123,2220.617826,1378.971896,7179.997637
5757.822446,148.041188,1302.362347,9400.615463
5757.822769,296.082377,1915.238745,9474.636058
5757.823092,1110.308913,2068.457845,10140.821405
5757.823416,2072.576638,4136.915689,8660.409521
5757.823739,1406.391290,3294.210641,9104.533087
5757.824062,-518.144159,2451.505594,10140.821405
5757.824385,-370.102971,2834.553343,9918.759623
5757.824708,74.020594,2757.943793,9622.677246
5757.825032,444.123565,3830.477490,8290.306550
5757.825355,148.041188,4213.525239,9622.677246
5757.825678,-1184.329507,3907.087040,10362.883188
5757.826001,222.061783,3600.648841,9252.574275
5757.826324,592.164754,4979.620737,8586.388927
5757.826648,-222.061783,4749.792088,7994.224174
5757.826971,-1776.494261,3370.820191,9622.677246
5757.827294,-2812.782580,3140.991542,9622.677246
5757.827617,-1406.391290,3830.477490,7772.162391
5757.827940,-1554.432478,3524.039291,7179.997637
5757.828264,-3404.947333,3370.820191,6587.832884
5757.828587,-3478.967927,1685.410096,8660.409521
5757.828910,-3034.844362,2068.457845,7105.977043
5757.829233,-2516.700203,2834.553343,6661.853478
5757.829556,-2664.741391,2451.505594,7179.997637
5757.829880,-2368.659014,1991.848295,8808.450710
5757.830203,-1480.411884,2221.676944,9548.656652
5757.830526,-370.102971,3294.210641,6587.832884
5757.830849,-148.041188,3140.991542,8512.368333
5757.831172,1628.453072,2451.505594,9252.574275
5757.831495,2368.659014,2374.896044,9770.718434
5757.831819,3478.967927,2145.067394,9252.574275
5757.832142,3108.864956,1762.019645,9030.512492
5757.832465,2516.700203,842.705048,10140.821405
5757.832788,3775.050304,459.657299,8438.347739
5757.833111,4589.276840,-383.047749,9548.656652
5757.833435,2738.761985,-76.609550,10140.821405
5757.833758,888.247130,-1149.143247,11251.130318
5757.834081,1850.514855,-2374.896044,11547.212695
5757.834404,2072.576638,-2374.896044,9474.636058
5757.834727,592.164754,-2221.676944,9622.677246
5757.835051,-1850.514855,-3294.210641,10732.986159
5757.835374,-2368.659014,-3524.039291,10881.027347
5757.835697,-2294.638420,-4290.134789,10066.800811
5757.836020,-1184.329507,-3753.867940,7772.162391
5757.836343,-4145.153275,-4519.963438,10732.986159
5757.836667,-4293.194464,-4749.792088,9474.636058
5757.836990,-2294.638420,-4826.401637,11029.068536
5757.837313,-1258.350101,-4060.306139,9178.553681
5757.837636,-592.164754,-2604.724693,10510.924376
5757.837959,-1258.350101,-3294.210641,11695.253884
5757.838283,74.020594,-2604.724693,11547.212695
5757.838606,1998.556043,-2145.067394,10584.944971
5757.838929,1554.432478,-1378.971896,9770.718434
5757.839252,1924.535449,-995.924147,11621.233289
5757.839575,740.205942,-1532.190996,11843.295072
5757.839899,2146.597232,-459.657299,10066.800811
5757.840222,2220.617826,-689.485948,9844.739029
5757.840545,1184.329507,766.095498,9252.574275
5757.840868,74.020594,459.657299,10436.903782
5757.841191,296.082377,306.438199,8882.471304
5757.841515,-1184.329507,306.438199,7846.182985
5757.841838,-814.226536,1149.143247,7624.121203
5757.842161,-1628.453072,1302.362347,8364.327145
5757.842484,-1776.494261,2298.286494,9918.759623
5757.842807,-2516.700203,2145.067394,8364.327145
5757.843131,-3404.947333,1149.143247,7698.141797
5757.843454,-3108.864956,1608.800546,8512.368333
5757.843777,-2294.638420,2757.943793,7994.224174
5757.844100,-2368.659014,2757.943793,9400.615463
5757.844423,-2442.679609,2604.724693,7550.100608
5757.844747,-3182.885551,1532.190996,8660.409521
5757.845070,-1110.308913,2451.505594,7698.141797
5757.845393,-444.123565,3524.039291,7920.203579
5757.845716,-518.144159,3983.696590,8216.285956
5757.846039,0.000000,4290.134789,8364.327145
5757.846363,2146.597232,4673.182538,8808.450710
5757.846686,4737.318029,5745.716235,7328.038826
5757.847009,4071.132681,5592.497135,8290.306550
5757.847332,2146.597232,4749.792088,10066.800811
5757.847655,2146.597232,4596.572988,10955.047942
5757.847979,2294.638420,4519.963438,9696.697840
5757.848302,3627.009116,4826.401637,7624.121203
5757.848625,1776.494261,3217.601092,9178.553681
5757.848948,-1036.288319,2757.943793,10807.006753
5757.849271,296.082377,2451.505594,9030.512492
5757.849595,148.041188,1685.410096,8660.409521
5757.849918,296.082377,2451.505594,6217.729913
5757.850241,-1184.329507,1225.752797,9696.697840
5757.850564,-1554.432478,919.314598,8808.450710
5757.850887,-222.061783,995.924147,8808.450710
5757.851211,-1184.329507,306.438199,7476.080014
5757.851534,-2590.720797,-536.266849,8660.409521
5757.851857,-2516.700203,-2068.457845,10140.821405
5757.852180,-2812.782580,-1685.410096,9030.512492
5757.852503,-444.123565,-1225.752797,8364.327145
5757.852827,-444.123565,-1915.238745,8290.306550
5757.853150,148.041188,-1532.190996,10140.821405
5757.853473,592.164754,-1532.190996,10510.924376
5757.853796,1258.350101,-1378.971896,8586.388927
5757.854119,1110.308913,-1302.362347,10214.842000
5757.854443,2072.576638,-1532.190996,8956.491898
5757.854766,2664.741391,-1991.848295,10955.047942
5757.855089,1258.350101,-1149.143247,10658.965565
5757.855412,444.123565,-1991.848295,10658.965565
5757.855735,888.247130,-2757.943793,10807.006753
5757.856059,296.082377,-3447.429741,10732.986159
5757.856382,592.164754,-2451.505594,10955.047942
5757.856705,-1924.535449,-3140.991542,10584.944971
5757.857028,-2812.782580,-3217.601092,10955.047942
5757.857351,-2072.576638,-3600.648841,10510.924376
5757.857675,-1480.411884,-3140.991542,9844.739029
5757.857998,-3478.967927,-2221.676944,10807.006753
5757.858321,-3478.967927,-2068.457845,10732.986159
5757.858644,-2960.823768,-1762.019645,11029.068536
5757.858967,-592.164754,-1225.752797,9104.533087
5757.859291,74.020594,0.000000,8068.244768
5757.859614,-1184.329507,-536.266849,8586.388927
5757.859937,-1480.411884,-459.657299,9696.697840
5757.860260,-962.267725,306.438199,8882.471304
5757.860583,74.020594,536.266849,7328.038826
5757.860907,-296.082377,229.828649,7550.100608
5757.861230,-2220.617826,-459.657299,9844.739029
5757.861553,-1850.514855,306.438199,10362.883188
5757.861876,-370.102971,1072.533697,9622.677246
5757.862199,0.000000,2145.067394,8512.368333
5757.862522,74.020594,2068.457845,9548.656652
5757.862846,-296.082377,1915.238745,9992.780217
5757.863169,1702.473667,3217.601092,8142.265362
5757.863492,2812.782580,4060.306139,7254.018232
5757.863815,1702.473667,3753.867940,7698.141797
5757.864138,1110.308913,3294.210641,9326.594869
5757.864462,1406.391290,3524.039291,8734.430116
5757.864785,2368.659014,4290.134789,7550.100608
5757.865108,1998.556043,4443.353888,8512.368333
5757.865431,1332.370696,4136.915689,8660.409521
5757.865754,1702.473667,3753.867940,9918.759623
5757.866078,1406.391290,3524.039291,8734.430116
5757.866401,518.144159,3064.381992,8216.285956
5757.866724,444.123565,2681.334243,9622.677246
5757.867047,518.144159,3294.210641,9474.636058
5757.867370,296.082377,3064.381992,9622.677246
5757.867694,-666.185348,2911.162892,8586.388927
5757.868017,-1702.473667,3294.210641,8734.430116
5757.868340,-592.164754,2374.896044,8586.388927
5757.868663,-370.102971,2451.505594,6735.874072
5757.868986,-1332.370696,2298.286494,8734.430116
5757.869310,-3108.864956,1608.800546,7994.224174
5757.869633,-3034.844362,919.314598,10288.862594
5757.869956,-1924.535449,1455.581446,7698.141797
5757.870279,-2664.741391,689.485948,8068.244768
5757.870602,-3108.864956,-306.438199,8734.430116
5757.870926,-2368.659014,76.609550,9622.677246
5757.871249,-296.082377,76.609550,10881.027347
5757.871572,814.226536,842.705048,8734.430116
5757.871895,444.123565,-306.438199,9326.594869
5757.872218,1036.288319,-459.657299,9844.739029
5757.872542,740.205942,0.000000,10288.862594
5757.872865,3034.844362,306.438199,9918.759623
5757.873188,3330.926739,76.609550,8290.306550
5757.873511,1406.391290,-1455.581446,11029.068536
5757.873834,1480.411884,-842.705048,9844.739029
5757.874158,962.267725,-1608.800546,9844.739029
5757.874481,1554.432478,-995.924147,8290.306550
5757.874804,1628.453072,-1378.971896,9622.677246
5757.875127,74.020594,-2911.162892,10658.965565
5757.875450,444.123565,-2528.115143,10658.965565
5757.875774,-592.164754,-2528.115143,9178.553681
5757.876097,-1406.391290,-3140.991542,9622.677246
5757.876420,-2516.700203,-3524.039291,11325.150913
5757.876743,-3701.029710,-3907.087040,11103.089130
5757.877066,-2886.803174,-3524.039291,10214.842000
5757.877390,-3404.947333,-3370.820191,9770.718434
5757.877713,-4367.215058,-3217.601092,10658.965565
5757.878036,-3256.906145,-3447.429741,10584.944971
5757.878359,-3701.029710,-3064.381992,10214.842000
5757.878682,-2146.597232,-1991.848295,8290.306550
5757.879006,-740.205942,-1378.971896,10807.006753
5757.879329,888.247130,-1532.190996,9400.615463
5757.879652,1036.288319,-306.438199,11103.089130
5757.879975,888.247130,459.657299,8882.471304
5757.880298,1480.411884,229.828649,10584.944971
5757.880622,2590.720797,689.485948,10140.821405
5757.880945,3478.967927,2298.286494,9400.615463
5757.881268,3552.988522,2298.286494,8882.471304
5757.881591,1258.350101,2451.505594,9548.656652
5757.881914,1628.453072,3140.991542,9548.656652
5757.882238,3330.926739,2911.162892,7772.162391
5757.882561,2590.720797,3447.429741,6587.832884
5757.882884,962.267725,3524.039291,7994.224174
5757.883207,444.123565,3447.429741,8216.285956
5757.883530,0.000000,3370.820191,8438.347739
5757.883854,0.000000,4213.525239,6143.709319
5757.884177,-444.123565,2987.772442,6143.709319
5757.884500,-3034.844362,2298.286494,8660.409521
5757.884823,-3923.091493,2681.334243,8142.265362
5757.885146,-2516.700203,2528.115143,8808.450710
5757.885470,-1998.556043,2604.724693,7031.956449
5757.885793,-3627.009116,1455.581446,8142.265362
5757.886116,-2368.659014,2221.676944,9474.636058
5757.886439,-1184.329507,3217.601092,9548.656652
5757.886762,296.082377,4213.525239,9252.574275
5757.887086,1184.329507,3907.087040,9104.533087
5757.887409,1258.350101,2681.334243,10807.006753
5757.887732,1628.453072,2987.772442,11325.150913
5757.888055,962.267725,2681.334243,10288.862594
5757.888378,1332.370696,2451.505594,10288.862594
5757.888702,2368.659014,2451.505594,10214.842000
5757.889025,1702.473667,1915.238745,10140.821405
5757.889348,1924.535449,2987.772442,8586.388927
5757.889671,1406.391290,2374.896044,9030.512492
5757.889994,518.144159,1685.410096,8438.347739
5757.890318,1184.329507,612.876398,8216.285956
5757.890641,-888.247130,383.047749,7402.059420
5757.890964,-2146.597232,0.000000,7772.162391
5757.891287,-1554.432478,-842.705048,8808.450710
5757.891611,-1702.473667,-919.314598,8364.327145
5757.891934,-222.061783,-1302.362347,8734.430116
5757.892257,-1184.329507,-1685.410096,9178.553681
5757.892580,-2590.720797,-2145.067394,9770.718434
5757.892904,-1110.308913,-3217.601092,10807.006753
5757.893227,74.020594,-2221.676944,8364.327145
5757.893550,740.205942,-1685.410096,7772.162391
5757.893873,-296.082377,-2145.067394,9326.594869
5757.894196,-1628.453072,-2451.505594,10362.883188
5757.894520,740.205942,-2451.505594,10140.821405
5757.894843,962.267725,-1991.848295,8956.491898
5757.895166,-592.164754,-1762.019645,10288.862594
5757.895489,-1480.411884,-2298.286494,12213.398043
5757.895813,-1776.494261,-2681.334243,12805.562797
5757.896136,-148.041188,-2298.286494,10510.924376
5757.896459,-888.247130,-2068.457845,9104.533087
5757.896782,-2072.576638,-2451.505594,12139.377449
5757.897105,-3330.926739,-2145.067394,11917.315666
5757.897429,-2738.761985,-2298.286494,11547.212695
5757.897752,-296.082377,-995.924147,8586.388927
5757.898075,-1406.391290,-536.266849,9770.718434
5757.898398,-2368.659014,-689.485948,10732.986159
5757.898722,-2146.597232,-766.095498,11177.109724
5757.899045,-592.164754,383.047749,9326.594869
5757.899368,1110.308913,1072.533697,8512.368333
5757.899691,1110.308913,1072.533697,8512.368333
5757.900015,1702.473667,2068.457845,10066.800811
5757.900338,1776.494261,2451.505594,8142.265362
5757.900661,1924.535449,2298.286494,7846.182985
5757.900984,2886.803174,2528.115143,7550.100608
5757.901307,1998.556043,2145.067394,8808.450710
5757.901631,1406.391290,2604.724693,8290.306550
5757.901954,296.082377,2451.505594,7698.141797
5757.902277,518.144159,1838.629195,7772.162391
5757.902600,962.267725,2298.286494,7624.121203
5757.902924,370.102971,2145.067394,8512.368333
5757.903247,-592.164754,2451.505594,7772.162391
5757.903570,-1554.432478,2604.724693,8364.327145
5757.903893,-888.247130,2451.505594,8068.244768
5757.904217,1480.411884,2834.553343,7105.977043
5757.904540,-148.041188,3907.087040,8586.388927
5757.904863,-1924.535449,3294.210641,8660.409521
5757.905186,-962.267725,2374.896044,11325.150913
5757.905509,740.205942,2451.505594,8956.491898
5757.905833,1406.391290,3217.601092,8660.409521
5757.906156,-1184.329507,2604.724693,10658.965565
5757.906479,-2294.638420,2451.505594,11251.130318
5757.906802,0.000000,2068.457845,11547.212695
5757.907126,1628.453072,2451.505594,7920.203579
5757.907449,1406.391290,2604.724693,9104.533087
5757.907772,-814.226536,2374.896044,10658.965565
5757.908095,-296.082377,2374.896044,10658.965565
5757.908418,2072.576638,2604.724693,9030.512492
5757.908742,2072.576638,2757.943793,6513.812290
5757.909065,0.000000,1608.800546,9474.636058
5757.909388,-1332.370696,1915.238745,9770.718434
5757.909711,-1184.329507,1225.752797,8512.368333
5757.910035,444.123565,919.314598,7402.059420
5757.910358,-740.205942,306.438199,7105.977043
5757.910681,-2294.638420,-1072.533697,9622.677246
5757.911004,-2516.700203,-995.924147,9326.594869
5757.911328,-1850.514855,-612.876398,8290.306550
5757.911651,-740.205942,-919.314598,7550.100608
5757.911974,-518.144159,-459.657299,8512.368333
5757.912297,-1036.288319,-1455.581446,9992.780217
5757.912620,222.061783,-1838.629195,7920.203579
5757.912944,-592.164754,-1378.971896,9178.553681
5757.913267,222.061783,-1149.143247,9474.636058
5757.913590,148.041188,-1915.238745,11251.130318
5757.913913,-1406.391290,-1915.238745,10362.883188
5757.914237,0.000000,-1762.019645,9178.553681
5757.914560,-592.164754,-2374.896044,10807.006753
5757.914883,148.041188,-2221.676944,10140.821405
5757.915206,370.102971,-2604.724693,11177.109724
5757.915530,-1184.329507,-2604.724693,10881.027347
5757.915853,-888.247130,-2374.896044,10732.986159
5757.916176,-518.144159,-2451.505594,11695.253884
5757.916499,1184.329507,-1302.362347,10807.006753
5757.916822,444.123565,-1378.971896,12065.356855
5757.917146,-740.205942,-1915.238745,11177.109724
5757.917469,-888.247130,-2221.676944,12065.356855
5757.917792,74.020594,-2221.676944,9992.780217
5757.918115,1110.308913,-1225.752797,9474.636058
5757.918439,0.000000,-536.266849,9030.512492
5757.918762,-740.205942,-919.314598,9252.574275
5757.919085,888.247130,-1072.533697,8364.327145
5757.919408,2886.803174,153.219100,7698.141797
5757.919731,2590.720797,536.266849,6883.915261
5757.920055,1850.514855,229.828649,8660.409521
5757.920378,2072.576638,766.095498,9400.615463
5757.920701,3478.967927,1149.143247,7624.121203
5757.921024,4515.256246,1762.019645,6217.729913
5757.921348,3775.050304,2068.457845,7031.956449
5757.921671,2368.659014,842.705048,9104.533087
5757.921994,2664.741391,229.828649,7624.121203
5757.922317,2960.823768,229.828649,7105.977043
5757.922641,1184.329507,0.000000,7624.121203
5757.922964,-962.267725,-383.047749,9844.739029
5757.923287,-1036.288319,-766.095498,10881.027347
5757.923610,-444.123565,-689.485948,9400.615463
5757.923933,0.000000,76.609550,9474.636058
5757.924257,0.000000,383.047749,10066.800811
5757.924580,370.102971,459.657299,11769.274478
5757.924903,1554.432478,536.266849,9918.759623
5757.925226,1480.411884,459.657299,9400.615463
5757.925550,1406.391290,76.609550,9622.677246
5757.925873,1776.494261,76.609550,10732.986159
5757.926196,2146.597232,689.485948,10288.862594
5757.926519,3478.967927,536.266849,9622.677246
5757.926842,3330.926739,76.609550,9992.780217
5757.927166,2516.700203,612.876398,10658.965565
5757.927489,3404.947333,995.924147,10436.903782
5757.927812,2590.720797,919.314598,9474.636058
5757.928135,2072.576638,536.266849,8512.368333
5757.928459,4145.153275,612.876398,8956.491898
5757.928782,4589.276840,995.924147,8586.388927
5757.929105,3034.844362,1072.533697,7994.224174
5757.929428,2738.761985,153.219100,7031.956449
5757.929752,2294.638420,-1072.533697,6957.935855
5757.930075,2294.638420,-766.095498,6365.771101
5757.930398,2146.597232,-842.705048,6809.894666
5757.930721,222.061783,-2528.115143,6735.874072
5757.931044,-1776.494261,-3217.601092,8290.306550
5757.931368,-1628.453072,-3447.429741,8290.306550
5757.931691,-2294.638420,-3983.696590,8882.471304
5757.932014,-2072.576638,-3907.087040,8956.491898
5757.932337,-1480.411884,-4060.306139,9252.574275
5757.932661,-296.082377,-4443.353888,10510.924376
5757.932984,1332.370696,-3677.258390,10732.986159
5757.933307,2294.638420,-3217.601092,9104.533087
5757.933630,2294.638420,-4443.353888,10066.800811
5757.933954,2886.803174,-4213.525239,11769.274478
5757.934277,5033.400406,-3064.381992,11769.274478
5757.934600,6513.812290,-3140.991542,11251.130318
5757.934923,5181.441594,-2298.286494,12657.521608
5757.935246,4515.256246,-2757.943793,13249.686362
5757.935570,5329.482782,-3830.477490,12509.480420
5757.935893,5329.482782,-2451.505594,11695.253884
5757.936216,5255.462188,-1685.410096,11325.150913
5757.936539,4959.379811,-2451.505594,11177.109724
5757.936863,4737.318029,-3370.820191,10288.862594
5757.937186,4293.194464,-3140.991542,9178.553681
5757.937509,1776.494261,-2834.553343,7920.203579
5757.937832,222.061783,-3600.648841,8882.471304
5757.938155,-1480.411884,-3447.429741,10436.903782
5757.938479,-2146.597232,-3064.381992,9844.739029
5757.938802,-1036.288319,-2604.724693,8142.265362
5757.939125,-2072.576638,-2681.334243,8512.368333
5757.939448,-2886.803174,-2681.334243,9474.636058
5757.939772,-2590.720797,-2221.676944,9548.656652
5757.940095,-1702.473667,-1608.800546,7476.080014
5757.940418,-888.247130,0.000000,7402.059420
5757.940741,-814.226536,-306.438199,8364.327145
5757.941065,0.000000,-919.314598,8364.327145
5757.941388,3034.844362,153.219100,6143.709319
5757.941711,3923.091493,919.314598,6291.750507
5757.942034,3552.988522,919.314598,8438.347739
5757.942357,3108.864956,76.609550,10214.842000
5757.942681,3182.885551,1455.581446,9178.553681
5757.943004,4145.153275,1149.143247,8586.388927
5757.943327,2886.803174,1302.362347,10584.944971
5757.943650,2146.597232,1378.971896,11769.274478
5757.943974,3182.885551,1378.971896,11547.212695
5757.944297,3478.967927,1838.629195,8956.491898
5757.944620,3330.926739,1532.190996,9548.656652
5757.944943,1850.514855,1149.143247,9474.636058
5757.945267,1332.370696,995.924147,9474.636058
5757.945590,2664.741391,842.705048,7550.100608
5757.945913,2146.597232,76.609550,7179.997637
5757.946236,962.267725,-459.657299,8882.471304
5757.946559,74.020594,-306.438199,9030.512492
5757.946883,0.000000,-1762.019645,9178.553681
5757.947206,222.061783,-1762.019645,7920.203579
5757.947529,370.102971,-2221.676944,9104.533087
5757.947852,1628.453072,-2451.505594,9326.594869
5757.948176,1998.556043,-2298.286494,9474.636058
5757.948499,1776.494261,-2068.457845,8586.388927
5757.948822,1776.494261,-2068.457845,9178.553681
5757.949145,3034.844362,-1838.629195,9770.718434
5757.949468,5033.400406,-1378.971896,9992.780217
5757.949792,5033.400406,-1608.800546,9326.594869
5757.950115,3775.050304,-1302.362347,10214.842000
5757.950438,4441.235652,-1608.800546,10955.047942
5757.950761,4515.256246,-1225.752797,10066.800811
5757.951085,4737.318029,-1378.971896,8808.450710
5757.951408,4589.276840,-2834.553343,8438.347739
5757.951731,3182.885551,-3217.601092,9104.533087
5757.952054,4367.215058,-3140.991542,9326.594869
5757.952378,2812.782580,-3753.867940,9104.533087
5757.952701,74.020594,-4519.963438,10066.800811
5757.953024,-1480.411884,-4903.011187,11695.253884
5757.953347,-1184.329507,-4673.182538,11991.336260
5757.953670,-222.061783,-2834.553343,11695.253884
5757.953994,-740.205942,-2451.505594,11029.068536
5757.954317,-296.082377,-3217.601092,11325.150913
5757.954640,0.000000,-2987.772442,10732.986159
5757.954963,666.185348,-1685.410096,9178.553681
5757.955287,2442.679609,-842.705048,7254.018232
5757.955610,1850.514855,-1225.752797,7105.977043
5757.955933,2442.679609,-2298.286494,6735.874072
5757.956256,4145.153275,-1915.238745,6439.791695
5757.956580,3108.864956,-1991.848295,5625.565159
5757.956903,2220.617826,-2987.772442,7550.100608
5757.957226,518.144159,-3524.039291,10362.883188
5757.957549,148.041188,-3677.258390,11991.336260
5757.957872,148.041188,-2451.505594,11843.295072
5757.958196,-592.164754,-2221.676944,11991.336260
5757.958519,-222.061783,-1072.533697,12879.583391
5757.958842,148.041188,-306.438199,11695.253884
5757.959165,1850.514855,689.485948,9474.636058
5757.959489,3552.988522,1455.581446,7698.141797
5757.959812,2960.823768,1149.143247,6587.832884
5757.960135,3552.988522,689.485948,5699.585753
5757.960458,4219.173869,229.828649,4885.359217
5757.960781,3330.926739,0.000000,4885.359217
5757.961105,1776.494261,-842.705048,6809.894666
5757.961428,666.185348,-2451.505594,9770.718434
5757.961751,740.205942,-1915.238745,11547.212695
5757.962074,222.061783,-1378.971896,12065.356855
5757.962398,0.000000,-1455.581446,12805.562797
5757.962721,0.000000,-842.705048,13397.727550
5757.963044,888.247130,-766.095498,12435.459826
5757.963367,3775.050304,842.705048,10436.903782
5757.963691,4293.194464,536.266849,7994.224174
5757.964014,4293.194464,536.266849,6883.915261
5757.964337,5477.523971,306.438199,5847.626942
5757.964660,5847.626942,76.609550,4737.318029
5757.964983,5181.441594,-459.657299,5033.400406
5757.965307,3108.864956,-1225.752797,7328.038826
5757.965630,2664.741391,-1762.019645,9844.739029
5757.965953,2294.638420,-2451.505594,10584.944971
5757.966276,592.164754,-2145.067394,10807.006753
5757.966600,0.000000,-2604.724693,12213.398043
5757.966923,-148.041188,-2681.334243,12731.542202
5757.967246,666.185348,-1762.019645,11917.315666
5757.967569,1554.432478,-1762.019645,9622.677246
5757.967892,666.185348,-1225.752797,8512.368333
5757.968216,1258.350101,-1072.533697,8660.409521
5757.968539,2368.659014,-1378.971896,7920.203579
5757.968862,1332.370696,-1455.581446,7402.059420
5757.969185,296.082377,-1608.800546,8216.285956
5757.969509,-518.144159,-1915.238745,10510.924376
5757.969832,-370.102971,-1608.800546,10955.047942
5757.970155,0.000000,-1532.190996,10881.027347
5757.970478,-1258.350101,-842.705048,11177.109724
5757.970802,-1628.453072,-1608.800546,12731.542202
5757.971125,-2072.576638,-1532.190996,12139.377449
5757.971448,-1554.432478,-1608.800546,10510.924376
5757.971771,-888.247130,-1455.581446,8142.265362
5757.972094,-2220.617826,-1378.971896,7698.141797
5757.972418,-1258.350101,-1225.752797,6957.935855
5757.972741,0.000000,-689.485948,5921.647536
5757.973064,296.082377,-229.828649,5699.585753
5757.973387,1110.308913,-153.219100,6661.853478
5757.973711,888.247130,-612.876398,8364.327145
5757.974034,2812.782580,0.000000,9474.636058
5757.974357,3478.967927,306.438199,9178.553681
5757.974680,2960.823768,0.000000,9844.739029
5757.975004,2960.823768,-383.047749,10732.986159
5757.975327,3627.009116,229.828649,9992.780217
5757.975650,4441.235652,459.657299,8660.409521
5757.975973,5033.400406,0.000000,7476.080014
5757.976296,4071.132681,-766.095498,7254.018232
5757.976620,5033.400406,-766.095498,7031.956449
5757.976943,5699.585753,-919.314598,6661.853478
5757.977266,5403.503377,-995.924147,6069.688724
5757.977589,4959.379811,-1838.629195,7994.224174
5757.977913,4811.338623,-2451.505594,9844.739029
5757.978236,6587.832884,-2145.067394,10288.862594
5757.978559,6365.771101,-2068.457845,9918.759623
5757.978882,4811.338623,-2681.334243,11399.171507
5757.979205,4293.194464,-3753.867940,12879.583391
5757.979529,3478.967927,-3370.820191,13249.686362
5757.979852,3478.967927,-3447.429741,11843.295072
5757.980175,2664.741391,-3524.039291,11325.150913
5757.980498,1406.391290,-4443.353888,12065.356855
5757.980822,2516.700203,-3907.087040,11325.150913
5757.981145,2812.782580,-3677.258390,9770.718434
5757.981468,2960.823768,-2987.772442,8956.491898
5757.981791,2738.761985,-3753.867940,9696.697840
5757.982115,2590.720797,-3983.696590,9770.718434
5757.982438,2664.741391,-3370.820191,9252.574275
5757.982761,592.164754,-3447.429741,9548.656652
5757.983084,-666.185348,-3447.429741,11029.068536
5757.983407,-1036.288319,-3830.477490,11769.274478
5757.983731,-1332.370696,-3447.429741,10807.006753
5757.984054,-592.164754,-1915.238745,9622.677246
5757.984377,-962.267725,-2068.457845,10362.883188
5757.984700,-1110.308913,-2145.067394,9696.697840
5757.985024,0.000000,-1762.019645,8660.409521
5757.985347,222.061783,-689.485948,7254.018232
5757.985670,74.020594,-995.924147,6809.894666
5757.985993,222.061783,-1608.800546,7402.059420
5757.986317,740.205942,-1225.752797,6883.915261
5757.986640,1850.514855,-919.314598,6439.791695
5757.986963,74.020594,-1225.752797,7328.038826
5757.987286,-1258.350101,-1378.971896,10066.800811
5757.987609,-2442.679609,-766.095498,10955.047942
5757.987933,-2368.659014,0.000000,10658.965565
5757.988256,-1554.432478,383.047749,9696.697840
5757.988579,-1184.329507,536.266849,9770.718434
5757.988902,0.000000,229.828649,9326.594869
5757.989226,1850.514855,1149.143247,7846.182985
5757.989549,2590.720797,1685.410096,6883.915261
5757.989872,3256.906145,1685.410096,6883.915261
5757.990196,3256.906145,1149.143247,7624.121203
5757.990519,5403.503377,1072.533697,7402.059420
5757.990842,5551.544565,612.876398,7846.182985
5757.991165,3775.050304,-306.438199,9622.677246
5757.991489,2812.782580,-306.438199,12139.377449
5757.991812,3849.070898,229.828649,12435.459826
5757.992135,4515.256246,1378.971896,12953.603985
5757.992459,4959.379811,1762.019645,11695.253884
5757.992782,3701.029710,1762.019645,12065.356855
5757.993105,5921.647536,2298.286494,9400.615463
5757.993429,7105.977043,1838.629195,7624.121203
5757.993752,7846.182985,919.314598,4145.153275
5757.994075,6217.729913,153.219100,5699.585753
5757.994398,4663.297435,-689.485948,6069.688724
5757.994722,4071.132681,-1149.143247,7105.977043
5757.995045,2886.803174,-1991.848295,5773.606348
5757.995368,2072.576638,-3064.381992,8586.388927
5757.995692,1184.329507,-3524.039291,11103.089130
5757.996015,592.164754,-3907.087040,12879.583391
5757.996338,1258.350101,-2451.505594,11547.212695
5757.996661,888.247130,-2834.553343,11399.171507
5757.996985,592.164754,-3524.039291,11399.171507
5757.997308,814.226536,-3217.601092,11325.150913
5757.997631,1406.391290,-2451.505594,9178.553681
5757.997955,2960.823768,-2528.115143,7994.224174
5757.998278,3330.926739,-2834.553343,8068.244768
5757.998601,2590.720797,-3753.867940,9326.594869
5757.998924,2442.679609,-3677.258390,9104.533087
5757.999248,1776.494261,-4673.182538,9252.574275
5757.999571,1776.494261,-5209.449386,10807.006753
5757.999894,296.082377,-5975.544884,13101.645173
5758.000218,-888.247130,-5515.887586,13249.686362
5758.000541,-296.082377,-4826.401637,12065.356855
5758.000864,-1554.432478,-4903.011187,11251.130318
5758.001188,-1628.453072,-4366.744339,11769.274478
5758.001511,0.000000,-3830.477490,9992.780217
5758.001834,296.082377,-3524.039291,8216.285956
5758.002157,0.000000,-2911.162892,8438.347739
5758.002481,-888.247130,-2987.772442,9326.594869
5758.002804,518.144159,-2221.676944,8364.327145
5758.003127,1480.411884,-1762.019645,7328.038826
5758.003451,0.000000,-1685.410096,8808.450710
5758.003774,518.144159,-2374.896044,9696.697840
5758.004097,1332.370696,-2451.505594,9474.636058
5758.004420,2146.597232,-1532.190996,8586.388927
5758.004744,444.123565,-1455.581446,9252.574275
5758.005067,-1184.329507,-1762.019645,8808.450710
5758.005390,962.267725,-1838.629195,8808.450710
5758.005714,1184.329507,-919.314598,8068.244768
5758.006037,2368.659014,76.609550,6735.874072
5758.006360,2146.597232,-229.828649,8438.347739
5758.006684,1554.432478,306.438199,10658.965565
5758.007007,2812.782580,1838.629195,10140.821405
5758.007330,3701.029710,1302.362347,7772.162391
5758.007653,3182.885551,1762.019645,9918.759623
5758.007977,4219.173869,1838.629195,10510.924376
5758.008300,4737.318029,766.095498,9918.759623
5758.008623,5255.462188,1072.533697,9104.533087
5758.008947,4737.318029,1532.190996,9326.594869
5758.009270,3849.070898,153.219100,8586.388927
5758.009593,4885.359217,-153.219100,8882.471304
5758.009916,5255.462188,1225.752797,8142.265362
5758.010240,4737.318029,383.047749,7698.141797
5758.010563,3404.947333,-612.876398,9252.574275
5758.010886,3552.988522,0.000000,10066.800811
5758.011210,4145.153275,383.047749,9548.656652
5758.011533,2590.720797,536.266849,8216.285956
5758.011856,1628.453072,0.000000,9622.677246
5758.012180,1776.494261,-689.485948,10066.800811
5758.012503,1258.350101,-842.705048,9622.677246
5758.012826,2146.597232,-689.485948,8734.430116
5758.013149,888.247130,-1072.533697,8660.409521
5758.013473,148.041188,-1915.238745,8660.409521
5758.013796,1110.308913,-2451.505594,8142.265362
5758.014119,888.247130,-1149.143247,7550.100608
5758.014443,1110.308913,-842.705048,7920.203579
5758.014766,1184.329507,-1685.410096,9474.636058
5758.015089,444.123565,-2374.896044,9696.697840
5758.015412,518.144159,-1838.629195,10288.862594
5758.015736,-1110.308913,-1302.362347,11325.150913
5758.016059,-592.164754,-1685.410096,11843.295072
5758.016382,444.123565,-2451.505594,11991.336260
5758.016706,888.247130,-2298.286494,10436.903782
5758.017029,814.226536,-1838.629195,10436.903782
5758.017352,-962.267725,-1838.629195,10436.903782
5758.017675,-666.185348,-1762.019645,10140.821405
5758.017999,1184.329507,-1685.410096,9326.594869
5758.018322,0.000000,-1072.533697,8142.265362
5758.018645,-1110.308913,-1608.800546,8660.409521
5758.018969,-1998.556043,-2068.457845,10140.821405
5758.019292,-1184.329507,-1838.629195,9474.636058
5758.019615,-814.226536,-1991.848295,8956.491898
5758.019939,-3256.906145,-2221.676944,9622.677246
5758.020262,-4293.194464,-2145.067394,10362.883188
5758.020585,-3182.885551,-1915.238745,10584.944971
5758.020908,-1628.453072,-612.876398,7846.182985
5758.021232,-1036.288319,-306.438199,8438.347739
5758.021555,-962.267725,-842.705048,8586.388927
5758.021878,-222.061783,-459.657299,10140.821405
5758.022202,2368.659014,919.314598,7994.224174
5758.022525,3478.967927,2068.457845,7624.121203
5758.022848,3182.885551,2298.286494,8586.388927
5758.023171,4441.235652,1378.971896,9696.697840
5758.023495,4441.235652,1532.190996,8438.347739
5758.023818,3256.906145,1302.362347,8660.409521
5758.024141,4219.173869,1838.629195,8512.368333
5758.024465,3849.070898,1149.143247,10732.986159
5758.024788,1036.288319,1915.238745,10732.986159
5758.025111,1406.391290,1072.533697,9844.739029
5758.025435,444.123565,995.924147,9474.636058
5758.025758,-370.102971,1915.238745,9474.636058
5758.026081,-296.082377,1378.971896,10140.821405
5758.026404,-592.164754,1838.629195,8956.491898
5758.026728,-1776.494261,1915.238745,8956.491898
5758.027051,-1850.514855,1915.238745,8586.388927
5758.027374,-962.267725,2068.457845,8586.388927
5758.027698,-222.061783,2681.334243,8364.327145
5758.028021,-296.082377,2068.457845,6883.915261
5758.028344,-1258.350101,1378.971896,9548.656652
5758.028667,-518.144159,1455.581446,8068.244768
5758.028991,-592.164754,1915.238745,8882.471304
5758.029314,0.000000,1838.629195,7179.997637
5758.029637,-2072.576638,306.438199,9696.697840
5758.029961,-2738.761985,229.828649,9844.739029
5758.030284,-370.102971,1685.410096,8660.409521
5758.030607,-222.061783,1378.971896,9918.759623
5758.030931,-1036.288319,1072.533697,9104.533087
5758.031254,-1850.514855,842.705048,11103.089130
5758.031577,-740.205942,766.095498,9622.677246
5758.031900,222.061783,1455.581446,8586.388927
5758.032224,-222.061783,919.314598,8438.347739
5758.032547,-1036.288319,0.000000,9474.636058
5758.032870,-1628.453072,-459.657299,9548.656652
5758.033194,-518.144159,-229.828649,7550.100608
5758.033517,-1258.350101,229.828649,7994.224174
5758.033840,-3182.885551,-842.705048,9474.636058
5758.034163,-2664.741391,-1991.848295,9992.780217
5758.034487,-3108.864956,-2145.067394,9474.636058
5758.034810,-2442.679609,-1685.410096,9030.512492
5758.035133,-2368.659014,153.219100,11177.109724
5758.035457,-1998.556043,-306.438199,12805.562797
5758.035780,0.000000,0.000000,10881.027347
5758.036103,592.164754,-153.219100,9326.594869
