#time,accel_x,accel_y,accel_z
20845.415359,2220.617826,3064.381992,10288.862594
20845.415683,1406.391290,2604.724693,9326.594869
20845.416006,962.267725,1532.190996,8512.368333
20845.416330,-370.102971,919.314598,8438.347739
20845.416653,-2442.679609,-76.609550,7105.977043
20845.416976,-3034.844362,-766.095498,7402.059420
20845.417300,-3849.070898,-1532.190996,7105.977043
20845.417623,-4663.297435,-1378.971896,7105.977043
20845.417946,-4885.359217,-1149.143247,7254.018232
20845.418270,-4737.318029,-1685.410096,7031.956449
20845.418593,-4145.153275,-919.314598,6069.688724
20845.418917,-1998.556043,-1072.533697,5625.565159
20845.419240,-1036.288319,0.000000,6661.853478
20845.419563,-2072.576638,306.438199,8216.285956
20845.419887,-1554.432478,-153.219100,8364.327145
20845.420210,-1850.514855,-1225.752797,9030.512492
20845.420533,-2220.617826,-1991.848295,9622.677246
20845.420857,-2220.617826,-2145.067394,10807.006753
20845.421180,-1924.535449,-2681.334243,11843.295072
20845.421504,-814.226536,-2604.724693,13027.624579
20845.421827,-962.267725,-1685.410096,12953.603985
20845.422150,-1332.370696,-1378.971896,13101.645173
20845.422474,-2146.597232,-1302.362347,12953.603985
20845.422797,-2072.576638,-1072.533697,13249.686362
20845.423120,-1850.514855,0.000000,12583.501014
20845.423444,-3627.009116,459.657299,12213.398043
20845.423767,-5403.503377,995.924147,11547.212695
20845.424091,-5995.668130,1915.238745,11029.068536
20845.424414,-6957.935855,1685.410096,10362.883188
20845.424737,-7772.162391,2298.286494,9992.780217
20845.425061,-7698.141797,2834.553343,9252.574275
20845.425384,-7846.182985,3447.429741,7550.100608
20845.425708,-7698.141797,3983.696590,6217.729913
20845.426031,-7179.997637,5209.449386,4959.379811
20845.426354,-5995.668130,5592.497135,4737.318029
20845.426678,-5255.462188,6052.154434,4737.318029
20845.427001,-4145.153275,6435.202183,4663.297435
20845.427324,-3627.009116,7124.688131,4737.318029
20845.427648,-2590.720797,7431.126331,5033.400406
20845.427971,-1184.329507,7048.078582,4515.256246
20845.428295,666.185348,6818.249932,5773.606348
20845.428618,814.226536,7507.735880,5847.626942
20845.428941,1332.370696,7201.297681,6661.853478
20845.429265,2368.659014,6588.421283,7402.059420
20845.429588,2960.823768,5975.544884,8364.327145
20845.429911,3330.926739,5822.325785,9400.615463
20845.430235,3552.988522,4596.572988,9918.759623
20845.430558,3256.906145,3447.429741,11843.295072
20845.430882,1924.535449,2604.724693,12657.521608
20845.431205,518.144159,1838.629195,14137.933492
20845.431528,-1480.411884,536.266849,14508.036463
20845.431852,-2516.700203,0.000000,14730.098246
20845.432175,-2664.741391,-306.438199,14804.118840
20845.432498,-3256.906145,-229.828649,14656.077652
20845.432822,-4663.297435,919.314598,13397.727550
20845.433145,-4145.153275,1455.581446,11621.233289
20845.433469,-3701.029710,1455.581446,10066.800811
20845.433792,-3775.050304,1838.629195,8438.347739
20845.434115,-3108.864956,2374.896044,6957.935855
20845.434439,-2146.597232,1685.410096,5107.421000
20845.434762,-962.267725,1149.143247,3404.947333
20845.435086,74.020594,-459.657299,2886.803174
20845.435409,444.123565,-919.314598,3034.844362
20845.435732,296.082377,-1915.238745,3256.906145
20845.436056,74.020594,-2911.162892,4589.276840
20845.436379,666.185348,-4060.306139,6069.688724
20845.436702,222.061783,-4596.572988,7105.977043
20845.437026,222.061783,-4826.401637,8586.388927
20845.437349,666.185348,-4826.401637,9400.615463
20845.437673,814.226536,-3753.867940,10436.903782
20845.437996,1332.370696,-2911.162892,11029.068536
20845.438319,1998.556043,-3064.381992,11621.233289
20845.438643,2368.659014,-3447.429741,11621.233289
20845.438966,1850.514855,-3830.477490,11769.274478
20845.439289,1628.453072,-4443.353888,11695.253884
20845.439613,1480.411884,-5898.935335,11547.212695
20845.439936,74.020594,-8044.002729,11621.233289
20845.440259,-370.102971,-9499.584175,12435.459826
20845.440583,-1406.391290,-10035.851024,13841.851115
20845.440906,-2294.638420,-10725.336972,14285.974681
20845.441229,-2812.782580,-10648.727422,15248.242405
20845.441553,-2442.679609,-9346.365076,15544.324782
20845.441876,-2368.659014,-7507.735880,15026.180623
20845.442199,-2220.617826,-4136.915689,13619.789333
20845.442523,-1036.288319,-1685.410096,12435.459826
20845.442846,-370.102971,2298.286494,11177.109724
20845.443169,444.123565,4673.182538,9104.533087
20845.443493,0.000000,6894.859482,7031.956449
20845.443816,-592.164754,8044.002729,4737.318029
20845.444139,-740.205942,8733.488677,3034.844362
20845.444463,-740.205942,7431.126331,1406.391290
20845.444786,-1554.432478,6435.202183,444.123565
20845.445109,-2738.761985,4826.401637,296.082377
20845.445433,-2886.803174,2911.162892,592.164754
20845.445756,-2812.782580,1378.971896,1998.556043
20845.446079,-3775.050304,459.657299,3478.967927
20845.446403,-3923.091493,0.000000,5773.606348
20845.446726,-2590.720797,383.047749,7624.121203
20845.447049,-1628.453072,1149.143247,10140.821405
20845.447373,-518.144159,2528.115143,11991.336260
20845.447696,888.247130,4596.572988,13397.727550
20845.448019,2516.700203,5515.887586,13693.809927
20845.448343,3997.112087,6971.469032,12953.603985
20845.448666,4885.359217,8197.221829,12065.356855
20845.448989,4959.379811,7584.345430,11621.233289
20845.449313,4737.318029,5975.544884,9474.636058
20845.449636,5107.421000,4596.572988,9178.553681
20845.449959,4441.235652,1838.629195,9474.636058
20845.450283,2590.720797,-766.095498,9400.615463
20845.450606,1110.308913,-3370.820191,9696.697840
20845.450929,74.020594,-5209.449386,10955.047942
20845.451253,-1702.473667,-5286.058936,11917.315666
20845.451576,-1776.494261,-5439.278036,12953.603985
20845.451899,-1332.370696,-4979.620737,12583.501014
20845.452223,-740.205942,-2604.724693,12065.356855
20845.452546,-666.185348,-383.047749,11473.192101
20845.452869,-962.267725,2145.067394,10214.842000
20845.453193,-444.123565,3983.696590,8586.388927
20845.453516,-518.144159,5286.058936,6957.935855
20845.453839,-518.144159,5439.278036,4737.318029
20845.454163,-1110.308913,4519.963438,3034.844362
20845.454486,-1184.329507,2987.772442,1998.556043
20845.454809,-2368.659014,459.657299,1998.556043
20845.455133,-2738.761985,-2374.896044,3552.988522
20845.455456,-3701.029710,-5515.887586,4071.132681
20845.455779,-4663.297435,-7277.907231,5625.565159
20845.456103,-5107.421000,-10725.336972,7476.080014
20845.456426,-5107.421000,-11031.775171,9474.636058
20845.456749,-4293.194464,-10572.117872,11843.295072
20845.457073,-3404.947333,-9499.584175,13027.624579
20845.457396,-1480.411884,-7048.078582,14582.057057
20845.457719,592.164754,-4366.744339,15988.448347
20845.458043,2368.659014,-1915.238745,15692.365970
20845.458366,4515.256246,383.047749,15396.283594
20845.458689,5921.647536,2221.676944,13027.624579
20845.459013,5921.647536,1455.581446,11325.150913
20845.459336,5625.565159,919.314598,8734.430116
20845.459659,5107.421000,-1149.143247,8216.285956
20845.459983,3404.947333,-3294.210641,8660.409521
20845.460306,1110.308913,-5439.278036,9104.533087
20845.460629,-962.267725,-7660.954980,9104.533087
20845.460953,-2664.741391,-9959.241474,10436.903782
20845.461276,-4885.359217,-10189.070123,10436.903782
20845.461599,-4885.359217,-8963.317327,11177.109724
20845.461923,-3182.885551,-6205.373534,11177.109724
20845.462246,-1998.556043,-2298.286494,10584.944971
20845.462569,-888.247130,1991.848295,9770.718434
20845.462893,518.144159,4979.620737,7920.203579
20845.463216,2368.659014,8656.879127,7254.018232
20845.463539,2664.741391,10035.851024,7105.977043
20845.463863,1776.494261,11261.603821,5403.503377
20845.464186,1776.494261,10189.070123,4071.132681
20845.464509,2146.597232,8044.002729,2886.803174
20845.464833,296.082377,5439.278036,3701.029710
20845.465156,-2442.679609,2374.896044,3701.029710
20845.465479,-3552.988522,-1072.533697,4885.359217
20845.465803,-3108.864956,-3753.867940,6809.894666
20845.466126,-3627.009116,-3524.039291,8808.450710
20845.466449,-4737.318029,-4060.306139,10066.800811
20845.466773,-3997.112087,-3370.820191,11177.109724
20845.467096,-1628.453072,-1532.190996,12065.356855
20845.467419,592.164754,995.924147,12657.521608
20845.467742,2072.576638,4443.353888,13175.665768
20845.468066,3256.906145,6435.202183,13101.645173
20845.468389,4145.153275,7584.345430,11991.336260
20845.468712,5181.441594,7277.907231,10955.047942
20845.469036,5181.441594,6435.202183,9770.718434
20845.469359,3701.029710,4903.011187,8216.285956
20845.469682,2146.597232,2221.676944,7179.997637
20845.470006,1406.391290,-1685.410096,6957.935855
20845.470329,-222.061783,-4290.134789,7550.100608
20845.470652,-2886.803174,-6128.763984,9474.636058
20845.470976,-3330.926739,-7431.126331,9696.697840
20845.471299,-4219.173869,-7967.393179,10066.800811
20845.471622,-4293.194464,-7124.688131,10436.903782
20845.471946,-3627.009116,-4443.353888,11399.171507
20845.472269,-1406.391290,-1532.190996,10807.006753
20845.472592,-962.267725,536.266849,9622.677246
20845.472916,-1628.453072,2987.772442,8660.409521
20845.473239,-1776.494261,3753.867940,8068.244768
20845.473562,-1184.329507,4979.620737,8142.265362
20845.473886,-1332.370696,4903.011187,7105.977043
20845.474209,-1702.473667,3753.867940,5107.421000
20845.474532,-1480.411884,1225.752797,3478.967927
20845.474856,-2368.659014,-1685.410096,4589.276840
20845.475179,-2220.617826,-4213.525239,5477.523971
20845.475502,-1850.514855,-6511.811733,7476.080014
20845.475826,-3182.885551,-9116.536426,8660.409521
20845.476149,-3849.070898,-9806.022374,9696.697840
20845.476472,-2516.700203,-10342.289223,11177.109724
20845.476796,-222.061783,-9269.755526,13027.624579
20845.477119,518.144159,-7048.078582,13915.871710
20845.477442,1924.535449,-3064.381992,13397.727550
20845.477766,3256.906145,-1149.143247,13175.665768
20845.478089,4071.132681,383.047749,12731.542202
20845.478412,4663.297435,2451.505594,11843.295072
20845.478736,6069.688724,3294.210641,10955.047942
20845.479059,5773.606348,2681.334243,8808.450710
20845.479382,5181.441594,1838.629195,7105.977043
20845.479706,4071.132681,-612.876398,6587.832884
20845.480029,1554.432478,-3830.477490,6809.894666
20845.480352,-962.267725,-5898.935335,7846.182985
20845.480676,-2442.679609,-7584.345430,9474.636058
20845.480999,-3849.070898,-8733.488677,10807.006753
20845.481322,-4737.318029,-8273.831378,11251.130318
20845.481646,-3701.029710,-6358.592633,11251.130318
20845.481969,-2442.679609,-3294.210641,12287.418637
20845.482292,-1628.453072,536.266849,11103.089130
20845.482616,0.000000,4060.306139,10436.903782
20845.482939,1110.308913,6511.811733,9696.697840
20845.483262,1036.288319,8733.488677,9030.512492
20845.483586,518.144159,10112.460574,7698.141797
20845.483909,888.247130,9882.631924,6217.729913
20845.484232,1036.288319,8273.831378,4367.215058
20845.484556,-296.082377,6358.592633,4071.132681
20845.484879,-2146.597232,3600.648841,4663.297435
20845.485202,-3923.091493,229.828649,5255.462188
20845.485526,-5403.503377,-2681.334243,6069.688724
20845.485849,-5181.441594,-4213.525239,7476.080014
20845.486172,-5329.482782,-4519.963438,7920.203579
20845.486496,-5255.462188,-4290.134789,9400.615463
20845.486819,-3923.091493,-2374.896044,10436.903782
20845.487142,-1406.391290,383.047749,10732.986159
20845.487466,1258.350101,3064.381992,11177.109724
20845.487789,2590.720797,5056.230287,10955.047942
20845.488112,3478.967927,5975.544884,10362.883188
20845.488436,3849.070898,6588.421283,10066.800811
20845.488759,5181.441594,6281.983084,9696.697840
20845.489082,5403.503377,4673.182538,8660.409521
20845.489406,4145.153275,2068.457845,7846.182985
20845.489729,666.185348,-995.924147,6217.729913
20845.490052,0.000000,-4596.572988,7476.080014
20845.490376,-1036.288319,-7201.297681,9178.553681
20845.490699,-2516.700203,-8044.002729,11399.171507
20845.491022,-3182.885551,-8197.221829,12657.521608
20845.491346,-2664.741391,-8120.612279,12065.356855
20845.491669,-1850.514855,-6971.469032,12065.356855
20845.491992,-444.123565,-3600.648841,13101.645173
20845.492316,1850.514855,-1149.143247,12731.542202
20845.492639,1554.432478,1608.800546,11843.295072
20845.492962,1036.288319,3370.820191,10214.842000
20845.493286,1850.514855,4366.744339,8808.450710
20845.493609,1850.514855,4903.011187,7846.182985
20845.493932,962.267725,4290.134789,6513.812290
20845.494256,222.061783,2451.505594,4663.297435
20845.494579,-518.144159,-459.657299,4293.194464
20845.494902,-1924.535449,-3064.381992,4293.194464
20845.495226,-2442.679609,-4979.620737,6217.729913
20845.495549,-3108.864956,-7354.516781,7624.121203
20845.495872,-5329.482782,-8886.707777,7179.997637
20845.496196,-5847.626942,-8886.707777,8142.265362
20845.496519,-3552.988522,-7277.907231,9696.697840
20845.496842,-888.247130,-4749.792088,11177.109724
20845.497166,370.102971,-2451.505594,11399.171507
20845.497489,1184.329507,76.609550,11325.150913
20845.497812,2294.638420,1762.019645,11325.150913
20845.498136,3404.947333,2451.505594,10658.965565
20845.498459,4145.153275,4443.353888,10288.862594
20845.498782,4367.215058,3677.258390,9548.656652
20845.499106,4145.153275,1762.019645,8512.368333
20845.499429,3404.947333,0.000000,8290.306550
20845.499752,1702.473667,-2221.676944,8586.388927
20845.500076,-74.020594,-3983.696590,9696.697840
20845.500399,-2220.617826,-5898.935335,10510.924376
20845.500722,-3775.050304,-7354.516781,11547.212695
20845.501046,-3478.967927,-7124.688131,12657.521608
20845.501369,-3108.864956,-4979.620737,13027.624579
20845.501692,-2960.823768,-2987.772442,12583.501014
20845.502016,-2368.659014,612.876398,11843.295072
20845.502339,-1332.370696,3600.648841,10066.800811
20845.502662,-1332.370696,5745.716235,8734.430116
20845.502986,-814.226536,7814.174080,7624.121203
20845.503309,0.000000,9576.193725,6365.771101
20845.503632,518.144159,9576.193725,4589.276840
20845.503956,-370.102971,7431.126331,3997.112087
20845.504279,-1258.350101,5515.887586,3182.885551
20845.504602,-1628.453072,2834.553343,3034.844362
20845.504926,-2442.679609,383.047749,4589.276840
20845.505249,-3478.967927,-1838.629195,5921.647536
20845.505572,-4293.194464,-3907.087040,6809.894666
20845.505895,-4071.132681,-4749.792088,7254.018232
20845.506219,-2294.638420,-3907.087040,8438.347739
20845.506542,-1480.411884,-2374.896044,10436.903782
20845.506865,-296.082377,-689.485948,11251.130318
20845.507189,2590.720797,1532.190996,11769.274478
20845.507512,4885.359217,3983.696590,12583.501014
20845.507835,5773.606348,5362.668486,11399.171507
20845.508159,5551.544565,5592.497135,10288.862594
20845.508482,5477.523971,4596.572988,9992.780217
20845.508805,5773.606348,3294.210641,9548.656652
20845.509129,5477.523971,1149.143247,9770.718434
20845.509452,3182.885551,-1838.629195,9918.759623
20845.509775,-962.267725,-4290.134789,10066.800811
20845.510099,-2886.803174,-7354.516781,10140.821405
20845.510422,-2590.720797,-8350.440928,11769.274478
20845.510745,-3182.885551,-8427.050478,12435.459826
20845.511069,-4515.256246,-7584.345430,12213.398043
20845.511392,-3775.050304,-5822.325785,12065.356855
20845.511715,-2072.576638,-3907.087040,11399.171507
20845.512039,-1184.329507,-306.438199,10658.965565
20845.512362,-148.041188,2604.724693,9474.636058
20845.512685,-222.061783,4136.915689,8660.409521
20845.513009,-222.061783,5669.106685,6957.935855
20845.513332,888.247130,5822.325785,5921.647536
20845.513655,1554.432478,4443.353888,5477.523971
20845.513979,-740.205942,2451.505594,4145.153275
20845.514302,-2590.720797,459.657299,3108.864956
20845.514625,-2294.638420,-3294.210641,3330.926739
20845.514949,-2294.638420,-4826.401637,6883.915261
20845.515272,-3478.967927,-6128.763984,7846.182985
20845.515595,-4145.153275,-6894.859482,8586.388927
20845.515919,-3330.926739,-7737.564530,9252.574275
20845.516242,-3034.844362,-6281.983084,9992.780217
20845.516565,-962.267725,-3524.039291,12139.377449
20845.516889,1258.350101,-1762.019645,12657.521608
20845.517212,1702.473667,76.609550,12435.459826
20845.517535,2368.659014,2298.286494,12065.356855
20845.517859,3108.864956,2987.772442,11769.274478
20845.518182,3404.947333,3294.210641,10955.047942
20845.518505,3256.906145,2987.772442,9622.677246
20845.518829,3478.967927,1915.238745,8882.471304
20845.519152,1924.535449,-229.828649,8512.368333
20845.519475,444.123565,-2298.286494,8734.430116
20845.519799,0.000000,-3524.039291,9474.636058
20845.520122,-1258.350101,-5056.230287,10140.821405
20845.520445,-4293.194464,-6205.373534,10955.047942
20845.520769,-3849.070898,-5515.887586,11547.212695
20845.521092,-1554.432478,-3907.087040,11843.295072
20845.521415,-1554.432478,-1991.848295,11547.212695
20845.521739,-1480.411884,995.924147,9992.780217
20845.522062,-592.164754,3677.258390,8586.388927
20845.522385,0.000000,5898.935335,7920.203579
20845.522709,148.041188,8044.002729,7031.956449
20845.523032,1554.432478,9422.974625,6587.832884
20845.523355,1184.329507,8733.488677,5329.482782
20845.523679,814.226536,7048.078582,3552.988522
20845.524002,888.247130,5132.839837,3627.009116
20845.524325,-888.247130,2145.067394,3849.070898
20845.524649,-2146.597232,0.000000,4737.318029
20845.524972,-3182.885551,-2987.772442,6809.894666
20845.525295,-4441.235652,-4519.963438,7846.182985
20845.525619,-4441.235652,-5515.887586,9252.574275
20845.525942,-3552.988522,-5439.278036,10436.903782
20845.526265,-2368.659014,-2987.772442,11769.274478
20845.526589,-1036.288319,-2298.286494,12361.439231
20845.526912,370.102971,76.609550,11991.336260
20845.527235,2368.659014,1838.629195,12657.521608
20845.527559,3552.988522,3753.867940,12139.377449
20845.527882,4589.276840,4443.353888,10955.047942
20845.528205,4885.359217,3830.477490,9844.739029
20845.528529,4441.235652,2298.286494,8956.491898
20845.528852,3923.091493,612.876398,8882.471304
20845.529175,2516.700203,-1991.848295,8956.491898
20845.529499,74.020594,-4673.182538,9474.636058
20845.529822,-2368.659014,-6971.469032,10436.903782
20845.530145,-4219.173869,-8656.879127,11325.150913
20845.530469,-3775.050304,-9193.145976,11547.212695
20845.530792,-3701.029710,-8044.002729,11621.233289
20845.531115,-2664.741391,-5515.887586,11621.233289
20845.531439,-2368.659014,-2987.772442,10955.047942
20845.531762,-962.267725,306.438199,10140.821405
20845.532085,148.041188,2451.505594,9696.697840
20845.532409,592.164754,4596.572988,8512.368333
20845.532732,222.061783,5362.668486,7105.977043
20845.533055,0.000000,5515.887586,5255.462188
20845.533379,1702.473667,4290.134789,4589.276840
20845.533702,888.247130,2451.505594,3701.029710
20845.534025,-1998.556043,842.705048,3923.091493
20845.534349,-3108.864956,-2987.772442,4515.256246
20845.534672,-3182.885551,-4979.620737,5921.647536
20845.534995,-3256.906145,-6588.421283,7772.162391
20845.535319,-3552.988522,-6971.469032,9474.636058
20845.535642,-3552.988522,-6665.030833,10288.862594
20845.535965,-2368.659014,-6128.763984,10807.006753
20845.536289,148.041188,-3524.039291,12731.542202
20845.536612,2368.659014,-766.095498,12657.521608
20845.536935,3108.864956,1378.971896,12953.603985
20845.537259,3478.967927,2911.162892,12361.439231
20845.537582,4737.318029,3907.087040,11103.089130
20845.537905,5329.482782,3983.696590,10066.800811
20845.538229,4441.235652,3140.991542,9326.594869
20845.538552,2516.700203,1838.629195,8438.347739
20845.538875,1406.391290,0.000000,7254.018232
20845.539199,222.061783,-2834.553343,8660.409521
20845.539522,-962.267725,-4443.353888,9622.677246
20845.539845,-2368.659014,-5056.230287,10436.903782
20845.540169,-3404.947333,-5898.935335,11473.192101
20845.540492,-3923.091493,-5209.449386,10807.006753
20845.540815,-3108.864956,-3447.429741,10807.006753
20845.541139,-1406.391290,-2298.286494,11621.233289
20845.541462,-888.247130,1149.143247,10584.944971
20845.541786,-814.226536,4136.915689,9326.594869
20845.542109,-444.123565,6205.373534,7920.203579
20845.542432,148.041188,7354.516781,6809.894666
20845.542756,-296.082377,9116.536426,6217.729913
20845.543079,370.102971,7124.688131,4663.297435
20845.543402,148.041188,6128.763984,3182.885551
20845.543726,-1184.329507,3907.087040,2664.741391
20845.544049,-2146.597232,995.924147,4293.194464
20845.544373,-2368.659014,-1915.238745,5477.523971
20845.544696,-3701.029710,-4060.306139,6587.832884
20845.545019,-5255.462188,-4979.620737,8586.388927
20845.545343,-3997.112087,-5745.716235,9474.636058
20845.545666,-1628.453072,-5515.887586,11399.171507
20845.545989,-1110.308913,-5132.839837,12953.603985
20845.546313,0.000000,-1915.238745,12657.521608
20845.546636,1702.473667,-306.438199,12805.562797
20845.546960,2590.720797,842.705048,12805.562797
20845.547283,4071.132681,3140.991542,12139.377449
20845.547606,5255.462188,3753.867940,11103.089130
20845.547930,5181.441594,2987.772442,9992.780217
20845.548253,5329.482782,2528.115143,9104.533087
20845.548577,3849.070898,0.000000,8068.244768
20845.548900,2368.659014,-3294.210641,8364.327145
20845.549223,-148.041188,-5362.668486,9474.636058
20845.549547,-1998.556043,-6818.249932,10214.842000
20845.549870,-3330.926739,-8580.269578,11547.212695
20845.550193,-4293.194464,-8503.660028,11251.130318
20845.550517,-3627.009116,-7584.345430,10732.986159
20845.550840,-2072.576638,-4826.401637,11769.274478
20845.551164,-1850.514855,-2221.676944,11325.150913
20845.551487,-888.247130,919.314598,10066.800811
20845.551810,666.185348,2757.943793,9178.553681
20845.552134,962.267725,5286.058936,7994.224174
20845.552457,1184.329507,7431.126331,6957.935855
20845.552780,666.185348,6128.763984,5403.503377
20845.553104,814.226536,4060.306139,3404.947333
20845.553427,0.000000,2834.553343,3330.926739
20845.553751,-1036.288319,229.828649,4441.235652
20845.554074,-3182.885551,-2528.115143,5403.503377
20845.554397,-5255.462188,-5439.278036,6365.771101
20845.554721,-5699.585753,-7277.907231,7846.182985
20845.555044,-4515.256246,-7354.516781,9622.677246
20845.555367,-4071.132681,-7354.516781,11769.274478
20845.555691,-3330.926739,-5515.887586,11917.315666
20845.556014,0.000000,-3064.381992,12509.480420
20845.556338,2812.782580,-306.438199,12583.501014
20845.556661,4219.173869,2298.286494,12509.480420
20845.556984,5329.482782,4443.353888,12139.377449
20845.557308,5847.626942,4903.011187,11325.150913
20845.557631,6069.688724,5132.839837,9474.636058
20845.557954,6587.832884,4136.915689,9030.512492
20845.558278,4959.379811,1532.190996,8734.430116
20845.558601,1480.411884,-536.266849,7846.182985
20845.558925,-296.082377,-3140.991542,7772.162391
20845.559248,-962.267725,-5286.058936,8956.491898
20845.559571,-2886.803174,-6052.154434,11177.109724
20845.559895,-4811.338623,-5669.106685,11103.089130
20845.560218,-4515.256246,-5209.449386,10436.903782
20845.560542,-3404.947333,-4903.011187,10955.047942
20845.560865,-3034.844362,-1302.362347,10658.965565
20845.561188,-1332.370696,1762.019645,10214.842000
20845.561512,-740.205942,3677.258390,9326.594869
20845.561835,-1184.329507,6281.983084,7402.059420
20845.562158,0.000000,7890.783629,6661.853478
20845.562482,814.226536,7660.954980,6069.688724
20845.562805,74.020594,6971.469032,5403.503377
20845.563129,-370.102971,5592.497135,3849.070898
20845.563452,-888.247130,2451.505594,4219.173869
20845.563775,-1702.473667,-459.657299,4737.318029
20845.564099,-2294.638420,-1685.410096,6661.853478
20845.564422,-2294.638420,-4826.401637,7772.162391
20845.564745,-3404.947333,-6128.763984,8364.327145
20845.565069,-4441.235652,-5209.449386,9474.636058
20845.565392,-2294.638420,-5209.449386,11177.109724
20845.565716,0.000000,-3524.039291,12953.603985
20845.566039,666.185348,-1072.533697,12583.501014
20845.566362,1406.391290,1072.533697,11769.274478
20845.566686,3034.844362,2604.724693,11177.109724
20845.567009,3330.926739,3217.601092,10732.986159
20845.567332,3627.009116,3447.429741,10140.821405
20845.567656,4293.194464,3294.210641,9326.594869
20845.567979,3404.947333,1532.190996,8364.327145
20845.568303,2368.659014,-689.485948,8216.285956
20845.568626,1480.411884,-3447.429741,8808.450710
20845.568949,-148.041188,-5898.935335,8956.491898
20845.569273,-3034.844362,-7124.688131,10807.006753
20845.569596,-3849.070898,-8273.831378,12287.418637
20845.569919,-3108.864956,-8044.002729,11991.336260
20845.570243,-2590.720797,-7354.516781,12213.398043
20845.570566,-2664.741391,-4443.353888,11769.274478
20845.570890,-1110.308913,-1455.581446,11029.068536
20845.571213,-518.144159,1378.971896,10288.862594
20845.571536,74.020594,3907.087040,9104.533087
20845.571860,1036.288319,6511.811733,7698.141797
20845.572183,1110.308913,7277.907231,6883.915261
20845.572507,1110.308913,6435.202183,5551.544565
20845.572830,222.061783,5056.230287,3923.091493
20845.573153,-444.123565,2911.162892,3182.885551
20845.573477,-1554.432478,-536.266849,3849.070898
20845.573800,-2146.597232,-1991.848295,5033.400406
20845.574123,-3923.091493,-3983.696590,6587.832884
20845.574447,-4663.297435,-6358.592633,7846.182985
20845.574770,-4367.215058,-7124.688131,8734.430116
20845.575094,-2886.803174,-6128.763984,10214.842000
20845.575417,-1554.432478,-3830.477490,11843.295072
20845.575740,0.000000,-1838.629195,12287.418637
20845.576064,2294.638420,306.438199,12139.377449
20845.576387,4071.132681,3447.429741,12435.459826
20845.576710,5847.626942,5056.230287,11843.295072
20845.577034,4737.318029,5439.278036,10658.965565
20845.577357,4737.318029,4673.182538,9844.739029
20845.577681,4441.235652,3524.039291,9030.512492
20845.578004,3923.091493,1378.971896,8956.491898
20845.578327,1036.288319,-1455.581446,8512.368333
20845.578651,-1998.556043,-3677.258390,8216.285956
20845.578974,-4441.235652,-6818.249932,8660.409521
20845.579297,-4219.173869,-7660.954980,10436.903782
20845.579621,-4145.153275,-7048.078582,12435.459826
20845.579944,-4293.194464,-5515.887586,11843.295072
20845.580268,-3330.926739,-4060.306139,11103.089130
20845.580591,-1036.288319,-1225.752797,11103.089130
20845.580914,74.020594,1991.848295,10658.965565
20845.581238,444.123565,5209.449386,9622.677246
20845.581561,888.247130,7277.907231,8364.327145
20845.581884,666.185348,8350.440928,6217.729913
20845.582208,1554.432478,8273.831378,5255.462188
20845.582531,1702.473667,6741.640382,4737.318029
20845.582855,-814.226536,4136.915689,3849.070898
20845.583178,-2590.720797,1378.971896,2886.803174
20845.583501,-2368.659014,-1455.581446,4071.132681
20845.583825,-3627.009116,-3753.867940,5847.626942
20845.584148,-4737.318029,-5362.668486,8216.285956
20845.584472,-4737.318029,-6665.030833,8734.430116
20845.584795,-4367.215058,-7048.078582,9770.718434
20845.585118,-2960.823768,-5669.106685,11325.150913
20845.585442,-370.102971,-2834.553343,12287.418637
20845.585765,1924.535449,-1072.533697,13397.727550
20845.586088,2590.720797,1225.752797,12509.480420
20845.586412,3849.070898,3294.210641,11917.315666
20845.586735,5107.421000,3677.258390,11251.130318
20845.587059,4885.359217,3524.039291,10658.965565
20845.587382,4885.359217,3140.991542,9104.533087
20845.587705,4589.276840,1838.629195,8586.388927
20845.588029,2886.803174,-612.876398,8660.409521
20845.588352,1776.494261,-3447.429741,8734.430116
20845.588675,0.000000,-5592.497135,9178.553681
20845.588999,-1776.494261,-7507.735880,10214.842000
20845.589322,-4219.173869,-7737.564530,11251.130318
20845.589646,-3552.988522,-7354.516781,11991.336260
20845.589969,-2146.597232,-5898.935335,11917.315666
20845.590292,-1184.329507,-3370.820191,11695.253884
20845.590616,-1406.391290,0.000000,9918.759623
20845.590939,-592.164754,2987.772442,9104.533087
20845.591262,-370.102971,4826.401637,8512.368333
20845.591586,-222.061783,6665.030833,7328.038826
20845.591909,148.041188,7584.345430,6587.832884
20845.592233,666.185348,6358.592633,5995.668130
20845.592556,-444.123565,5362.668486,4293.194464
20845.592879,-1110.308913,3064.381992,4293.194464
20845.593203,-1554.432478,0.000000,4367.215058
20845.593526,-3108.864956,-2604.724693,6069.688724
20845.593849,-4663.297435,-4826.401637,7402.059420
20845.594173,-4959.379811,-6435.202183,8660.409521
20845.594496,-4071.132681,-7048.078582,9696.697840
20845.594820,-3108.864956,-5822.325785,10436.903782
20845.595143,-962.267725,-4060.306139,11621.233289
20845.595466,666.185348,-1608.800546,12213.398043
20845.595790,1924.535449,153.219100,12139.377449
20845.596113,3478.967927,3140.991542,11843.295072
20845.596437,5033.400406,4903.011187,11473.192101
20845.596760,5625.565159,5056.230287,10658.965565
20845.597083,4959.379811,4903.011187,9844.739029
20845.597407,4589.276840,3753.867940,8290.306550
20845.597730,3849.070898,1149.143247,8438.347739
20845.598053,1776.494261,-1838.629195,8586.388927
20845.598377,-592.164754,-4060.306139,9252.574275
20845.598700,-2960.823768,-6128.763984,9474.636058
20845.599024,-5033.400406,-8120.612279,10140.821405
20845.599347,-4737.318029,-7814.174080,10732.986159
20845.599670,-3108.864956,-5975.544884,11769.274478
20845.599994,-2886.803174,-3294.210641,11547.212695
20845.600317,-1998.556043,-612.876398,10584.944971
20845.600640,0.000000,1455.581446,9696.697840
20845.600964,1628.453072,4596.572988,9178.553681
20845.601287,1406.391290,7124.688131,8438.347739
20845.601611,1036.288319,7890.783629,7402.059420
20845.601934,1184.329507,8197.221829,5921.647536
20845.602257,2072.576638,6511.811733,4367.215058
20845.602581,1184.329507,4596.572988,4811.338623
20845.602904,-1998.556043,1225.752797,4589.276840
20845.603227,-3552.988522,-1762.019645,4589.276840
20845.603551,-3404.947333,-4443.353888,6069.688724
20845.603874,-3182.885551,-5669.106685,8142.265362
20845.604198,-4515.256246,-6128.763984,9400.615463
20845.604521,-4145.153275,-6894.859482,9326.594869
20845.604844,-2590.720797,-5515.887586,11029.068536
20845.605168,-888.247130,-3370.820191,11991.336260
20845.605491,1998.556043,-229.828649,11991.336260
20845.605814,2664.741391,1915.238745,12583.501014
20845.606138,2590.720797,2987.772442,11325.150913
20845.606461,3330.926739,3983.696590,10436.903782
20845.606785,4737.318029,3294.210641,10658.965565
20845.607108,4145.153275,2681.334243,9474.636058
20845.607431,3182.885551,1532.190996,8290.306550
20845.607755,1850.514855,-1455.581446,8290.306550
20845.608078,518.144159,-3983.696590,8586.388927
20845.608402,-222.061783,-5286.058936,10140.821405
20845.608725,-1258.350101,-6588.421283,11177.109724
20845.609048,-2960.823768,-7737.564530,11325.150913
20845.609372,-3627.009116,-7507.735880,11103.089130
20845.609695,-2442.679609,-6052.154434,11991.336260
20845.610018,-666.185348,-3294.210641,12287.418637
20845.610342,-740.205942,0.000000,11621.233289
20845.610665,-1036.288319,2681.334243,9844.739029
20845.610989,-592.164754,4443.353888,7994.224174
20845.611312,-148.041188,5362.668486,7328.038826
20845.611635,0.000000,6511.811733,6587.832884
20845.611959,-592.164754,7124.688131,5477.523971
20845.612282,-296.082377,4366.744339,3701.029710
20845.612605,-1628.453072,2145.067394,2886.803174
20845.612929,-1628.453072,0.000000,4219.173869
20845.613252,-1998.556043,-2451.505594,5625.565159
20845.613576,-3404.947333,-4443.353888,6809.894666
20845.613899,-4737.318029,-5209.449386,8290.306550
20845.614222,-3256.906145,-5745.716235,9178.553681
20845.614546,-1776.494261,-6205.373534,10436.903782
20845.614869,-1406.391290,-3983.696590,11547.212695
20845.615192,222.061783,-1838.629195,11917.315666
20845.615516,2146.597232,306.438199,12213.398043
20845.615839,2812.782580,2451.505594,12139.377449
20845.616163,4145.153275,4749.792088,11325.150913
20845.616486,4737.318029,4596.572988,10214.842000
20845.616809,4737.318029,3907.087040,9548.656652
20845.617133,3627.009116,3677.258390,8734.430116
20845.617456,3701.029710,995.924147,8512.368333
20845.617779,1776.494261,-2145.067394,8586.388927
20845.618103,-592.164754,-4366.744339,9400.615463
20845.618426,-2368.659014,-5592.497135,10140.821405
20845.618750,-3775.050304,-7890.783629,11399.171507
20845.619073,-4885.359217,-8044.002729,11325.150913
20845.619396,-2812.782580,-6358.592633,11399.171507
20845.619720,-2442.679609,-3983.696590,11843.295072
20845.620043,-2220.617826,-1378.971896,11547.212695
20845.620367,-518.144159,1685.410096,10732.986159
20845.620690,444.123565,4903.011187,9548.656652
20845.621013,370.102971,7354.516781,7624.121203
20845.621337,888.247130,8197.221829,6809.894666
20845.621660,0.000000,7354.516781,5403.503377
20845.621983,0.000000,5975.544884,3849.070898
20845.622307,444.123565,3677.258390,3108.864956
20845.622630,-962.267725,1455.581446,4367.215058
20845.622954,-3701.029710,-1149.143247,4737.318029
20845.623277,-4737.318029,-3524.039291,5477.523971
20845.623600,-3701.029710,-6511.811733,7476.080014
20845.623924,-3775.050304,-7048.078582,8660.409521
20845.624247,-4293.194464,-6128.763984,10658.965565
20845.624570,-2442.679609,-5515.887586,11251.130318
20845.624894,0.000000,-3600.648841,12213.398043
20845.625217,2368.659014,-1149.143247,12657.521608
20845.625541,2812.782580,2221.676944,13027.624579
20845.625864,3849.070898,2604.724693,12509.480420
20845.626187,3552.988522,3370.820191,11177.109724
20845.626511,4737.318029,3294.210641,10584.944971
20845.626834,5033.400406,2145.067394,10140.821405
20845.627157,2886.803174,842.705048,9622.677246
20845.627481,740.205942,-1762.019645,8438.347739
20845.627804,-518.144159,-3907.087040,8364.327145
20845.628128,-962.267725,-5975.544884,9770.718434
20845.628451,-2442.679609,-6588.421283,11621.233289
20845.628774,-3923.091493,-7048.078582,11177.109724
20845.629098,-2886.803174,-6741.640382,11029.068536
20845.629421,-2368.659014,-4903.011187,11325.150913
20845.629744,-1406.391290,-1455.581446,11177.109724
20845.630068,296.082377,842.705048,10881.027347
20845.630391,444.123565,3524.039291,9474.636058
20845.630715,0.000000,6128.763984,7476.080014
20845.631038,888.247130,7124.688131,6513.812290
20845.631361,592.164754,6741.640382,6069.688724
20845.631685,-222.061783,6435.202183,4441.235652
20845.632008,0.000000,5362.668486,3478.967927
20845.632332,-740.205942,2911.162892,3849.070898
20845.632655,-2220.617826,0.000000,3775.050304
20845.632978,-2368.659014,-1302.362347,5773.606348
20845.633302,-2590.720797,-4673.182538,7179.997637
20845.633625,-4885.359217,-6052.154434,7772.162391
20845.633948,-4589.276840,-6588.421283,9844.739029
20845.634272,-1924.535449,-6205.373534,11769.274478
20845.634595,0.000000,-4443.353888,12805.562797
20845.634919,1332.370696,-1532.190996,12953.603985
20845.635242,2960.823768,995.924147,12509.480420
20845.635565,3404.947333,2298.286494,12583.501014
20845.635889,4219.173869,3370.820191,11843.295072
20845.636212,4959.379811,4290.134789,11251.130318
20845.636535,5181.441594,3677.258390,10288.862594
20845.636859,4737.318029,2298.286494,9252.574275
20845.637182,3849.070898,842.705048,9030.512492
20845.637506,1628.453072,-2145.067394,7698.141797
20845.637829,-888.247130,-4060.306139,8882.471304
20845.638152,-3182.885551,-6052.154434,9696.697840
20845.638476,-4515.256246,-7660.954980,10807.006753
20845.638799,-4515.256246,-7967.393179,11325.150913
20845.639122,-4959.379811,-7201.297681,10658.965565
20845.639446,-3701.029710,-4596.572988,10732.986159
20845.639769,-2368.659014,-1762.019645,10362.883188
20845.640093,-1258.350101,1608.800546,9400.615463
20845.640416,-666.185348,4136.915689,8512.368333
20845.640740,0.000000,5975.544884,7772.162391
20845.641063,1258.350101,6741.640382,6957.935855
20845.641387,1332.370696,6665.030833,6069.688724
20845.641710,296.082377,5515.887586,4663.297435
20845.642034,0.000000,4136.915689,3330.926739
20845.642357,-296.082377,-76.609550,4737.318029
20845.642681,-1628.453072,-1762.019645,6439.791695
20845.643004,-3552.988522,-4060.306139,7179.997637
20845.643328,-5033.400406,-6358.592633,8364.327145
20845.643651,-4441.235652,-7737.564530,8882.471304
20845.643975,-3034.844362,-7277.907231,10288.862594
20845.644298,-2146.597232,-4979.620737,12287.418637
20845.644622,-592.164754,-2451.505594,13027.624579
20845.644945,1924.535449,-229.828649,12435.459826
20845.645268,4589.276840,1915.238745,12805.562797
20845.645592,5551.544565,4060.306139,11917.315666
20845.645915,5329.482782,4903.011187,11103.089130
20845.646239,5033.400406,4826.401637,10066.800811
20845.646562,5699.585753,3217.601092,9030.512492
20845.646886,4885.359217,1915.238745,8734.430116
20845.647209,1924.535449,-612.876398,8216.285956
20845.647533,-1628.453072,-3370.820191,8438.347739
20845.647856,-2960.823768,-5669.106685,9474.636058
20845.648180,-3330.926739,-7431.126331,10140.821405
20845.648503,-4293.194464,-7354.516781,11621.233289
20845.648827,-4737.318029,-6205.373534,11547.212695
20845.649150,-3849.070898,-4749.792088,10807.006753
20845.649474,-1924.535449,-2528.115143,10510.924376
20845.649797,-592.164754,1225.752797,9622.677246
20845.650121,0.000000,4290.134789,9326.594869
20845.650444,74.020594,5898.935335,7846.182985
20845.650768,222.061783,7048.078582,6809.894666
20845.651091,1480.411884,7201.297681,6291.750507
20845.651415,1332.370696,5898.935335,4959.379811
20845.651738,0.000000,4136.915689,3997.112087
20845.652062,-1258.350101,2145.067394,4071.132681
20845.652385,-1036.288319,-383.047749,4959.379811
20845.652709,-2220.617826,-2604.724693,6883.915261
20845.653032,-2886.803174,-4213.525239,8438.347739
20845.653355,-2960.823768,-5669.106685,8956.491898
20845.653679,-3256.906145,-5822.325785,9622.677246
20845.654002,-3108.864956,-5362.668486,10807.006753
20845.654326,-666.185348,-3064.381992,12361.439231
20845.654649,1554.432478,-1685.410096,12805.562797
20845.654973,1702.473667,383.047749,12731.542202
20845.655296,1554.432478,2681.334243,11843.295072
20845.655620,2368.659014,3294.210641,10881.027347
20845.655943,3034.844362,2911.162892,9992.780217
20845.656267,3108.864956,2681.334243,9104.533087
20845.656590,2960.823768,2451.505594,8438.347739
20845.656914,2072.576638,-766.095498,8364.327145
20845.657237,740.205942,-2221.676944,8660.409521
20845.657561,518.144159,-3983.696590,9548.656652
20845.657884,-1258.350101,-5822.325785,10658.965565
20845.658208,-3627.009116,-6665.030833,11103.089130
20845.658531,-2960.823768,-6435.202183,11029.068536
20845.658855,-1332.370696,-5745.716235,11251.130318
20845.659178,-1110.308913,-3217.601092,11547.212695
20845.659502,-962.267725,-229.828649,10658.965565
20845.659825,-222.061783,2298.286494,9696.697840
20845.660149,-518.144159,4136.915689,8808.450710
20845.660472,-592.164754,5898.935335,7624.121203
20845.660796,0.000000,7507.735880,6883.915261
20845.661119,0.000000,6818.249932,5625.565159
20845.661442,-666.185348,5822.325785,3627.009116
20845.661766,-1702.473667,2528.115143,3182.885551
20845.662089,-1998.556043,306.438199,4441.235652
20845.662413,-3108.864956,-1762.019645,5551.544565
20845.662736,-4737.318029,-3830.477490,7179.997637
20845.663060,-4885.359217,-5822.325785,8512.368333
20845.663383,-4737.318029,-7124.688131,9770.718434
20845.663707,-3034.844362,-6511.811733,10510.924376
20845.664030,-592.164754,-4903.011187,12213.398043
20845.664354,74.020594,-2528.115143,12805.562797
20845.664677,1332.370696,0.000000,12139.377449
20845.665001,3775.050304,2451.505594,12805.562797
20845.665324,5403.503377,3753.867940,12287.418637
20845.665648,5033.400406,4673.182538,10807.006753
20845.665971,4737.318029,4136.915689,9400.615463
20845.666295,4737.318029,3217.601092,7920.203579
20845.666618,3997.112087,1072.533697,7846.182985
20845.666942,2664.741391,-1149.143247,8734.430116
20845.667265,-222.061783,-3600.648841,8660.409521
20845.667589,-2960.823768,-6052.154434,8882.471304
20845.667912,-4219.173869,-7584.345430,9844.739029
20845.668236,-3404.947333,-7277.907231,11843.295072
20845.668559,-3108.864956,-6435.202183,11843.295072
20845.668883,-2812.782580,-4596.572988,10732.986159
20845.669206,-1332.370696,-1991.848295,10881.027347
20845.669529,148.041188,1225.752797,10436.903782
20845.669853,1480.411884,4519.963438,9474.636058
20845.670176,1628.453072,6588.421283,8882.471304
20845.670500,0.000000,7354.516781,7402.059420
20845.670823,592.164754,7737.564530,5255.462188
20845.671147,1480.411884,5898.935335,4515.256246
20845.671470,0.000000,3524.039291,4145.153275
20845.671794,-3256.906145,1532.190996,3997.112087
20845.672117,-4145.153275,-919.314598,3923.091493
20845.672441,-3404.947333,-3677.258390,6143.709319
20845.672764,-4737.318029,-5515.887586,7994.224174
20845.673088,-5181.441594,-5515.887586,8882.471304
20845.673411,-4441.235652,-6358.592633,9474.636058
20845.673735,-2590.720797,-5745.716235,11103.089130
20845.674058,-814.226536,-3140.991542,12213.398043
20845.674382,2072.576638,-689.485948,12879.583391
20845.674705,3330.926739,1685.410096,12879.583391
20845.675029,3330.926739,3753.867940,11769.274478
20845.675352,4367.215058,4290.134789,11029.068536
20845.675676,5255.462188,3064.381992,10066.800811
20845.675999,4885.359217,2987.772442,9104.533087
20845.676323,3108.864956,2374.896044,8364.327145
20845.676646,1998.556043,0.000000,7698.141797
20845.676970,296.082377,-2987.772442,8364.327145
20845.677293,-444.123565,-4979.620737,9992.780217
20845.677617,-1924.535449,-5745.716235,10584.944971
20845.677940,-4589.276840,-6358.592633,10658.965565
20845.678263,-4515.256246,-7124.688131,11621.233289
20845.678587,-3478.967927,-5362.668486,11769.274478
20845.678910,-1702.473667,-3140.991542,11843.295072
20845.679234,-1184.329507,0.000000,10807.006753
20845.679557,-1332.370696,2528.115143,9178.553681
20845.679881,-296.082377,4826.401637,7772.162391
20845.680204,296.082377,6205.373534,7772.162391
20845.680528,0.000000,7201.297681,6809.894666
20845.680851,444.123565,6511.811733,5773.606348
20845.681175,740.205942,4596.572988,3849.070898
20845.681498,0.000000,2528.115143,3849.070898
20845.681822,-592.164754,383.047749,4663.297435
20845.682145,-2220.617826,-2068.457845,5403.503377
20845.682469,-3034.844362,-4366.744339,7402.059420
20845.682792,-4367.215058,-5286.058936,8956.491898
20845.683116,-2738.761985,-7048.078582,9696.697840
20845.683439,-1702.473667,-6435.202183,11251.130318
20845.683763,0.000000,-4979.620737,11473.192101
20845.684086,2294.638420,-1685.410096,11843.295072
20845.684410,3552.988522,766.095498,11695.253884
20845.684733,3849.070898,2987.772442,11769.274478
20845.685057,4811.338623,4060.306139,11695.253884
20845.685380,5255.462188,4136.915689,10658.965565
20845.685704,5329.482782,3677.258390,9992.780217
20845.686027,4367.215058,2604.724693,9252.574275
20845.686350,2738.761985,306.438199,8512.368333
20845.686674,1110.308913,-1685.410096,7624.121203
20845.686997,-814.226536,-4673.182538,9030.512492
20845.687321,-3552.988522,-6205.373534,9918.759623
20845.687644,-6143.709319,-7660.954980,10584.944971
20845.687968,-5847.626942,-8350.440928,10955.047942
20845.688291,-4071.132681,-6971.469032,11029.068536
20845.688615,-3849.070898,-4826.401637,11399.171507
20845.688938,-3330.926739,-1838.629195,10955.047942
20845.689262,-1332.370696,1072.533697,10140.821405
20845.689585,0.000000,4519.963438,9326.594869
20845.689909,740.205942,6818.249932,8586.388927
20845.690232,370.102971,7507.735880,7402.059420
20845.690556,0.000000,7048.078582,6217.729913
20845.690879,814.226536,6052.154434,4737.318029
20845.691203,1332.370696,4136.915689,3849.070898
20845.691526,-740.205942,1915.238745,4663.297435
20845.691850,-3701.029710,-689.485948,4737.318029
20845.692173,-4219.173869,-3830.477490,5477.523971
20845.692497,-4219.173869,-5975.544884,7476.080014
20845.692820,-4589.276840,-6358.592633,9104.533087
20845.693144,-4293.194464,-6435.202183,9918.759623
20845.693467,-2738.761985,-5439.278036,10732.986159
20845.693791,-518.144159,-2987.772442,11547.212695
20845.694114,1554.432478,0.000000,12213.398043
20845.694437,3404.947333,2451.505594,13027.624579
20845.694761,3182.885551,3370.820191,11769.274478
20845.695084,3997.112087,4136.915689,10584.944971
20845.695408,5699.585753,4136.915689,10066.800811
20845.695731,5625.565159,3217.601092,9474.636058
20845.696055,3997.112087,1991.848295,7920.203579
20845.696378,2886.803174,-766.095498,7328.038826
20845.696702,666.185348,-3447.429741,8512.368333
20845.697025,-888.247130,-5669.106685,9844.739029
20845.697349,-2072.576638,-6588.421283,11695.253884
20845.697672,-2886.803174,-7354.516781,12139.377449
20845.697996,-3552.988522,-7431.126331,11621.233289
20845.698319,-2886.803174,-5592.497135,11399.171507
20845.698643,-1110.308913,-3140.991542,11547.212695
20845.698966,370.102971,0.000000,10955.047942
20845.699290,1036.288319,3524.039291,9992.780217
20845.699613,222.061783,5439.278036,8290.306550
20845.699937,74.020594,6894.859482,7328.038826
20845.700260,666.185348,7124.688131,6143.709319
20845.700584,518.144159,6741.640382,4663.297435
20845.700907,222.061783,4903.011187,3256.906145
20845.701231,-592.164754,3064.381992,3552.988522
20845.701554,-2220.617826,383.047749,3923.091493
20845.701878,-2368.659014,-2298.286494,5255.462188
20845.702201,-3330.926739,-4596.572988,7402.059420
20845.702524,-5107.421000,-6128.763984,8512.368333
20845.702848,-5847.626942,-6971.469032,9400.615463
20845.703171,-3478.967927,-6435.202183,10732.986159
20845.703495,-1258.350101,-4136.915689,12953.603985
20845.703818,-296.082377,-2068.457845,12213.398043
20845.704142,740.205942,153.219100,11843.295072
20845.704465,2516.700203,1455.581446,11621.233289
20845.704789,3330.926739,3217.601092,11399.171507
20845.705112,4293.194464,4519.963438,11251.130318
20845.705436,5107.421000,3753.867940,10140.821405
20845.705759,4959.379811,2145.067394,9178.553681
20845.706083,3404.947333,153.219100,7994.224174
20845.706406,2072.576638,-2298.286494,8438.347739
20845.706730,-222.061783,-5209.449386,9992.780217
20845.707053,-2368.659014,-6665.030833,11251.130318
20845.707377,-3775.050304,-7967.393179,11917.315666
20845.707700,-4219.173869,-8963.317327,12731.542202
20845.708024,-3701.029710,-7354.516781,11547.212695
20845.708347,-1998.556043,-4673.182538,11473.192101
20845.708671,-962.267725,-689.485948,10881.027347
20845.708994,-814.226536,2145.067394,9474.636058
20845.709318,-296.082377,4979.620737,8512.368333
20845.709641,814.226536,6971.469032,7254.018232
20845.709965,592.164754,7584.345430,6217.729913
20845.710288,444.123565,7660.954980,5255.462188
20845.710611,0.000000,6281.983084,4219.173869
20845.710935,-518.144159,3753.867940,2886.803174
20845.711258,-814.226536,1225.752797,3627.009116
20845.711582,-2146.597232,-1225.752797,5403.503377
20845.711905,-4145.153275,-3524.039291,6365.771101
20845.712229,-5107.421000,-5592.497135,7846.182985
20845.712552,-3849.070898,-6588.421283,8882.471304
20845.712876,-2294.638420,-6205.373534,10732.986159
20845.713199,-1850.514855,-4519.963438,11991.336260
20845.713523,444.123565,-2374.896044,12805.562797
20845.713846,3627.009116,229.828649,12583.501014
20845.714170,5033.400406,2987.772442,12731.542202
20845.714493,5477.523971,4443.353888,11695.253884
20845.714817,4885.359217,5515.887586,11399.171507
20845.715140,4441.235652,4979.620737,10288.862594
20845.715464,4589.276840,3677.258390,9474.636058
20845.715787,4293.194464,1149.143247,8882.471304
20845.716111,518.144159,-1225.752797,8438.347739
20845.716434,-2664.741391,-3753.867940,8438.347739
20845.716758,-3330.926739,-6435.202183,8586.388927
20845.717081,-3849.070898,-7431.126331,10510.924376
20845.717405,-4589.276840,-7201.297681,11769.274478
20845.717728,-5107.421000,-5669.106685,11177.109724
20845.718052,-3256.906145,-4826.401637,10436.903782
20845.718375,-1998.556043,-2451.505594,10658.965565
20845.718698,-592.164754,1685.410096,9992.780217
20845.719022,0.000000,4366.744339,9622.677246
20845.719345,-370.102971,5362.668486,8512.368333
20845.719669,-592.164754,7277.907231,6365.771101
20845.719992,518.144159,6741.640382,6069.688724
20845.720316,222.061783,5362.668486,4811.338623
20845.720639,-1554.432478,4060.306139,3923.091493
20845.720963,-1850.514855,1762.019645,3701.029710
20845.721286,-1924.535449,-1302.362347,4737.318029
20845.721610,-3256.906145,-3524.039291,6587.832884
20845.721933,-3701.029710,-4903.011187,7772.162391
20845.722257,-4071.132681,-6281.983084,8586.388927
20845.722580,-4219.173869,-7660.954980,10066.800811
20845.722904,-3034.844362,-6128.763984,10881.027347
20845.723227,148.041188,-4290.134789,13027.624579
20845.723551,2220.617826,-2221.676944,13545.768739
20845.723874,2664.741391,459.657299,12583.501014
20845.724198,3404.947333,2757.943793,12361.439231
20845.724521,5033.400406,3447.429741,11251.130318
20845.724845,5033.400406,3447.429741,10066.800811
20845.725168,5477.523971,3140.991542,9474.636058
20845.725492,4737.318029,2451.505594,8586.388927
20845.725815,3108.864956,0.000000,8068.244768
20845.726139,2220.617826,-1991.848295,8142.265362
20845.726462,370.102971,-4136.915689,9178.553681
20845.726786,-2516.700203,-6511.811733,9992.780217
20845.727109,-4737.318029,-7584.345430,10807.006753
20845.727432,-3849.070898,-7507.735880,11769.274478
20845.727756,-2960.823768,-6052.154434,11843.295072
20845.728079,-2960.823768,-3677.258390,11251.130318
20845.728403,-1850.514855,-383.047749,9770.718434
20845.728726,-518.144159,2298.286494,9326.594869
20845.729050,-814.226536,4749.792088,8512.368333
20845.729373,-370.102971,7048.078582,7698.141797
20845.729697,148.041188,7737.564530,6735.874072
20845.730020,814.226536,7431.126331,5329.482782
20845.730344,518.144159,5975.544884,4071.132681
20845.730667,-592.164754,3830.477490,3923.091493
20845.730991,-888.247130,536.266849,4367.215058
20845.731314,-2590.720797,-1455.581446,5551.544565
20845.731638,-3701.029710,-4136.915689,6291.750507
20845.731961,-4293.194464,-5745.716235,8438.347739
20845.732285,-4441.235652,-6281.983084,9030.512492
20845.732608,-2738.761985,-6052.154434,10510.924376
20845.732932,-1628.453072,-4290.134789,12213.398043
20845.733255,-592.164754,-2298.286494,12583.501014
20845.733579,1406.391290,612.876398,12435.459826
20845.733902,3775.050304,2604.724693,12805.562797
20845.734226,4441.235652,4596.572988,11695.253884
20845.734549,4737.318029,4979.620737,10510.924376
20845.734873,4515.256246,4673.182538,9622.677246
20845.735196,3997.112087,3140.991542,8734.430116
20845.735519,3182.885551,1378.971896,8142.265362
20845.735843,1628.453072,-1455.581446,7994.224174
20845.736166,-1332.370696,-3907.087040,9030.512492
20845.736490,-3627.009116,-6205.373534,9474.636058
20845.736813,-4737.318029,-7814.174080,10807.006753
20845.737137,-4515.256246,-8580.269578,11473.192101
20845.737460,-4145.153275,-6741.640382,11917.315666
20845.737784,-3108.864956,-4673.182538,11177.109724
20845.738107,-1110.308913,-1991.848295,11029.068536
20845.738431,518.144159,1532.190996,10436.903782
20845.738754,1850.514855,4596.572988,9178.553681
20845.739078,1850.514855,6894.859482,8290.306550
20845.739401,518.144159,6818.249932,7105.977043
20845.739725,1184.329507,6894.859482,5255.462188
20845.740048,1924.535449,5898.935335,4737.318029
20845.740372,444.123565,3753.867940,4219.173869
20845.740695,-1924.535449,1608.800546,4071.132681
20845.741018,-2664.741391,-1455.581446,3997.112087
20845.741342,-3108.864956,-4290.134789,5699.585753
20845.741665,-3404.947333,-5669.106685,7698.141797
20845.741989,-4145.153275,-6128.763984,9474.636058
20845.742312,-3552.988522,-7201.297681,9844.739029
20845.742635,-2368.659014,-6205.373534,11399.171507
20845.742959,-222.061783,-3600.648841,12509.480420
20845.743282,1850.514855,-1455.581446,12731.542202
20845.743606,2590.720797,1072.533697,13027.624579
20845.743929,3997.112087,2604.724693,11991.336260
20845.744252,4367.215058,3830.477490,11029.068536
20845.744576,5625.565159,3600.648841,11103.089130
20845.744899,4885.359217,3217.601092,9844.739029
20845.745223,3775.050304,2068.457845,8364.327145
20845.745546,2590.720797,-766.095498,8290.306550
20845.745869,1184.329507,-3677.258390,8956.491898
20845.746193,0.000000,-4749.792088,9622.677246
20845.746516,-1554.432478,-6205.373534,11769.274478
20845.746840,-3849.070898,-7507.735880,11325.150913
20845.747163,-4737.318029,-7354.516781,11177.109724
20845.747487,-2812.782580,-5745.716235,11325.150913
20845.747810,-1036.288319,-3294.210641,11843.295072
20845.748133,-962.267725,0.000000,10658.965565
20845.748457,-962.267725,3370.820191,9252.574275
20845.748780,-592.164754,4979.620737,7624.121203
20845.749104,0.000000,6358.592633,6291.750507
20845.749427,74.020594,7660.954980,5551.544565
20845.749750,74.020594,7354.516781,4811.338623
20845.750074,-222.061783,5592.497135,3404.947333
20845.750397,-1332.370696,3677.258390,2960.823768
20845.750721,-2368.659014,1302.362347,4145.153275
20845.751044,-3330.926739,-2221.676944,5551.544565
20845.751367,-5255.462188,-4673.182538,6809.894666
20845.751691,-5625.565159,-6128.763984,8290.306550
20845.752014,-4663.297435,-6971.469032,10732.986159
20845.752338,-3627.009116,-6894.859482,11325.150913
20845.752661,-2220.617826,-4749.792088,12731.542202
20845.752985,0.000000,-2604.724693,13175.665768
20845.753308,1850.514855,153.219100,12139.377449
20845.753631,3256.906145,2298.286494,12509.480420
20845.753955,4885.359217,4213.525239,11991.336260
20845.754278,5921.647536,5362.668486,10955.047942
20845.754602,6661.853478,4749.792088,9844.739029
20845.754925,5329.482782,3600.648841,8512.368333
20845.755248,4219.173869,1532.190996,7920.203579
20845.755572,2516.700203,-1225.752797,8586.388927
20845.755895,0.000000,-4673.182538,9104.533087
20845.756219,-2368.659014,-5975.544884,10066.800811
20845.756542,-4367.215058,-7431.126331,11177.109724
20845.756865,-4367.215058,-8120.612279,11251.130318
20845.757189,-2960.823768,-6818.249932,11251.130318
20845.757512,-2664.741391,-3753.867940,11177.109724
20845.757836,-1850.514855,-919.314598,10658.965565
20845.758159,-296.082377,2604.724693,9474.636058
20845.758482,1184.329507,4749.792088,8586.388927
20845.758806,1332.370696,6894.859482,7846.182985
20845.759129,592.164754,7814.174080,6439.791695
20845.759453,740.205942,7201.297681,5033.400406
20845.759776,1258.350101,5669.106685,4293.194464
20845.760100,888.247130,3677.258390,3627.009116
20845.760423,-1998.556043,995.924147,3701.029710
20845.760746,-4071.132681,-2221.676944,5329.482782
20845.761070,-4737.318029,-5209.449386,5995.668130
20845.761393,-4219.173869,-7201.297681,8438.347739
20845.761717,-3997.112087,-7737.564530,10510.924376
20845.762040,-4219.173869,-7201.297681,11177.109724
20845.762363,-2442.679609,-6205.373534,12287.418637
20845.762687,814.226536,-3983.696590,13545.768739
20845.763010,2960.823768,-689.485948,13323.706956
20845.763334,4219.173869,2068.457845,14137.933492
20845.763657,4145.153275,2987.772442,12509.480420
20845.763980,4737.318029,3907.087040,10732.986159
20845.764304,5847.626942,3907.087040,9992.780217
20845.764627,5921.647536,3217.601092,9178.553681
20845.764951,3552.988522,1838.629195,8216.285956
20845.765274,518.144159,-1225.752797,6957.935855
20845.765597,-888.247130,-3600.648841,7550.100608
20845.765921,-1924.535449,-5745.716235,9918.759623
20845.766244,-4219.173869,-6741.640382,11103.089130
20845.766568,-5107.421000,-7814.174080,11547.212695
20845.766891,-5107.421000,-7277.907231,10955.047942
20845.767215,-4811.338623,-5898.935335,11029.068536
20845.767538,-2664.741391,-2068.457845,11251.130318
20845.767861,-814.226536,842.705048,11251.130318
20845.768185,-1036.288319,3370.820191,9474.636058
20845.768508,-962.267725,5669.106685,7550.100608
20845.768832,0.000000,6971.469032,6661.853478
20845.769155,148.041188,7584.345430,5995.668130
20845.769478,-148.041188,7431.126331,4885.359217
20845.769802,222.061783,5209.449386,3552.988522
20845.770125,-592.164754,2987.772442,3552.988522
20845.770449,-1332.370696,459.657299,4441.235652
20845.770772,-1406.391290,-1762.019645,6291.750507
20845.771095,-2368.659014,-4136.915689,7772.162391
20845.771419,-4293.194464,-6128.763984,9030.512492
20845.771742,-3404.947333,-6665.030833,10362.883188
20845.772066,-888.247130,-5898.935335,12361.439231
20845.772389,518.144159,-4290.134789,13175.665768
20845.772712,1628.453072,-1608.800546,12805.562797
20845.773036,3108.864956,306.438199,12435.459826
20845.773359,3627.009116,2298.286494,12139.377449
20845.773683,4219.173869,4290.134789,11621.233289
20845.774006,4885.359217,4979.620737,10362.883188
20845.774330,5107.421000,4519.963438,9104.533087
20845.774653,4515.256246,3524.039291,7846.182985
20845.774976,3627.009116,459.657299,7254.018232
20845.775300,1110.308913,-1685.410096,7476.080014
20845.775623,-1480.411884,-4519.963438,8882.471304
20845.775947,-3478.967927,-6358.592633,9992.780217
20845.776270,-5033.400406,-8120.612279,11547.212695
20845.776593,-5551.544565,-8120.612279,11843.295072
20845.776917,-4663.297435,-6971.469032,11621.233289
20845.777240,-3182.885551,-4903.011187,11843.295072
20845.777564,-1332.370696,-1532.190996,11177.109724
20845.777887,-666.185348,1762.019645,9992.780217
20845.778210,296.082377,4290.134789,9400.615463
20845.778534,1776.494261,6741.640382,8586.388927
20845.778857,2072.576638,8120.612279,7254.018232
20845.779181,1776.494261,7737.564530,5625.565159
20845.779504,1332.370696,6358.592633,4293.194464
20845.779827,962.267725,4136.915689,2960.823768
20845.780151,0.000000,1302.362347,3552.988522
20845.780474,-2368.659014,-1455.581446,5033.400406
20845.780798,-4663.297435,-4060.306139,6513.812290
20845.781121,-5551.544565,-6588.421283,8068.244768
20845.781445,-5403.503377,-7277.907231,9030.512492
20845.781768,-4885.359217,-8120.612279,10658.965565
20845.782091,-3627.009116,-6205.373534,12065.356855
20845.782415,-1480.411884,-3983.696590,12287.418637
20845.782738,1036.288319,-1072.533697,12361.439231
20845.783062,2960.823768,1991.848295,12435.459826
20845.783385,4663.297435,3447.429741,11769.274478
20845.783708,5181.441594,4826.401637,10807.006753
20845.784032,5477.523971,4903.011187,9326.594869
20845.784355,6735.874072,3907.087040,7994.224174
20845.784679,5847.626942,1685.410096,8512.368333
20845.785002,2368.659014,-842.705048,8290.306550
20845.785325,-74.020594,-3524.039291,8586.388927
20845.785649,-1554.432478,-6665.030833,9770.718434
20845.785972,-3034.844362,-8120.612279,11695.253884
20845.786296,-4145.153275,-7967.393179,13027.624579
20845.786619,-3627.009116,-6741.640382,12509.480420
20845.786943,-2738.761985,-4903.011187,11991.336260
20845.787266,-1924.535449,-2298.286494,11103.089130
20845.787589,296.082377,1149.143247,10436.903782
20845.787913,444.123565,3753.867940,9918.759623
20845.788236,-296.082377,6205.373534,7846.182985
20845.788560,296.082377,7890.783629,6513.812290
20845.788883,962.267725,7584.345430,4959.379811
20845.789206,-148.041188,7277.907231,3478.967927
20845.789530,-1258.350101,5745.716235,2812.782580
20845.789853,-1628.453072,2604.724693,3182.885551
20845.790177,-2738.761985,-612.876398,4071.132681
20845.790500,-4219.173869,-2528.115143,5699.585753
20845.790823,-3849.070898,-4136.915689,7846.182985
20845.791147,-4737.318029,-6511.811733,8586.388927
20845.791470,-5403.503377,-7201.297681,9030.512492
20845.791794,-3256.906145,-6435.202183,11547.212695
20845.792117,-518.144159,-3983.696590,13175.665768
20845.792440,1702.473667,-1532.190996,12879.583391
20845.792764,2738.761985,1225.752797,12435.459826
20845.793087,3849.070898,3447.429741,12139.377449
20845.793411,4515.256246,4366.744339,10881.027347
20845.793734,5551.544565,4749.792088,10658.965565
20845.794058,5551.544565,4213.525239,9178.553681
20845.794381,4737.318029,2681.334243,8512.368333
20845.794704,3330.926739,383.047749,8586.388927
20845.795028,2220.617826,-2221.676944,9326.594869
20845.795351,-370.102971,-4903.011187,9992.780217
20845.795675,-2590.720797,-7201.297681,10658.965565
20845.795998,-5181.441594,-8503.660028,11695.253884
20845.796321,-4441.235652,-7431.126331,12213.398043
20845.796645,-3256.906145,-6741.640382,12509.480420
20845.796968,-2516.700203,-4213.525239,11621.233289
20845.797292,-962.267725,-842.705048,10066.800811
20845.797615,-518.144159,2681.334243,9400.615463
20845.797938,-370.102971,5132.839837,7550.100608
20845.798262,0.000000,7124.688131,7105.977043
20845.798585,1036.288319,8197.221829,6587.832884
20845.798909,888.247130,7354.516781,4515.256246
20845.799232,222.061783,5975.544884,3330.926739
20845.799555,-1480.411884,2987.772442,2516.700203
20845.799879,-1776.494261,153.219100,3627.009116
20845.800202,-2220.617826,-2528.115143,5477.523971
20845.800526,-4219.173869,-4213.525239,7402.059420
20845.800849,-5329.482782,-6052.154434,8586.388927
20845.801173,-5033.400406,-8810.098227,9474.636058
20845.801496,-2368.659014,-7737.564530,10955.047942
20845.801819,-962.267725,-5209.449386,12953.603985
20845.802143,148.041188,-3064.381992,13175.665768
20845.802466,2738.761985,0.000000,12953.603985
20845.802790,5255.462188,2451.505594,12805.562797
20845.803113,6735.874072,4749.792088,12731.542202
20845.803436,5847.626942,5362.668486,11547.212695
20845.803760,5403.503377,4366.744339,9918.759623
20845.804083,5329.482782,3064.381992,8290.306550
20845.804407,4737.318029,919.314598,8660.409521
20845.804730,2072.576638,-1838.629195,8956.491898
20845.805053,-1776.494261,-3983.696590,8882.471304
20845.805377,-4219.173869,-6741.640382,9696.697840
20845.805700,-5329.482782,-8810.098227,10510.924376
20845.806024,-4737.318029,-7967.393179,12287.418637
20845.806347,-5329.482782,-6894.859482,12287.418637
20845.806670,-4737.318029,-4673.182538,10584.944971
20845.806994,-2220.617826,-1608.800546,9844.739029
20845.807317,222.061783,2068.457845,9474.636058
20845.807641,296.082377,5592.497135,8660.409521
20845.807964,-148.041188,7507.735880,7254.018232
20845.808288,0.000000,8044.002729,6365.771101
20845.808611,148.041188,7737.564530,5033.400406
20845.808934,814.226536,6511.811733,4515.256246
20845.809258,-962.267725,4673.182538,3849.070898
20845.809581,-2738.761985,1762.019645,3627.009116
20845.809905,-2960.823768,-612.876398,3701.029710
20845.810228,-2590.720797,-3217.601092,6291.750507
20845.810551,-3849.070898,-5286.058936,8660.409521
20845.810875,-4071.132681,-6435.202183,9622.677246
20845.811198,-3182.885551,-6741.640382,10584.944971
20845.811522,-2072.576638,-5898.935335,11769.274478
20845.811845,740.205942,-3217.601092,13693.809927
20845.812168,3034.844362,-1072.533697,14434.015869
20845.812492,3552.988522,1915.238745,13693.809927
20845.812815,4145.153275,3447.429741,12361.439231
20845.813139,5107.421000,4213.525239,11621.233289
20845.813462,5107.421000,4136.915689,10584.944971
20845.813786,4441.235652,3447.429741,9030.512492
20845.814109,3552.988522,2068.457845,8142.265362
20845.814432,1924.535449,-229.828649,7624.121203
20845.814756,-296.082377,-2451.505594,7920.203579
20845.815079,-888.247130,-5822.325785,9548.656652
20845.815403,-3182.885551,-7277.907231,9770.718434
20845.815726,-5625.565159,-8044.002729,10584.944971
20845.816049,-5625.565159,-7737.564530,11029.068536
20845.816373,-3034.844362,-6358.592633,11103.089130
20845.816696,-1406.391290,-3064.381992,11325.150913
20845.817020,-518.144159,76.609550,10066.800811
20845.817343,74.020594,2451.505594,9326.594869
20845.817666,370.102971,4903.011187,7920.203579
20845.817990,1258.350101,6818.249932,7179.997637
20845.818313,1776.494261,7890.783629,6735.874072
20845.818637,1702.473667,6818.249932,5255.462188
20845.818960,1258.350101,5362.668486,3701.029710
20845.819283,370.102971,2757.943793,3849.070898
20845.819607,-1110.308913,153.219100,4737.318029
20845.819930,-2220.617826,-2528.115143,6069.688724
20845.820254,-3923.091493,-5056.230287,8068.244768
20845.820577,-4811.338623,-7431.126331,9326.594869
20845.820901,-4071.132681,-7890.783629,10807.006753
20845.821224,-2960.823768,-6894.859482,11991.336260
20845.821547,-1850.514855,-4903.011187,12657.521608
20845.821871,148.041188,-2145.067394,12583.501014
20845.822194,1998.556043,383.047749,12213.398043
20845.822518,3330.926739,3140.991542,12879.583391
20845.822841,5033.400406,4979.620737,11547.212695
20845.823164,5773.606348,5592.497135,10140.821405
20845.823488,5773.606348,4903.011187,8734.430116
20845.823811,4737.318029,4290.134789,7550.100608
20845.824135,3552.988522,2451.505594,6883.915261
20845.824458,1110.308913,-1378.971896,7624.121203
20845.824781,-1332.370696,-3983.696590,8586.388927
20845.825105,-4589.276840,-6205.373534,9474.636058
20845.825428,-5847.626942,-8044.002729,10658.965565
20845.825752,-4737.318029,-8273.831378,11399.171507
20845.826075,-4737.318029,-6128.763984,11917.315666
20845.826398,-4145.153275,-3600.648841,11843.295072
20845.826722,-2146.597232,-1072.533697,10955.047942
20845.827045,0.000000,2374.896044,9992.780217
20845.827369,962.267725,5822.325785,9178.553681
20845.827692,1110.308913,7584.345430,8142.265362
20845.828016,370.102971,8350.440928,6513.812290
20845.828339,148.041188,8197.221829,5181.441594
20845.828662,1332.370696,6511.811733,4219.173869
20845.828986,0.000000,4290.134789,3923.091493
20845.829309,-2442.679609,1685.410096,4145.153275
20845.829633,-4293.194464,-1838.629195,4737.318029
20845.829956,-4145.153275,-4903.011187,6217.729913
20845.830279,-4293.194464,-6665.030833,8734.430116
20845.830603,-4589.276840,-6971.469032,9918.759623
20845.830926,-3108.864956,-6205.373534,10066.800811
20845.831250,-1406.391290,-5669.106685,11325.150913
20845.831573,962.267725,-2757.943793,13027.624579
20845.831896,3256.906145,0.000000,13027.624579
20845.832220,4589.276840,2068.457845,13101.645173
20845.832543,4959.379811,3217.601092,11547.212695
20845.832867,5625.565159,4366.744339,9992.780217
20845.833190,6513.812290,4060.306139,9326.594869
20845.833513,5995.668130,2374.896044,9326.594869
20845.833837,3182.885551,689.485948,7920.203579
20845.834160,962.267725,-2374.896044,7105.977043
20845.834484,-370.102971,-5286.058936,8512.368333
20845.834807,-1850.514855,-7354.516781,10214.842000
20845.835131,-3478.967927,-8197.221829,12065.356855
20845.835454,-3997.112087,-9116.536426,12361.439231
20845.835777,-3997.112087,-7737.564530,11325.150913
20845.836101,-1924.535449,-5822.325785,11917.315666
20845.836424,-444.123565,-3447.429741,12287.418637
20845.836748,814.226536,842.705048,11473.192101
20845.837071,962.267725,3524.039291,9548.656652
20845.837394,814.226536,6052.154434,8586.388927
20845.837718,0.000000,7967.393179,7624.121203
20845.838041,444.123565,7584.345430,5699.585753
20845.838365,296.082377,6588.421283,4737.318029
20845.838688,-740.205942,4826.401637,3330.926739
20845.839011,-2220.617826,2451.505594,2960.823768
20845.839335,-2738.761985,-383.047749,3923.091493
20845.839658,-3552.988522,-2451.505594,5255.462188
20845.839982,-5033.400406,-4903.011187,7105.977043
20845.840305,-6661.853478,-6741.640382,8290.306550
20845.840628,-5625.565159,-6894.859482,8956.491898
20845.840952,-2442.679609,-5898.935335,11177.109724
20845.841275,-1554.432478,-4136.915689,12139.377449
20845.841599,0.000000,-1225.752797,12065.356855
20845.841922,1998.556043,1149.143247,12139.377449
20845.842246,2812.782580,2834.553343,11843.295072
20845.842569,4071.132681,4519.963438,11547.212695
20845.842892,5699.585753,5439.278036,10362.883188
20845.843216,6217.729913,4979.620737,8956.491898
20845.843540,5403.503377,3064.381992,9474.636058
20845.843864,3404.947333,689.485948,8142.265362
20845.844187,2146.597232,-2451.505594,8512.368333
20845.844510,0.000000,-4903.011187,9992.780217
20845.844834,-3034.844362,-6128.763984,11325.150913
20845.845157,-4293.194464,-7431.126331,11843.295072
20845.845481,-4367.215058,-8580.269578,11917.315666
20845.845804,-2960.823768,-6741.640382,11843.295072
20845.846127,-1628.453072,-3140.991542,12213.398043
20845.846451,-1258.350101,0.000000,11029.068536
20845.846774,-592.164754,2604.724693,9918.759623
20845.847097,592.164754,5362.668486,8734.430116
20845.847421,1776.494261,7737.564530,7772.162391
20845.847744,296.082377,8273.831378,5995.668130
20845.848067,-740.205942,8197.221829,4959.379811
20845.848391,-518.144159,6052.154434,3034.844362
20845.848714,-444.123565,3524.039291,2812.782580
20845.849037,-1702.473667,766.095498,4145.153275
20845.849361,-4441.235652,-2145.067394,4811.338623
20845.849684,-5995.668130,-4826.401637,6069.688724
20845.850007,-5255.462188,-7354.516781,7402.059420
20845.850331,-4367.215058,-7354.516781,9400.615463
20845.850654,-3701.029710,-6435.202183,11103.089130
20845.850977,-2368.659014,-5286.058936,12065.356855
20845.851301,962.267725,-2834.553343,12805.562797
20845.851624,4145.153275,0.000000,12953.603985
20845.851947,4737.318029,2681.334243,13175.665768
20845.852271,5255.462188,4213.525239,12213.398043
20845.852594,5625.565159,4826.401637,10584.944971
20845.852918,5995.668130,4443.353888,9400.615463
20845.853241,6735.874072,2834.553343,9622.677246
20845.853564,4515.256246,612.876398,9030.512492
20845.853888,814.226536,-1762.019645,8216.285956
20845.854211,-1554.432478,-4749.792088,8660.409521
20845.854534,-2220.617826,-6818.249932,9918.759623
20845.854858,-3997.112087,-7660.954980,11695.253884
20845.855181,-4811.338623,-7660.954980,11991.336260
20845.855504,-4737.318029,-7967.393179,11769.274478
20845.855828,-3849.070898,-5592.497135,11843.295072
20845.856151,-2294.638420,-2451.505594,11399.171507
20845.856474,0.000000,1302.362347,10955.047942
20845.856798,0.000000,3524.039291,9474.636058
20845.857121,-1036.288319,5975.544884,7476.080014
20845.857444,74.020594,6818.249932,6143.709319
20845.857768,518.144159,7354.516781,5033.400406
20845.858091,-296.082377,6588.421283,4737.318029
20845.858414,-1184.329507,4903.011187,3182.885551
20845.858738,-1776.494261,1838.629195,2738.761985
20845.859061,-2220.617826,-1149.143247,3775.050304
20845.859384,-2368.659014,-2987.772442,6069.688724
20845.859708,-2812.782580,-4596.572988,7772.162391
20845.860031,-3997.112087,-6665.030833,8808.450710
20845.860355,-3404.947333,-6818.249932,10066.800811
20845.860678,-1036.288319,-5592.497135,11917.315666
20845.861001,888.247130,-3983.696590,13619.789333
20845.861325,2146.597232,-919.314598,13545.768739
20845.861648,3478.967927,2298.286494,12509.480420
20845.861971,4515.256246,3447.429741,12361.439231
20845.862295,4663.297435,4290.134789,10807.006753
20845.862618,5255.462188,4443.353888,10584.944971
20845.862941,5033.400406,3983.696590,9178.553681
20845.863265,4293.194464,2221.676944,7994.224174
20845.863588,2738.761985,76.609550,8290.306550
20845.863911,222.061783,-2911.162892,8956.491898
20845.864235,-1332.370696,-4979.620737,8660.409521
20845.864558,-4589.276840,-6894.859482,10140.821405
20845.864881,-5477.523971,-8120.612279,10807.006753
20845.865205,-4959.379811,-7814.174080,12139.377449
20845.865528,-4145.153275,-6358.592633,12065.356855
20845.865851,-2960.823768,-3524.039291,11695.253884
20845.866175,-1554.432478,383.047749,10584.944971
20845.866498,-740.205942,3140.991542,9400.615463
20845.866822,-814.226536,5362.668486,8364.327145
20845.867145,370.102971,7814.174080,7105.977043
20845.867468,1036.288319,8273.831378,6291.750507
20845.867792,1406.391290,7890.783629,4515.256246
20845.868115,666.185348,5975.544884,3404.947333
20845.868438,-518.144159,3677.258390,2960.823768
20845.868762,-2146.597232,842.705048,3701.029710
20845.869085,-2886.803174,-1302.362347,5551.544565
20845.869408,-4811.338623,-4443.353888,6883.915261
20845.869732,-6439.791695,-6741.640382,8142.265362
20845.870055,-4885.359217,-7967.393179,9252.574275
20845.870378,-3256.906145,-7354.516781,10807.006753
20845.870702,-2294.638420,-4903.011187,12583.501014
20845.871025,0.000000,-2451.505594,12879.583391
20845.871348,2368.659014,0.000000,11843.295072
20845.871672,5255.462188,3140.991542,12509.480420
20845.871995,6143.709319,5056.230287,11843.295072
20845.872318,5921.647536,4979.620737,10658.965565
20845.872642,6143.709319,4136.915689,9474.636058
20845.872965,6291.750507,3064.381992,8438.347739
20845.873288,5773.606348,995.924147,8808.450710
20845.873612,1702.473667,-2221.676944,8142.265362
20845.873935,-1776.494261,-4519.963438,9178.553681
20845.874259,-2886.803174,-7354.516781,9992.780217
20845.874582,-4071.132681,-9039.926876,11621.233289
20845.874905,-4737.318029,-8503.660028,12657.521608
20845.875229,-4663.297435,-6971.469032,12287.418637
20845.875552,-2960.823768,-5209.449386,11769.274478
20845.875875,-1036.288319,-1991.848295,11251.130318
20845.876199,370.102971,1838.629195,10362.883188
20845.876522,444.123565,4519.963438,9252.574275
20845.876845,296.082377,6435.202183,7846.182985
20845.877169,444.123565,7737.564530,6069.688724
20845.877492,1554.432478,7890.783629,5403.503377
20845.877815,1480.411884,6281.983084,4515.256246
20845.878139,-518.144159,4596.572988,3256.906145
20845.878462,-2368.659014,1915.238745,2590.720797
20845.878785,-2368.659014,-1072.533697,3923.091493
20845.879109,-3923.091493,-3753.867940,6809.894666
20845.879432,-4737.318029,-4903.011187,8438.347739
20845.879755,-4219.173869,-6205.373534,9178.553681
20845.880079,-3923.091493,-7354.516781,9548.656652
20845.880402,-3627.009116,-5209.449386,11399.171507
20845.880725,-814.226536,-2298.286494,12583.501014
20845.881049,2220.617826,-842.705048,12953.603985
20845.881372,2294.638420,2221.676944,12065.356855
20845.881696,3552.988522,3524.039291,11251.130318
20845.882019,4145.153275,4136.915689,10584.944971
20845.882342,4071.132681,3830.477490,9622.677246
20845.882666,4219.173869,4060.306139,8808.450710
20845.882989,3997.112087,2145.067394,8364.327145
20845.883312,1480.411884,-1149.143247,7550.100608
20845.883636,296.082377,-2834.553343,9326.594869
20845.883959,-296.082377,-5898.935335,10288.862594
20845.884282,-2960.823768,-7431.126331,11029.068536
20845.884606,-4737.318029,-8197.221829,11917.315666
20845.884929,-3997.112087,-7354.516781,12213.398043
20845.885252,-1776.494261,-6205.373534,12583.501014
20845.885576,-666.185348,-2298.286494,12361.439231
20845.885899,222.061783,383.047749,11103.089130
20845.886222,814.226536,2987.772442,9770.718434
20845.886546,814.226536,4903.011187,8290.306550
20845.886869,888.247130,7124.688131,7031.956449
20845.887192,1406.391290,7967.393179,6069.688724
20845.887516,1406.391290,7354.516781,4293.194464
20845.887839,1258.350101,5439.278036,3404.947333
20845.888162,-296.082377,3064.381992,2886.803174
20845.888486,-1924.535449,0.000000,3182.885551
20845.888809,-3256.906145,-2145.067394,4885.359217
20845.889133,-4663.297435,-4596.572988,6883.915261
20845.889456,-5625.565159,-6741.640382,8290.306550
20845.889779,-5403.503377,-7507.735880,9696.697840
20845.890103,-3552.988522,-7431.126331,10881.027347
20845.890426,-1036.288319,-5132.839837,12953.603985
20845.890749,-222.061783,-2911.162892,12953.603985
20845.891073,1776.494261,0.000000,12361.439231
20845.891396,4663.297435,2451.505594,13027.624579
20845.891719,6513.812290,4213.525239,12139.377449
20845.892043,6439.791695,5209.449386,11103.089130
20845.892366,5921.647536,4596.572988,9252.574275
20845.892689,5847.626942,2604.724693,8290.306550
20845.893013,4441.235652,459.657299,7920.203579
20845.893336,2516.700203,-2298.286494,9474.636058
20845.893659,-1110.308913,-4749.792088,10288.862594
20845.893983,-4145.153275,-7124.688131,10436.903782
20845.894306,-4737.318029,-8427.050478,11325.150913
20845.894629,-3923.091493,-8733.488677,11399.171507
20845.894953,-3997.112087,-6741.640382,12509.480420
20845.895276,-3478.967927,-4060.306139,11473.192101
20845.895599,-1406.391290,-995.924147,10288.862594
20845.895923,222.061783,2221.676944,9918.759623
20845.896246,888.247130,5362.668486,8586.388927
20845.896570,592.164754,7354.516781,7994.224174
20845.896893,-148.041188,8197.221829,6217.729913
20845.897216,-370.102971,7201.297681,3923.091493
20845.897540,592.164754,5822.325785,3034.844362
20845.897863,-666.185348,3524.039291,3627.009116
20845.898186,-3923.091493,995.924147,3701.029710
20845.898510,-5181.441594,-1838.629195,4293.194464
20845.898833,-5107.421000,-5056.230287,6069.688724
20845.899156,-4737.318029,-6205.373534,8512.368333
20845.899480,-4367.215058,-5515.887586,9918.759623
20845.899803,-3923.091493,-6281.983084,10732.986159
20845.900126,-1628.453072,-5515.887586,11473.192101
20845.900450,1036.288319,-2374.896044,12953.603985
20845.900773,4663.297435,612.876398,13175.665768
20845.901096,5107.421000,2834.553343,13101.645173
20845.901420,5181.441594,4290.134789,11547.212695
20845.901743,6661.853478,5362.668486,10436.903782
20845.902066,7179.997637,4673.182538,10288.862594
20845.902390,6217.729913,3064.381992,9326.594869
20845.902713,3108.864956,1455.581446,8586.388927
20845.903036,1184.329507,-1685.410096,7920.203579
20845.903360,-1258.350101,-4673.182538,8438.347739
20845.903683,-2812.782580,-6128.763984,10066.800811
20845.904007,-3849.070898,-7507.735880,10955.047942
20845.904330,-4959.379811,-7507.735880,11251.130318
20845.904653,-5625.565159,-6894.859482,10362.883188
20845.904977,-3330.926739,-5056.230287,11325.150913
20845.905300,-1554.432478,-2298.286494,11621.233289
20845.905623,-592.164754,1149.143247,10288.862594
20845.905947,-74.020594,3830.477490,8808.450710
20845.906270,444.123565,5515.887586,7994.224174
20845.906593,666.185348,6665.030833,7550.100608
20845.906917,370.102971,7124.688131,5921.647536
20845.907240,1110.308913,6665.030833,5551.544565
20845.907563,0.000000,4749.792088,4589.276840
20845.907887,-1184.329507,2068.457845,4441.235652
20845.908210,-1480.411884,-919.314598,4885.359217
20845.908533,-2368.659014,-3447.429741,6439.791695
20845.908857,-4885.359217,-5439.278036,8068.244768
20845.909180,-5847.626942,-6435.202183,9474.636058
20845.909503,-4441.235652,-7201.297681,10510.924376
20845.909827,-2960.823768,-6435.202183,11843.295072
20845.910150,-1628.453072,-4060.306139,12287.418637
20845.910473,666.185348,-1685.410096,11991.336260
20845.910797,2146.597232,1378.971896,11991.336260
20845.911120,3330.926739,2834.553343,11399.171507
20845.911444,4737.318029,4290.134789,11103.089130
20845.911767,5995.668130,4443.353888,9474.636058
20845.912090,6217.729913,4519.963438,8660.409521
20845.912414,5477.523971,2987.772442,7920.203579
20845.912737,3478.967927,306.438199,7624.121203
20845.913060,1924.535449,-2145.067394,7920.203579
20845.913384,0.000000,-4060.306139,9474.636058
20845.913707,-2738.761985,-5515.887586,11103.089130
20845.914030,-5181.441594,-7660.954980,10732.986159
20845.914354,-3849.070898,-7354.516781,11325.150913
20845.914677,-2294.638420,-5592.497135,12139.377449
20845.915000,-2220.617826,-2374.896044,11917.315666
20845.915324,-1776.494261,536.266849,10807.006753
20845.915647,148.041188,2911.162892,8956.491898
20845.915970,518.144159,4979.620737,8438.347739
20845.916294,222.061783,7354.516781,8142.265362
20845.916617,-444.123565,7967.393179,6587.832884
20845.916940,-1110.308913,6894.859482,5033.400406
20845.917264,-814.226536,4903.011187,3775.050304
20845.917587,-1480.411884,2528.115143,3923.091493
20845.917911,-3108.864956,153.219100,3923.091493
20845.918234,-5107.421000,-2068.457845,4515.256246
20845.918557,-5033.400406,-4290.134789,5921.647536
20845.918881,-4293.194464,-7124.688131,7698.141797
20845.919204,-3627.009116,-6818.249932,9548.656652
20845.919527,-3034.844362,-6052.154434,11103.089130
20845.919851,-592.164754,-4290.134789,11991.336260
20845.920174,2590.720797,-2068.457845,12213.398043
20845.920497,4737.318029,536.266849,12583.501014
20845.920821,6291.750507,3064.381992,12287.418637
20845.921144,6513.812290,3907.087040,11621.233289
20845.921467,5995.668130,4519.963438,10140.821405
20845.921791,5995.668130,3370.820191,9474.636058
20845.922114,5477.523971,1838.629195,8808.450710
20845.922437,3182.885551,0.000000,8586.388927
20845.922761,-296.082377,-2757.943793,8290.306550
20845.923084,-2146.597232,-6281.983084,8660.409521
20845.923407,-3034.844362,-7890.783629,10584.944971
20845.923731,-4441.235652,-8733.488677,12065.356855
20845.924054,-4885.359217,-8656.879127,11843.295072
20845.924377,-4441.235652,-7967.393179,11843.295072
20845.924701,-2886.803174,-5592.497135,12065.356855
20845.925024,-518.144159,-2374.896044,12657.521608
20845.925348,888.247130,1225.752797,11399.171507
20845.925671,518.144159,3524.039291,9400.615463
20845.925994,148.041188,5056.230287,8216.285956
20845.926318,888.247130,6205.373534,7550.100608
20845.926641,74.020594,6052.154434,6735.874072
20845.926964,-888.247130,5515.887586,5033.400406
20845.927288,-1554.432478,3600.648841,3478.967927
20845.927611,-2368.659014,1685.410096,3627.009116
20845.927934,-3108.864956,-1225.752797,4663.297435
20845.928258,-3404.947333,-2451.505594,6143.709319
20845.928581,-4219.173869,-4596.572988,7179.997637
20845.928904,-5699.585753,-5592.497135,7179.997637
20845.929228,-4737.318029,-5515.887586,8882.471304
20845.929551,-2072.576638,-4366.744339,11399.171507
20845.929874,-296.082377,-2298.286494,12287.418637
20845.930198,1554.432478,1302.362347,11547.212695
20845.930521,3182.885551,2987.772442,11177.109724
20845.930844,4145.153275,4136.915689,11177.109724
20845.931168,4515.256246,4979.620737,10362.883188
20845.931491,4811.338623,5056.230287,10214.842000
20845.931814,4737.318029,3907.087040,8882.471304
20845.932138,4219.173869,2451.505594,8512.368333
20845.932461,3256.906145,153.219100,8586.388927
20845.932785,814.226536,-2451.505594,8956.491898
20845.933108,-1406.391290,-5132.839837,9844.739029
20845.933431,-3404.947333,-6818.249932,10955.047942
20845.933755,-4293.194464,-7354.516781,12139.377449
20845.934078,-3775.050304,-7124.688131,12731.542202
20845.934401,-2738.761985,-5975.544884,11991.336260
20845.934725,-1184.329507,-2604.724693,11695.253884
20845.935048,-370.102971,919.314598,10658.965565
20845.935371,-222.061783,2834.553343,9622.677246
20845.935695,592.164754,5592.497135,8364.327145
20845.936018,1776.494261,6894.859482,7846.182985
20845.936341,2072.576638,7507.735880,6587.832884
20845.936665,1110.308913,7048.078582,5255.462188
20845.936988,444.123565,4979.620737,4145.153275
20845.937311,148.041188,2374.896044,3256.906145
20845.937635,-1406.391290,76.609550,3627.009116
20845.937958,-3182.885551,-1838.629195,5403.503377
20845.938281,-5329.482782,-4903.011187,6735.874072
20845.938605,-5921.647536,-6971.469032,7698.141797
20845.938928,-4441.235652,-7584.345430,9178.553681
20845.939251,-3034.844362,-6511.811733,10658.965565
20845.939575,-2960.823768,-4290.134789,11621.233289
20845.939898,-1110.308913,-2528.115143,11473.192101
20845.940222,2590.720797,-76.609550,12361.439231
20845.940545,4293.194464,2528.115143,12583.501014
20845.940868,4589.276840,3753.867940,11473.192101
20845.941192,4293.194464,3907.087040,10362.883188
20845.941515,4515.256246,2834.553343,8586.388927
20845.941839,5551.544565,1838.629195,8734.430116
20845.942162,3701.029710,-612.876398,8956.491898
20845.942485,592.164754,-2298.286494,8586.388927
20845.942809,-1850.514855,-5515.887586,9918.759623
20845.943132,-2368.659014,-7354.516781,10658.965565
20845.943456,-3182.885551,-8273.831378,11991.336260
20845.943779,-3478.967927,-7660.954980,13249.686362
20845.944103,-2664.741391,-6358.592633,12657.521608
20845.944426,-1998.556043,-3447.429741,11843.295072
20845.944749,0.000000,-612.876398,10955.047942
20845.945073,888.247130,2757.943793,10436.903782
20845.945396,444.123565,4979.620737,9030.512492
20845.945720,-962.267725,6511.811733,6883.915261
20845.946043,-814.226536,7201.297681,5625.565159
20845.946367,0.000000,6588.421283,4811.338623
20845.946690,-1110.308913,5515.887586,3256.906145
20845.947013,-2738.761985,3217.601092,3034.844362
20845.947337,-4367.215058,306.438199,2220.617826
20845.947660,-4515.256246,-2145.067394,4145.153275
20845.947984,-4589.276840,-3753.867940,6661.853478
20845.948307,-4663.297435,-5132.839837,8142.265362
20845.948630,-3923.091493,-5669.106685,9178.553681
20845.948954,-2442.679609,-5975.544884,10584.944971
20845.949277,-814.226536,-4060.306139,11843.295072
20845.949601,2368.659014,-1762.019645,13101.645173
20845.949924,4145.153275,536.266849,13619.789333
20845.950248,4441.235652,2757.943793,12805.562797
20845.950571,6069.688724,3753.867940,12139.377449
20845.950894,6513.812290,4136.915689,11769.274478
20845.951218,5847.626942,4596.572988,10214.842000
20845.951541,4811.338623,3370.820191,8586.388927
20845.951865,3849.070898,1608.800546,8216.285956
20845.952188,1924.535449,-1378.971896,8512.368333
20845.952512,740.205942,-3217.601092,9474.636058
20845.952835,-1110.308913,-5745.716235,10436.903782
20845.953158,-4589.276840,-7354.516781,10955.047942
20845.953482,-5921.647536,-7507.735880,11251.130318
20845.953805,-3923.091493,-7048.078582,11621.233289
20845.954129,-2368.659014,-4903.011187,12435.459826
20845.954452,-2516.700203,-1762.019645,10658.965565
20845.954776,-1258.350101,1225.752797,9474.636058
20845.955099,-370.102971,3830.477490,8734.430116
20845.955422,0.000000,5669.106685,7476.080014
20845.955746,518.144159,7890.783629,7402.059420
20845.956069,592.164754,7967.393179,5921.647536
20845.956393,148.041188,6818.249932,4071.132681
20845.956716,0.000000,4596.572988,3256.906145
20845.957039,-1258.350101,2451.505594,3552.988522
20845.957363,-2442.679609,-612.876398,4367.215058
20845.957686,-3923.091493,-2834.553343,5847.626942
20845.958010,-5181.441594,-5056.230287,7402.059420
20845.958333,-5995.668130,-6971.469032,9030.512492
20845.958657,-4885.359217,-6971.469032,10510.924376
20845.958980,-2442.679609,-6205.373534,11917.315666
20845.959303,-1258.350101,-3983.696590,12953.603985
20845.959627,592.164754,-1532.190996,12583.501014
20845.959950,2960.823768,842.705048,12213.398043
20845.960274,5033.400406,3064.381992,12509.480420
20845.960597,6587.832884,4826.401637,11029.068536
20845.960921,6809.894666,5132.839837,10362.883188
20845.961244,5625.565159,3753.867940,8882.471304
20845.961567,5181.441594,2145.067394,7624.121203
20845.961891,4219.173869,-842.705048,8216.285956
20845.962214,1110.308913,-3140.991542,9178.553681
20845.962538,-2072.576638,-5669.106685,9548.656652
20845.962861,-3923.091493,-7124.688131,10214.842000
20845.963184,-3701.029710,-8886.707777,10807.006753
20845.963508,-3923.091493,-8886.707777,11473.192101
20845.963831,-3997.112087,-5439.278036,11843.295072
20845.964155,-2220.617826,-3524.039291,11621.233289
20845.964478,296.082377,-536.266849,10362.883188
20845.964802,1332.370696,2987.772442,9474.636058
20845.965125,1258.350101,5439.278036,8512.368333
20845.965448,592.164754,6665.030833,7476.080014
20845.965772,666.185348,7124.688131,6143.709319
20845.966095,1702.473667,7660.954980,5255.462188
20845.966419,1628.453072,5132.839837,4293.194464
20845.966742,-1110.308913,2681.334243,3701.029710
20845.967066,-3478.967927,229.828649,3923.091493
20845.967389,-3701.029710,-1991.848295,5033.400406
20845.967712,-3997.112087,-4903.011187,7031.956449
20845.968036,-4737.318029,-5515.887586,9326.594869
20845.968359,-4589.276840,-5898.935335,10140.821405
20845.968683,-3627.009116,-6205.373534,11177.109724
20845.969006,-2220.617826,-4903.011187,12213.398043
20845.969329,222.061783,-1762.019645,13027.624579
20845.969653,1998.556043,919.314598,13027.624579
20845.969976,2146.597232,2374.896044,11695.253884
20845.970300,2368.659014,3907.087040,10510.924376
20845.970623,3775.050304,4443.353888,10362.883188
20845.970947,3256.906145,3907.087040,9474.636058
20845.971270,2590.720797,2911.162892,8142.265362
20845.971593,1850.514855,766.095498,7550.100608
20845.971917,666.185348,-1685.410096,7402.059420
20845.972240,-1184.329507,-3830.477490,8586.388927
20845.972564,-1628.453072,-5592.497135,9696.697840
20845.972887,-3034.844362,-6435.202183,11177.109724
20845.973211,-4367.215058,-7277.907231,10955.047942
20845.973534,-3034.844362,-6128.763984,11695.253884
20845.973857,-1258.350101,-4519.963438,12361.439231
20845.974181,0.000000,-1685.410096,12361.439231
20845.974504,592.164754,1532.190996,11177.109724
20845.974828,1110.308913,3524.039291,8660.409521
20845.975151,1258.350101,5439.278036,8290.306550
20845.975474,1554.432478,7354.516781,6439.791695
20845.975798,1850.514855,7814.174080,5921.647536
20845.976121,1628.453072,6741.640382,4145.153275
20845.976445,740.205942,4903.011187,2812.782580
20845.976768,0.000000,2451.505594,3478.967927
20845.977092,-1036.288319,-383.047749,4071.132681
20845.977415,-3182.885551,-3753.867940,5995.668130
20845.977738,-5329.482782,-5439.278036,7698.141797
20845.978062,-5699.585753,-6818.249932,9104.533087
20845.978385,-4663.297435,-7890.783629,10732.986159
20845.978709,-3627.009116,-6894.859482,11917.315666
20845.979032,-1480.411884,-4749.792088,13027.624579
20845.979356,1110.308913,-2068.457845,13323.706956
20845.979679,1036.288319,842.705048,12361.439231
20845.980002,3404.947333,2834.553343,11843.295072
20845.980326,5995.668130,4366.744339,10955.047942
20845.980649,6513.812290,4903.011187,9918.759623
20845.980973,5477.523971,4826.401637,8956.491898
20845.981296,5403.503377,2987.772442,7624.121203
20845.981620,3478.967927,0.000000,7550.100608
20845.981943,888.247130,-2451.505594,8586.388927
20845.982266,-1628.453072,-4136.915689,9474.636058
20845.982590,-4441.235652,-7584.345430,10140.821405
20845.982913,-5921.647536,-8963.317327,11399.171507
20845.983237,-4737.318029,-8197.221829,11621.233289
20845.983560,-3404.947333,-6205.373534,12657.521608
20845.983883,-4293.194464,-4136.915689,11843.295072
20845.984207,-2368.659014,-689.485948,10436.903782
20845.984530,740.205942,2451.505594,9918.759623
20845.984854,1406.391290,5669.106685,9474.636058
20845.985177,666.185348,7584.345430,7846.182985
20845.985501,666.185348,8273.831378,6069.688724
20845.985824,148.041188,7048.078582,4589.276840
20845.986147,1110.308913,5132.839837,2960.823768
20845.986471,0.000000,3677.258390,3627.009116
20845.986794,-2516.700203,536.266849,4515.256246
20845.987118,-4737.318029,-2221.676944,5107.421000
20845.987441,-4663.297435,-4903.011187,6661.853478
20845.987765,-5107.421000,-6818.249932,9104.533087
20845.988088,-5995.668130,-6971.469032,11029.068536
20845.988411,-4589.276840,-6665.030833,10955.047942
20845.988735,-2368.659014,-5209.449386,12287.418637
20845.989058,740.205942,-2911.162892,12805.562797
20845.989382,3923.091493,1149.143247,12287.418637
20845.989705,4737.318029,2834.553343,11843.295072
20845.990028,5181.441594,4290.134789,10362.883188
20845.990352,5921.647536,5362.668486,9326.594869
20845.990675,7624.121203,4749.792088,9030.512492
20845.990999,7402.059420,3140.991542,8512.368333
20845.991322,4441.235652,1762.019645,8216.285956
20845.991646,1998.556043,-995.924147,8142.265362
20845.991969,-296.082377,-3983.696590,9474.636058
20845.992292,-2072.576638,-6052.154434,10436.903782
20845.992616,-3627.009116,-7967.393179,12065.356855
20845.992939,-4589.276840,-8580.269578,12287.418637
20845.993263,-5181.441594,-7507.735880,11843.295072
20845.993586,-3627.009116,-5362.668486,11843.295072
20845.993910,-1110.308913,-2298.286494,11843.295072
20845.994233,-518.144159,1455.581446,10658.965565
20845.994556,-1702.473667,3830.477490,8586.388927
20845.994880,-814.226536,5362.668486,7105.977043
20845.995203,222.061783,6818.249932,6883.915261
20845.995527,296.082377,7277.907231,5551.544565
20845.995850,740.205942,6588.421283,4145.153275
20845.996173,74.020594,4519.963438,3108.864956
20845.996497,-1258.350101,2068.457845,4145.153275
20845.996820,-2146.597232,76.609550,5255.462188
20845.997144,-2146.597232,-2911.162892,6809.894666
20845.997467,-4293.194464,-5132.839837,8586.388927
20845.997791,-5995.668130,-6818.249932,9474.636058
20845.998114,-4589.276840,-6894.859482,10658.965565
20845.998437,-2368.659014,-6358.592633,12287.418637
20845.998761,-2072.576638,-3217.601092,12731.542202
20845.999084,518.144159,0.000000,12213.398043
20845.999408,1924.535449,1302.362347,12509.480420
20845.999731,2886.803174,2834.553343,11103.089130
20846.000055,4219.173869,4749.792088,9770.718434
20846.000378,4737.318029,4826.401637,9400.615463
20846.000701,4737.318029,4519.963438,8068.244768
20846.001025,4441.235652,3140.991542,7179.997637
20846.001348,3775.050304,459.657299,7550.100608
20846.001672,1924.535449,-1991.848295,8216.285956
20846.001995,-1184.329507,-4519.963438,9326.594869
20846.002319,-2886.803174,-6128.763984,10955.047942
20846.002642,-3849.070898,-7277.907231,11843.295072
20846.002965,-3182.885551,-7431.126331,11769.274478
20846.003289,-1406.391290,-5439.278036,12509.480420
20846.003612,-1110.308913,-2757.943793,11991.336260
20846.003936,-444.123565,383.047749,10732.986159
20846.004259,814.226536,3217.601092,9918.759623
20846.004582,1332.370696,5439.278036,8438.347739
20846.004906,2072.576638,7354.516781,6883.915261
20846.005229,2072.576638,8044.002729,5625.565159
20846.005553,148.041188,6665.030833,4811.338623
20846.005876,-740.205942,4213.525239,2516.700203
20846.006200,-1184.329507,2298.286494,2886.803174
20846.006523,-2146.597232,-536.266849,4367.215058
20846.006846,-4885.359217,-3140.991542,6069.688724
20846.007170,-6661.853478,-5439.278036,7105.977043
20846.007493,-5255.462188,-7814.174080,8956.491898
20846.007817,-3627.009116,-7660.954980,10066.800811
20846.008140,-3256.906145,-5822.325785,12361.439231
20846.008464,-1258.350101,-4979.620737,12953.603985
20846.008787,2368.659014,-2911.162892,13175.665768
20846.009110,5773.606348,536.266849,13323.706956
20846.009434,6291.750507,3294.210641,13027.624579
20846.009757,5995.668130,4596.572988,11325.150913
20846.010081,5921.647536,4290.134789,9474.636058
20846.010404,6587.832884,3600.648841,7994.224174
20846.010727,6291.750507,2145.067394,8142.265362
20846.011051,3256.906145,76.609550,8068.244768
20846.011374,-1184.329507,-2528.115143,7994.224174
20846.011698,-2960.823768,-5132.839837,8216.285956
20846.012021,-3923.091493,-7507.735880,9474.636058
20846.012345,-5699.585753,-8120.612279,11695.253884
20846.012668,-6661.853478,-7660.954980,11843.295072
20846.012991,-4959.379811,-7201.297681,11917.315666
20846.013315,-3627.009116,-4519.963438,11695.253884
20846.013638,-1702.473667,-1149.143247,11547.212695
20846.013962,296.082377,1915.238745,11029.068536
20846.014285,222.061783,4060.306139,9548.656652
20846.014609,0.000000,6052.154434,7772.162391
20846.014932,962.267725,7048.078582,6809.894666
20846.015255,1776.494261,6511.811733,5773.606348
20846.015579,0.000000,5362.668486,3923.091493
20846.015902,-296.082377,3447.429741,3775.050304
20846.016226,-1184.329507,1072.533697,3997.112087
20846.016549,-2812.782580,-1149.143247,5329.482782
20846.016872,-3478.967927,-2911.162892,7179.997637
20846.017196,-3997.112087,-5362.668486,8438.347739
20846.017519,-4811.338623,-6741.640382,9104.533087
20846.017843,-3997.112087,-5669.106685,10362.883188
20846.018166,-1702.473667,-4290.134789,12583.501014
20846.018490,444.123565,-2757.943793,13619.789333
20846.018813,1332.370696,229.828649,11769.274478
20846.019136,3404.947333,2298.286494,11103.089130
20846.019460,4811.338623,3677.258390,10881.027347
20846.019783,4515.256246,5209.449386,9474.636058
20846.020107,5921.647536,5975.544884,8808.450710
20846.020430,5699.585753,5209.449386,7698.141797
20846.020754,3923.091493,2604.724693,7031.956449
20846.021077,2886.803174,-76.609550,7846.182985
20846.021400,1406.391290,-2681.334243,8956.491898
20846.021724,-1332.370696,-4673.182538,9770.718434
20846.022047,-3923.091493,-6205.373534,11399.171507
20846.022371,-4589.276840,-6971.469032,11325.150913
20846.022694,-4367.215058,-6588.421283,12213.398043
20846.023017,-3701.029710,-5515.887586,12435.459826
20846.023341,-2146.597232,-2451.505594,11769.274478
20846.023664,-888.247130,306.438199,10658.965565
20846.023988,-740.205942,3140.991542,9474.636058
20846.024311,74.020594,5439.278036,7994.224174
20846.024635,1258.350101,6818.249932,7254.018232
20846.024958,1998.556043,6971.469032,6513.812290
20846.025281,1924.535449,5975.544884,4737.318029
20846.025605,666.185348,4903.011187,3478.967927
20846.025928,-592.164754,1762.019645,3627.009116
20846.026252,-1406.391290,-1455.581446,4737.318029
20846.026575,-2738.761985,-3677.258390,6809.894666
20846.026899,-4663.297435,-6052.154434,9178.553681
20846.027222,-5403.503377,-7737.564530,9622.677246
20846.027545,-3627.009116,-7737.564530,10658.965565
20846.027869,-1628.453072,-6741.640382,12287.418637
20846.028192,-1480.411884,-3983.696590,13323.706956
20846.028516,296.082377,-1378.971896,12361.439231
20846.028839,2664.741391,612.876398,11843.295072
20846.029163,4663.297435,2528.115143,11473.192101
20846.029486,4811.338623,5209.449386,10214.842000
20846.029809,4515.256246,4596.572988,9104.533087
20846.030133,3775.050304,3370.820191,8068.244768
20846.030456,3627.009116,1532.190996,7550.100608
20846.030780,2516.700203,-536.266849,8586.388927
20846.031103,-962.267725,-3370.820191,8734.430116
20846.031426,-3330.926739,-5898.935335,9474.636058
20846.031750,-4219.173869,-7737.564530,10807.006753
20846.032073,-4367.215058,-7737.564530,12509.480420
20846.032397,-3775.050304,-7124.688131,12953.603985
20846.032720,-3108.864956,-6205.373534,12731.542202
20846.033044,-1628.453072,-2681.334243,12139.377449
20846.033367,296.082377,459.657299,11325.150913
20846.033690,1628.453072,3677.258390,10214.842000
20846.034014,1850.514855,6128.763984,9104.533087
20846.034337,814.226536,7354.516781,6883.915261
20846.034661,888.247130,7354.516781,5773.606348
20846.034984,740.205942,6741.640382,4737.318029
20846.035308,666.185348,5056.230287,4367.215058
20846.035631,-1850.514855,3064.381992,3627.009116
20846.035954,-3478.967927,459.657299,3701.029710
20846.036278,-4145.153275,-2221.676944,4885.359217
20846.036601,-4293.194464,-4519.963438,6957.935855
20846.036925,-3923.091493,-5209.449386,8808.450710
20846.037248,-2960.823768,-5439.278036,9696.697840
20846.037571,-2812.782580,-5056.230287,10881.027347
20846.037895,-518.144159,-3064.381992,12139.377449
20846.038218,2812.782580,-306.438199,12731.542202
20846.038542,4367.215058,1915.238745,11991.336260
20846.038865,3997.112087,3830.477490,11029.068536
20846.039189,4737.318029,4213.525239,9918.759623
20846.039512,5773.606348,4903.011187,9622.677246
20846.039835,5255.462188,4060.306139,9030.512492
20846.040159,3997.112087,2834.553343,8216.285956
20846.040482,2072.576638,383.047749,8068.244768
20846.040806,74.020594,-2451.505594,8216.285956
20846.041129,-1036.288319,-4903.011187,9474.636058
20846.041452,-1480.411884,-6588.421283,11177.109724
20846.041776,-3997.112087,-7890.783629,11917.315666
20846.042099,-5181.441594,-7354.516781,11695.253884
20846.042423,-3404.947333,-6894.859482,12213.398043
20846.042746,-1924.535449,-4673.182538,13175.665768
20846.043069,-1036.288319,-1608.800546,12435.459826
20846.043393,-370.102971,1378.971896,10881.027347
20846.043716,666.185348,2834.553343,9622.677246
20846.044039,296.082377,5209.449386,8216.285956
20846.044363,888.247130,6511.811733,6957.935855
20846.044686,1036.288319,6128.763984,5551.544565
20846.045010,74.020594,5132.839837,3182.885551
20846.045333,148.041188,3830.477490,2960.823768
20846.045656,-666.185348,1685.410096,3997.112087
20846.045980,-2368.659014,-1378.971896,4219.173869
20846.046303,-3849.070898,-3447.429741,5847.626942
20846.046626,-5477.523971,-5439.278036,7031.956449
20846.046950,-5477.523971,-7354.516781,8956.491898
20846.047273,-4737.318029,-7277.907231,10214.842000
20846.047597,-2886.803174,-6052.154434,11843.295072
20846.047920,-1036.288319,-4060.306139,13175.665768
20846.048243,296.082377,-919.314598,12509.480420
20846.048567,2590.720797,1072.533697,12065.356855
20846.048890,3627.009116,2451.505594,11621.233289
20846.049214,4885.359217,3830.477490,10436.903782
20846.049537,5551.544565,4290.134789,10066.800811
20846.049860,5181.441594,2987.772442,8660.409521
20846.050184,3627.009116,1455.581446,7772.162391
20846.050507,2368.659014,-1149.143247,7846.182985
20846.050830,888.247130,-4060.306139,8956.491898
20846.051154,-1480.411884,-5745.716235,9844.739029
20846.051477,-4737.318029,-7124.688131,11325.150913
20846.051801,-3997.112087,-8120.612279,12213.398043
20846.052124,-2590.720797,-7354.516781,12583.501014
20846.052447,-2738.761985,-4673.182538,12805.562797
20846.052771,-2294.638420,-2528.115143,11621.233289
20846.053094,-296.082377,1378.971896,10510.924376
20846.053417,1998.556043,4826.401637,9992.780217
20846.053741,1776.494261,6205.373534,8808.450710
20846.054064,370.102971,8197.221829,6957.935855
20846.054388,0.000000,7967.393179,4737.318029
20846.054711,888.247130,7124.688131,3182.885551
20846.055034,888.247130,5439.278036,2812.782580
20846.055358,-1924.535449,2987.772442,2812.782580
20846.055681,-4071.132681,306.438199,2664.741391
20846.056005,-3849.070898,-2374.896044,4145.153275
20846.056328,-3997.112087,-4826.401637,6513.812290
20846.056651,-4737.318029,-5822.325785,8956.491898
20846.056975,-4885.359217,-5975.544884,10214.842000
20846.057298,-3034.844362,-5362.668486,11325.150913
20846.057621,-518.144159,-3600.648841,12953.603985
20846.057945,1924.535449,0.000000,13619.789333
20846.058268,3330.926739,1532.190996,13915.871710
20846.058592,4071.132681,2451.505594,12731.542202
20846.058915,4589.276840,3677.258390,11399.171507
20846.059238,5255.462188,3907.087040,10436.903782
20846.059562,5477.523971,3370.820191,9844.739029
20846.059885,3997.112087,1915.238745,8734.430116
20846.060208,1776.494261,-383.047749,7624.121203
20846.060532,370.102971,-2528.115143,7772.162391
20846.060855,-518.144159,-5515.887586,9622.677246
20846.061179,-2738.761985,-6665.030833,11103.089130
20846.061502,-3552.988522,-7660.954980,12065.356855
20846.061825,-4367.215058,-7431.126331,11917.315666
20846.062149,-3775.050304,-6435.202183,12065.356855
20846.062472,-1924.535449,-3983.696590,11843.295072
20846.062796,-740.205942,-919.314598,11621.233289
20846.063119,-1110.308913,2145.067394,10066.800811
20846.063442,-592.164754,3907.087040,8660.409521
20846.063766,-148.041188,5209.449386,7254.018232
20846.064089,-148.041188,6281.983084,6291.750507
20846.064412,-296.082377,6358.592633,3997.112087
20846.064736,-666.185348,4979.620737,2516.700203
20846.065059,-1258.350101,3524.039291,2590.720797
20846.065383,-1776.494261,766.095498,2664.741391
20846.065706,-1554.432478,-1608.800546,4441.235652
20846.066029,-3108.864956,-4213.525239,6587.832884
20846.066353,-5181.441594,-6281.983084,7920.203579
20846.066676,-4293.194464,-7737.564530,9696.697840
20846.066999,-2220.617826,-7890.783629,11769.274478
20846.067323,-1332.370696,-5362.668486,13767.830521
20846.067646,666.185348,-3217.601092,14211.954086
20846.067970,3404.947333,-919.314598,14211.954086
20846.068293,4145.153275,1149.143247,13619.789333
20846.068616,4811.338623,3370.820191,12583.501014
20846.068940,5995.668130,4213.525239,11325.150913
20846.069263,6217.729913,4060.306139,9770.718434
20846.069586,5699.585753,3294.210641,8438.347739
20846.069910,4663.297435,2068.457845,8216.285956
20846.070233,3256.906145,-842.705048,6957.935855
20846.070557,444.123565,-3217.601092,7846.182985
20846.070880,-1850.514855,-5362.668486,9252.574275
20846.071203,-3923.091493,-7277.907231,10732.986159
20846.071527,-5107.421000,-7737.564530,11621.233289
20846.071850,-3775.050304,-6588.421283,11843.295072
20846.072174,-2738.761985,-5362.668486,11843.295072
20846.072497,-3404.947333,-2068.457845,10436.903782
20846.072820,-1332.370696,689.485948,10807.006753
20846.073144,-296.082377,4290.134789,9770.718434
20846.073467,444.123565,6358.592633,8364.327145
20846.073790,888.247130,7737.564530,7402.059420
20846.074114,0.000000,8120.612279,5921.647536
20846.074437,-444.123565,6894.859482,3849.070898
20846.074761,-518.144159,4366.744339,2368.659014
20846.075084,-1258.350101,2681.334243,2664.741391
20846.075407,-3330.926739,229.828649,4293.194464
20846.075731,-5403.503377,-2451.505594,5403.503377
20846.076054,-5181.441594,-5056.230287,7105.977043
20846.076377,-4145.153275,-6358.592633,9104.533087
20846.076701,-3627.009116,-5592.497135,10807.006753
20846.077024,-2590.720797,-4979.620737,12065.356855
20846.077348,-222.061783,-2757.943793,13767.830521
20846.077671,2368.659014,-612.876398,13989.892304
20846.077994,4885.359217,2298.286494,14137.933492
20846.078318,5255.462188,4060.306139,13101.645173
20846.078641,5033.400406,4596.572988,11325.150913
20846.078965,5329.482782,5132.839837,9326.594869
20846.079288,5551.544565,4443.353888,8438.347739
20846.079611,3923.091493,2911.162892,7624.121203
20846.079935,814.226536,306.438199,7031.956449
20846.080258,-1332.370696,-2987.772442,7031.956449
20846.080581,-2886.803174,-5592.497135,7920.203579
20846.080905,-4293.194464,-7431.126331,9622.677246
20846.081228,-5699.585753,-7584.345430,10584.944971
20846.081552,-5255.462188,-7431.126331,11473.192101
20846.081875,-4663.297435,-5975.544884,11103.089130
20846.082198,-2220.617826,-3600.648841,11103.089130
20846.082522,0.000000,-919.314598,11103.089130
20846.082845,1036.288319,2221.676944,10510.924376
20846.083168,962.267725,4673.182538,9474.636058
20846.083492,1110.308913,6665.030833,8438.347739
20846.083815,2072.576638,7354.516781,7031.956449
20846.084139,1924.535449,6281.983084,5551.544565
20846.084462,1776.494261,4519.963438,2960.823768
20846.084785,1110.308913,2145.067394,2294.638420
20846.085109,-222.061783,0.000000,3478.967927
20846.085432,-1554.432478,-1532.190996,6587.832884
20846.085756,-2368.659014,-3447.429741,8808.450710
20846.086079,-3552.988522,-6128.763984,9030.512492
20846.086402,-5329.482782,-8350.440928,9178.553681
20846.086726,-4071.132681,-8656.879127,11251.130318
20846.087049,-2146.597232,-6128.763984,14063.912898
20846.087372,-1110.308913,-3677.258390,15100.201217
20846.087696,74.020594,-1378.971896,13397.727550
20846.088019,1850.514855,536.266849,12583.501014
20846.088343,1998.556043,1838.629195,11843.295072
20846.088666,2368.659014,3217.601092,9992.780217
20846.088989,4589.276840,4673.182538,9400.615463
20846.089313,5477.523971,3524.039291,7476.080014
20846.089636,4071.132681,2834.553343,6883.915261
20846.089959,2738.761985,229.828649,6735.874072
20846.090283,1628.453072,-2604.724693,6957.935855
20846.090606,-740.205942,-4826.401637,8808.450710
20846.090930,-2664.741391,-5056.230287,11103.089130
20846.091253,-3330.926739,-6818.249932,12139.377449
20846.091576,-3108.864956,-6665.030833,11547.212695
20846.091900,-2664.741391,-4903.011187,11843.295072
20846.092223,-1850.514855,-2221.676944,11991.336260
20846.092546,-1628.453072,919.314598,10955.047942
20846.092870,-1406.391290,3753.867940,10066.800811
20846.093193,-296.082377,5822.325785,9474.636058
20846.093517,-592.164754,7507.735880,7698.141797
20846.093840,-814.226536,7354.516781,5773.606348
20846.094163,-1184.329507,6358.592633,3404.947333
20846.094487,-1258.350101,5056.230287,2220.617826
20846.094810,-1850.514855,2911.162892,2960.823768
20846.095134,-2590.720797,153.219100,4515.256246
20846.095457,-4441.235652,-2451.505594,5477.523971
20846.095780,-6291.750507,-4749.792088,7105.977043
20846.096104,-5181.441594,-6511.811733,9474.636058
20846.096427,-2960.823768,-7124.688131,10955.047942
20846.096750,-1628.453072,-5592.497135,12731.542202
20846.097074,-1110.308913,-3447.429741,14137.933492
20846.097397,1924.535449,-1149.143247,13249.686362
20846.097721,5477.523971,1838.629195,12879.583391
20846.098044,6735.874072,3983.696590,12361.439231
20846.098367,6809.894666,5209.449386,11621.233289
20846.098691,6291.750507,5209.449386,9326.594869
20846.099014,6883.915261,4290.134789,6957.935855
20846.099337,6587.832884,3370.820191,6661.853478
20846.099661,3404.947333,919.314598,6957.935855
20846.099984,0.000000,-2757.943793,6587.832884
20846.100308,-1628.453072,-4903.011187,7550.100608
20846.100631,-2368.659014,-7124.688131,9770.718434
20846.100954,-4293.194464,-8273.831378,11473.192101
20846.101278,-5699.585753,-7967.393179,12065.356855
20846.101601,-4515.256246,-7354.516781,12361.439231
20846.101925,-2146.597232,-5056.230287,12657.521608
20846.102248,0.000000,-1685.410096,12657.521608
20846.102571,518.144159,2068.457845,12139.377449
20846.102895,592.164754,4443.353888,10584.944971
20846.103218,444.123565,5592.497135,8142.265362
20846.103541,740.205942,5898.935335,6883.915261
20846.103865,1406.391290,5975.544884,5477.523971
20846.104188,296.082377,5286.058936,4071.132681
20846.104512,-1406.391290,2681.334243,2442.679609
20846.104835,-2590.720797,306.438199,2886.803174
20846.105158,-3627.009116,-2604.724693,4367.215058
20846.105482,-4219.173869,-3370.820191,6883.915261
20846.105805,-4737.318029,-5362.668486,9030.512492
20846.106128,-4959.379811,-7354.516781,9548.656652
20846.106452,-4737.318029,-7277.907231,10955.047942
20846.106775,-2442.679609,-5898.935335,12287.418637
20846.107099,0.000000,-3294.210641,13619.789333
20846.107422,1628.453072,-383.047749,12805.562797
20846.107745,2294.638420,2068.457845,11917.315666
20846.108069,3108.864956,3524.039291,11251.130318
20846.108392,4293.194464,3677.258390,10510.924376
20846.108716,4441.235652,4060.306139,9400.615463
20846.109039,3923.091493,2987.772442,7624.121203
20846.109362,2442.679609,1455.581446,6735.874072
20846.109686,1258.350101,-995.924147,7105.977043
20846.110009,296.082377,-2987.772442,7920.203579
20846.110332,-1406.391290,-4749.792088,9548.656652
20846.110656,-4145.153275,-6588.421283,11325.150913
20846.110979,-4811.338623,-7277.907231,11251.130318
20846.111303,-3256.906145,-7124.688131,12287.418637
20846.111626,-2368.659014,-5286.058936,12879.583391
20846.111949,-1776.494261,-1838.629195,12287.418637
20846.112273,444.123565,1762.019645,11325.150913
20846.112596,444.123565,3753.867940,10214.842000
20846.112919,1332.370696,6435.202183,9030.512492
20846.113243,1998.556043,8120.612279,7328.038826
20846.113566,2294.638420,7967.393179,5995.668130
20846.113890,1776.494261,7507.735880,3627.009116
20846.114213,1554.432478,6205.373534,2442.679609
20846.114536,518.144159,3600.648841,2516.700203
20846.114860,-1184.329507,153.219100,3849.070898
20846.115183,-3404.947333,-2221.676944,4959.379811
20846.115506,-4663.297435,-4443.353888,7105.977043
20846.115830,-5551.544565,-6741.640382,8734.430116
20846.116153,-4811.338623,-6894.859482,10362.883188
20846.116477,-3108.864956,-6511.811733,11843.295072
20846.116800,-1184.329507,-4903.011187,12953.603985
20846.117123,518.144159,-1685.410096,12805.562797
20846.117447,2960.823768,1838.629195,13323.706956
20846.117770,4885.359217,2757.943793,12435.459826
20846.118094,5625.565159,4060.306139,11473.192101
20846.118417,6143.709319,4596.572988,10732.986159
20846.118740,5477.523971,4060.306139,9178.553681
20846.119064,4959.379811,1991.848295,7698.141797
20846.119387,3775.050304,-842.705048,7846.182985
20846.119710,814.226536,-2987.772442,8882.471304
20846.120034,-3034.844362,-5209.449386,9178.553681
20846.120357,-4441.235652,-8044.002729,10881.027347
20846.120681,-4071.132681,-8350.440928,12435.459826
20846.121004,-4293.194464,-7584.345430,12805.562797
20846.121327,-4515.256246,-6281.983084,12361.439231
20846.121651,-3404.947333,-4213.525239,11399.171507
20846.121974,-1184.329507,-1072.533697,11843.295072
20846.122297,666.185348,2145.067394,10584.944971
20846.122621,666.185348,5286.058936,9770.718434
20846.122944,0.000000,7201.297681,7772.162391
20846.123268,-370.102971,7354.516781,5181.441594
20846.123591,592.164754,6281.983084,3701.029710
20846.123914,222.061783,4903.011187,2664.741391
20846.124238,-2072.576638,2911.162892,2516.700203
20846.124561,-3256.906145,0.000000,2886.803174
20846.124885,-4515.256246,-2451.505594,4293.194464
20846.125208,-4737.318029,-4443.353888,6661.853478
20846.125531,-5551.544565,-5975.544884,8586.388927
20846.125855,-4737.318029,-6818.249932,9844.739029
20846.126178,-3108.864956,-6665.030833,11473.192101
20846.126501,-888.247130,-4903.011187,13175.665768
20846.126825,1924.535449,-2068.457845,13397.727550
20846.127148,4293.194464,919.314598,13841.851115
20846.127472,4737.318029,2451.505594,12361.439231
20846.127795,5181.441594,4060.306139,11251.130318
20846.128118,6291.750507,4596.572988,10807.006753
20846.128442,6439.791695,4213.525239,9992.780217
20846.128765,5551.544565,3140.991542,8438.347739
20846.129088,3552.988522,1378.971896,7994.224174
20846.129412,1554.432478,-1915.238745,7846.182985
20846.129735,-370.102971,-3447.429741,8734.430116
20846.130059,-1628.453072,-5515.887586,9844.739029
20846.130382,-3849.070898,-6894.859482,11251.130318
20846.130705,-5255.462188,-6894.859482,11843.295072
20846.131029,-4071.132681,-6511.811733,11843.295072
20846.131352,-2664.741391,-4366.744339,11991.336260
20846.131675,-2368.659014,-1991.848295,11473.192101
20846.131999,-1406.391290,2068.457845,9844.739029
20846.132322,-518.144159,4443.353888,8808.450710
20846.132646,-148.041188,5975.544884,7698.141797
20846.132969,370.102971,7431.126331,5847.626942
20846.133292,592.164754,7660.954980,4589.276840
20846.133616,740.205942,6588.421283,3256.906145
20846.133939,-666.185348,3983.696590,1998.556043
20846.134263,-1036.288319,1991.848295,2886.803174
20846.134586,-1998.556043,-1225.752797,4663.297435
20846.134909,-3997.112087,-3294.210641,6883.915261
20846.135233,-4959.379811,-5515.887586,8290.306550
20846.135556,-4663.297435,-7124.688131,9252.574275
20846.135879,-3182.885551,-7890.783629,11251.130318
20846.136203,-1554.432478,-5515.887586,12435.459826
20846.136526,1258.350101,-2757.943793,13915.871710
20846.136850,2886.803174,-1302.362347,13619.789333
20846.137173,3997.112087,1378.971896,12879.583391
20846.137496,5625.565159,3294.210641,11695.253884
20846.137820,6439.791695,4366.744339,10955.047942
20846.138143,5921.647536,4213.525239,10214.842000
20846.138466,4959.379811,4136.915689,9400.615463
20846.138790,3330.926739,995.924147,8438.347739
20846.139113,1406.391290,-1915.238745,8068.244768
20846.139437,-1184.329507,-5056.230287,8734.430116
20846.139760,-4515.256246,-7277.907231,9474.636058
20846.140083,-6661.853478,-8503.660028,10288.862594
20846.140407,-5625.565159,-9422.974625,10807.006753
20846.140730,-3552.988522,-6894.859482,11399.171507
20846.141054,-3108.864956,-4519.963438,11177.109724
20846.141377,-2516.700203,-2834.553343,10584.944971
20846.141700,0.000000,612.876398,9548.656652
20846.142024,2146.597232,3983.696590,9474.636058
20846.142347,3108.864956,6588.421283,8586.388927
20846.142670,2220.617826,8273.831378,7624.121203
20846.142994,1924.535449,7967.393179,5847.626942
20846.143317,2072.576638,5975.544884,4441.235652
20846.143641,1480.411884,4366.744339,4441.235652
20846.143964,-814.226536,1915.238745,4811.338623
20846.144287,-3627.009116,-1225.752797,5255.462188
20846.144611,-5033.400406,-4290.134789,5921.647536
20846.144934,-5699.585753,-5745.716235,7550.100608
20846.145258,-4737.318029,-7201.297681,9326.594869
20846.145581,-5551.544565,-6665.030833,10214.842000
20846.145905,-3627.009116,-5745.716235,11251.130318
20846.146228,-444.123565,-3064.381992,12583.501014
20846.146552,2590.720797,-459.657299,13175.665768
20846.146875,4071.132681,2221.676944,12879.583391
20846.147198,4515.256246,3677.258390,11991.336260
20846.147522,4885.359217,4673.182538,10584.944971
20846.147845,4737.318029,4596.572988,9844.739029
20846.148169,5329.482782,3677.258390,9622.677246
20846.148492,4367.215058,2221.676944,9474.636058
20846.148816,1406.391290,-766.095498,8216.285956
20846.149139,-444.123565,-3064.381992,8512.368333
20846.149463,-1480.411884,-5132.839837,9474.636058
20846.149786,-3256.906145,-6435.202183,10436.903782
20846.150110,-4293.194464,-6894.859482,10807.006753
20846.150433,-4367.215058,-5822.325785,10510.924376
20846.150756,-3627.009116,-4366.744339,10732.986159
20846.151080,-1258.350101,-2604.724693,10732.986159
20846.151403,592.164754,306.438199,10436.903782
20846.151727,296.082377,3140.991542,9474.636058
20846.152050,-592.164754,5209.449386,7920.203579
20846.152374,296.082377,6281.983084,7328.038826
20846.152697,1258.350101,6818.249932,6735.874072
20846.153021,518.144159,6435.202183,5773.606348
20846.153344,148.041188,4979.620737,4441.235652
20846.153668,-1184.329507,2374.896044,3478.967927
20846.153991,-2146.597232,0.000000,4885.359217
20846.154315,-2220.617826,-2451.505594,6439.791695
20846.154638,-3849.070898,-4749.792088,6957.935855
20846.154961,-5107.421000,-6741.640382,8364.327145
20846.155285,-4219.173869,-7201.297681,9622.677246
20846.155608,-2072.576638,-6358.592633,11029.068536
20846.155932,-1480.411884,-4903.011187,12953.603985
20846.156255,74.020594,-2528.115143,12731.542202
20846.156579,2294.638420,-306.438199,12139.377449
20846.156902,2886.803174,1225.752797,12657.521608
20846.157226,3775.050304,2528.115143,11251.130318
20846.157549,4441.235652,3677.258390,10510.924376
20846.157873,4663.297435,3830.477490,9622.677246
20846.158196,3923.091493,2834.553343,8512.368333
20846.158519,3108.864956,612.876398,8290.306550
20846.158843,1998.556043,-2221.676944,8364.327145
20846.159166,-370.102971,-3753.867940,9104.533087
20846.159490,-3034.844362,-6588.421283,10066.800811
20846.159813,-4367.215058,-7354.516781,10214.842000
20846.160137,-4663.297435,-8044.002729,10732.986159
20846.160460,-3108.864956,-7048.078582,11473.192101
20846.160784,-1554.432478,-4443.353888,11325.150913
20846.161107,-888.247130,-1685.410096,10881.027347
20846.161431,74.020594,1455.581446,9770.718434
20846.161754,1998.556043,3677.258390,8956.491898
20846.162077,1998.556043,6588.421283,8364.327145
20846.162401,1850.514855,8044.002729,7179.997637
20846.162724,1406.391290,7507.735880,5847.626942
20846.163048,962.267725,5898.935335,3775.050304
20846.163371,-222.061783,4136.915689,3182.885551
20846.163695,-1628.453072,1685.410096,4737.318029
20846.164018,-3478.967927,0.000000,5033.400406
20846.164342,-5329.482782,-4673.182538,6883.915261
20846.164665,-6587.832884,-6665.030833,7772.162391
20846.164989,-6365.771101,-7201.297681,9252.574275
20846.165312,-5033.400406,-7124.688131,10362.883188
20846.165635,-3775.050304,-5439.278036,11917.315666
20846.165959,-1702.473667,-3217.601092,12731.542202
20846.166282,1628.453072,-766.095498,12287.418637
20846.166606,4145.153275,2681.334243,12583.501014
20846.166929,5699.585753,4749.792088,11843.295072
20846.167253,5329.482782,5056.230287,11029.068536
20846.167576,5847.626942,5132.839837,9104.533087
20846.167900,6587.832884,4673.182538,8512.368333
20846.168223,5329.482782,3217.601092,8216.285956
20846.168547,2072.576638,612.876398,8290.306550
20846.168870,-592.164754,-2451.505594,7550.100608
20846.169193,-1776.494261,-5975.544884,8808.450710
20846.169517,-3182.885551,-6818.249932,10658.965565
20846.169840,-4589.276840,-7201.297681,11843.295072
20846.170164,-4885.359217,-7201.297681,11547.212695
20846.170487,-4145.153275,-5669.106685,11103.089130
20846.170811,-2368.659014,-2834.553343,10807.006753
20846.171134,0.000000,229.828649,10732.986159
20846.171458,0.000000,2911.162892,9622.677246
20846.171781,518.144159,5669.106685,8586.388927
20846.172105,1036.288319,6435.202183,7698.141797
20846.172428,888.247130,6971.469032,6735.874072
20846.172751,814.226536,6358.592633,5329.482782
20846.173075,666.185348,5056.230287,3923.091493
20846.173398,-518.144159,2681.334243,4219.173869
20846.173722,-2146.597232,919.314598,5181.441594
20846.174045,-1998.556043,-2145.067394,6735.874072
20846.174369,-2738.761985,-4673.182538,8734.430116
20846.174692,-4293.194464,-6665.030833,9178.553681
20846.175016,-4959.379811,-7124.688131,9844.739029
20846.175339,-3256.906145,-7354.516781,10955.047942
20846.175663,-740.205942,-4903.011187,13101.645173
20846.175986,592.164754,-2374.896044,13323.706956
20846.176309,1258.350101,229.828649,11843.295072
20846.176633,2812.782580,2298.286494,11399.171507
20846.176956,3849.070898,3447.429741,10732.986159
20846.177280,4663.297435,4519.963438,9326.594869
20846.177603,5107.421000,4443.353888,8660.409521
20846.177927,4737.318029,3983.696590,7402.059420
20846.178250,2812.782580,1915.238745,7550.100608
20846.178574,1776.494261,-919.314598,7254.018232
20846.178897,74.020594,-4213.525239,8290.306550
20846.179221,-2220.617826,-6128.763984,9918.759623
20846.179544,-4145.153275,-7201.297681,11251.130318
20846.179867,-4441.235652,-8044.002729,11769.274478
20846.180191,-4071.132681,-7431.126331,11991.336260
20846.180514,-3256.906145,-4903.011187,11843.295072
20846.180838,-1332.370696,-1915.238745,11473.192101
20846.181161,0.000000,919.314598,11029.068536
20846.181485,148.041188,4290.134789,9622.677246
20846.181808,962.267725,6205.373534,8512.368333
20846.182132,1332.370696,7277.907231,6809.894666
20846.182455,1258.350101,7277.907231,5255.462188
20846.182779,370.102971,6818.249932,4219.173869
20846.183102,-222.061783,4290.134789,2886.803174
20846.183425,-1406.391290,1532.190996,4145.153275
20846.183749,-2738.761985,-1838.629195,5255.462188
20846.184072,-5255.462188,-4290.134789,6883.915261
20846.184396,-7105.977043,-6818.249932,8364.327145
20846.184719,-6069.688724,-8044.002729,9474.636058
20846.185043,-3627.009116,-7354.516781,11473.192101
20846.185366,-2442.679609,-6665.030833,11991.336260
20846.185690,-2146.597232,-3447.429741,12657.521608
20846.186013,1924.535449,-689.485948,11991.336260
20846.186337,4737.318029,2298.286494,12361.439231
20846.186660,6513.812290,3753.867940,11547.212695
20846.186983,7105.977043,5362.668486,10362.883188
20846.187307,6735.874072,5515.887586,9326.594869
20846.187630,6957.935855,4443.353888,7624.121203
20846.187954,6957.935855,2528.115143,7328.038826
20846.188277,4219.173869,383.047749,7772.162391
20846.188601,-148.041188,-2834.553343,8290.306550
20846.188924,-2516.700203,-5822.325785,9696.697840
20846.189248,-3923.091493,-7584.345430,11695.253884
20846.189571,-4293.194464,-8120.612279,12583.501014
20846.189895,-5625.565159,-7201.297681,12435.459826
20846.190218,-5033.400406,-5898.935335,11251.130318
