#time,accel_x,accel_y,accel_z
851.878016,296.082377,995.924147,8956.491898
851.878341,296.082377,842.705048,9400.615463
851.878666,-296.082377,383.047749,8734.430116
851.878991,0.000000,766.095498,9030.512492
851.879317,1036.288319,612.876398,9622.677246
851.879642,0.000000,383.047749,9622.677246
851.879967,-592.164754,459.657299,9326.594869
851.880292,148.041188,766.095498,8882.471304
851.880617,0.000000,76.609550,9252.574275
851.880942,-370.102971,919.314598,9326.594869
851.881267,0.000000,459.657299,9770.718434
851.881592,0.000000,689.485948,8956.491898
851.881917,518.144159,995.924147,9030.512492
851.882243,1036.288319,766.095498,9696.697840
851.882568,148.041188,612.876398,9104.533087
851.882893,-592.164754,1072.533697,8882.471304
851.883218,370.102971,842.705048,9252.574275
851.883543,222.061783,459.657299,9622.677246
851.883868,-1332.370696,689.485948,9474.636058
851.884193,-1258.350101,536.266849,9178.553681
851.884518,-962.267725,536.266849,9178.553681
851.884843,-962.267725,612.876398,9030.512492
851.885169,-740.205942,1302.362347,9474.636058
851.885494,-962.267725,612.876398,9252.574275
851.885819,0.000000,1378.971896,8882.471304
851.886144,370.102971,1532.190996,9696.697840
851.886469,-148.041188,1378.971896,9474.636058
851.886794,-1258.350101,1302.362347,9326.594869
851.887119,-518.144159,1149.143247,9992.780217
851.887444,0.000000,1225.752797,9696.697840
851.887769,-1332.370696,1762.019645,9474.636058
851.888095,-2368.659014,1149.143247,9178.553681
851.888420,-1924.535449,1455.581446,9474.636058
851.888745,-1850.514855,2145.067394,9770.718434
851.889070,-2368.659014,1915.238745,9770.718434
851.889395,-2812.782580,1915.238745,9474.636058
851.889720,-2294.638420,2681.334243,9178.553681
851.890045,-1628.453072,3370.820191,9178.553681
851.890370,-1332.370696,3370.820191,9548.656652
851.890695,-2960.823768,3217.601092,9104.533087
851.891021,-3034.844362,3217.601092,8882.471304
851.891346,-1998.556043,3447.429741,8956.491898
851.891671,-2368.659014,3447.429741,8956.491898
851.891996,-3330.926739,3677.258390,8586.388927
851.892321,-2886.803174,3524.039291,8364.327145
851.892646,-2368.659014,3370.820191,8660.409521
851.892971,-2220.617826,3677.258390,8882.471304
851.893296,-2220.617826,3447.429741,8586.388927
851.893622,-2220.617826,3600.648841,8290.306550
851.893947,-1628.453072,3830.477490,8142.265362
851.894272,-444.123565,3753.867940,9104.533087
851.894597,-740.205942,3830.477490,9252.574275
851.894922,-1924.535449,2757.943793,8290.306550
851.895247,-1110.308913,2604.724693,9030.512492
851.895572,-592.164754,2374.896044,9474.636058
851.895897,-1924.535449,2221.676944,9918.759623
851.896222,-2294.638420,1838.629195,9474.636058
851.896548,-2072.576638,2451.505594,9696.697840
851.896873,-1850.514855,2604.724693,10288.862594
851.897198,-2664.741391,2681.334243,10881.027347
851.897523,-2960.823768,2604.724693,11399.171507
851.897848,-2960.823768,3064.381992,10658.965565
851.898173,-2294.638420,3753.867940,11251.130318
851.898498,-2146.597232,3830.477490,11177.109724
851.898823,-3404.947333,4136.915689,9844.739029
851.899148,-3997.112087,4903.011187,9030.512492
851.899474,-3108.864956,4903.011187,9252.574275
851.899799,-3923.091493,4366.744339,8956.491898
851.900124,-5477.523971,4290.134789,7550.100608
851.900449,-4515.256246,3907.087040,6513.812290
851.900774,-3701.029710,4060.306139,6661.853478
851.901099,-3108.864956,3983.696590,6217.729913
851.901424,-3108.864956,3753.867940,6217.729913
851.901749,-2664.741391,3600.648841,5181.441594
851.902074,-1702.473667,2757.943793,5921.647536
851.902400,-888.247130,2145.067394,7772.162391
851.902725,-1998.556043,1532.190996,8660.409521
851.903050,-2738.761985,1455.581446,9548.656652
851.903375,-1480.411884,1378.971896,10658.965565
851.903700,0.000000,1762.019645,11843.295072
851.904025,-1184.329507,1685.410096,11325.150913
851.904350,-666.185348,1685.410096,10732.986159
851.904675,1406.391290,2221.676944,11251.130318
851.905000,2368.659014,2298.286494,11177.109724
851.905326,2664.741391,2068.457845,10658.965565
851.905651,2886.803174,1455.581446,10066.800811
851.905976,3108.864956,919.314598,9104.533087
851.906301,3404.947333,76.609550,10436.903782
851.906626,1332.370696,-1225.752797,11399.171507
851.906951,-1924.535449,-2221.676944,11769.274478
851.907276,-3404.947333,-2451.505594,12657.521608
851.907601,-3627.009116,-1915.238745,13619.789333
851.907926,-5551.544565,-306.438199,13397.727550
851.908252,-7328.038826,0.000000,12361.439231
851.908577,-6291.750507,3064.381992,10881.027347
851.908902,-4589.276840,5286.058936,9696.697840
851.909227,-3849.070898,7201.297681,7402.059420
851.909552,-2516.700203,8580.269578,4589.276840
851.909877,-1924.535449,8733.488677,2590.720797
851.910202,-1924.535449,8350.440928,2220.617826
851.910527,-1998.556043,6665.030833,3478.967927
851.910853,-3552.988522,4519.963438,3849.070898
851.911178,-5255.462188,1991.848295,4293.194464
851.911503,-5329.482782,153.219100,6217.729913
851.911828,-5329.482782,-1302.362347,8142.265362
851.912153,-6217.729913,-1762.019645,9770.718434
851.912478,-4367.215058,-2068.457845,10658.965565
851.912803,-1850.514855,153.219100,11473.192101
851.913128,-296.082377,1532.190996,12509.480420
851.913453,0.000000,3140.991542,13101.645173
851.913779,148.041188,4903.011187,13989.892304
851.914104,-666.185348,6128.763984,14211.954086
851.914429,-1110.308913,6894.859482,14508.036463
851.914754,-1702.473667,7354.516781,13471.748144
851.915079,-2072.576638,7507.735880,11695.253884
851.915404,-2072.576638,7277.907231,10732.986159
851.915729,-2516.700203,5898.935335,10140.821405
851.916054,-3997.112087,4749.792088,8438.347739
851.916379,-3849.070898,3447.429741,6217.729913
851.916705,-2516.700203,2374.896044,5181.441594
851.917030,-2738.761985,995.924147,4071.132681
851.917355,-3330.926739,306.438199,3552.988522
851.917680,-1702.473667,229.828649,4293.194464
851.918005,-888.247130,229.828649,5329.482782
851.918330,-740.205942,842.705048,7031.956449
851.918655,0.000000,1532.190996,8068.244768
851.918980,-1332.370696,2987.772442,10732.986159
851.919305,-2664.741391,3907.087040,13027.624579
851.919631,-2590.720797,5056.230287,14063.912898
851.919956,-962.267725,6741.640382,13323.706956
851.920281,-222.061783,8963.317327,11695.253884
851.920606,-518.144159,8503.660028,10214.842000
851.920931,74.020594,7890.783629,7772.162391
851.921256,1702.473667,7124.688131,6809.894666
851.921581,1628.453072,4903.011187,6735.874072
851.921906,444.123565,612.876398,4885.359217
851.922231,1184.329507,-1225.752797,3182.885551
851.922557,666.185348,-3907.087040,6957.935855
851.922882,-4219.173869,-5975.544884,10732.986159
851.923207,-7105.977043,-7890.783629,12731.542202
851.923532,-7476.080014,-8120.612279,16358.551318
851.923857,-7550.100608,-6818.249932,17987.004391
851.924182,-7328.038826,-3370.820191,18061.024985
851.924507,-5477.523971,1685.410096,17024.736666
851.924832,-2738.761985,5439.278036,14582.057057
851.925157,-1554.432478,8350.440928,10955.047942
851.925483,2516.700203,11414.822920,5921.647536
851.925808,6365.771101,13483.280765,1850.514855
851.926133,7179.997637,12257.527968,-1110.308913
851.926458,3997.112087,8044.002729,-592.164754
851.926783,-962.267725,2528.115143,1036.288319
851.927108,-4737.318029,-995.924147,3478.967927
851.927433,-9252.574275,-5515.887586,7031.956449
851.927758,-11843.295072,-8120.612279,10140.821405
851.928084,-11843.295072,-9422.974625,11399.171507
851.928409,-10807.006753,-9039.926876,13767.830521
851.928734,-8734.430116,-6128.763984,15914.427753
851.929059,-3923.091493,-536.266849,15692.365970
851.929384,1480.411884,4979.620737,13323.706956
851.929709,6143.709319,7890.783629,11103.089130
851.930034,10584.944971,10189.070123,6143.709319
851.930359,11843.295072,12793.794817,4737.318029
851.930684,9474.636058,11644.651570,6217.729913
851.931010,6661.853478,8810.098227,9696.697840
851.931335,2072.576638,4826.401637,11843.295072
851.931660,-2442.679609,919.314598,10140.821405
851.931985,-5773.606348,-2911.162892,11917.315666
851.932310,-7920.203579,-4596.572988,11103.089130
851.932635,-7846.182985,-4903.011187,10288.862594
851.932960,-4663.297435,-4979.620737,10510.924376
851.933285,-2590.720797,-3217.601092,8290.306550
851.933610,-370.102971,-153.219100,5995.668130
851.933935,3182.885551,1685.410096,3182.885551
851.934260,5329.482782,3294.210641,5847.626942
851.934585,4663.297435,4443.353888,7402.059420
851.934911,2664.741391,5362.668486,9400.615463
851.935236,3404.947333,4443.353888,10066.800811
851.935561,3849.070898,4749.792088,11251.130318
851.935886,1776.494261,5439.278036,12731.542202
851.936211,1480.411884,4749.792088,12731.542202
851.936536,1480.411884,1532.190996,11177.109724
851.936861,1258.350101,0.000000,9696.697840
851.937186,3923.091493,842.705048,8734.430116
851.937511,2442.679609,0.000000,7846.182985
851.937836,-1628.453072,-1685.410096,6069.688724
851.938161,-3256.906145,-4290.134789,5921.647536
851.938486,-3923.091493,-3830.477490,7402.059420
851.938811,-4737.318029,-3217.601092,9326.594869
851.939136,-5107.421000,-2834.553343,10288.862594
851.939461,-4885.359217,-3217.601092,11695.253884
851.939786,-3701.029710,-1762.019645,12065.356855
851.940111,-2294.638420,919.314598,11695.253884
851.940437,148.041188,1838.629195,11177.109724
851.940762,2072.576638,2681.334243,7920.203579
851.941087,2368.659014,2911.162892,8882.471304
851.941412,2516.700203,2528.115143,10658.965565
851.941737,1332.370696,1225.752797,10066.800811
851.942062,-1406.391290,-536.266849,10881.027347
851.942387,-370.102971,-1072.533697,10288.862594
851.942712,-296.082377,-536.266849,10658.965565
851.943037,-1184.329507,-2374.896044,9030.512492
851.943362,-370.102971,-1302.362347,7698.141797
851.943687,-222.061783,-689.485948,7031.956449
851.944012,518.144159,-919.314598,5699.585753
851.944337,888.247130,-1532.190996,4811.338623
851.944662,-1110.308913,-1532.190996,6291.750507
851.944987,-2220.617826,153.219100,8734.430116
851.945312,-3404.947333,-383.047749,11177.109724
851.945638,-3849.070898,-1532.190996,11399.171507
851.945963,-2220.617826,-459.657299,11325.150913
851.946288,-1480.411884,2451.505594,11695.253884
851.946613,148.041188,2834.553343,11695.253884
851.946938,3997.112087,3677.258390,10436.903782
851.947263,6365.771101,3907.087040,7994.224174
851.947588,8068.244768,3830.477490,7698.141797
851.947913,7328.038826,2757.943793,5995.668130
851.948238,4737.318029,995.924147,7772.162391
851.948563,2220.617826,-383.047749,9548.656652
851.948888,-1480.411884,-2145.067394,10732.986159
851.949213,-3256.906145,-3983.696590,9992.780217
851.949538,-3256.906145,-3753.867940,11325.150913
851.949863,-4293.194464,-1532.190996,12213.398043
851.950188,-3849.070898,0.000000,12805.562797
851.950513,-1110.308913,1455.581446,10658.965565
851.950839,2294.638420,3217.601092,8882.471304
851.951164,4663.297435,5515.887586,5921.647536
851.951489,5625.565159,6358.592633,4811.338623
851.951814,4811.338623,6741.640382,7031.956449
851.952139,2812.782580,4979.620737,8586.388927
851.952464,-592.164754,2987.772442,9696.697840
851.952789,-1110.308913,-383.047749,8364.327145
851.953114,-1702.473667,-995.924147,8586.388927
851.953439,-3404.947333,-1378.971896,10288.862594
851.953764,-3701.029710,-766.095498,11769.274478
851.954089,-2220.617826,-1991.848295,10732.986159
851.954414,-592.164754,-1762.019645,8956.491898
851.954739,1480.411884,229.828649,6809.894666
851.955064,1110.308913,842.705048,6735.874072
851.955389,222.061783,1378.971896,8808.450710
851.955714,-1332.370696,1149.143247,10214.842000
851.956039,-1480.411884,1532.190996,10881.027347
851.956365,-1998.556043,1378.971896,9178.553681
851.956690,-2072.576638,919.314598,9030.512492
851.957015,-2442.679609,1532.190996,11029.068536
851.957340,-1776.494261,1991.848295,11843.295072
851.957665,370.102971,229.828649,9844.739029
851.957990,1480.411884,-766.095498,8216.285956
851.958315,2146.597232,-383.047749,6513.812290
851.958640,2368.659014,0.000000,7031.956449
851.958965,2072.576638,-1838.629195,8808.450710
851.959290,-1554.432478,-2681.334243,10732.986159
851.959615,-2368.659014,-3217.601092,10140.821405
851.959940,-222.061783,-2451.505594,9548.656652
851.960265,0.000000,-1685.410096,11029.068536
851.960590,-1628.453072,-383.047749,11769.274478
851.960915,-1924.535449,1149.143247,10436.903782
851.961240,1776.494261,1225.752797,9326.594869
851.961566,5033.400406,1762.019645,7105.977043
851.961891,4293.194464,3064.381992,6217.729913
851.962216,2368.659014,3524.039291,7031.956449
851.962541,962.267725,2451.505594,8956.491898
851.962866,-444.123565,383.047749,11325.150913
851.963191,-1406.391290,-1225.752797,10732.986159
851.963516,-2738.761985,-2757.943793,8364.327145
851.963841,-4811.338623,-1762.019645,9030.512492
851.964166,-2368.659014,-1608.800546,11843.295072
851.964491,-1850.514855,-1149.143247,10807.006753
851.964816,-1258.350101,-2681.334243,8364.327145
851.965141,2072.576638,-1455.581446,5921.647536
851.965466,2368.659014,2068.457845,7402.059420
851.965791,2368.659014,2298.286494,9844.739029
851.966116,962.267725,1072.533697,11399.171507
851.966441,-666.185348,-383.047749,12213.398043
851.966767,-444.123565,2298.286494,11103.089130
851.967092,1554.432478,3140.991542,10658.965565
851.967417,-370.102971,2374.896044,11547.212695
851.967742,222.061783,2528.115143,10510.924376
851.968067,1554.432478,3370.820191,8512.368333
851.968392,3552.988522,1532.190996,6439.791695
851.968717,2960.823768,1608.800546,4293.194464
851.969042,222.061783,2451.505594,6883.915261
851.969367,-1554.432478,1762.019645,7402.059420
851.969692,-3849.070898,-1532.190996,8734.430116
851.970017,-5181.441594,-3524.039291,9400.615463
851.970342,-4071.132681,-383.047749,9770.718434
851.970667,-3330.926739,1532.190996,10288.862594
851.970992,-2220.617826,1072.533697,11473.192101
851.971317,-1702.473667,306.438199,10658.965565
851.971642,74.020594,2987.772442,8734.430116
851.971967,4441.235652,4979.620737,7179.997637
851.972293,6365.771101,4519.963438,6883.915261
851.972618,3330.926739,4213.525239,8290.306550
851.972943,1332.370696,1915.238745,9844.739029
851.973268,74.020594,1378.971896,11029.068536
851.973593,-592.164754,-612.876398,10066.800811
851.973918,-1110.308913,-612.876398,10140.821405
851.974243,-1998.556043,-689.485948,10881.027347
851.974568,-1776.494261,0.000000,11103.089130
851.974893,814.226536,-306.438199,9326.594869
851.975218,1554.432478,229.828649,6883.915261
851.975543,1924.535449,612.876398,4441.235652
851.975868,2146.597232,2681.334243,5107.421000
851.976193,1850.514855,1838.629195,7550.100608
851.976518,-1628.453072,-612.876398,9770.718434
851.976843,-2960.823768,-1378.971896,9918.759623
851.977168,-1702.473667,229.828649,11029.068536
851.977494,-222.061783,919.314598,13175.665768
851.977819,444.123565,459.657299,12361.439231
851.978144,592.164754,-153.219100,12657.521608
851.978469,1850.514855,689.485948,9696.697840
851.978794,4219.173869,2681.334243,7698.141797
851.979119,6217.729913,2145.067394,7476.080014
851.979444,4145.153275,383.047749,6957.935855
851.979769,0.000000,-1378.971896,8512.368333
851.980094,-2960.823768,-2221.676944,9104.533087
851.980419,-3997.112087,-2604.724693,10658.965565
851.980744,-5033.400406,-4136.915689,10955.047942
851.981069,-5329.482782,-3524.039291,10658.965565
851.981394,-4515.256246,-1915.238745,11917.315666
851.981719,-2368.659014,-536.266849,10881.027347
851.982044,74.020594,1838.629195,9104.533087
851.982369,2368.659014,2834.553343,6661.853478
851.982694,4367.215058,3753.867940,5033.400406
851.983020,4515.256246,3983.696590,6883.915261
851.983345,3256.906145,2604.724693,8882.471304
851.983670,-444.123565,1225.752797,9918.759623
851.983995,-2664.741391,-766.095498,9622.677246
851.984320,-1702.473667,-1149.143247,9918.759623
851.984645,-2590.720797,-1149.143247,11029.068536
851.984970,-3627.009116,-995.924147,11325.150913
851.985295,-2220.617826,76.609550,10658.965565
851.985620,-962.267725,306.438199,8734.430116
851.985945,666.185348,1149.143247,6587.832884
851.986270,1480.411884,2068.457845,5699.585753
851.986595,1924.535449,2528.115143,7105.977043
851.986920,74.020594,3524.039291,9252.574275
851.987245,-1036.288319,1762.019645,11177.109724
851.987570,-2812.782580,612.876398,10658.965565
851.987895,-2886.803174,689.485948,9992.780217
851.988221,-1924.535449,1072.533697,10955.047942
851.988546,0.000000,1455.581446,11621.233289
851.988871,666.185348,1838.629195,10288.862594
851.989196,3182.885551,1149.143247,8512.368333
851.989521,5625.565159,2987.772442,6809.894666
851.989846,5181.441594,2604.724693,6439.791695
851.990171,3404.947333,2068.457845,7550.100608
851.990496,592.164754,689.485948,9474.636058
851.990821,-962.267725,-229.828649,9770.718434
851.991146,-148.041188,-536.266849,10807.006753
851.991471,-1628.453072,612.876398,11103.089130
851.991796,-3478.967927,153.219100,10732.986159
851.992121,-2072.576638,229.828649,10362.883188
851.992446,888.247130,1455.581446,9770.718434
851.992771,2072.576638,2298.286494,8068.244768
851.993096,2146.597232,2528.115143,4885.359217
851.993422,1776.494261,2451.505594,4811.338623
851.993747,666.185348,1378.971896,7698.141797
851.994072,-1258.350101,536.266849,10066.800811
851.994397,-2886.803174,-2221.676944,10732.986159
851.994722,-2664.741391,-2834.553343,9918.759623
851.995047,-1480.411884,-1072.533697,11843.295072
851.995372,-518.144159,0.000000,13767.830521
851.995697,370.102971,-766.095498,10584.944971
851.996022,1110.308913,-1149.143247,8438.347739
851.996347,4737.318029,842.705048,7772.162391
851.996672,4663.297435,2911.162892,7624.121203
851.996997,2072.576638,1072.533697,8290.306550
851.997322,740.205942,-229.828649,9252.574275
851.997647,-1776.494261,0.000000,10214.842000
851.997972,-3108.864956,-1072.533697,10881.027347
851.998297,-3256.906145,-1532.190996,10510.924376
851.998622,-4515.256246,-1762.019645,10955.047942
851.998948,-3478.967927,-766.095498,11843.295072
851.999273,-518.144159,-842.705048,10584.944971
851.999598,1924.535449,0.000000,7624.121203
851.999923,3034.844362,1149.143247,4885.359217
852.000248,2294.638420,1225.752797,5329.482782
852.000573,1406.391290,919.314598,7179.997637
852.000898,-962.267725,383.047749,9178.553681
852.001223,-2368.659014,-689.485948,10214.842000
852.001548,-2664.741391,-2298.286494,9474.636058
852.001873,-2738.761985,-766.095498,9918.759623
852.002198,-2442.679609,-229.828649,12583.501014
852.002523,-2072.576638,1149.143247,12731.542202
852.002848,592.164754,536.266849,9474.636058
852.003173,3849.070898,1532.190996,7698.141797
852.003498,5773.606348,3677.258390,6291.750507
852.003823,2960.823768,4136.915689,7031.956449
852.004149,1480.411884,1149.143247,8216.285956
852.004474,0.000000,0.000000,10584.944971
852.004799,-2146.597232,-766.095498,11695.253884
852.005124,-2886.803174,-1072.533697,10658.965565
852.005449,-2072.576638,-995.924147,9252.574275
852.005774,-2886.803174,-1149.143247,10732.986159
852.006099,-1628.453072,766.095498,11399.171507
852.006424,370.102971,2068.457845,9622.677246
852.006749,4145.153275,2374.896044,7698.141797
852.007074,5477.523971,2298.286494,5921.647536
852.007399,4071.132681,3600.648841,7402.059420
852.007724,1554.432478,3677.258390,8586.388927
852.008049,-296.082377,1455.581446,9696.697840
852.008374,-1776.494261,-1378.971896,10881.027347
852.008699,-1776.494261,383.047749,10214.842000
852.009024,-2886.803174,383.047749,10732.986159
852.009350,-3775.050304,-995.924147,10362.883188
852.009675,-1850.514855,0.000000,9696.697840
852.010000,444.123565,919.314598,9326.594869
852.010325,2590.720797,1685.410096,6883.915261
852.010650,2590.720797,766.095498,4441.235652
852.010975,1776.494261,842.705048,6661.853478
852.011300,370.102971,1915.238745,8734.430116
852.011625,-2368.659014,76.609550,11843.295072
852.011950,-3404.947333,-2681.334243,10955.047942
852.012275,-3701.029710,-2451.505594,10658.965565
852.012600,-2146.597232,-536.266849,11843.295072
852.012925,-2146.597232,536.266849,12361.439231
852.013250,-888.247130,-306.438199,10288.862594
852.013575,1554.432478,536.266849,8586.388927
852.013900,4071.132681,2145.067394,7105.977043
852.014225,4145.153275,2987.772442,5773.606348
852.014550,2664.741391,1149.143247,7476.080014
852.014876,-888.247130,-306.438199,8956.491898
852.015201,-2220.617826,-383.047749,10807.006753
852.015526,-888.247130,-995.924147,10955.047942
852.015851,-1924.535449,-1455.581446,10510.924376
852.016176,-2590.720797,-2145.067394,9622.677246
852.016501,-1184.329507,689.485948,10881.027347
852.016826,962.267725,1915.238745,9400.615463
852.017151,1480.411884,1072.533697,7550.100608
852.017476,3330.926739,689.485948,4737.318029
852.017801,3552.988522,2911.162892,6809.894666
852.018126,2664.741391,2451.505594,8734.430116
852.018451,-666.185348,383.047749,10362.883188
852.018776,-2664.741391,-1455.581446,11399.171507
852.019101,-2442.679609,-383.047749,10732.986159
852.019426,-740.205942,-306.438199,11325.150913
852.019751,-962.267725,153.219100,12065.356855
852.020077,-814.226536,536.266849,10066.800811
852.020402,1998.556043,1991.848295,8956.491898
852.020727,4589.276840,1991.848295,7772.162391
852.021052,3404.947333,1685.410096,4737.318029
852.021377,888.247130,1302.362347,5255.462188
852.021702,-370.102971,1608.800546,7994.224174
852.022027,-2516.700203,383.047749,9770.718434
852.022352,-4071.132681,-1685.410096,11695.253884
852.022677,-2516.700203,-1455.581446,10658.965565
852.023002,-2072.576638,689.485948,11399.171507
852.023327,296.082377,1991.848295,11991.336260
852.023652,2590.720797,2298.286494,10881.027347
852.023977,3552.988522,2451.505594,9326.594869
852.024302,5699.585753,3830.477490,5699.585753
852.024627,6143.709319,4060.306139,6069.688724
852.024952,3182.885551,2681.334243,7772.162391
852.025278,-666.185348,1225.752797,9770.718434
852.025603,-4515.256246,-1302.362347,10658.965565
852.025928,-5995.668130,-2834.553343,9548.656652
852.026253,-5847.626942,-2528.115143,9474.636058
852.026578,-5995.668130,-1685.410096,12065.356855
852.026903,-4737.318029,-536.266849,11621.233289
852.027228,-2368.659014,-689.485948,9030.512492
852.027553,1406.391290,-459.657299,8364.327145
852.027878,2368.659014,2145.067394,6365.771101
852.028203,1332.370696,3600.648841,5921.647536
852.028528,1702.473667,1838.629195,8068.244768
852.028853,518.144159,0.000000,10288.862594
852.029178,-3478.967927,-766.095498,11695.253884
852.029503,-2368.659014,-919.314598,9918.759623
852.029828,-1554.432478,-689.485948,11103.089130
852.030153,-1332.370696,-383.047749,12953.603985
852.030478,-814.226536,995.924147,12213.398043
852.030804,2146.597232,1302.362347,8882.471304
852.031129,4367.215058,2145.067394,6365.771101
852.031454,6143.709319,2757.943793,3849.070898
852.031779,4959.379811,3524.039291,5921.647536
852.032104,1702.473667,1915.238745,7846.182985
852.032429,-2146.597232,-229.828649,9326.594869
852.032754,-2590.720797,-919.314598,10362.883188
852.033079,-2738.761985,-995.924147,10288.862594
852.033404,-4737.318029,-1532.190996,10807.006753
852.033729,-3552.988522,-995.924147,11769.274478
852.034054,-1258.350101,-306.438199,11177.109724
852.034379,1036.288319,306.438199,9696.697840
852.034704,3182.885551,1608.800546,6883.915261
852.035029,4071.132681,2987.772442,4885.359217
852.035354,5255.462188,3677.258390,6661.853478
852.035679,2220.617826,1838.629195,10436.903782
852.036005,-1850.514855,-1685.410096,11621.233289
852.036330,-2220.617826,-1608.800546,11325.150913
852.036655,-1036.288319,-1149.143247,11843.295072
852.036979,-1480.411884,-766.095498,12583.501014
852.037304,-740.205942,-1149.143247,11621.233289
852.037629,518.144159,612.876398,10362.883188
852.037954,2960.823768,1302.362347,7920.203579
852.038279,4145.153275,2604.724693,6069.688724
852.038604,4515.256246,2681.334243,5329.482782
852.038929,3330.926739,2451.505594,7254.018232
852.039253,-222.061783,842.705048,9252.574275
852.039578,-1702.473667,-536.266849,11843.295072
852.039903,-1924.535449,-689.485948,11843.295072
852.040228,-3330.926739,-383.047749,11029.068536
852.040553,-2886.803174,229.828649,10584.944971
852.040878,-148.041188,-153.219100,10214.842000
852.041203,-444.123565,2298.286494,8882.471304
852.041527,1702.473667,2374.896044,7698.141797
852.041852,2664.741391,1838.629195,4293.194464
852.042177,2072.576638,2145.067394,4737.318029
852.042502,444.123565,2145.067394,7254.018232
852.042827,-2516.700203,612.876398,9474.636058
852.043152,-4441.235652,-1455.581446,11251.130318
852.043476,-3552.988522,-1608.800546,10732.986159
852.043801,-3256.906145,-383.047749,12065.356855
852.044126,-2960.823768,76.609550,11991.336260
852.044451,-1406.391290,612.876398,10288.862594
852.044776,1332.370696,2068.457845,9622.677246
852.045101,4515.256246,2374.896044,7328.038826
852.045426,3775.050304,2987.772442,5255.462188
852.045750,2442.679609,2528.115143,5625.565159
852.046075,962.267725,1991.848295,8734.430116
852.046400,-1628.453072,536.266849,10510.924376
852.046725,-3182.885551,-1608.800546,11399.171507
852.047050,-3330.926739,-1685.410096,10732.986159
852.047375,-2960.823768,-536.266849,10955.047942
852.047700,-1480.411884,536.266849,11917.315666
852.048024,222.061783,1302.362347,10955.047942
852.048349,1702.473667,1455.581446,8290.306550
852.048674,4737.318029,2451.505594,5551.544565
852.048999,5921.647536,3064.381992,5181.441594
852.049324,2812.782580,3217.601092,7031.956449
852.049649,370.102971,1378.971896,8808.450710
852.049973,-1406.391290,-536.266849,11029.068536
852.050298,-3182.885551,-1685.410096,11325.150913
852.050623,-3478.967927,-1378.971896,10807.006753
852.050948,-3552.988522,-612.876398,12435.459826
852.051273,-2738.761985,-536.266849,10955.047942
852.051598,-148.041188,229.828649,9474.636058
852.051923,3552.988522,1762.019645,8956.491898
852.052247,4441.235652,3907.087040,5699.585753
852.052572,3034.844362,1915.238745,4589.276840
852.052897,2072.576638,766.095498,7105.977043
852.053222,-148.041188,842.705048,9178.553681
852.053547,-2442.679609,-383.047749,10510.924376
852.053872,-2516.700203,-1915.238745,9918.759623
852.054197,-3182.885551,-1838.629195,11399.171507
852.054521,-3330.926739,-919.314598,11547.212695
852.054846,-740.205942,76.609550,11399.171507
852.055171,814.226536,689.485948,11103.089130
852.055496,3701.029710,1225.752797,7328.038826
852.055821,5995.668130,2528.115143,6513.812290
852.056146,4293.194464,2145.067394,7105.977043
852.056470,444.123565,1072.533697,7179.997637
852.056795,-1554.432478,229.828649,9622.677246
852.057120,-1998.556043,-766.095498,10510.924376
852.057445,-3701.029710,-1838.629195,10881.027347
852.057770,-4737.318029,-2451.505594,11251.130318
852.058095,-3923.091493,-1378.971896,11843.295072
852.058420,-2442.679609,229.828649,10732.986159
852.058744,0.000000,1302.362347,8216.285956
852.059069,2442.679609,1225.752797,6291.750507
852.059394,4663.297435,2757.943793,4663.297435
852.059719,3997.112087,3064.381992,6439.791695
852.060044,1480.411884,1225.752797,8660.409521
852.060369,-1998.556043,-229.828649,10362.883188
852.060694,-2442.679609,-383.047749,11251.130318
852.061018,-962.267725,153.219100,10807.006753
852.061343,-1110.308913,-1532.190996,11695.253884
852.061668,-2368.659014,0.000000,11473.192101
852.061993,-370.102971,2757.943793,10658.965565
852.062318,2738.761985,2221.676944,9548.656652
852.062643,4071.132681,1149.143247,5921.647536
852.062968,3997.112087,2528.115143,4737.318029
852.063292,3034.844362,4519.963438,7698.141797
852.063617,1036.288319,2145.067394,8586.388927
852.063942,-1036.288319,-842.705048,10955.047942
852.064267,-2294.638420,-2221.676944,11029.068536
852.064592,-3923.091493,0.000000,10732.986159
852.064917,-2738.761985,-536.266849,11769.274478
852.065241,-1110.308913,-536.266849,11621.233289
852.065566,-592.164754,766.095498,10140.821405
852.065891,2146.597232,1762.019645,8660.409521
852.066216,4959.379811,2068.457845,5551.544565
852.066541,4441.235652,2068.457845,5699.585753
852.066866,2812.782580,2068.457845,8512.368333
852.067191,-444.123565,1225.752797,10362.883188
852.067515,-2368.659014,-383.047749,10807.006753
852.067840,-592.164754,-1991.848295,10140.821405
852.068165,-888.247130,-612.876398,11177.109724
852.068490,-3182.885551,383.047749,11029.068536
852.068815,-2738.761985,459.657299,10510.924376
852.069140,148.041188,-153.219100,9548.656652
852.069465,2220.617826,766.095498,7550.100608
852.069789,2072.576638,2145.067394,5699.585753
852.070114,1036.288319,2145.067394,6069.688724
852.070439,-222.061783,766.095498,7328.038826
852.070764,-2812.782580,-612.876398,10584.944971
852.071089,-3775.050304,-1532.190996,10881.027347
852.071414,-3256.906145,-1762.019645,9770.718434
852.071738,-3775.050304,-1455.581446,11843.295072
852.072063,-2738.761985,-995.924147,12657.521608
852.072388,-2220.617826,919.314598,11843.295072
852.072713,74.020594,-153.219100,8956.491898
852.073038,3923.091493,-536.266849,5847.626942
852.073363,4737.318029,1838.629195,6513.812290
852.073688,2516.700203,3447.429741,8586.388927
852.074012,444.123565,612.876398,9400.615463
852.074337,-1258.350101,-1685.410096,10066.800811
852.074662,-1480.411884,-766.095498,10436.903782
852.074987,-1258.350101,306.438199,11177.109724
852.075312,-1332.370696,153.219100,10955.047942
852.075637,-888.247130,-306.438199,10658.965565
852.075962,518.144159,1302.362347,9548.656652
852.076286,2886.803174,2451.505594,7402.059420
852.076611,4589.276840,3064.381992,4589.276840
852.076936,2960.823768,2451.505594,5477.523971
852.077261,1850.514855,1072.533697,7624.121203
852.077586,-962.267725,1532.190996,10066.800811
852.077911,-2368.659014,-1455.581446,10732.986159
852.078235,-2516.700203,-2221.676944,9252.574275
852.078560,-2442.679609,-842.705048,10955.047942
852.078885,-2738.761985,459.657299,13101.645173
852.079210,-1332.370696,1149.143247,11177.109724
852.079535,222.061783,0.000000,9770.718434
852.079860,4367.215058,1915.238745,7476.080014
852.080185,5995.668130,4060.306139,5921.647536
852.080509,3701.029710,3830.477490,6735.874072
852.080834,1924.535449,1225.752797,7994.224174
852.081159,-518.144159,612.876398,9252.574275
852.081484,-1924.535449,383.047749,10584.944971
852.081809,-3552.988522,-306.438199,10288.862594
852.082134,-3404.947333,-995.924147,9770.718434
852.082459,-2960.823768,-306.438199,10955.047942
852.082783,-1110.308913,919.314598,10732.986159
852.083108,444.123565,1685.410096,9030.512492
852.083433,4589.276840,2604.724693,7105.977043
852.083758,5477.523971,3447.429741,6439.791695
852.084083,3627.009116,2834.553343,7994.224174
852.084408,1406.391290,1838.629195,8808.450710
852.084732,-1332.370696,1225.752797,9844.739029
852.085057,-2368.659014,-842.705048,10658.965565
852.085382,-2738.761985,-1149.143247,10881.027347
852.085707,-4367.215058,-919.314598,11843.295072
852.086032,-4293.194464,-1225.752797,11695.253884
852.086357,-2368.659014,-1378.971896,9918.759623
852.086682,-370.102971,306.438199,8586.388927
852.087006,2368.659014,3064.381992,5921.647536
852.087331,3034.844362,2528.115143,5773.606348
852.087656,2146.597232,689.485948,6217.729913
852.087981,1258.350101,229.828649,7846.182985
852.088306,0.000000,1455.581446,10955.047942
852.088631,-1258.350101,0.000000,11251.130318
852.088956,-1480.411884,-2451.505594,10584.944971
852.089280,-962.267725,-1991.848295,11695.253884
852.089605,-518.144159,229.828649,12213.398043
852.089930,-148.041188,229.828649,10066.800811
852.090255,1480.411884,-459.657299,8660.409521
852.090580,4293.194464,536.266849,6365.771101
852.090905,3108.864956,2298.286494,7846.182985
852.091229,1998.556043,1378.971896,9178.553681
852.091554,-1258.350101,0.000000,8216.285956
852.091879,-2072.576638,-612.876398,11325.150913
852.092204,-592.164754,-383.047749,10288.862594
852.092529,-1850.514855,76.609550,10066.800811
852.092854,-2368.659014,-1838.629195,9622.677246
852.093179,-1184.329507,1149.143247,9696.697840
852.093503,518.144159,2298.286494,9622.677246
852.093828,1628.453072,2451.505594,7328.038826
852.094153,2664.741391,306.438199,4811.338623
852.094478,1406.391290,1072.533697,6957.935855
852.094803,592.164754,1915.238745,9326.594869
852.095128,-2442.679609,459.657299,11621.233289
852.095453,-3552.988522,-2298.286494,11325.150913
852.095777,-2442.679609,-1991.848295,10436.903782
852.096102,-1776.494261,919.314598,11473.192101
852.096427,-518.144159,1991.848295,10881.027347
852.096752,-296.082377,1532.190996,9770.718434
852.097077,518.144159,1149.143247,7846.182985
852.097402,2886.803174,2451.505594,5773.606348
852.097726,2960.823768,3064.381992,5699.585753
852.098051,1110.308913,2221.676944,6957.935855
852.098376,-1702.473667,306.438199,8290.306550
852.098701,-2738.761985,-1149.143247,11029.068536
852.099026,-4071.132681,-995.924147,11843.295072
852.099351,-3478.967927,-1532.190996,11473.192101
852.099676,-2590.720797,-842.705048,10436.903782
852.100000,0.000000,919.314598,9770.718434
852.100325,1184.329507,3217.601092,10510.924376
852.100650,2664.741391,2145.067394,9030.512492
852.100975,4737.318029,2451.505594,5403.503377
852.101300,5551.544565,2221.676944,5625.565159
852.101625,3108.864956,2911.162892,7920.203579
852.101950,-814.226536,1915.238745,10140.821405
852.102274,-2220.617826,-689.485948,10214.842000
852.102599,-2368.659014,-2451.505594,11399.171507
852.102924,-2960.823768,-1149.143247,11547.212695
852.103249,-2960.823768,0.000000,10732.986159
852.103574,0.000000,766.095498,10066.800811
852.103899,1258.350101,612.876398,8734.430116
852.104223,3108.864956,1149.143247,8068.244768
852.104548,3701.029710,3447.429741,6439.791695
852.104873,2886.803174,2145.067394,5625.565159
852.105198,1924.535449,229.828649,7698.141797
852.105523,518.144159,766.095498,9622.677246
852.105848,-1850.514855,306.438199,11473.192101
852.106173,-2220.617826,-1225.752797,10066.800811
852.106497,-2664.741391,-2528.115143,9918.759623
852.106822,-1924.535449,-306.438199,11177.109724
852.107147,0.000000,2757.943793,10732.986159
852.107472,1702.473667,1455.581446,9400.615463
852.107797,3775.050304,0.000000,6513.812290
852.108122,4663.297435,1378.971896,5847.626942
852.108447,3108.864956,3064.381992,8512.368333
852.108771,-222.061783,1149.143247,9104.533087
852.109096,-2368.659014,-1915.238745,9770.718434
852.109421,-2294.638420,-2451.505594,10955.047942
852.109746,-2072.576638,-995.924147,11843.295072
852.110071,-3330.926739,-612.876398,11695.253884
852.110396,-2294.638420,-1532.190996,10214.842000
852.110720,-296.082377,0.000000,10362.883188
852.111045,1110.308913,1685.410096,9622.677246
852.111370,2886.803174,1991.848295,6143.709319
852.111695,2664.741391,1225.752797,5551.544565
852.112020,1258.350101,1149.143247,8290.306550
852.112345,74.020594,1149.143247,9844.739029
852.112670,-2960.823768,-1149.143247,11177.109724
852.112994,-3182.885551,-3064.381992,9252.574275
852.113319,-2738.761985,-2221.676944,10362.883188
852.113644,-2368.659014,-306.438199,11991.336260
852.113969,-2442.679609,995.924147,11843.295072
852.114294,-370.102971,0.000000,8882.471304
852.114619,2146.597232,612.876398,7031.956449
852.114944,4219.173869,2451.505594,4959.379811
852.115268,3552.988522,3600.648841,6883.915261
852.115593,1036.288319,1838.629195,8438.347739
852.115918,-1036.288319,383.047749,9548.656652
852.116243,-666.185348,-383.047749,10436.903782
852.116568,-1628.453072,76.609550,10658.965565
852.116893,-3256.906145,-766.095498,10955.047942
852.117217,-2368.659014,-536.266849,10658.965565
852.117542,-592.164754,306.438199,9918.759623
852.117867,370.102971,1608.800546,10288.862594
852.118192,2368.659014,2528.115143,6883.915261
852.118517,3552.988522,2145.067394,4515.256246
852.118842,2516.700203,1302.362347,7179.997637
852.119167,-296.082377,1149.143247,9474.636058
852.119491,-2886.803174,995.924147,10955.047942
852.119816,-1776.494261,-1378.971896,10140.821405
852.120141,-1628.453072,-1302.362347,9992.780217
852.120466,-1850.514855,0.000000,11843.295072
852.120791,-1480.411884,1608.800546,11695.253884
852.121116,-518.144159,1302.362347,10066.800811
852.121441,1924.535449,76.609550,8586.388927
852.121765,4589.276840,2145.067394,7031.956449
852.122090,3478.967927,3370.820191,6217.729913
852.122415,1480.411884,1302.362347,6217.729913
852.122740,-370.102971,-153.219100,8290.306550
852.123065,-1850.514855,76.609550,10066.800811
852.123390,-1406.391290,0.000000,10288.862594
852.123714,-1702.473667,-842.705048,10658.965565
852.124039,-2220.617826,-1378.971896,11103.089130
852.124364,518.144159,612.876398,11621.233289
852.124689,1998.556043,1455.581446,10362.883188
852.125014,3330.926739,1455.581446,7994.224174
852.125339,5033.400406,1685.410096,5107.421000
852.125664,4441.235652,2221.676944,7254.018232
852.125988,1924.535449,1838.629195,9474.636058
852.126313,-1776.494261,1225.752797,10288.862594
852.126638,-3182.885551,-766.095498,10510.924376
852.126963,-2294.638420,-1532.190996,10214.842000
852.127288,-2368.659014,-383.047749,11103.089130
852.127613,-3478.967927,-306.438199,11917.315666
852.127938,-2664.741391,229.828649,10362.883188
852.128262,0.000000,76.609550,9178.553681
852.128587,3182.885551,1991.848295,7550.100608
852.128912,3478.967927,2374.896044,5403.503377
852.129237,1776.494261,1915.238745,6883.915261
852.129562,1554.432478,919.314598,8586.388927
852.129887,-1036.288319,842.705048,10658.965565
852.130211,-2738.761985,-1302.362347,10658.965565
852.130536,-1998.556043,-1685.410096,8586.388927
852.130861,-1184.329507,-229.828649,8956.491898
852.131186,-962.267725,1532.190996,11547.212695
852.131511,-444.123565,2221.676944,10732.986159
852.131836,1480.411884,306.438199,8142.265362
852.132161,4441.235652,842.705048,5847.626942
852.132485,3849.070898,2757.943793,6809.894666
852.132810,1628.453072,2145.067394,8734.430116
852.133135,-444.123565,536.266849,9770.718434
852.133460,-2220.617826,-1455.581446,12287.418637
852.133785,-2294.638420,-1532.190996,11621.233289
852.134110,-2146.597232,-919.314598,10732.986159
852.134434,-2960.823768,-1378.971896,10955.047942
852.134759,-2146.597232,-536.266849,10658.965565
852.135084,-1184.329507,1225.752797,10288.862594
852.135409,962.267725,1838.629195,8364.327145
852.135734,3775.050304,1762.019645,5625.565159
852.136058,3701.029710,1762.019645,6069.688724
852.136383,2442.679609,2911.162892,9252.574275
852.136708,74.020594,1685.410096,10510.924376
852.137033,-2960.823768,-766.095498,10807.006753
852.137358,-2368.659014,-2374.896044,9548.656652
852.137682,-1924.535449,306.438199,9992.780217
852.138007,-2294.638420,2145.067394,10732.986159
852.138332,-1850.514855,1302.362347,10214.842000
852.138657,814.226536,612.876398,8068.244768
852.138982,2220.617826,1685.410096,6957.935855
852.139306,4071.132681,3447.429741,5033.400406
852.139631,2812.782580,3753.867940,6291.750507
852.139956,222.061783,1685.410096,7698.141797
852.140281,-1110.308913,0.000000,9548.656652
852.140606,-1628.453072,-919.314598,11843.295072
852.140930,-2812.782580,-459.657299,11769.274478
852.141255,-4071.132681,-1378.971896,11103.089130
852.141580,-3108.864956,-2451.505594,12139.377449
852.141905,-888.247130,0.000000,11695.253884
852.142230,518.144159,2221.676944,10362.883188
852.142554,1998.556043,1149.143247,7105.977043
852.142879,3775.050304,1302.362347,4737.318029
852.143204,3701.029710,2451.505594,7179.997637
852.143529,888.247130,2681.334243,8956.491898
852.143854,-1554.432478,766.095498,10066.800811
852.144178,-1480.411884,-1302.362347,9918.759623
852.144503,-518.144159,383.047749,11177.109724
852.144828,-888.247130,612.876398,11473.192101
852.145153,-1406.391290,0.000000,10881.027347
852.145478,296.082377,-306.438199,8808.450710
852.145802,2738.761985,1608.800546,8586.388927
852.146127,3849.070898,2374.896044,6957.935855
852.146452,3478.967927,1685.410096,5551.544565
852.146777,2368.659014,842.705048,6957.935855
852.147102,0.000000,1149.143247,9696.697840
852.147426,-1332.370696,612.876398,10955.047942
852.147751,-2072.576638,-1685.410096,11251.130318
852.148076,-2368.659014,-2145.067394,10362.883188
852.148401,-2442.679609,0.000000,11325.150913
852.148726,-444.123565,229.828649,11621.233289
852.149050,-592.164754,689.485948,10288.862594
852.149375,1554.432478,383.047749,8660.409521
852.149700,3478.967927,689.485948,7179.997637
852.150025,3404.947333,2068.457845,6957.935855
852.150350,74.020594,689.485948,7920.203579
852.150674,-1184.329507,-306.438199,9104.533087
852.150999,-1776.494261,-612.876398,11325.150913
852.151324,-1628.453072,-842.705048,11621.233289
852.151649,-1480.411884,-995.924147,10881.027347
852.151974,-1554.432478,-383.047749,11251.130318
852.152298,1110.308913,1302.362347,10436.903782
852.152623,2886.803174,2298.286494,9770.718434
852.152948,3701.029710,2145.067394,7476.080014
852.153273,3404.947333,2221.676944,5921.647536
852.153598,1628.453072,1762.019645,7254.018232
852.153922,740.205942,1685.410096,7698.141797
852.154247,-3108.864956,-766.095498,9918.759623
852.154572,-4441.235652,-2528.115143,9770.718434
852.154897,-3627.009116,-1072.533697,11103.089130
852.155222,-3330.926739,0.000000,11843.295072
852.155546,-2812.782580,-612.876398,10881.027347
852.155871,-1258.350101,-459.657299,8438.347739
852.156196,740.205942,2145.067394,7402.059420
852.156521,4219.173869,4290.134789,6513.812290
852.156846,4663.297435,3447.429741,6513.812290
852.157170,666.185348,1302.362347,7550.100608
852.157495,-666.185348,1455.581446,8808.450710
852.157820,-518.144159,919.314598,10510.924376
852.158145,-2146.597232,-1225.752797,10510.924376
852.158470,-4293.194464,-2528.115143,11473.192101
852.158794,-3552.988522,-2068.457845,11177.109724
852.159119,-1628.453072,1149.143247,11843.295072
852.159444,962.267725,612.876398,11177.109724
852.159769,2146.597232,1838.629195,8438.347739
852.160094,3627.009116,2374.896044,5625.565159
852.160418,4441.235652,2987.772442,5921.647536
852.160743,2960.823768,2604.724693,8808.450710
852.161068,-666.185348,1302.362347,10066.800811
852.161393,-1924.535449,0.000000,10288.862594
852.161718,-2146.597232,-1455.581446,10140.821405
852.162042,-2886.803174,-842.705048,11991.336260
852.162367,-2886.803174,-459.657299,12361.439231
852.162692,-2368.659014,459.657299,10214.842000
852.163017,0.000000,-536.266849,7105.977043
852.163342,2368.659014,1608.800546,5995.668130
852.163666,4441.235652,3600.648841,5477.523971
852.163991,2812.782580,3524.039291,5847.626942
852.164316,1776.494261,1072.533697,7550.100608
852.164641,1184.329507,0.000000,10066.800811
852.164966,740.205942,766.095498,11843.295072
852.165290,0.000000,0.000000,10658.965565
852.165615,-740.205942,-383.047749,11695.253884
852.165940,0.000000,-689.485948,12435.459826
852.166265,814.226536,1225.752797,10732.986159
852.166590,962.267725,919.314598,8956.491898
852.166914,2516.700203,459.657299,7031.956449
852.167239,3182.885551,919.314598,5625.565159
852.167564,740.205942,1532.190996,8660.409521
852.167889,-1776.494261,-689.485948,9918.759623
852.168214,-4737.318029,-1608.800546,10732.986159
852.168538,-4367.215058,-1915.238745,11103.089130
852.168863,-2516.700203,-919.314598,11695.253884
852.169188,-4219.173869,-1149.143247,11251.130318
852.169513,-3849.070898,-766.095498,9400.615463
852.169838,370.102971,1072.533697,9474.636058
852.170162,2368.659014,4060.306139,8956.491898
852.170487,3478.967927,2681.334243,5255.462188
852.170812,2664.741391,1149.143247,3478.967927
852.171137,1776.494261,1991.848295,6439.791695
852.171462,1036.288319,3140.991542,9474.636058
852.171786,-1184.329507,306.438199,11251.130318
852.172111,-3034.844362,-2221.676944,11103.089130
852.172436,-1924.535449,-842.705048,10288.862594
852.172761,-1036.288319,995.924147,11991.336260
852.173086,-296.082377,76.609550,10510.924376
852.173410,444.123565,1072.533697,9104.533087
852.173735,1628.453072,1225.752797,8956.491898
852.174060,4589.276840,2528.115143,6365.771101
852.174385,3775.050304,1762.019645,6587.832884
852.174710,444.123565,153.219100,7846.182985
852.175034,-1258.350101,766.095498,8808.450710
852.175359,-2072.576638,-229.828649,12583.501014
852.175684,-2368.659014,-1455.581446,12213.398043
852.176009,-2368.659014,-2604.724693,11843.295072
852.176334,-2072.576638,-1302.362347,11547.212695
852.176658,74.020594,1378.971896,10732.986159
852.176983,2664.741391,1838.629195,9992.780217
852.177308,3997.112087,1608.800546,7994.224174
852.177633,3552.988522,2068.457845,6439.791695
852.177958,3849.070898,2757.943793,6291.750507
852.178282,1776.494261,2451.505594,7772.162391
852.178607,-1998.556043,0.000000,9104.533087
852.178932,-3330.926739,-1302.362347,10140.821405
852.179257,-2368.659014,-306.438199,9696.697840
852.179582,-2590.720797,383.047749,10807.006753
852.179906,-1702.473667,0.000000,10362.883188
852.180231,-1258.350101,1685.410096,8660.409521
852.180556,592.164754,2145.067394,7550.100608
852.180881,3478.967927,2374.896044,6735.874072
852.181206,2368.659014,1532.190996,6513.812290
852.181530,0.000000,1302.362347,7550.100608
852.181855,-740.205942,995.924147,9178.553681
852.182180,-2886.803174,-536.266849,11473.192101
852.182505,-4441.235652,-1991.848295,12583.501014
852.182830,-4737.318029,-2451.505594,11621.233289
852.183154,-3256.906145,-1455.581446,10807.006753
852.183479,-1184.329507,-76.609550,11251.130318
852.183804,-222.061783,1762.019645,11029.068536
852.184129,814.226536,2681.334243,9770.718434
852.184454,3330.926739,1915.238745,6217.729913
852.184778,4663.297435,1072.533697,6143.709319
852.185103,2368.659014,1685.410096,8216.285956
852.185428,-740.205942,2451.505594,9030.512492
852.185753,-2368.659014,229.828649,11029.068536
852.186078,-2072.576638,-2451.505594,10288.862594
852.186402,-2516.700203,-2298.286494,10436.903782
852.186727,-2516.700203,459.657299,10214.842000
852.187052,0.000000,1532.190996,9252.574275
852.187377,1850.514855,1072.533697,8216.285956
852.187702,3478.967927,2068.457845,6883.915261
852.188026,4663.297435,2604.724693,5551.544565
852.188351,3552.988522,1991.848295,4959.379811
852.188676,2294.638420,1762.019645,6957.935855
852.189001,1406.391290,0.000000,11769.274478
852.189326,-814.226536,0.000000,13101.645173
852.189650,-1702.473667,-1838.629195,11399.171507
852.189975,-740.205942,-2757.943793,11695.253884
852.190300,-518.144159,-1455.581446,12361.439231
852.190625,-888.247130,1762.019645,10807.006753
852.190950,1776.494261,1225.752797,9474.636058
852.191274,3775.050304,383.047749,7846.182985
852.191599,4367.215058,1455.581446,6513.812290
852.191924,2590.720797,2221.676944,8290.306550
852.192249,-370.102971,995.924147,9474.636058
852.192574,-3256.906145,-383.047749,10955.047942
852.192898,-2590.720797,-1455.581446,12065.356855
852.193223,-2368.659014,-766.095498,11325.150913
852.193548,-3849.070898,-229.828649,10214.842000
852.193873,-3701.029710,612.876398,10510.924376
852.194198,-740.205942,1838.629195,9474.636058
852.194522,296.082377,1915.238745,7846.182985
852.194847,2590.720797,1455.581446,4959.379811
852.195172,3478.967927,2604.724693,3478.967927
852.195497,1628.453072,4366.744339,6809.894666
852.195822,666.185348,2145.067394,9030.512492
852.196146,-2886.803174,0.000000,11769.274478
852.196471,-2590.720797,-1838.629195,10214.842000
852.196796,-888.247130,0.000000,9918.759623
852.197121,-962.267725,766.095498,12287.418637
852.197446,-1258.350101,1991.848295,11843.295072
852.197770,296.082377,1762.019645,9326.594869
852.198095,2886.803174,1378.971896,7994.224174
852.198420,3701.029710,2451.505594,5551.544565
852.198745,1924.535449,3217.601092,5995.668130
852.199070,0.000000,2145.067394,8438.347739
852.199394,-2442.679609,-459.657299,10584.944971
852.199719,-5329.482782,-2145.067394,12805.562797
852.200044,-4959.379811,-2528.115143,11103.089130
852.200369,-4515.256246,-1455.581446,11029.068536
852.200694,-3256.906145,-1608.800546,12139.377449
852.201018,-1332.370696,0.000000,11991.336260
852.201343,1258.350101,1608.800546,10066.800811
852.201668,4515.256246,2604.724693,6809.894666
852.201993,6069.688724,2451.505594,4811.338623
852.202318,5329.482782,3294.210641,5773.606348
852.202642,2960.823768,2757.943793,7698.141797
852.202967,-296.082377,1532.190996,10066.800811
852.203292,-1776.494261,-1149.143247,10140.821405
852.203617,-1702.473667,-766.095498,10140.821405
852.203942,-1258.350101,229.828649,11029.068536
852.204266,-1110.308913,383.047749,11399.171507
852.204591,666.185348,1149.143247,9844.739029
852.204916,2812.782580,1762.019645,8216.285956
852.205241,4811.338623,2681.334243,6883.915261
852.205566,3627.009116,2528.115143,4441.235652
852.205890,2220.617826,1532.190996,5403.503377
852.206215,222.061783,536.266849,9178.553681
852.206540,-3627.009116,-842.705048,12213.398043
852.206865,-4441.235652,-2757.943793,11177.109724
852.207190,-4367.215058,-4136.915689,10510.924376
852.207514,-4367.215058,-4519.963438,11991.336260
852.207839,-3034.844362,-2068.457845,12879.583391
852.208164,0.000000,0.000000,11177.109724
852.208489,1850.514855,612.876398,10584.944971
852.208814,4441.235652,612.876398,6735.874072
852.209138,5033.400406,1532.190996,6365.771101
852.209463,4219.173869,1532.190996,7328.038826
852.209788,740.205942,612.876398,9992.780217
852.210113,-1628.453072,-536.266849,11695.253884
852.210438,-148.041188,-536.266849,11251.130318
852.210762,-1702.473667,-1838.629195,10955.047942
852.211087,-4071.132681,-2145.067394,10658.965565
852.211412,-1776.494261,0.000000,10658.965565
852.211737,1776.494261,1072.533697,8660.409521
852.212062,2886.803174,459.657299,6809.894666
852.212386,3627.009116,1302.362347,5551.544565
852.212711,1924.535449,2987.772442,4663.297435
852.213036,1628.453072,2145.067394,7031.956449
852.213361,-1332.370696,-919.314598,10510.924376
852.213686,-4367.215058,-1455.581446,11621.233289
852.214010,-2960.823768,-536.266849,10881.027347
852.214335,-1480.411884,-612.876398,11843.295072
852.214660,-2294.638420,-459.657299,12361.439231
852.214985,-2516.700203,1149.143247,9918.759623
852.215310,592.164754,2221.676944,8068.244768
852.215634,4219.173869,2987.772442,7031.956449
852.215959,5625.565159,3524.039291,5921.647536
852.216284,3182.885551,4136.915689,7772.162391
852.216609,444.123565,2298.286494,9104.533087
852.216934,-518.144159,919.314598,9992.780217
852.217258,-1924.535449,76.609550,11991.336260
852.217583,-3849.070898,-536.266849,11695.253884
852.217908,-3330.926739,0.000000,9622.677246
852.218233,-740.205942,612.876398,10362.883188
852.218558,666.185348,2757.943793,10658.965565
852.218882,1480.411884,3140.991542,7328.038826
852.219207,3404.947333,4366.744339,5033.400406
852.219532,4367.215058,3370.820191,3849.070898
852.219857,1924.535449,3370.820191,5403.503377
852.220182,-296.082377,2604.724693,9178.553681
852.220506,-2294.638420,1991.848295,10881.027347
852.220831,-2812.782580,-842.705048,10807.006753
852.221156,-3108.864956,-1762.019645,11473.192101
852.221481,-3923.091493,-612.876398,12065.356855
852.221806,-3330.926739,612.876398,10288.862594
852.222130,-592.164754,459.657299,9178.553681
852.222455,1628.453072,383.047749,8586.388927
852.222780,2664.741391,2068.457845,6883.915261
852.223105,2368.659014,2145.067394,6217.729913
852.223430,1554.432478,76.609550,7328.038826
852.223754,-592.164754,-842.705048,9400.615463
852.224079,-3330.926739,-459.657299,12139.377449
852.224404,-2294.638420,-1149.143247,12953.603985
852.224729,-2368.659014,-1991.848295,12435.459826
852.225054,-2220.617826,-3217.601092,12139.377449
852.225378,-222.061783,-1225.752797,11621.233289
852.225703,1110.308913,1149.143247,9844.739029
852.226028,3775.050304,1378.971896,7105.977043
852.226353,5329.482782,689.485948,5255.462188
852.226678,3552.988522,536.266849,6365.771101
852.227002,1184.329507,1072.533697,7105.977043
852.227327,-814.226536,306.438199,8734.430116
852.227652,-2738.761985,-2145.067394,11029.068536
852.227977,-2368.659014,-2451.505594,10362.883188
852.228302,-3034.844362,-2221.676944,11177.109724
852.228626,-2960.823768,-1302.362347,10955.047942
852.228951,666.185348,306.438199,9770.718434
852.229276,2886.803174,2068.457845,9030.512492
852.229601,4663.297435,1915.238745,6291.750507
852.229926,4959.379811,2298.286494,4737.318029
852.230250,3775.050304,2451.505594,6957.935855
852.230575,1702.473667,1608.800546,9474.636058
852.230900,-1998.556043,153.219100,11547.212695
852.231225,-3849.070898,-1838.629195,11991.336260
852.231550,-4219.173869,-2145.067394,12509.480420
852.231874,-4293.194464,-1532.190996,14063.912898
852.232199,-2590.720797,-842.705048,11843.295072
852.232524,-666.185348,459.657299,9770.718434
852.232849,1036.288319,2911.162892,7994.224174
852.233174,3775.050304,4979.620737,5847.626942
852.233498,4811.338623,3600.648841,4367.215058
852.233823,2294.638420,1991.848295,6217.729913
852.234148,-518.144159,2681.334243,8956.491898
852.234473,-1554.432478,3294.210641,11029.068536
852.234798,-1110.308913,0.000000,9770.718434
852.235122,-2738.761985,-766.095498,10510.924376
852.235447,-4219.173869,689.485948,11029.068536
852.235772,-1998.556043,2911.162892,9696.697840
852.236097,1184.329507,2451.505594,8956.491898
852.236422,2590.720797,2221.676944,7920.203579
852.236746,3108.864956,3524.039291,5107.421000
852.237071,3404.947333,3907.087040,4737.318029
852.237396,2146.597232,2145.067394,7105.977043
852.237721,-1702.473667,766.095498,9844.739029
852.238046,-5255.462188,-383.047749,11843.295072
852.238370,-4367.215058,-2374.896044,11251.130318
852.238695,-3330.926739,-2681.334243,12287.418637
852.239020,-3552.988522,-2145.067394,13471.748144
852.239345,-1850.514855,-612.876398,10214.842000
852.239670,1628.453072,612.876398,8956.491898
852.239995,4737.318029,1915.238745,8290.306550
852.240319,5551.544565,3370.820191,6513.812290
852.240644,3775.050304,1991.848295,6291.750507
852.240969,2590.720797,459.657299,7031.956449
852.241294,1258.350101,612.876398,10066.800811
852.241619,-1554.432478,0.000000,11769.274478
852.241943,-2590.720797,-2451.505594,10955.047942
852.242268,-2516.700203,-3217.601092,11325.150913
852.242593,-1332.370696,-3677.258390,11399.171507
852.242918,-666.185348,76.609550,11103.089130
852.243243,1850.514855,1762.019645,9474.636058
852.243567,4219.173869,1608.800546,6735.874072
852.243892,4515.256246,-229.828649,4515.256246
852.244217,2294.638420,1378.971896,7402.059420
852.244542,74.020594,2374.896044,8068.244768
852.244867,-2442.679609,766.095498,10362.883188
852.245192,-2960.823768,-2298.286494,11029.068536
852.245516,-4145.153275,-2987.772442,11325.150913
852.245841,-4515.256246,-1991.848295,11547.212695
852.246166,-2960.823768,-1072.533697,10955.047942
852.246491,-1332.370696,0.000000,10510.924376
852.246816,1110.308913,1378.971896,8660.409521
852.247140,2960.823768,1915.238745,5329.482782
852.247465,3034.844362,995.924147,3997.112087
852.247790,2146.597232,1302.362347,7402.059420
852.248115,0.000000,1915.238745,9696.697840
852.248440,-1998.556043,612.876398,12287.418637
852.248765,-1258.350101,-1762.019645,11325.150913
852.249089,-2886.803174,-2145.067394,11103.089130
852.249414,-3330.926739,-459.657299,13249.686362
852.249739,-1480.411884,612.876398,11843.295072
852.250064,666.185348,-766.095498,8364.327145
852.250389,3034.844362,-383.047749,6513.812290
852.250713,4219.173869,3600.648841,6661.853478
852.251038,3034.844362,4749.792088,7624.121203
852.251363,1406.391290,1838.629195,7550.100608
852.251688,-666.185348,-2451.505594,9326.594869
852.252013,-2146.597232,-1302.362347,10955.047942
852.252337,-592.164754,919.314598,10510.924376
852.252662,0.000000,459.657299,12139.377449
852.252987,518.144159,-459.657299,12731.542202
852.253312,1628.453072,842.705048,11103.089130
852.253637,2960.823768,3217.601092,9622.677246
852.253962,5551.544565,3677.258390,5551.544565
852.254286,4811.338623,2757.943793,4589.276840
852.254611,3849.070898,2221.676944,7328.038826
852.254936,296.082377,2681.334243,9326.594869
852.255261,-2960.823768,1149.143247,9622.677246
852.255586,-3997.112087,-1762.019645,10955.047942
852.255910,-4293.194464,-1455.581446,10658.965565
852.256235,-6661.853478,0.000000,11177.109724
852.256560,-3923.091493,536.266849,10807.006753
852.256885,-1184.329507,1149.143247,9622.677246
852.257210,962.267725,2757.943793,8216.285956
852.257534,3108.864956,5056.230287,7105.977043
852.257859,2886.803174,4136.915689,4367.215058
852.258184,370.102971,2528.115143,6661.853478
852.258509,-74.020594,2298.286494,9326.594869
852.258834,-2886.803174,1838.629195,11547.212695
852.259159,-2368.659014,0.000000,10436.903782
852.259483,-2516.700203,-842.705048,10807.006753
852.259808,-2664.741391,-689.485948,11621.233289
852.260133,-1702.473667,1991.848295,11399.171507
852.260458,888.247130,2834.553343,10214.842000
852.260783,2590.720797,2681.334243,8068.244768
852.261107,4589.276840,2451.505594,4293.194464
852.261432,5033.400406,3140.991542,5699.585753
852.261757,3256.906145,3370.820191,7772.162391
852.262082,296.082377,2298.286494,8808.450710
852.262407,-2220.617826,-1378.971896,10881.027347
852.262731,-2368.659014,-2221.676944,10066.800811
852.263056,-3775.050304,-1915.238745,10658.965565
852.263381,-4441.235652,-2987.772442,11325.150913
852.263706,-2886.803174,-3140.991542,10288.862594
852.264031,-2146.597232,-2987.772442,9770.718434
852.264356,666.185348,-1608.800546,9400.615463
852.264680,1924.535449,1225.752797,7476.080014
852.265005,1628.453072,229.828649,7402.059420
852.265330,1702.473667,-1072.533697,7402.059420
852.265655,1184.329507,-1915.238745,10140.821405
852.265980,-1110.308913,-919.314598,11325.150913
852.266304,-222.061783,-1455.581446,10955.047942
852.266629,592.164754,-2528.115143,11695.253884
852.266954,1332.370696,-2068.457845,11843.295072
852.267279,1110.308913,383.047749,10510.924376
852.267604,4441.235652,1225.752797,9178.553681
852.267928,6809.894666,919.314598,7698.141797
852.268253,5625.565159,689.485948,5921.647536
852.268578,3182.885551,995.924147,7698.141797
852.268903,1110.308913,1378.971896,8882.471304
852.269228,-814.226536,-153.219100,10066.800811
852.269553,-1554.432478,-2374.896044,11251.130318
852.269877,-2368.659014,-1991.848295,11769.274478
852.270202,-3701.029710,-766.095498,11621.233289
852.270527,-2812.782580,-919.314598,10955.047942
852.270852,-2368.659014,-766.095498,9770.718434
852.271177,-1628.453072,229.828649,7105.977043
852.271501,0.000000,2298.286494,4441.235652
852.271826,740.205942,2451.505594,5477.523971
852.272151,-1036.288319,1302.362347,7031.956449
852.272476,-2516.700203,1225.752797,9104.533087
852.272801,-3923.091493,-153.219100,11399.171507
852.273125,-3701.029710,-459.657299,10362.883188
852.273450,-2886.803174,-306.438199,10732.986159
852.273775,-2146.597232,919.314598,11769.274478
852.274100,-1480.411884,2528.115143,11769.274478
852.274425,296.082377,2451.505594,9178.553681
852.274750,4367.215058,2145.067394,7772.162391
852.275074,5477.523971,2757.943793,5921.647536
852.275399,3108.864956,4596.572988,6883.915261
852.275724,2072.576638,4596.572988,8882.471304
852.276049,222.061783,2451.505594,10066.800811
852.276374,-1036.288319,-76.609550,10140.821405
852.276698,-1036.288319,689.485948,9326.594869
852.277023,-1332.370696,1685.410096,9104.533087
852.277348,-740.205942,1838.629195,10214.842000
852.277673,888.247130,2068.457845,10584.944971
852.277998,888.247130,2298.286494,8808.450710
852.278322,3775.050304,2451.505594,5181.441594
852.278647,5625.565159,3140.991542,3552.988522
852.278972,2368.659014,2068.457845,6587.832884
852.279297,-444.123565,1072.533697,8660.409521
852.279622,-1924.535449,-383.047749,11325.150913
852.279947,-2442.679609,-2068.457845,12435.459826
852.280271,-2738.761985,-2451.505594,12435.459826
852.280596,-3108.864956,-1915.238745,11769.274478
852.280921,-1258.350101,-1225.752797,11621.233289
852.281246,666.185348,229.828649,11103.089130
852.281571,2516.700203,153.219100,9992.780217
852.281895,3034.844362,2145.067394,8438.347739
852.282220,3478.967927,2374.896044,5773.606348
852.282545,1332.370696,1072.533697,7105.977043
852.282870,222.061783,-306.438199,9400.615463
852.283195,-1554.432478,536.266849,11621.233289
852.283520,-2294.638420,-383.047749,11473.192101
852.283844,-1480.411884,-1302.362347,11325.150913
852.284169,-518.144159,-2221.676944,11621.233289
852.284494,1036.288319,995.924147,10436.903782
852.284819,2812.782580,4290.134789,8216.285956
852.285144,4885.359217,3217.601092,6513.812290
852.285468,6217.729913,3907.087040,4515.256246
852.285793,5255.462188,4519.963438,7105.977043
852.286118,1628.453072,2834.553343,7105.977043
852.286443,-2294.638420,306.438199,8290.306550
852.286768,-4515.256246,-1608.800546,9770.718434
852.287092,-5477.523971,-1455.581446,10955.047942
852.287417,-7402.059420,-1608.800546,10732.986159
852.287742,-7624.121203,-3447.429741,10214.842000
852.288067,-6143.709319,-4290.134789,9622.677246
852.288392,-4959.379811,-1685.410096,9030.512492
852.288717,-2146.597232,1225.752797,7031.956449
852.289041,370.102971,1532.190996,6809.894666
852.289366,814.226536,689.485948,8068.244768
852.289691,1110.308913,0.000000,9770.718434
852.290016,-518.144159,-766.095498,11621.233289
852.290341,-1998.556043,-842.705048,11621.233289
852.290665,0.000000,-995.924147,11769.274478
852.290990,1998.556043,-306.438199,14063.912898
852.291315,1850.514855,0.000000,13619.789333
852.291640,2960.823768,919.314598,11029.068536
852.291965,5625.565159,1149.143247,8586.388927
852.292289,7328.038826,1762.019645,5921.647536
852.292614,6291.750507,3370.820191,6365.771101
852.292939,4885.359217,2221.676944,7698.141797
852.293264,1776.494261,1532.190996,8216.285956
852.293589,0.000000,0.000000,10214.842000
852.293914,-1628.453072,-1225.752797,9326.594869
852.294238,-3775.050304,-612.876398,9030.512492
852.294563,-4071.132681,-612.876398,9770.718434
852.294888,-1332.370696,-1302.362347,9548.656652
852.295213,-1406.391290,-536.266849,8438.347739
852.295538,-222.061783,1532.190996,6587.832884
852.295862,1998.556043,3140.991542,3849.070898
852.296187,1998.556043,1762.019645,5107.421000
852.296512,1480.411884,306.438199,7698.141797
852.296837,-296.082377,612.876398,10881.027347
852.297162,-1554.432478,1991.848295,12139.377449
852.297486,-888.247130,-153.219100,12879.583391
852.297811,0.000000,-1455.581446,13175.665768
852.298136,-1332.370696,-689.485948,13027.624579
852.298461,148.041188,1072.533697,12361.439231
852.298786,2886.803174,2451.505594,11325.150913
852.299111,3701.029710,3753.867940,8586.388927
852.299435,3108.864956,3217.601092,5773.606348
852.299760,1628.453072,1991.848295,5847.626942
852.300085,-444.123565,2068.457845,7031.956449
852.300410,-2960.823768,1991.848295,9992.780217
852.300735,-4145.153275,229.828649,10807.006753
852.301059,-4885.359217,-612.876398,10066.800811
852.301384,-5033.400406,-842.705048,9178.553681
852.301709,-4663.297435,153.219100,11103.089130
852.302034,-2664.741391,2145.067394,9474.636058
852.302359,-1776.494261,2145.067394,6661.853478
852.302683,592.164754,1302.362347,5107.421000
852.303008,1924.535449,2145.067394,4515.256246
852.303333,222.061783,2681.334243,7179.997637
852.303658,-666.185348,459.657299,8068.244768
852.303983,-888.247130,0.000000,9844.739029
852.304308,-962.267725,-1072.533697,11029.068536
852.304632,0.000000,-383.047749,11177.109724
852.304957,296.082377,0.000000,12287.418637
852.305282,814.226536,-229.828649,11769.274478
852.305607,3034.844362,-536.266849,10732.986159
852.305932,4959.379811,766.095498,10140.821405
852.306256,5921.647536,2604.724693,7179.997637
852.306581,4811.338623,2374.896044,7846.182985
852.306906,3256.906145,0.000000,10066.800811
852.307231,0.000000,-612.876398,10881.027347
852.307556,-2368.659014,-1072.533697,10955.047942
852.307880,-2442.679609,-2681.334243,10732.986159
852.308205,-2516.700203,-3447.429741,10955.047942
852.308530,-2220.617826,-1915.238745,10881.027347
852.308855,-1258.350101,-153.219100,9992.780217
852.309180,-444.123565,1685.410096,9252.574275
852.309505,3108.864956,2374.896044,6365.771101
852.309829,5033.400406,2298.286494,4959.379811
852.310154,2812.782580,1915.238745,5995.668130
852.310479,0.000000,1225.752797,7550.100608
852.310804,-518.144159,612.876398,9252.574275
852.311129,-1110.308913,-995.924147,10955.047942
852.311453,-2664.741391,-1991.848295,10658.965565
852.311778,-4441.235652,-612.876398,10881.027347
852.312103,-2664.741391,-612.876398,11029.068536
852.312428,-444.123565,-1149.143247,9474.636058
852.312753,-148.041188,536.266849,8882.471304
852.313078,1480.411884,4136.915689,7402.059420
852.313402,2664.741391,2528.115143,6291.750507
852.313727,1702.473667,1378.971896,8364.327145
852.314052,-1332.370696,-1378.971896,9696.697840
852.314377,-5181.441594,229.828649,10955.047942
852.314702,-5403.503377,-76.609550,11621.233289
852.315026,-3849.070898,-1838.629195,12361.439231
852.315351,-5847.626942,-2451.505594,13693.809927
852.315676,-4885.359217,-2145.067394,11991.336260
852.316001,-2812.782580,306.438199,9400.615463
852.316326,444.123565,2451.505594,7920.203579
852.316650,3478.967927,4903.011187,5847.626942
852.316975,3849.070898,4596.572988,4515.256246
852.317300,2664.741391,3140.991542,5329.482782
852.317625,2368.659014,3294.210641,6957.935855
852.317950,1480.411884,3217.601092,9474.636058
852.318275,518.144159,1991.848295,10658.965565
852.318599,888.247130,1149.143247,9992.780217
852.318924,518.144159,459.657299,11473.192101
852.319249,1184.329507,689.485948,10584.944971
852.319574,3034.844362,1991.848295,8660.409521
852.319899,2294.638420,2681.334243,7624.121203
852.320223,3997.112087,1991.848295,4589.276840
852.320548,4219.173869,2221.676944,5995.668130
852.320873,2590.720797,1455.581446,9474.636058
852.321198,-222.061783,766.095498,10732.986159
852.321523,-1850.514855,-919.314598,11251.130318
852.321847,-1480.411884,-1608.800546,12065.356855
852.322172,-2220.617826,-536.266849,13101.645173
852.322497,-3627.009116,-1072.533697,11325.150913
852.322822,-814.226536,-2374.896044,9770.718434
852.323147,1332.370696,-536.266849,10066.800811
852.323472,1184.329507,2834.553343,8068.244768
852.323796,2220.617826,2604.724693,7105.977043
852.324121,2664.741391,-536.266849,7105.977043
852.324446,592.164754,-612.876398,7994.224174
852.324771,-370.102971,1149.143247,10436.903782
852.325096,0.000000,919.314598,11029.068536
852.325420,0.000000,-1072.533697,9696.697840
852.325745,518.144159,-383.047749,10807.006753
852.326070,814.226536,536.266849,11177.109724
852.326395,740.205942,2068.457845,8808.450710
852.326720,1776.494261,1455.581446,7105.977043
852.327044,4219.173869,1991.848295,5403.503377
852.327369,2886.803174,2068.457845,4663.297435
852.327694,518.144159,689.485948,6661.853478
852.328019,-2368.659014,-459.657299,7772.162391
852.328344,-4441.235652,-1378.971896,10658.965565
852.328669,-5329.482782,-2604.724693,11843.295072
852.328993,-6217.729913,-3217.601092,12287.418637
852.329318,-5995.668130,-4443.353888,12139.377449
852.329643,-2442.679609,-3370.820191,12435.459826
852.329968,-296.082377,-766.095498,11325.150913
852.330293,148.041188,1225.752797,9252.574275
852.330617,2294.638420,2145.067394,6291.750507
852.330942,2738.761985,1455.581446,7105.977043
852.331267,1850.514855,1378.971896,9178.553681
852.331592,74.020594,1149.143247,10955.047942
852.331917,-2368.659014,306.438199,11621.233289
852.332241,-1332.370696,-1455.581446,10807.006753
852.332566,-740.205942,-1685.410096,11399.171507
852.332891,-1110.308913,-995.924147,11103.089130
852.333216,0.000000,1838.629195,10140.821405
852.333541,1702.473667,4060.306139,8586.388927
852.333866,4737.318029,4903.011187,7105.977043
852.334190,4737.318029,3294.210641,4071.132681
852.334515,1628.453072,2451.505594,4219.173869
852.334840,814.226536,3524.039291,6587.832884
852.335165,0.000000,2834.553343,9548.656652
852.335490,-2368.659014,536.266849,10288.862594
852.335814,-3552.988522,-766.095498,8956.491898
852.336139,-3552.988522,-383.047749,9918.759623
852.336464,-3034.844362,689.485948,11473.192101
852.336789,-1110.308913,1225.752797,10066.800811
852.337113,740.205942,1608.800546,7698.141797
852.337438,3627.009116,2451.505594,6069.688724
852.337763,5107.421000,4366.744339,6513.812290
852.338088,4293.194464,3524.039291,9622.677246
852.338412,1258.350101,536.266849,10362.883188
852.338737,-1850.514855,-612.876398,11325.150913
852.339062,-2368.659014,-995.924147,13027.624579
852.339387,-1110.308913,-995.924147,11399.171507
852.339711,-2368.659014,-1608.800546,12731.542202
852.340036,-1554.432478,-1762.019645,12361.439231
852.340361,-666.185348,1685.410096,10658.965565
852.340686,1924.535449,1608.800546,7179.997637
852.341010,4293.194464,3370.820191,5255.462188
852.341335,3330.926739,3677.258390,4515.256246
852.341660,1998.556043,3370.820191,6365.771101
852.341985,1480.411884,612.876398,8882.471304
852.342309,-2294.638420,-689.485948,11103.089130
852.342634,-3997.112087,-1149.143247,9252.574275
852.342959,-2738.761985,-2068.457845,9992.780217
852.343284,-3330.926739,-2834.553343,11325.150913
852.343609,-2590.720797,-2451.505594,11399.171507
852.343933,-1332.370696,-383.047749,10214.842000
852.344258,1702.473667,459.657299,7698.141797
852.344583,2516.700203,1225.752797,4737.318029
852.344908,1850.514855,1378.971896,5995.668130
852.345232,592.164754,1072.533697,8660.409521
852.345557,-740.205942,0.000000,10584.944971
852.345882,-1332.370696,-612.876398,11547.212695
852.346207,-2368.659014,-1915.238745,11769.274478
852.346531,-3478.967927,-2374.896044,11029.068536
852.346856,-2368.659014,-2757.943793,11769.274478
852.347181,592.164754,-1455.581446,11621.233289
852.347506,1628.453072,766.095498,10288.862594
852.347830,3034.844362,2604.724693,7846.182985
852.348155,4663.297435,3140.991542,4885.359217
852.348480,3256.906145,1838.629195,5699.585753
852.348805,1924.535449,995.924147,6735.874072
852.349129,-814.226536,919.314598,10140.821405
852.349454,-1924.535449,459.657299,11769.274478
852.349779,-1628.453072,229.828649,11177.109724
852.350104,-1850.514855,-383.047749,11843.295072
852.350428,-2516.700203,-842.705048,11621.233289
852.350753,-814.226536,919.314598,8586.388927
852.351078,1554.432478,2604.724693,7105.977043
852.351403,3552.988522,3294.210641,5921.647536
852.351727,2738.761985,3753.867940,4663.297435
852.352052,962.267725,2298.286494,6143.709319
852.352377,0.000000,1608.800546,7772.162391
852.352702,-2368.659014,995.924147,10807.006753
852.353026,-2590.720797,0.000000,11917.315666
852.353351,-962.267725,0.000000,12139.377449
852.353676,-1406.391290,-919.314598,12361.439231
852.354001,0.000000,-229.828649,12287.418637
852.354325,1258.350101,1302.362347,10658.965565
852.354650,2368.659014,2987.772442,8216.285956
852.354975,4293.194464,2987.772442,6217.729913
852.355300,4589.276840,2681.334243,7179.997637
852.355624,592.164754,1225.752797,7994.224174
852.355949,-2516.700203,383.047749,10362.883188
852.356274,-4737.318029,-383.047749,10807.006753
852.356599,-4441.235652,-2604.724693,10510.924376
852.356923,-4145.153275,-2757.943793,11029.068536
852.357248,-3701.029710,-1149.143247,10955.047942
852.357573,-2442.679609,1149.143247,9770.718434
852.357898,518.144159,2145.067394,7550.100608
852.358223,3330.926739,2374.896044,6661.853478
852.358547,3404.947333,2604.724693,3256.906145
852.358872,2664.741391,2068.457845,4663.297435
852.359197,2368.659014,1378.971896,7772.162391
852.359522,-1184.329507,1072.533697,10881.027347
852.359846,-3404.947333,-306.438199,11843.295072
852.360171,-2812.782580,-2604.724693,10362.883188
852.360496,-2590.720797,-4060.306139,11473.192101
852.360821,-1332.370696,-3140.991542,12731.542202
852.361145,444.123565,536.266849,12213.398043
852.361470,1406.391290,2911.162892,9992.780217
852.361795,4367.215058,1532.190996,7328.038826
852.362120,4811.338623,1762.019645,5477.523971
852.362444,2960.823768,1532.190996,6957.935855
852.362769,74.020594,1455.581446,8660.409521
852.363094,-1850.514855,76.609550,11177.109724
852.363419,-2368.659014,-1838.629195,12583.501014
852.363743,-3256.906145,-2987.772442,11695.253884
852.364068,-3330.926739,-2604.724693,10955.047942
852.364393,-1924.535449,-2374.896044,11325.150913
852.364718,814.226536,383.047749,10066.800811
852.365042,2664.741391,3140.991542,7476.080014
852.365367,5329.482782,4290.134789,4811.338623
852.365692,3404.947333,3140.991542,4441.235652
852.366017,2146.597232,1225.752797,5403.503377
852.366341,1184.329507,1685.410096,8438.347739
852.366666,-2220.617826,1072.533697,11399.171507
852.366991,-2664.741391,-153.219100,11177.109724
852.367316,0.000000,-1532.190996,11325.150913
852.367640,-1258.350101,-306.438199,13545.768739
852.367965,-1036.288319,383.047749,11177.109724
852.368290,740.205942,1378.971896,8438.347739
852.368615,3701.029710,2451.505594,6587.832884
852.368939,4663.297435,3907.087040,5403.503377
852.369264,2886.803174,3753.867940,6439.791695
852.369589,1480.411884,1149.143247,7402.059420
852.369914,-592.164754,842.705048,11103.089130
852.370238,-2590.720797,0.000000,13101.645173
852.370563,-2516.700203,-612.876398,12509.480420
852.370888,-2590.720797,-2221.676944,11843.295072
852.371213,-3627.009116,-2451.505594,12509.480420
852.371538,-1332.370696,-536.266849,11251.130318
852.371862,296.082377,1838.629195,8660.409521
852.372187,2072.576638,2451.505594,4367.215058
852.372512,3478.967927,2374.896044,3849.070898
852.372837,2294.638420,2451.505594,6365.771101
852.373161,-592.164754,2068.457845,9252.574275
852.373486,-3923.091493,229.828649,10510.924376
852.373811,-4293.194464,-1915.238745,9918.759623
852.374136,-3552.988522,-2528.115143,10955.047942
852.374460,-2812.782580,-1072.533697,11473.192101
852.374785,-2516.700203,383.047749,12139.377449
852.375110,444.123565,1149.143247,11029.068536
852.375435,3034.844362,1991.848295,8882.471304
852.375759,4219.173869,3907.087040,4737.318029
852.376084,4885.359217,4213.525239,3923.091493
852.376409,4145.153275,2068.457845,7105.977043
852.376734,1184.329507,536.266849,9770.718434
852.377058,-2072.576638,689.485948,12139.377449
852.377383,-3627.009116,-1149.143247,12361.439231
852.377708,-3997.112087,-2604.724693,11029.068536
852.378033,-3701.029710,-2834.553343,12065.356855
852.378357,-1776.494261,-1532.190996,13323.706956
852.378682,-1850.514855,1225.752797,10066.800811
852.379007,0.000000,1072.533697,7254.018232
852.379332,3552.988522,2528.115143,4811.338623
852.379656,2442.679609,3294.210641,4293.194464
852.379981,370.102971,1225.752797,6217.729913
852.380306,-740.205942,-383.047749,8290.306550
852.380631,-3330.926739,459.657299,12435.459826
852.380955,-1924.535449,-153.219100,11843.295072
852.381280,-518.144159,-1991.848295,10288.862594
852.381605,-1110.308913,-2451.505594,11325.150913
852.381930,1258.350101,306.438199,11843.295072
852.382254,3849.070898,4366.744339,10362.883188
852.382579,5699.585753,2834.553343,8290.306550
852.382904,5551.544565,1072.533697,4811.338623
852.383229,4071.132681,1762.019645,5329.482782
852.383553,2442.679609,3064.381992,8068.244768
852.383878,296.082377,919.314598,10066.800811
852.384203,-4515.256246,-1762.019645,10955.047942
852.384528,-4293.194464,-3217.601092,11029.068536
852.384852,-3034.844362,-1915.238745,12065.356855
852.385177,-2812.782580,-689.485948,11695.253884
852.385502,-1554.432478,-306.438199,11325.150913
852.385827,1184.329507,-229.828649,8068.244768
852.386152,3256.906145,3217.601092,6735.874072
852.386476,4589.276840,3753.867940,5329.482782
852.386801,1184.329507,2451.505594,6957.935855
852.387126,74.020594,-306.438199,7550.100608
852.387451,-740.205942,229.828649,12213.398043
852.387775,-2738.761985,-536.266849,12509.480420
852.388100,-4515.256246,-766.095498,11473.192101
852.388425,-2738.761985,-3294.210641,11029.068536
852.388750,-1480.411884,-2834.553343,11843.295072
852.389074,-518.144159,1838.629195,10436.903782
852.389399,1998.556043,4826.401637,7994.224174
852.389724,4663.297435,4596.572988,4515.256246
852.390049,4959.379811,2528.115143,3701.029710
852.390373,2886.803174,2757.943793,6217.729913
852.390698,-1110.308913,2911.162892,8734.430116
852.391023,-3478.967927,1378.971896,11325.150913
852.391348,-2516.700203,-1915.238745,11769.274478
852.391672,-2960.823768,-3983.696590,11769.274478
852.391997,-4145.153275,-3294.210641,10881.027347
852.392322,-2368.659014,-612.876398,11621.233289
852.392647,666.185348,2374.896044,11399.171507
852.392971,3775.050304,2987.772442,8216.285956
852.393296,4219.173869,2987.772442,4885.359217
852.393621,4219.173869,2757.943793,4737.318029
852.393946,3034.844362,3217.601092,6883.915261
852.394270,1258.350101,1302.362347,10732.986159
852.394595,-2146.597232,0.000000,13101.645173
852.394920,-3034.844362,-1532.190996,11399.171507
852.395245,-3775.050304,-2451.505594,11621.233289
852.395569,-2220.617826,-2911.162892,12213.398043
852.395894,-2072.576638,-766.095498,11843.295072
852.396219,-370.102971,459.657299,9104.533087
852.396544,2812.782580,2298.286494,6661.853478
852.396868,5255.462188,2451.505594,4219.173869
852.397193,3701.029710,2987.772442,5847.626942
852.397518,1332.370696,1991.848295,7624.121203
852.397843,-962.267725,1072.533697,9918.759623
852.398167,-370.102971,0.000000,10658.965565
852.398492,-814.226536,-1378.971896,11177.109724
852.398817,-3478.967927,-1378.971896,11769.274478
852.399142,-3775.050304,-1149.143247,11991.336260
852.399467,-1332.370696,306.438199,10955.047942
852.399791,1554.432478,-229.828649,9178.553681
852.400116,1110.308913,689.485948,5995.668130
852.400441,1998.556043,2068.457845,3552.988522
852.400766,1110.308913,2528.115143,7031.956449
852.401090,-592.164754,919.314598,8956.491898
852.401415,-4811.338623,-842.705048,10732.986159
852.401740,-4737.318029,-2681.334243,10140.821405
852.402065,-2886.803174,-2681.334243,9622.677246
852.402389,-1850.514855,-1915.238745,13323.706956
852.402714,-1480.411884,-459.657299,13693.809927
852.403039,666.185348,0.000000,10436.903782
852.403364,3997.112087,1378.971896,9474.636058
852.403688,6513.812290,3600.648841,6735.874072
852.404013,4515.256246,4519.963438,5921.647536
852.404338,2738.761985,1302.362347,7254.018232
852.404663,1406.391290,0.000000,9622.677246
852.404987,-1332.370696,842.705048,11769.274478
852.405312,-2146.597232,76.609550,11843.295072
852.405637,-2368.659014,-612.876398,11029.068536
852.405962,-3034.844362,-2451.505594,11547.212695
852.406286,-1258.350101,-536.266849,11029.068536
852.406611,666.185348,2221.676944,8068.244768
852.406936,1406.391290,3753.867940,6143.709319
852.407261,3256.906145,3753.867940,3997.112087
852.407585,2960.823768,2451.505594,4959.379811
852.407910,222.061783,2068.457845,7476.080014
852.408235,-2590.720797,1685.410096,9030.512492
852.408560,-3330.926739,306.438199,10807.006753
852.408884,-1406.391290,-1685.410096,10288.862594
852.409209,-2516.700203,-383.047749,13175.665768
852.409534,-2960.823768,-766.095498,12805.562797
852.409859,-592.164754,229.828649,10584.944971
852.410183,3404.947333,1302.362347,9770.718434
852.410508,6439.791695,4749.792088,8216.285956
852.410833,6365.771101,6588.421283,4811.338623
852.411158,4219.173869,3370.820191,5699.585753
852.411482,2368.659014,766.095498,7179.997637
852.411807,-1332.370696,306.438199,9770.718434
852.412132,-3775.050304,383.047749,10140.821405
852.412457,-3108.864956,-995.924147,10362.883188
852.412781,-3478.967927,-1762.019645,12953.603985
852.413106,-1702.473667,-2145.067394,12509.480420
852.413431,-296.082377,-1149.143247,10362.883188
852.413756,888.247130,459.657299,8438.347739
852.414081,3478.967927,3217.601092,4737.318029
852.414405,5477.523971,3753.867940,4811.338623
852.414730,2812.782580,1991.848295,7550.100608
852.415055,-518.144159,536.266849,8142.265362
852.415380,-3256.906145,0.000000,10436.903782
852.415704,-1850.514855,-1838.629195,11473.192101
852.416029,-3478.967927,-3294.210641,12361.439231
852.416354,-4885.359217,-4443.353888,11843.295072
852.416679,-2294.638420,-2987.772442,11399.171507
852.417003,592.164754,-1302.362347,10955.047942
852.417328,1406.391290,1532.190996,9770.718434
852.417653,3182.885551,3294.210641,5625.565159
852.417978,3849.070898,1838.629195,4737.318029
852.418302,2960.823768,1072.533697,6883.915261
852.418627,296.082377,536.266849,10510.924376
852.418952,-2960.823768,1225.752797,12361.439231
852.419277,-2664.741391,-1072.533697,11103.089130
852.419601,-1924.535449,-3447.429741,12065.356855
852.419926,-3034.844362,-4366.744339,11843.295072
852.420251,-2738.761985,-1455.581446,11251.130318
852.420576,444.123565,1455.581446,9474.636058
852.420900,2294.638420,2451.505594,7476.080014
852.421225,3108.864956,2298.286494,4367.215058
852.421550,1850.514855,2451.505594,4959.379811
852.421875,666.185348,2528.115143,6957.935855
852.422199,0.000000,2451.505594,9474.636058
852.422524,-1924.535449,153.219100,11621.233289
852.422849,-3404.947333,-1378.971896,10807.006753
852.423174,-3849.070898,-1378.971896,11251.130318
852.423498,-2368.659014,-1608.800546,10658.965565
852.423823,-888.247130,153.219100,10658.965565
852.424148,296.082377,1838.629195,9252.574275
852.424473,2886.803174,4290.134789,6143.709319
852.424797,4293.194464,4290.134789,4885.359217
852.425122,2664.741391,3217.601092,6883.915261
852.425447,1184.329507,1608.800546,7846.182985
852.425772,-1036.288319,1072.533697,10732.986159
852.426096,-1628.453072,459.657299,10436.903782
852.426421,-592.164754,76.609550,12435.459826
852.426746,-888.247130,-842.705048,13545.768739
852.427071,-1184.329507,-536.266849,11695.253884
852.427396,814.226536,0.000000,10140.821405
852.427720,4071.132681,1455.581446,8586.388927
852.428045,4663.297435,4213.525239,7105.977043
852.428370,3330.926739,3600.648841,5699.585753
852.428695,2220.617826,1532.190996,5921.647536
852.429019,222.061783,0.000000,8512.368333
852.429344,-2442.679609,1455.581446,11399.171507
852.429669,-2516.700203,306.438199,10807.006753
852.429994,-2368.659014,-842.705048,10955.047942
852.430318,-1998.556043,-2834.553343,11917.315666
852.430643,-1628.453072,-1532.190996,11399.171507
852.430968,-888.247130,1685.410096,8882.471304
852.431293,2442.679609,2145.067394,6365.771101
852.431617,4219.173869,1685.410096,3627.009116
852.431942,2220.617826,1455.581446,6439.791695
852.432267,518.144159,1915.238745,8438.347739
852.432592,-962.267725,1762.019645,10362.883188
852.432916,-2146.597232,-1225.752797,10955.047942
852.433241,-1924.535449,-3524.039291,11621.233289
852.433566,-2294.638420,-2757.943793,11695.253884
852.433891,-1998.556043,-689.485948,11917.315666
852.434215,1702.473667,766.095498,11547.212695
852.434540,2812.782580,1302.362347,10807.006753
852.434865,3182.885551,2298.286494,6365.771101
852.435190,3997.112087,2681.334243,3256.906145
852.435514,2368.659014,2451.505594,6661.853478
852.435839,370.102971,1149.143247,8438.347739
852.436164,-2368.659014,1072.533697,10140.821405
852.436489,-3182.885551,-1915.238745,10807.006753
852.436814,-4071.132681,-3447.429741,10436.903782
852.437139,-4885.359217,-3753.867940,11621.233289
852.437464,-3923.091493,-2145.067394,13027.624579
852.437789,-2368.659014,76.609550,11547.212695
852.438114,0.000000,0.000000,8216.285956
852.438439,4589.276840,1685.410096,5107.421000
852.438763,4441.235652,3983.696590,5181.441594
852.439088,1998.556043,3447.429741,7105.977043
852.439413,592.164754,1378.971896,8956.491898
852.439738,-148.041188,153.219100,11917.315666
852.440063,-1184.329507,-536.266849,11843.295072
852.440388,-1406.391290,-1225.752797,10288.862594
852.440713,-1258.350101,-1991.848295,11103.089130
852.441038,222.061783,-1302.362347,13101.645173
852.441362,0.000000,1915.238745,10881.027347
852.441687,2220.617826,2221.676944,8586.388927
852.442012,4663.297435,2068.457845,4293.194464
852.442337,3404.947333,3600.648841,5107.421000
852.442662,1702.473667,3447.429741,7698.141797
852.442987,-1110.308913,766.095498,9252.574275
852.443312,-3478.967927,-229.828649,9844.739029
852.443637,-3627.009116,-2068.457845,10807.006753
852.443961,-3923.091493,-2068.457845,11843.295072
852.444286,-4811.338623,-689.485948,10214.842000
852.444611,-3849.070898,459.657299,10362.883188
852.444936,-370.102971,-229.828649,9178.553681
852.445261,1850.514855,1532.190996,7105.977043
852.445586,3701.029710,3370.820191,3997.112087
852.445911,2146.597232,3753.867940,6587.832884
852.446236,1406.391290,2221.676944,8438.347739
852.446560,1110.308913,1149.143247,11843.295072
852.446885,296.082377,229.828649,11621.233289
852.447210,-1184.329507,-919.314598,11029.068536
852.447535,-592.164754,-2221.676944,11547.212695
852.447860,370.102971,-1302.362347,11917.315666
852.448185,370.102971,766.095498,11917.315666
852.448510,1480.411884,1532.190996,9474.636058
852.448835,3701.029710,2145.067394,5847.626942
852.449159,4515.256246,2528.115143,5329.482782
852.449484,1554.432478,2834.553343,7550.100608
852.449809,-1480.411884,1149.143247,7698.141797
852.450134,-3108.864956,153.219100,9474.636058
852.450459,-2146.597232,-995.924147,11473.192101
852.450784,-2220.617826,-1685.410096,10658.965565
852.451109,-3849.070898,-1149.143247,10732.986159
852.451434,-2812.782580,-919.314598,10584.944971
852.451759,148.041188,306.438199,9696.697840
852.452083,1702.473667,-153.219100,8512.368333
852.452408,2960.823768,1378.971896,5403.503377
852.452733,2886.803174,3524.039291,5551.544565
852.453058,1406.391290,2451.505594,8882.471304
852.453383,444.123565,612.876398,8956.491898
852.453708,-2220.617826,-689.485948,10362.883188
852.454033,-2368.659014,-919.314598,10658.965565
852.454358,-518.144159,383.047749,11103.089130
852.454682,-888.247130,229.828649,12731.542202
852.455007,-1184.329507,0.000000,10214.842000
852.455332,-296.082377,76.609550,8364.327145
852.455657,2590.720797,1532.190996,7402.059420
852.455982,5847.626942,4596.572988,5699.585753
852.456307,3404.947333,3753.867940,7179.997637
852.456632,0.000000,842.705048,8364.327145
852.456957,-1258.350101,153.219100,8512.368333
852.457281,-1924.535449,153.219100,11177.109724
852.457606,-1702.473667,-1225.752797,11177.109724
852.457931,-1924.535449,-995.924147,11843.295072
852.458256,-1628.453072,-1149.143247,11621.233289
852.458581,74.020594,0.000000,10881.027347
852.458906,222.061783,1149.143247,10066.800811
852.459231,962.267725,1915.238745,6069.688724
852.459556,2516.700203,2911.162892,5107.421000
852.459880,2886.803174,1378.971896,7476.080014
852.460205,0.000000,1455.581446,9548.656652
852.460530,-3182.885551,459.657299,9770.718434
852.460855,-2812.782580,-1685.410096,9696.697840
852.461180,-2664.741391,-3447.429741,9474.636058
852.461505,-2368.659014,-1838.629195,11695.253884
852.461830,-1924.535449,919.314598,12805.562797
852.462155,148.041188,2145.067394,10362.883188
852.462479,1998.556043,459.657299,7772.162391
852.462804,4071.132681,-459.657299,4737.318029
852.463129,3182.885551,3217.601092,5625.565159
852.463454,2590.720797,3294.210641,8142.265362
852.463779,1850.514855,1685.410096,10732.986159
852.464104,-1184.329507,-459.657299,11991.336260
852.464429,-2590.720797,-1991.848295,11843.295072
852.464754,-2368.659014,-1685.410096,9252.574275
852.465078,-1628.453072,-1991.848295,10510.924376
852.465403,-444.123565,0.000000,11843.295072
852.465728,0.000000,1991.848295,10510.924376
852.466053,1480.411884,2757.943793,6661.853478
852.466378,2960.823768,1991.848295,3701.029710
852.466703,962.267725,1532.190996,6069.688724
852.467028,-740.205942,2068.457845,7402.059420
852.467353,-1924.535449,1455.581446,9770.718434
852.467677,-2738.761985,-1225.752797,11399.171507
852.468002,-3701.029710,-3064.381992,12065.356855
852.468327,-3775.050304,-3524.039291,11251.130318
852.468652,-3478.967927,-1455.581446,11029.068536
852.468977,-1184.329507,-153.219100,11473.192101
852.469302,1480.411884,1455.581446,10510.924376
852.469627,4441.235652,2681.334243,7698.141797
852.469952,5403.503377,3677.258390,5921.647536
852.470276,3701.029710,3907.087040,6883.915261
852.470601,2590.720797,2834.553343,9474.636058
852.470926,1332.370696,1762.019645,11843.295072
852.471251,-814.226536,306.438199,11251.130318
852.471576,-1258.350101,-1608.800546,11029.068536
852.471901,-1554.432478,-2834.553343,10955.047942
852.472226,-2590.720797,-995.924147,10732.986159
852.472551,-1998.556043,1225.752797,9178.553681
852.472875,296.082377,536.266849,7179.997637
852.473200,2960.823768,2451.505594,5477.523971
852.473525,2368.659014,2987.772442,5107.421000
852.473850,222.061783,3370.820191,6513.812290
852.474175,-888.247130,1149.143247,6809.894666
852.474500,-2220.617826,-383.047749,8586.388927
852.474825,-1776.494261,-689.485948,11843.295072
852.475150,-1998.556043,229.828649,11843.295072
852.475474,-2368.659014,-76.609550,12139.377449
852.475799,-666.185348,-1378.971896,11843.295072
852.476124,962.267725,-612.876398,10881.027347
852.476449,1628.453072,842.705048,7550.100608
852.476774,4515.256246,3064.381992,5107.421000
852.477099,4515.256246,3600.648841,7105.977043
852.477424,2516.700203,2681.334243,10288.862594
852.477749,1480.411884,1991.848295,10140.821405
852.478073,-962.267725,1608.800546,11177.109724
852.478398,-592.164754,-1685.410096,9548.656652
852.478723,-370.102971,-1685.410096,11991.336260
852.479048,-1850.514855,-612.876398,12879.583391
852.479373,-1924.535449,1302.362347,11029.068536
852.479698,-592.164754,76.609550,8216.285956
852.480023,1776.494261,-766.095498,7476.080014
852.480348,2812.782580,2528.115143,5033.400406
852.480673,814.226536,3677.258390,6291.750507
852.480997,-666.185348,1302.362347,7846.182985
852.481322,-1850.514855,-1225.752797,9030.512492
852.481647,-3256.906145,-2451.505594,11473.192101
852.481972,-2368.659014,-842.705048,10436.903782
852.482297,-1924.535449,-229.828649,10436.903782
852.482622,-1628.453072,-1532.190996,12065.356855
852.482947,370.102971,-919.314598,11547.212695
852.483272,1110.308913,1455.581446,9548.656652
852.483596,3256.906145,2374.896044,6143.709319
852.483921,4293.194464,2987.772442,5699.585753
852.484246,2220.617826,1532.190996,7328.038826
852.484571,814.226536,1532.190996,9474.636058
852.484896,-1332.370696,766.095498,10140.821405
852.485221,-3478.967927,-1302.362347,11695.253884
852.485546,-3108.864956,-3064.381992,10807.006753
852.485871,-3404.947333,-2987.772442,11991.336260
852.486195,-3330.926739,-229.828649,12139.377449
852.486520,-814.226536,1762.019645,9548.656652
852.486845,2072.576638,1991.848295,7772.162391
852.487170,3330.926739,1302.362347,5033.400406
852.487495,2220.617826,4213.525239,4811.338623
852.487820,1776.494261,3447.429741,6513.812290
852.488145,222.061783,1149.143247,8882.471304
852.488470,-2368.659014,-689.485948,10066.800811
852.488794,-3997.112087,-1302.362347,10658.965565
852.489119,-2664.741391,-1072.533697,11251.130318
852.489444,-2072.576638,-995.924147,11917.315666
852.489769,-1332.370696,-459.657299,11473.192101
852.490094,0.000000,-536.266849,9474.636058
852.490419,2664.741391,2528.115143,6957.935855
852.490744,5625.565159,4673.182538,5329.482782
852.491069,4219.173869,3753.867940,6587.832884
852.491393,1406.391290,1378.971896,8216.285956
852.491718,-148.041188,536.266849,9844.739029
852.492043,-888.247130,766.095498,12509.480420
852.492368,-2072.576638,-1149.143247,12361.439231
852.492693,-2442.679609,-3447.429741,12361.439231
852.493018,-1776.494261,-3140.991542,11917.315666
852.493343,0.000000,-612.876398,11399.171507
852.493668,1998.556043,1915.238745,8808.450710
852.493992,4071.132681,2451.505594,7105.977043
852.494317,4885.359217,3217.601092,4737.318029
852.494642,4219.173869,2834.553343,6587.832884
852.494967,2886.803174,1991.848295,8142.265362
852.495292,-888.247130,2298.286494,9326.594869
852.495617,-2886.803174,0.000000,10436.903782
852.495942,-1924.535449,-2145.067394,10510.924376
852.496267,-2072.576638,-2374.896044,10288.862594
852.496591,-2664.741391,-1149.143247,11325.150913
852.496916,-962.267725,229.828649,9918.759623
852.497241,1628.453072,1915.238745,9030.512492
852.497566,4293.194464,3677.258390,6365.771101
852.497891,3849.070898,3064.381992,4959.379811
852.498216,1258.350101,1838.629195,6291.750507
852.498541,740.205942,1225.752797,8068.244768
852.498866,-814.226536,1608.800546,11399.171507
852.499190,-1924.535449,-306.438199,12065.356855
852.499515,-2960.823768,-1762.019645,11843.295072
852.499840,-2960.823768,-2451.505594,12509.480420
852.500165,-1998.556043,-1455.581446,11769.274478
852.500490,-962.267725,459.657299,10066.800811
852.500815,222.061783,-229.828649,8068.244768
852.501140,2960.823768,2068.457845,5625.565159
852.501465,2590.720797,3983.696590,6883.915261
852.501789,1480.411884,2374.896044,8956.491898
852.502114,-888.247130,919.314598,9104.533087
852.502439,-2368.659014,-689.485948,9918.759623
852.502764,-1850.514855,-1225.752797,11473.192101
852.503089,-1554.432478,-919.314598,11695.253884
852.503414,-2738.761985,-842.705048,11843.295072
852.503739,-888.247130,-842.705048,10732.986159
852.504064,666.185348,0.000000,8882.471304
852.504388,1776.494261,2221.676944,5921.647536
852.504713,2146.597232,3677.258390,4737.318029
852.505038,1480.411884,2987.772442,5699.585753
852.505363,222.061783,766.095498,7105.977043
852.505688,-1702.473667,-689.485948,9918.759623
852.506013,-3330.926739,0.000000,12509.480420
852.506338,-2590.720797,-383.047749,10955.047942
852.506663,-1036.288319,-1685.410096,11177.109724
852.506987,-666.185348,-2451.505594,11103.089130
852.507312,-518.144159,0.000000,9844.739029
852.507637,1924.535449,3217.601092,9252.574275
852.507962,5773.606348,4519.963438,6957.935855
852.508287,5033.400406,2757.943793,7031.956449
852.508612,2146.597232,995.924147,7402.059420
852.508937,518.144159,1225.752797,7772.162391
852.509262,-1036.288319,1072.533697,10510.924376
852.509587,-1406.391290,-1302.362347,12509.480420
852.509911,-1998.556043,-2068.457845,12805.562797
852.510236,-2294.638420,-1532.190996,12065.356855
852.510561,-1258.350101,-689.485948,9770.718434
852.510886,518.144159,76.609550,9696.697840
852.511211,1332.370696,2145.067394,7994.224174
852.511536,3108.864956,4290.134789,4811.338623
852.511861,2738.761985,3140.991542,5329.482782
852.512186,1184.329507,383.047749,7624.121203
852.512510,-1258.350101,0.000000,8586.388927
852.512835,-4071.132681,-306.438199,10807.006753
852.513160,-3478.967927,-2221.676944,10955.047942
852.513485,-2590.720797,-3064.381992,12361.439231
852.513810,-2072.576638,-2451.505594,13101.645173
852.514135,-296.082377,-689.485948,11547.212695
852.514460,1702.473667,1302.362347,8660.409521
852.514785,3997.112087,2374.896044,7772.162391
852.515109,6291.750507,4826.401637,6069.688724
852.515434,4737.318029,4136.915689,6291.750507
852.515759,2960.823768,1532.190996,7994.224174
852.516084,1332.370696,1302.362347,9622.677246
852.516409,-1702.473667,1225.752797,11843.295072
852.516734,-1628.453072,-766.095498,10066.800811
852.517059,-962.267725,-3064.381992,10362.883188
852.517384,-2960.823768,-1762.019645,12657.521608
852.517708,-2072.576638,919.314598,11621.233289
852.518033,-740.205942,1378.971896,9104.533087
852.518358,1628.453072,76.609550,5551.544565
852.518683,3034.844362,1225.752797,3775.050304
852.519008,222.061783,4290.134789,7772.162391
852.519333,-888.247130,2681.334243,7772.162391
852.519658,-3108.864956,995.924147,9696.697840
852.519983,-3849.070898,-2604.724693,10955.047942
852.520307,-3552.988522,-2528.115143,9992.780217
852.520632,-2590.720797,-919.314598,10436.903782
852.520957,-2664.741391,76.609550,11991.336260
852.521282,-296.082377,229.828649,10732.986159
852.521607,814.226536,306.438199,9844.739029
852.521932,3404.947333,2145.067394,5477.523971
852.522257,3923.091493,4443.353888,5995.668130
852.522582,2516.700203,3753.867940,8438.347739
852.522906,2886.803174,1532.190996,9474.636058
852.523231,-222.061783,842.705048,12657.521608
852.523556,-1924.535449,-229.828649,11399.171507
852.523881,-740.205942,-1378.971896,10732.986159
852.524206,444.123565,-1991.848295,11473.192101
852.524531,-814.226536,-612.876398,11621.233289
852.524856,-296.082377,1838.629195,9992.780217
852.525181,1850.514855,2681.334243,8216.285956
852.525505,4071.132681,2145.067394,5773.606348
852.525830,1850.514855,1455.581446,4737.318029
852.526155,0.000000,1915.238745,5773.606348
852.526480,-2072.576638,2068.457845,7698.141797
852.526805,-2220.617826,842.705048,11399.171507
852.527130,-1998.556043,-1685.410096,10955.047942
852.527455,-3256.906145,-2757.943793,9622.677246
852.527780,-3701.029710,-2221.676944,9474.636058
852.528104,-962.267725,0.000000,10140.821405
852.528429,1258.350101,995.924147,9918.759623
852.528754,2072.576638,1302.362347,7550.100608
852.529079,2886.803174,1072.533697,5329.482782
852.529404,2516.700203,1455.581446,7031.956449
852.529729,1480.411884,1915.238745,9104.533087
852.530054,-444.123565,995.924147,11769.274478
852.530379,-1998.556043,-1149.143247,13027.624579
852.530703,-1258.350101,-2528.115143,11917.315666
852.531028,0.000000,-1915.238745,12657.521608
852.531353,0.000000,-306.438199,12583.501014
852.531678,296.082377,1072.533697,9622.677246
852.532003,2368.659014,1608.800546,8586.388927
852.532328,4145.153275,2528.115143,6883.915261
852.532653,3478.967927,3524.039291,6217.729913
852.532978,444.123565,2068.457845,6143.709319
852.533302,-962.267725,459.657299,6957.935855
852.533627,-2960.823768,-766.095498,9770.718434
852.533952,-4663.297435,-1455.581446,11769.274478
852.534277,-4071.132681,-1915.238745,11547.212695
852.534602,-3775.050304,-2221.676944,11547.212695
852.534927,-2886.803174,-2374.896044,10510.924376
852.535252,-814.226536,-536.266849,8660.409521
852.535577,962.267725,2451.505594,7624.121203
852.535901,3923.091493,3600.648841,5773.606348
852.536226,4589.276840,3140.991542,5699.585753
852.536551,2294.638420,1762.019645,6735.874072
852.536876,-1480.411884,2221.676944,8290.306550
852.537201,-2516.700203,1838.629195,11029.068536
852.537526,-1554.432478,-995.924147,11917.315666
852.537851,-592.164754,-2374.896044,12731.542202
852.538175,-1776.494261,-1608.800546,13397.727550
852.538500,-74.020594,1225.752797,11769.274478
852.538825,2220.617826,2298.286494,9400.615463
852.539150,3849.070898,2068.457845,8734.430116
852.539475,3923.091493,2911.162892,5551.544565
852.539800,3404.947333,4290.134789,5181.441594
852.540124,3330.926739,3217.601092,7920.203579
852.540449,740.205942,2604.724693,10436.903782
852.540774,-2960.823768,689.485948,11177.109724
852.541099,-3552.988522,-1225.752797,10140.821405
852.541424,-2590.720797,-2298.286494,10510.924376
852.541749,-1924.535449,-2374.896044,11695.253884
852.542073,222.061783,1532.190996,11325.150913
852.542398,1258.350101,2987.772442,8586.388927
852.542723,2812.782580,3983.696590,6291.750507
852.543048,4145.153275,2451.505594,4219.173869
852.543373,2590.720797,1838.629195,5107.421000
852.543697,148.041188,1455.581446,7328.038826
852.544022,-1036.288319,1915.238745,10881.027347
852.544347,-2368.659014,919.314598,13619.789333
852.544672,-2368.659014,-2681.334243,12287.418637
852.544997,-2590.720797,-4443.353888,11325.150913
852.545322,-2294.638420,-4366.744339,11029.068536
852.545646,-592.164754,229.828649,10214.842000
852.545971,3108.864956,2834.553343,8882.471304
852.546296,4589.276840,3370.820191,7772.162391
852.546621,3849.070898,3140.991542,5403.503377
852.546946,2516.700203,2145.067394,7105.977043
852.547271,296.082377,1915.238745,8808.450710
852.547595,-2590.720797,153.219100,11029.068536
852.547920,-4515.256246,-2681.334243,11917.315666
852.548245,-3404.947333,-4290.134789,11843.295072
852.548570,-4071.132681,-2757.943793,12435.459826
852.548895,-3627.009116,-1378.971896,10288.862594
852.549220,-1110.308913,0.000000,7254.018232
852.549544,1554.432478,842.705048,6143.709319
852.549869,2590.720797,3140.991542,3627.009116
852.550194,2442.679609,3524.039291,4293.194464
852.550519,962.267725,1762.019645,7105.977043
852.550844,-1110.308913,1302.362347,9104.533087
852.551169,-3256.906145,-689.485948,11473.192101
852.551493,-3997.112087,-2604.724693,11991.336260
852.551818,-2664.741391,-3370.820191,12361.439231
852.552143,-2738.761985,-3217.601092,13989.892304
852.552468,-148.041188,-1608.800546,11473.192101
852.552793,1184.329507,536.266849,9548.656652
852.553117,3478.967927,1838.629195,6809.894666
852.553442,4515.256246,3983.696590,4885.359217
852.553767,3997.112087,3140.991542,5329.482782
852.554092,2516.700203,1685.410096,9474.636058
852.554417,-518.144159,2145.067394,11029.068536
852.554742,-1702.473667,383.047749,11473.192101
852.555066,-370.102971,-2451.505594,10436.903782
852.555391,-740.205942,-3524.039291,12065.356855
852.555716,-2072.576638,-612.876398,12805.562797
852.556041,-518.144159,2068.457845,11103.089130
852.556366,2738.761985,2068.457845,9178.553681
852.556691,3701.029710,1685.410096,5181.441594
852.557015,2886.803174,2911.162892,2886.803174
852.557340,2294.638420,3600.648841,4515.256246
852.557665,666.185348,2834.553343,8216.285956
852.557990,-2146.597232,2145.067394,11177.109724
852.558315,-3552.988522,-612.876398,12361.439231
852.558640,-3034.844362,-1455.581446,9474.636058
852.558964,-2812.782580,-919.314598,11029.068536
852.559289,-1184.329507,-229.828649,13619.789333
852.559614,370.102971,2145.067394,10362.883188
852.559939,1924.535449,2757.943793,7772.162391
852.560264,4737.318029,1915.238745,5847.626942
852.560588,3775.050304,4136.915689,4293.194464
852.560913,962.267725,3677.258390,6143.709319
852.561238,0.000000,2757.943793,8142.265362
852.561563,-2368.659014,229.828649,11325.150913
852.561888,-4071.132681,-1532.190996,11917.315666
852.562213,-3478.967927,-1225.752797,12287.418637
852.562537,-3552.988522,-2451.505594,11991.336260
852.562862,-2442.679609,-919.314598,10288.862594
852.563187,222.061783,153.219100,8956.491898
852.563512,2886.803174,3217.601092,7994.224174
852.563837,4737.318029,5362.668486,5255.462188
852.564162,4293.194464,3753.867940,5847.626942
852.564486,1850.514855,1149.143247,6587.832884
852.564811,-1628.453072,1532.190996,8438.347739
852.565136,-2812.782580,612.876398,10732.986159
852.565461,-1850.514855,-2451.505594,12139.377449
852.565786,-2368.659014,-4596.572988,13175.665768
852.566111,-2812.782580,-2987.772442,14137.933492
852.566435,-1628.453072,-612.876398,11695.253884
852.566760,0.000000,306.438199,8068.244768
852.567085,4663.297435,229.828649,5995.668130
852.567410,4811.338623,2911.162892,5255.462188
852.567735,1702.473667,2451.505594,6143.709319
852.568059,1184.329507,1608.800546,7920.203579
852.568384,-296.082377,612.876398,11325.150913
852.568709,-1554.432478,-2145.067394,12139.377449
852.569034,-2146.597232,-3447.429741,9918.759623
852.569359,-2368.659014,-3907.087040,12065.356855
852.569684,-1924.535449,-612.876398,13175.665768
852.570008,444.123565,919.314598,10510.924376
852.570333,814.226536,153.219100,8068.244768
852.570658,3552.988522,1149.143247,4959.379811
852.570983,3849.070898,3753.867940,4959.379811
852.571308,2442.679609,3600.648841,8216.285956
852.571633,222.061783,2221.676944,9770.718434
852.571957,-3552.988522,-1149.143247,10436.903782
852.572282,-3701.029710,-4290.134789,10066.800811
852.572607,-1184.329507,-3983.696590,10881.027347
852.572932,-3256.906145,-612.876398,13323.706956
852.573257,-1850.514855,1225.752797,11843.295072
852.573582,814.226536,1762.019645,10362.883188
852.573906,2738.761985,689.485948,7254.018232
852.574231,3923.091493,3370.820191,3701.029710
852.574556,4367.215058,5056.230287,3478.967927
852.574881,1628.453072,3677.258390,6883.915261
852.575206,740.205942,1991.848295,10214.842000
852.575531,-2220.617826,612.876398,12287.418637
852.575855,-4145.153275,-1532.190996,12065.356855
852.576180,-3627.009116,-3217.601092,11177.109724
852.576505,-3775.050304,-3753.867940,11769.274478
852.576830,-3108.864956,-1762.019645,11547.212695
852.577155,-1406.391290,1149.143247,9474.636058
852.577479,1628.453072,2451.505594,7550.100608
852.577804,3404.947333,2681.334243,5551.544565
852.578129,2220.617826,2987.772442,5625.565159
852.578454,148.041188,2451.505594,7328.038826
852.578779,-148.041188,2757.943793,9030.512492
852.579104,-222.061783,766.095498,11917.315666
852.579428,-370.102971,-1762.019645,11991.336260
852.579753,-2368.659014,-1838.629195,12657.521608
852.580078,-1554.432478,-1685.410096,11843.295072
852.580403,1628.453072,0.000000,10658.965565
852.580728,3256.906145,2298.286494,10214.842000
852.581053,4663.297435,3753.867940,7550.100608
852.581377,5477.523971,3677.258390,3404.947333
852.581702,4071.132681,2374.896044,5995.668130
852.582027,962.267725,1608.800546,7698.141797
852.582352,-1258.350101,2451.505594,9252.574275
852.582677,-2294.638420,0.000000,9844.739029
852.583002,-2072.576638,-3064.381992,11695.253884
852.583326,-2738.761985,-2145.067394,14137.933492
852.583651,-3182.885551,306.438199,12953.603985
852.583976,-1702.473667,153.219100,9918.759623
852.584301,740.205942,-689.485948,8290.306550
852.584626,2886.803174,842.705048,5921.647536
852.584950,2368.659014,4213.525239,5403.503377
852.585275,888.247130,4290.134789,6883.915261
852.585600,148.041188,1455.581446,7772.162391
852.585925,-1406.391290,-306.438199,10066.800811
852.586250,-2220.617826,-612.876398,11029.068536
852.586575,-1850.514855,383.047749,11695.253884
852.586899,-1332.370696,-229.828649,12361.439231
852.587224,814.226536,-842.705048,10881.027347
852.587549,1776.494261,0.000000,8586.388927
852.587874,2738.761985,2145.067394,5699.585753
852.588199,5107.421000,5745.716235,4811.338623
852.588524,2886.803174,4673.182538,6957.935855
852.588848,0.000000,1149.143247,7698.141797
852.589173,-2072.576638,-1378.971896,8438.347739
852.589498,-3775.050304,-2145.067394,11103.089130
852.589823,-3478.967927,-2451.505594,11695.253884
852.590148,-4145.153275,-3140.991542,13767.830521
852.590473,-3923.091493,-3447.429741,13101.645173
852.590797,-2368.659014,-1608.800546,11029.068536
852.591122,370.102971,536.266849,10214.842000
852.591447,3923.091493,1149.143247,6883.915261
852.591772,3404.947333,3064.381992,5107.421000
852.592097,2072.576638,2145.067394,6439.791695
852.592422,1702.473667,1762.019645,8290.306550
852.592746,-370.102971,536.266849,9844.739029
852.593071,-2960.823768,-1532.190996,11325.150913
852.593396,-2294.638420,-4519.963438,10732.986159
852.593721,-3034.844362,-1455.581446,13101.645173
852.594046,-1480.411884,-1378.971896,12287.418637
852.594370,0.000000,229.828649,10658.965565
852.594695,592.164754,229.828649,7698.141797
852.595020,3923.091493,2528.115143,4589.276840
852.595345,5773.606348,5515.887586,5033.400406
852.595670,3108.864956,4443.353888,5847.626942
852.595995,-296.082377,2604.724693,6809.894666
852.596319,-1480.411884,-153.219100,8956.491898
852.596644,-2516.700203,-919.314598,11621.233289
852.596969,-3256.906145,-2068.457845,10807.006753
852.597294,-5033.400406,-2834.553343,12509.480420
852.597619,-2812.782580,-2298.286494,12139.377449
852.597944,-814.226536,-536.266849,11399.171507
852.598268,1184.329507,1838.629195,8068.244768
852.598593,3256.906145,1762.019645,5255.462188
852.598918,3552.988522,3064.381992,3997.112087
852.599243,3552.988522,3370.820191,7772.162391
852.599568,1554.432478,3217.601092,10362.883188
852.599893,-518.144159,2528.115143,11029.068536
852.600217,-962.267725,-2298.286494,11769.274478
852.600542,-444.123565,-2604.724693,12583.501014
852.600867,-2886.803174,-2221.676944,12953.603985
852.601192,-1554.432478,-306.438199,11843.295072
852.601517,1184.329507,689.485948,9104.533087
852.601841,2220.617826,842.705048,7105.977043
852.602166,3256.906145,3677.258390,5181.441594
852.602491,2294.638420,5975.544884,5773.606348
852.602816,296.082377,4060.306139,6587.832884
852.603141,-814.226536,1072.533697,8808.450710
852.603466,-3182.885551,-1685.410096,11251.130318
852.603790,-4959.379811,-1608.800546,10510.924376
852.604115,-4219.173869,-1685.410096,10881.027347
852.604440,-3923.091493,-1149.143247,12213.398043
852.604765,-2368.659014,-842.705048,11029.068536
852.605090,0.000000,536.266849,8364.327145
852.605415,3404.947333,1455.581446,5329.482782
852.605739,4515.256246,4673.182538,5181.441594
852.606064,3997.112087,5439.278036,6661.853478
852.606389,3478.967927,3677.258390,8216.285956
852.606714,1998.556043,2757.943793,9770.718434
852.607039,592.164754,766.095498,10584.944971
852.607364,148.041188,-229.828649,11991.336260
852.607688,-962.267725,-1302.362347,12213.398043
852.608013,-2294.638420,-689.485948,12805.562797
852.608338,0.000000,-536.266849,11029.068536
852.608663,222.061783,842.705048,9400.615463
852.608988,74.020594,995.924147,5477.523971
852.609313,-592.164754,1378.971896,4515.256246
852.609637,-1036.288319,919.314598,6291.750507
852.609962,-2294.638420,1149.143247,9104.533087
852.610287,-3775.050304,536.266849,10881.027347
852.610612,-3330.926739,-2145.067394,9992.780217
852.610937,-2812.782580,-3294.210641,10288.862594
852.611261,-1702.473667,-2374.896044,12213.398043
852.611586,-592.164754,0.000000,10807.006753
852.611911,2146.597232,2068.457845,8512.368333
852.612236,4219.173869,995.924147,7624.121203
852.612561,6069.688724,842.705048,5773.606348
852.612886,4589.276840,3524.039291,6661.853478
852.613210,2738.761985,2298.286494,7772.162391
852.613535,1554.432478,459.657299,9474.636058
852.613860,1110.308913,-1915.238745,12509.480420
852.614185,740.205942,-1685.410096,13989.892304
852.614510,-370.102971,-1685.410096,12287.418637
852.614835,-2072.576638,-2451.505594,11769.274478
852.615159,-888.247130,-2298.286494,10140.821405
852.615484,1036.288319,-229.828649,9474.636058
852.615809,1850.514855,2145.067394,7105.977043
852.616134,1406.391290,2911.162892,5847.626942
852.616459,-740.205942,689.485948,6143.709319
852.616784,-2146.597232,-1072.533697,6957.935855
852.617108,-4441.235652,-1302.362347,9918.759623
852.617433,-5255.462188,-2298.286494,11399.171507
852.617758,-4515.256246,-2757.943793,11917.315666
852.618083,-3552.988522,-3217.601092,12509.480420
852.618408,-2516.700203,-2451.505594,11473.192101
852.618732,74.020594,-229.828649,10362.883188
852.619057,2738.761985,4519.963438,8068.244768
852.619382,6587.832884,5209.449386,5033.400406
852.619707,6217.729913,4596.572988,5033.400406
852.620032,3256.906145,3524.039291,6439.791695
852.620357,1406.391290,3907.087040,8660.409521
852.620681,370.102971,3447.429741,9992.780217
852.621006,-1554.432478,0.000000,11473.192101
852.621331,-3849.070898,-2911.162892,11621.233289
852.621656,-4071.132681,-2451.505594,12509.480420
852.621981,-2368.659014,919.314598,13027.624579
852.622306,-1480.411884,2145.067394,10732.986159
852.622630,-1258.350101,689.485948,7105.977043
852.622955,2960.823768,919.314598,2516.700203
852.623280,2368.659014,5669.106685,5773.606348
852.623605,666.185348,4749.792088,8808.450710
852.623930,-1480.411884,3064.381992,8364.327145
852.624255,-2146.597232,-612.876398,10214.842000
852.624579,-1110.308913,-1838.629195,12361.439231
852.624904,-962.267725,0.000000,10881.027347
852.625229,-2220.617826,0.000000,10658.965565
852.625554,444.123565,-1149.143247,9992.780217
852.625879,2146.597232,153.219100,9252.574275
852.626204,2960.823768,2528.115143,6513.812290
852.626528,5329.482782,4749.792088,5255.462188
852.626853,2664.741391,3447.429741,7031.956449
852.627178,814.226536,1149.143247,7920.203579
852.627503,0.000000,-229.828649,10436.903782
852.627828,-2590.720797,-1072.533697,11695.253884
852.628152,-2738.761985,-1685.410096,10436.903782
852.628477,-1924.535449,-2528.115143,12435.459826
852.628802,-1924.535449,-2374.896044,12509.480420
852.629127,-962.267725,0.000000,10436.903782
852.629452,1258.350101,1532.190996,9178.553681
852.629777,4293.194464,842.705048,6291.750507
852.630101,4071.132681,1762.019645,5033.400406
852.630426,3627.009116,2145.067394,8364.327145
852.630751,1998.556043,2681.334243,10214.842000
852.631076,666.185348,1455.581446,10955.047942
852.631401,1258.350101,-2068.457845,12213.398043
852.631726,1258.350101,-3370.820191,11843.295072
852.632050,-1036.288319,-1838.629195,11399.171507
852.632375,-296.082377,0.000000,11399.171507
852.632700,1184.329507,919.314598,10436.903782
852.633025,222.061783,1072.533697,7402.059420
852.633350,1036.288319,536.266849,4811.338623
852.633675,0.000000,1762.019645,4737.318029
852.633999,-2294.638420,2604.724693,6883.915261
852.634324,-4219.173869,1302.362347,9178.553681
852.634649,-6957.935855,-1455.581446,10140.821405
852.634974,-6957.935855,-3217.601092,8734.430116
852.635299,-5773.606348,-3600.648841,10362.883188
852.635623,-5255.462188,-1685.410096,12657.521608
852.635948,-4663.297435,1838.629195,12213.398043
852.636273,-1480.411884,2451.505594,10066.800811
852.636598,2294.638420,766.095498,6661.853478
852.636923,4071.132681,612.876398,3849.070898
852.637248,3775.050304,4749.792088,5403.503377
852.637572,4589.276840,6435.202183,8660.409521
852.637897,3701.029710,4443.353888,11473.192101
852.638222,1480.411884,1455.581446,12435.459826
852.638547,1776.494261,-766.095498,12065.356855
852.638872,888.247130,76.609550,11399.171507
852.639197,1628.453072,153.219100,10881.027347
852.639522,2664.741391,2145.067394,11621.233289
852.639846,888.247130,2604.724693,9918.759623
852.640171,1332.370696,1915.238745,5255.462188
852.640496,2368.659014,612.876398,3330.926739
852.640821,-296.082377,1149.143247,6587.832884
852.641146,-3701.029710,2528.115143,7254.018232
852.641471,-4663.297435,766.095498,9104.533087
852.641796,-4145.153275,-4060.306139,9548.656652
852.642120,-4145.153275,-6052.154434,9992.780217
852.642445,-3627.009116,-3600.648841,11917.315666
852.642770,-1258.350101,612.876398,12435.459826
852.643095,2146.597232,2145.067394,11029.068536
852.643420,4959.379811,612.876398,10140.821405
852.643745,5995.668130,306.438199,7698.141797
852.644069,5625.565159,2068.457845,6587.832884
852.644394,4811.338623,3294.210641,8808.450710
852.644719,4071.132681,1225.752797,11029.068536
852.645044,592.164754,-842.705048,12731.542202
852.645369,-1036.288319,-3370.820191,11917.315666
852.645694,-1110.308913,-2834.553343,12139.377449
852.646019,-2368.659014,-2374.896044,12583.501014
852.646343,-962.267725,-1685.410096,10436.903782
852.646668,-444.123565,0.000000,8438.347739
852.646993,740.205942,1532.190996,6291.750507
852.647318,1628.453072,3983.696590,4959.379811
852.647643,888.247130,2911.162892,5329.482782
852.647968,-1702.473667,1608.800546,5773.606348
852.648293,-3849.070898,766.095498,7550.100608
852.648617,-3404.947333,0.000000,9918.759623
852.648942,-3330.926739,-459.657299,11399.171507
852.649267,-4367.215058,-2068.457845,11547.212695
852.649592,-3997.112087,-3217.601092,11029.068536
852.649917,-1406.391290,-766.095498,10288.862594
852.650242,1258.350101,3217.601092,9326.594869
852.650567,4293.194464,4519.963438,6809.894666
852.650891,5033.400406,3600.648841,5551.544565
852.651216,4219.173869,3140.991542,5847.626942
852.651541,2368.659014,2681.334243,8216.285956
852.651866,0.000000,2834.553343,10584.944971
852.652191,-1776.494261,383.047749,11473.192101
852.652516,-1554.432478,-2604.724693,12213.398043
852.652840,-1110.308913,-3217.601092,13101.645173
852.653165,-2812.782580,-1455.581446,13249.686362
852.653490,-740.205942,-229.828649,9622.677246
852.653815,1332.370696,306.438199,8068.244768
852.654140,4219.173869,1149.143247,6143.709319
852.654465,5181.441594,4519.963438,5329.482782
852.654790,4441.235652,4519.963438,6661.853478
852.655114,3404.947333,2298.286494,7920.203579
852.655439,2516.700203,0.000000,8734.430116
852.655764,1332.370696,-1225.752797,11177.109724
852.656089,740.205942,-2681.334243,10066.800811
852.656414,370.102971,-2604.724693,12435.459826
852.656739,1110.308913,-2374.896044,13175.665768
852.657064,1776.494261,-1532.190996,10510.924376
852.657388,1702.473667,-1532.190996,8068.244768
852.657713,4663.297435,-76.609550,5329.482782
852.658038,5699.585753,842.705048,2886.803174
852.658363,3552.988522,383.047749,5329.482782
852.658688,1480.411884,-536.266849,7402.059420
852.659013,-1554.432478,-1762.019645,9326.594869
852.659338,-3701.029710,-4443.353888,12361.439231
852.659662,-2664.741391,-7124.688131,13101.645173
852.659987,-3552.988522,-7431.126331,13915.871710
852.660312,-2960.823768,-5745.716235,14952.160028
852.660637,-370.102971,-3753.867940,12879.583391
852.660962,1184.329507,-2145.067394,10881.027347
852.661287,2886.803174,-459.657299,8068.244768
852.661611,6365.771101,689.485948,4293.194464
852.661936,7994.224174,2145.067394,3404.947333
852.662261,7476.080014,2068.457845,6143.709319
852.662586,5403.503377,1915.238745,9474.636058
852.662911,2368.659014,-306.438199,8808.450710
852.663236,1628.453072,-3524.039291,11769.274478
852.663561,222.061783,-6052.154434,13841.851115
852.663885,-1776.494261,-4673.182538,13915.871710
852.664210,-1332.370696,-1532.190996,14211.954086
852.664535,592.164754,306.438199,11621.233289
852.664860,370.102971,0.000000,7698.141797
852.665185,1406.391290,0.000000,4663.297435
852.665510,3849.070898,3217.601092,1998.556043
852.665835,4071.132681,5132.839837,1554.432478
852.666159,2590.720797,2221.676944,3478.967927
852.666484,2368.659014,-1762.019645,3849.070898
852.666809,592.164754,-4213.525239,7254.018232
852.667134,74.020594,-5209.449386,11325.150913
852.667459,-444.123565,-5515.887586,15840.407159
852.667784,-1998.556043,-6281.983084,17987.004391
852.668109,-2220.617826,-6281.983084,17764.942608
852.668433,0.000000,-5515.887586,16358.551318
852.668758,3404.947333,-2911.162892,13101.645173
852.669083,4737.318029,2221.676944,11769.274478
852.669408,5107.421000,5209.449386,6883.915261
852.669733,6365.771101,6894.859482,3330.926739
852.670058,7402.059420,4903.011187,1628.453072
852.670383,6365.771101,4213.525239,814.226536
852.670707,6069.688724,2604.724693,1110.308913
852.671032,5403.503377,153.219100,3182.885551
852.671357,4145.153275,-3294.210641,6661.853478
852.671682,2146.597232,-6511.811733,11621.233289
852.672007,0.000000,-8580.269578,14285.974681
852.672332,-1184.329507,-9576.193725,16210.510130
852.672656,-370.102971,-8350.440928,18579.169144
852.672981,296.082377,-5669.106685,18505.148550
852.673306,518.144159,-2298.286494,15618.345376
852.673631,2368.659014,1378.971896,11695.253884
852.673956,4441.235652,4366.744339,7772.162391
852.674281,5329.482782,7660.954980,4293.194464
852.674606,5329.482782,9269.755526,1406.391290
852.674930,4737.318029,7431.126331,814.226536
852.675255,3034.844362,4749.792088,1184.329507
852.675580,0.000000,919.314598,3108.864956
852.675905,-3627.009116,-5056.230287,5699.585753
852.676230,-5699.585753,-11031.775171,8660.409521
852.676555,-6587.832884,-13483.280765,13693.809927
852.676880,-5181.441594,-13713.109414,16062.468941
852.677204,-3404.947333,-13253.452115,18283.086767
852.677529,-296.082377,-12717.185267,16358.551318
852.677854,4959.379811,-8656.879127,15026.180623
852.678179,9178.553681,-919.314598,13249.686362
852.678504,10881.027347,7124.688131,11251.130318
852.678829,13027.624579,9193.145976,7624.121203
852.679154,12065.356855,8350.440928,6143.709319
852.679478,9178.553681,7814.174080,5551.544565
852.679803,4959.379811,8963.317327,6809.894666
852.680128,444.123565,7507.735880,5921.647536
852.680453,-4441.235652,995.924147,5921.647536
852.680778,-7994.224174,-6281.983084,7031.956449
852.681103,-11251.130318,-9959.241474,6883.915261
852.681427,-11843.295072,-10112.460574,7698.141797
852.681752,-8512.368333,-10342.289223,8734.430116
852.682077,-5699.585753,-10342.289223,10214.842000
852.682402,-2368.659014,-9499.584175,10510.924376
852.682727,2664.741391,-4596.572988,11177.109724
852.683052,9104.533087,-612.876398,10955.047942
852.683377,14137.933492,2681.334243,11029.068536
852.683701,16580.613101,4903.011187,9918.759623
852.684026,16284.530724,7354.516781,8882.471304
852.684351,16358.551318,6894.859482,8660.409521
852.684676,15396.283594,5439.278036,9770.718434
852.685001,11843.295072,4596.572988,9844.739029
852.685326,6957.935855,3677.258390,8512.368333
852.685651,740.205942,0.000000,7698.141797
852.685975,-1406.391290,-6205.373534,6883.915261
852.686300,-3775.050304,-9576.193725,8734.430116
852.686625,-7402.059420,-11108.384721,10288.862594
852.686950,-9844.739029,-9806.022374,9918.759623
852.687275,-7179.997637,-9269.755526,9992.780217
852.687600,-4145.153275,-8044.002729,11177.109724
852.687925,-3256.906145,-6358.592633,12139.377449
852.688249,-518.144159,-2145.067394,12583.501014
852.688574,2812.782580,919.314598,13101.645173
852.688899,4589.276840,2911.162892,12287.418637
852.689224,4737.318029,3677.258390,10732.986159
852.689549,4959.379811,4290.134789,9178.553681
852.689874,4293.194464,4979.620737,8290.306550
852.690198,3478.967927,6665.030833,8216.285956
852.690523,2664.741391,5056.230287,8586.388927
852.690848,74.020594,2757.943793,6069.688724
852.691173,-1998.556043,306.438199,3404.947333
852.691498,-3256.906145,-2221.676944,4071.132681
852.691823,-4293.194464,-2911.162892,5921.647536
852.692148,-5033.400406,-2145.067394,5773.606348
852.692472,-4441.235652,-3140.991542,6883.915261
852.692797,-2516.700203,-4136.915689,7772.162391
852.693122,-1702.473667,-3294.210641,9326.594869
852.693447,888.247130,-1608.800546,9844.739029
852.693772,3478.967927,76.609550,10658.965565
852.694097,4885.359217,689.485948,11473.192101
852.694422,6365.771101,1991.848295,11695.253884
852.694746,10214.842000,2298.286494,10584.944971
852.695071,10140.821405,2451.505594,8734.430116
852.695396,7624.121203,1149.143247,8142.265362
