#time,accel_x,accel_y,accel_z
4616.648849,1258.350101,3600.648841,9474.636058
4616.649164,1406.391290,3447.429741,9548.656652
4616.649478,1554.432478,3983.696590,9622.677246
4616.649793,2072.576638,4060.306139,9770.718434
4616.650108,2294.638420,4903.011187,9400.615463
4616.650422,2294.638420,4060.306139,8956.491898
4616.650737,2812.782580,4290.134789,9400.615463
4616.651052,2072.576638,4443.353888,9252.574275
4616.651366,2072.576638,4213.525239,9474.636058
4616.651681,1850.514855,3907.087040,9104.533087
4616.651995,1554.432478,3524.039291,9178.553681
4616.652310,888.247130,3447.429741,9696.697840
4616.652625,222.061783,2834.553343,9474.636058
4616.652939,296.082377,2834.553343,9474.636058
4616.653254,-740.205942,2298.286494,9326.594869
4616.653569,-444.123565,1915.238745,9770.718434
4616.653883,-666.185348,1915.238745,9844.739029
4616.654198,-666.185348,2068.457845,9622.677246
4616.654513,-444.123565,1608.800546,9844.739029
4616.654827,0.000000,1762.019645,9548.656652
4616.655142,296.082377,1991.848295,9548.656652
4616.655457,1332.370696,2374.896044,9770.718434
4616.655771,1998.556043,2604.724693,9474.636058
4616.656086,2442.679609,2451.505594,9622.677246
4616.656401,3034.844362,2374.896044,9918.759623
4616.656715,3404.947333,2528.115143,10066.800811
4616.657030,3701.029710,2681.334243,9770.718434
4616.657345,3997.112087,2604.724693,9400.615463
4616.657659,4219.173869,1915.238745,9474.636058
4616.657974,4737.318029,2757.943793,9474.636058
4616.658289,4811.338623,2834.553343,9178.553681
4616.658603,4515.256246,2528.115143,9030.512492
4616.658918,4219.173869,3064.381992,8660.409521
4616.659232,4145.153275,3140.991542,8438.347739
4616.659547,4219.173869,3140.991542,8216.285956
4616.659862,4293.194464,3370.820191,8068.244768
4616.660176,4293.194464,3524.039291,7994.224174
4616.660491,3849.070898,3140.991542,8216.285956
4616.660806,3330.926739,3140.991542,8364.327145
4616.661120,3404.947333,3447.429741,8660.409521
4616.661435,3182.885551,3217.601092,9252.574275
4616.661750,3108.864956,3370.820191,9400.615463
4616.662064,3108.864956,3140.991542,9548.656652
4616.662379,3182.885551,3524.039291,9918.759623
4616.662694,3478.967927,3294.210641,10066.800811
4616.663008,3701.029710,3830.477490,10510.924376
4616.663323,3552.988522,3830.477490,10436.903782
4616.663638,3552.988522,4519.963438,10436.903782
4616.663952,3923.091493,4749.792088,10140.821405
4616.664267,4071.132681,4979.620737,9548.656652
4616.664582,3923.091493,5362.668486,8956.491898
4616.664896,4145.153275,5745.716235,9474.636058
4616.665211,3552.988522,5898.935335,8734.430116
4616.665525,3034.844362,5286.058936,8438.347739
4616.665840,1998.556043,5056.230287,7772.162391
4616.666155,1258.350101,5209.449386,7476.080014
4616.666469,888.247130,4826.401637,7179.997637
4616.666784,296.082377,5286.058936,7105.977043
4616.667099,-296.082377,4673.182538,7254.018232
4616.667413,-1702.473667,3524.039291,8290.306550
4616.667728,-1702.473667,2987.772442,9030.512492
4616.668043,-2516.700203,2221.676944,9252.574275
4616.668357,-3182.885551,1149.143247,9844.739029
4616.668672,-3923.091493,383.047749,10510.924376
4616.668987,-3849.070898,383.047749,11177.109724
4616.669301,-3256.906145,-153.219100,11843.295072
4616.669616,-2516.700203,0.000000,11991.336260
4616.669931,-1110.308913,229.828649,10955.047942
4616.670245,740.205942,306.438199,10288.862594
4616.670560,2516.700203,1685.410096,9474.636058
4616.670874,4737.318029,3370.820191,9474.636058
4616.671188,6587.832884,4366.744339,9104.533087
4616.671503,8142.265362,5209.449386,9030.512492
4616.671817,8142.265362,4903.011187,8956.491898
4616.672132,6957.935855,4136.915689,9030.512492
4616.672446,6291.750507,2987.772442,9918.759623
4616.672760,4441.235652,1608.800546,10288.862594
4616.673075,2220.617826,0.000000,11177.109724
4616.673389,444.123565,-1455.581446,11399.171507
4616.673703,-962.267725,-2221.676944,10140.821405
4616.674018,-1184.329507,-2221.676944,9252.574275
4616.674332,222.061783,-919.314598,9104.533087
4616.674647,1850.514855,459.657299,8290.306550
4616.674961,4145.153275,2604.724693,7179.997637
4616.675275,5773.606348,4903.011187,6439.791695
4616.675590,6439.791695,6128.763984,5773.606348
4616.675904,6217.729913,6818.249932,6069.688724
4616.676218,5403.503377,6665.030833,5995.668130
4616.676533,4293.194464,4519.963438,7105.977043
4616.676847,2146.597232,2757.943793,8216.285956
4616.677162,-370.102971,229.828649,8660.409521
4616.677476,-2072.576638,-766.095498,10436.903782
4616.677790,-2368.659014,-1302.362347,12065.356855
4616.678105,-2146.597232,-1455.581446,13397.727550
4616.678419,-1184.329507,-1149.143247,13841.851115
4616.678733,296.082377,-459.657299,13027.624579
4616.679048,1258.350101,536.266849,12509.480420
4616.679362,2368.659014,2451.505594,12065.356855
4616.679677,4441.235652,3907.087040,10214.842000
4616.679991,5551.544565,6205.373534,9622.677246
4616.680305,6143.709319,7354.516781,9030.512492
4616.680620,6365.771101,8350.440928,7624.121203
4616.680934,6069.688724,9039.926876,6291.750507
4616.681249,5181.441594,8120.612279,5699.585753
4616.681563,2738.761985,7660.954980,7624.121203
4616.681877,-222.061783,5132.839837,6957.935855
4616.682192,-2812.782580,3217.601092,6513.812290
4616.682506,-4293.194464,1608.800546,7254.018232
4616.682820,-5477.523971,766.095498,8956.491898
4616.683135,-5995.668130,76.609550,9918.759623
4616.683449,-5107.421000,-229.828649,10214.842000
4616.683764,-3997.112087,-306.438199,11917.315666
4616.684078,-3108.864956,-459.657299,11991.336260
4616.684392,-1776.494261,383.047749,10881.027347
4616.684707,-148.041188,842.705048,9548.656652
4616.685021,2294.638420,2757.943793,8956.491898
4616.685335,4367.215058,4673.182538,9104.533087
4616.685650,6143.709319,4979.620737,8734.430116
4616.685964,7698.141797,6128.763984,7772.162391
4616.686279,7550.100608,6818.249932,6957.935855
4616.686593,6809.894666,6128.763984,7031.956449
4616.686907,3775.050304,4213.525239,7402.059420
4616.687222,1258.350101,1532.190996,7772.162391
4616.687536,-962.267725,-536.266849,8512.368333
4616.687851,-3849.070898,-3294.210641,9622.677246
4616.688165,-5921.647536,-4673.182538,12139.377449
4616.688479,-5921.647536,-5592.497135,13323.706956
4616.688794,-5033.400406,-6052.154434,13619.789333
4616.689108,-5033.400406,-6511.811733,13693.809927
4616.689422,-4737.318029,-7277.907231,12065.356855
4616.689737,-2368.659014,-4596.572988,9918.759623
4616.690051,518.144159,-1378.971896,8734.430116
4616.690366,3330.926739,2068.457845,8512.368333
4616.690680,5847.626942,4443.353888,8882.471304
4616.690994,8290.306550,4673.182538,7402.059420
4616.691309,9252.574275,6128.763984,6809.894666
4616.691623,7624.121203,5439.278036,6365.771101
4616.691937,5403.503377,3753.867940,5033.400406
4616.692252,3034.844362,2528.115143,5033.400406
4616.692566,296.082377,919.314598,7031.956449
4616.692881,-3404.947333,-689.485948,9252.574275
4616.693195,-5699.585753,-3447.429741,10066.800811
4616.693509,-7402.059420,-5132.839837,11251.130318
4616.693824,-8586.388927,-6665.030833,12509.480420
4616.694138,-9030.512492,-7737.564530,13175.665768
4616.694453,-7994.224174,-7354.516781,12879.583391
4616.694767,-5551.544565,-5439.278036,11695.253884
4616.695081,-1924.535449,-2451.505594,11251.130318
4616.695396,1776.494261,1762.019645,9844.739029
4616.695710,5477.523971,4596.572988,8512.368333
4616.696024,8586.388927,7277.907231,7698.141797
4616.696339,10140.821405,9729.412825,7994.224174
4616.696653,9622.677246,8810.098227,5921.647536
4616.696968,8660.409521,7967.393179,5107.421000
4616.697282,5625.565159,7048.078582,6143.709319
4616.697596,1554.432478,4060.306139,7402.059420
4616.697911,-3256.906145,1838.629195,9030.512492
4616.698225,-6883.915261,-1762.019645,9770.718434
4616.698539,-9326.594869,-3983.696590,12583.501014
4616.698854,-11547.212695,-7124.688131,13545.768739
4616.699168,-11843.295072,-9193.145976,12953.603985
4616.699483,-10955.047942,-7048.078582,12583.501014
4616.699797,-7550.100608,-5056.230287,12213.398043
4616.700111,-2442.679609,-1685.410096,11399.171507
4616.700426,2812.782580,1991.848295,9326.594869
4616.700740,8216.285956,5822.325785,7994.224174
4616.701054,12213.398043,10725.336972,6513.812290
4616.701369,14137.933492,12180.918418,3997.112087
4616.701683,14211.954086,13176.842566,4145.153275
4616.701998,13101.645173,12180.918418,5477.523971
4616.702312,9326.594869,9346.365076,6143.709319
4616.702626,4145.153275,5439.278036,7031.956449
4616.702941,-2146.597232,919.314598,7846.182985
4616.703255,-8586.388927,-3294.210641,11103.089130
4616.703570,-12361.439231,-8427.050478,12287.418637
4616.703884,-14508.036463,-10265.679673,13841.851115
4616.704198,-14137.933492,-10801.946522,13841.851115
4616.704513,-12657.521608,-9652.803275,14656.077652
4616.704827,-9474.636058,-6588.421283,13471.748144
4616.705141,-2738.761985,-4136.915689,10066.800811
4616.705456,3478.967927,1991.848295,8512.368333
4616.705770,7402.059420,5592.497135,6809.894666
4616.706085,11843.295072,8810.098227,4367.215058
4616.706399,14359.995275,11721.261119,4589.276840
4616.706713,14211.954086,12180.918418,5773.606348
4616.707028,12139.377449,10265.679673,7105.977043
4616.707342,7624.121203,5515.887586,8142.265362
4616.707656,2368.659014,306.438199,8882.471304
4616.707971,-3330.926739,-2451.505594,12065.356855
4616.708285,-9474.636058,-7660.954980,13323.706956
4616.708600,-12731.542202,-10725.336972,14359.995275
4616.708914,-13397.727550,-10878.556072,13619.789333
4616.709228,-12583.501014,-10418.898773,13101.645173
4616.709543,-10436.903782,-7660.954980,12213.398043
4616.709857,-5625.565159,-4060.306139,9770.718434
4616.710172,0.000000,1225.752797,7920.203579
4616.710486,4885.359217,3983.696590,5181.441594
4616.710800,8882.471304,7967.393179,4441.235652
4616.711115,11769.274478,10418.898773,3627.009116
4616.711429,13027.624579,12180.918418,5107.421000
4616.711743,11103.089130,10725.336972,6291.750507
4616.712058,7920.203579,6205.373534,6587.832884
4616.712372,3330.926739,2911.162892,8586.388927
4616.712687,-1998.556043,-766.095498,11251.130318
4616.713001,-7179.997637,-5362.668486,12583.501014
4616.713315,-10955.047942,-8350.440928,13915.871710
4616.713630,-12435.459826,-9729.412825,13545.768739
4616.713944,-11991.336260,-8733.488677,13471.748144
4616.714258,-9104.533087,-7431.126331,13175.665768
4616.714573,-4737.318029,-3830.477490,10807.006753
4616.714887,518.144159,1072.533697,9400.615463
4616.715202,4737.318029,3677.258390,7179.997637
4616.715516,8438.347739,7660.954980,5625.565159
4616.715830,11843.295072,10342.289223,5477.523971
4616.716145,13397.727550,11108.384721,6217.729913
4616.716459,11251.130318,11338.213370,7179.997637
4616.716774,7772.162391,7431.126331,7031.956449
4616.717088,4293.194464,4903.011187,8364.327145
4616.717402,-444.123565,1072.533697,10881.027347
4616.717717,-6069.688724,-3370.820191,12361.439231
4616.718031,-9844.739029,-6128.763984,12139.377449
4616.718345,-12139.377449,-7584.345430,12361.439231
4616.718660,-12657.521608,-7124.688131,12435.459826
4616.718974,-10362.883188,-6128.763984,11843.295072
4616.719289,-5847.626942,-3294.210641,9844.739029
4616.719603,-1110.308913,459.657299,7698.141797
4616.719917,2590.720797,3907.087040,6883.915261
4616.720232,5773.606348,6511.811733,5329.482782
4616.720546,9400.615463,9499.584175,4367.215058
4616.720860,10955.047942,10878.556072,6291.750507
4616.721175,9918.759623,9269.755526,7402.059420
4616.721489,7402.059420,5898.935335,7550.100608
4616.721804,4737.318029,3217.601092,9474.636058
4616.722118,296.082377,306.438199,12509.480420
4616.722432,-3849.070898,-3370.820191,13767.830521
4616.722747,-6143.709319,-6511.811733,12509.480420
4616.723061,-7846.182985,-7201.297681,13175.665768
4616.723375,-8364.327145,-5745.716235,13767.830521
4616.723690,-6883.915261,-5439.278036,11251.130318
4616.724004,-3923.091493,-2987.772442,9474.636058
4616.724319,148.041188,0.000000,8660.409521
4616.724633,3404.947333,3830.477490,7846.182985
4616.724947,5625.565159,5745.716235,5477.523971
4616.725262,7994.224174,6741.640382,4145.153275
4616.725576,8956.491898,7967.393179,5625.565159
4616.725891,7698.141797,7201.297681,7254.018232
4616.726205,5181.441594,4903.011187,7772.162391
4616.726519,2516.700203,2221.676944,9474.636058
4616.726834,-1332.370696,-919.314598,11769.274478
4616.727148,-4737.318029,-4136.915689,12509.480420
4616.727462,-6735.874072,-6358.592633,11843.295072
4616.727777,-7550.100608,-6818.249932,11843.295072
4616.728091,-7254.018232,-5056.230287,11843.295072
4616.728406,-5847.626942,-3907.087040,11251.130318
4616.728720,-2960.823768,-1455.581446,10066.800811
4616.729034,1184.329507,1915.238745,8290.306550
4616.729349,3627.009116,3140.991542,7105.977043
4616.729663,5699.585753,5132.839837,5921.647536
4616.729977,8068.244768,6894.859482,5255.462188
4616.730292,8142.265362,7354.516781,6439.791695
4616.730606,6513.812290,6281.983084,8290.306550
4616.730921,4071.132681,3830.477490,8512.368333
4616.731235,1628.453072,2374.896044,10066.800811
4616.731549,-1998.556043,-689.485948,12435.459826
4616.731864,-4737.318029,-4519.963438,13101.645173
4616.732178,-6291.750507,-6741.640382,12509.480420
4616.732493,-6883.915261,-5669.106685,11843.295072
4616.732807,-6735.874072,-3600.648841,12065.356855
4616.733121,-4885.359217,-1532.190996,10658.965565
4616.733436,-2146.597232,842.705048,9252.574275
4616.733750,1110.308913,2987.772442,7772.162391
4616.734064,2738.761985,5669.106685,6809.894666
4616.734379,3849.070898,6052.154434,5255.462188
4616.734693,4811.338623,6818.249932,3701.029710
4616.735008,5033.400406,7660.954980,5773.606348
4616.735322,3478.967927,5898.935335,7550.100608
4616.735636,1480.411884,2911.162892,8068.244768
4616.735951,-740.205942,1149.143247,9918.759623
4616.736265,-3923.091493,-1149.143247,12435.459826
4616.736579,-6513.812290,-3983.696590,12879.583391
4616.736894,-7031.956449,-6281.983084,11769.274478
4616.737208,-6439.791695,-5822.325785,11991.336260
4616.737523,-5329.482782,-3524.039291,12287.418637
4616.737837,-3108.864956,-1532.190996,11029.068536
4616.738151,0.000000,1532.190996,9474.636058
4616.738466,2812.782580,3217.601092,8142.265362
4616.738780,5551.544565,5286.058936,7698.141797
4616.739095,5773.606348,6205.373534,5773.606348
4616.739409,7105.977043,6665.030833,4885.359217
4616.739723,6513.812290,6741.640382,5921.647536
4616.740038,4441.235652,4596.572988,7476.080014
4616.740352,2220.617826,1991.848295,8438.347739
4616.740666,-518.144159,459.657299,10658.965565
4616.740981,-3701.029710,-2681.334243,12583.501014
4616.741295,-5921.647536,-5898.935335,12657.521608
4616.741610,-6291.750507,-7660.954980,12361.439231
4616.741924,-5921.647536,-7048.078582,12435.459826
4616.742238,-4367.215058,-4826.401637,11843.295072
4616.742553,-2294.638420,-2451.505594,10584.944971
4616.742867,1406.391290,612.876398,9400.615463
4616.743181,5181.441594,3524.039291,8364.327145
4616.743496,6957.935855,5745.716235,7920.203579
4616.743810,7031.956449,6052.154434,6217.729913
4616.744125,8142.265362,5975.544884,5107.421000
4616.744439,6809.894666,6358.592633,5921.647536
4616.744753,3552.988522,4596.572988,7328.038826
4616.745068,740.205942,2298.286494,8216.285956
4616.745382,-2146.597232,76.609550,9696.697840
4616.745696,-5329.482782,-2374.896044,11917.315666
4616.746011,-7846.182985,-5056.230287,12287.418637
4616.746325,-7624.121203,-7048.078582,11769.274478
4616.746640,-6661.853478,-6358.592633,11473.192101
4616.746954,-4885.359217,-3907.087040,11251.130318
4616.747268,-2294.638420,-1302.362347,10881.027347
4616.747583,1480.411884,1225.752797,9030.512492
4616.747897,5403.503377,4596.572988,7698.141797
4616.748212,7772.162391,6894.859482,6957.935855
4616.748526,8290.306550,7124.688131,6513.812290
4616.748840,8734.430116,7967.393179,5625.565159
4616.749155,7402.059420,7890.783629,6661.853478
4616.749469,4071.132681,5975.544884,7698.141797
4616.749783,740.205942,2451.505594,8438.347739
4616.750098,-2812.782580,-153.219100,9326.594869
4616.750412,-6587.832884,-1915.238745,11843.295072
4616.750727,-9770.718434,-4903.011187,11843.295072
4616.751041,-10584.944971,-6971.469032,12065.356855
4616.751355,-9844.739029,-7354.516781,11695.253884
4616.751670,-8438.347739,-5056.230287,11399.171507
4616.751984,-5699.585753,-2681.334243,10140.821405
4616.752298,-1850.514855,-229.828649,9474.636058
4616.752613,2886.803174,3447.429741,8734.430116
4616.752927,6365.771101,5439.278036,7772.162391
4616.753242,8068.244768,6741.640382,6365.771101
4616.753556,9548.656652,7354.516781,5773.606348
4616.753870,9474.636058,7814.174080,6661.853478
4616.754185,6957.935855,6511.811733,7624.121203
4616.754499,3775.050304,3217.601092,8512.368333
4616.754814,518.144159,1378.971896,10436.903782
4616.755128,-3552.988522,-1685.410096,12583.501014
4616.755442,-6883.915261,-5362.668486,12583.501014
4616.755757,-8290.306550,-8350.440928,11103.089130
4616.756071,-9030.512492,-7507.735880,12213.398043
4616.756385,-8216.285956,-6052.154434,12361.439231
4616.756700,-5773.606348,-4519.963438,10066.800811
4616.757014,-2442.679609,-1838.629195,8512.368333
4616.757329,2146.597232,1685.410096,8216.285956
4616.757643,5551.544565,5362.668486,7105.977043
4616.757957,7846.182985,6741.640382,4959.379811
4616.758272,9622.677246,7354.516781,4367.215058
4616.758586,9696.697840,8503.660028,6291.750507
4616.758900,7698.141797,6741.640382,7179.997637
4616.759215,5033.400406,3753.867940,7476.080014
4616.759529,1628.453072,1762.019645,9474.636058
4616.759844,-2220.617826,-1685.410096,12583.501014
4616.760158,-5329.482782,-4903.011187,14063.912898
4616.760472,-7550.100608,-7660.954980,13619.789333
4616.760787,-8290.306550,-8197.221829,13397.727550
4616.761101,-8142.265362,-6511.811733,12657.521608
4616.761415,-5921.647536,-4213.525239,11769.274478
4616.761730,-2146.597232,-1455.581446,9252.574275
4616.762044,2368.659014,1991.848295,7994.224174
4616.762359,4811.338623,5669.106685,7772.162391
4616.762673,6069.688724,7431.126331,5773.606348
4616.762987,8364.327145,8273.831378,4589.276840
4616.763302,8290.306550,8810.098227,5255.462188
4616.763616,5403.503377,7048.078582,7105.977043
4616.763931,2812.782580,4060.306139,7772.162391
4616.764245,-370.102971,1225.752797,9030.512492
4616.764559,-5403.503377,-1838.629195,11103.089130
4616.764874,-8216.285956,-4903.011187,12509.480420
4616.765188,-9474.636058,-6435.202183,12953.603985
4616.765502,-9622.677246,-7431.126331,12583.501014
4616.765817,-8734.430116,-5515.887586,12805.562797
4616.766131,-6513.812290,-3600.648841,11325.150913
4616.766446,-1998.556043,-1378.971896,8956.491898
4616.766760,3108.864956,2681.334243,8068.244768
4616.767074,6217.729913,6128.763984,7698.141797
4616.767389,8290.306550,8350.440928,6291.750507
4616.767703,9770.718434,9422.974625,4885.359217
4616.768017,9770.718434,9499.584175,5847.626942
4616.768332,8142.265362,8044.002729,6957.935855
4616.768646,5255.462188,4290.134789,7920.203579
4616.768961,962.267725,919.314598,9548.656652
4616.769275,-3923.091493,-1378.971896,11917.315666
4616.769589,-7698.141797,-4979.620737,13175.665768
4616.769904,-9030.512492,-7890.783629,12805.562797
4616.770218,-8956.491898,-7814.174080,13175.665768
4616.770533,-8068.244768,-6511.811733,12509.480420
4616.770847,-5773.606348,-4213.525239,11325.150913
4616.771161,-2072.576638,-1532.190996,9622.677246
4616.771476,2664.741391,2145.067394,8808.450710
4616.771790,6365.771101,5515.887586,7698.141797
4616.772104,8882.471304,6588.421283,5995.668130
4616.772419,9992.780217,8273.831378,4811.338623
4616.772733,9918.759623,8886.707777,6513.812290
4616.773048,8734.430116,7737.564530,7254.018232
4616.773362,5921.647536,4366.744339,7920.203579
4616.773676,1924.535449,1302.362347,8956.491898
4616.773991,-2368.659014,-1072.533697,11103.089130
4616.774305,-6291.750507,-4213.525239,12065.356855
4616.774619,-7772.162391,-7124.688131,12361.439231
4616.774934,-7846.182985,-7124.688131,13249.686362
4616.775248,-7476.080014,-5898.935335,11991.336260
4616.775563,-5107.421000,-3677.258390,10436.903782
4616.775877,-1998.556043,-1225.752797,8290.306550
4616.776191,2442.679609,2451.505594,7550.100608
4616.776506,5181.441594,5975.544884,7105.977043
4616.776820,7550.100608,7354.516781,6365.771101
4616.777135,9178.553681,8503.660028,5403.503377
4616.777449,8290.306550,8044.002729,6513.812290
4616.777763,5995.668130,6128.763984,8142.265362
4616.778078,3923.091493,3830.477490,8660.409521
4616.778392,814.226536,1378.971896,9622.677246
4616.778706,-3701.029710,-2221.676944,11843.295072
4616.779021,-7328.038826,-4903.011187,12805.562797
4616.779335,-9400.615463,-6818.249932,11917.315666
4616.779650,-9474.636058,-5975.544884,12139.377449
4616.779964,-8660.409521,-4749.792088,12435.459826
4616.780278,-5995.668130,-4136.915689,11251.130318
4616.780593,-2368.659014,-1455.581446,9104.533087
4616.780907,814.226536,1991.848295,7550.100608
4616.781222,3108.864956,4443.353888,7402.059420
4616.781536,4885.359217,5822.325785,5329.482782
4616.781850,7254.018232,7660.954980,5181.441594
4616.782165,7550.100608,7890.783629,6809.894666
4616.782479,5107.421000,6205.373534,8438.347739
4616.782793,2442.679609,2834.553343,8142.265362
4616.783108,518.144159,689.485948,8364.327145
4616.783422,-2590.720797,-842.705048,11251.130318
4616.783737,-5625.565159,-3983.696590,12509.480420
4616.784051,-7179.997637,-6205.373534,11843.295072
4616.784365,-7105.977043,-5669.106685,12139.377449
4616.784680,-7105.977043,-4519.963438,12435.459826
4616.784994,-4589.276840,-2681.334243,11473.192101
4616.785309,-962.267725,-995.924147,9622.677246
4616.785623,2664.741391,1302.362347,7994.224174
4616.785937,4663.297435,4366.744339,7105.977043
4616.786252,5995.668130,6511.811733,6291.750507
4616.786566,7698.141797,7201.297681,4885.359217
4616.786880,7994.224174,7584.345430,5995.668130
4616.787195,5477.523971,5822.325785,8586.388927
4616.787509,2368.659014,2681.334243,9178.553681
4616.787824,-222.061783,459.657299,9844.739029
4616.788138,-2886.803174,-2604.724693,11177.109724
4616.788452,-5255.462188,-4903.011187,12361.439231
4616.788767,-6735.874072,-6128.763984,12509.480420
4616.789081,-6735.874072,-6128.763984,11695.253884
4616.789395,-5329.482782,-3830.477490,12287.418637
4616.789710,-2590.720797,-2451.505594,10807.006753
4616.790024,74.020594,306.438199,10362.883188
4616.790339,4145.153275,3217.601092,8734.430116
4616.790653,6809.894666,5975.544884,7179.997637
4616.790967,7994.224174,7737.564530,5329.482782
4616.791282,9104.533087,7890.783629,5033.400406
4616.791596,8734.430116,8580.269578,5847.626942
4616.791911,6143.709319,7431.126331,7402.059420
4616.792225,3256.906145,4443.353888,8216.285956
4616.792539,0.000000,1532.190996,9770.718434
4616.792854,-3775.050304,-1225.752797,11029.068536
4616.793168,-6883.915261,-3524.039291,11251.130318
4616.793482,-8808.450710,-5669.106685,11029.068536
4616.793797,-9548.656652,-6281.983084,11177.109724
4616.794111,-8586.388927,-3983.696590,11621.233289
4616.794426,-7031.956449,-2681.334243,11621.233289
4616.794740,-2960.823768,-1149.143247,10066.800811
4616.795054,666.185348,1455.581446,8734.430116
4616.795369,3108.864956,3677.258390,7994.224174
4616.795683,4959.379811,5975.544884,5995.668130
4616.795998,7698.141797,6894.859482,5033.400406
4616.796312,7402.059420,7048.078582,6513.812290
4616.796626,5773.606348,6741.640382,9252.574275
4616.796941,3627.009116,4290.134789,9548.656652
4616.797255,814.226536,995.924147,10732.986159
4616.797569,-2516.700203,-2451.505594,11695.253884
4616.797884,-5551.544565,-4443.353888,12509.480420
4616.798198,-6957.935855,-6205.373534,11473.192101
4616.798513,-7254.018232,-6665.030833,10584.944971
4616.798827,-6957.935855,-4366.744339,11695.253884
4616.799141,-4885.359217,-2681.334243,11843.295072
4616.799456,-1332.370696,-612.876398,10436.903782
4616.799770,2294.638420,1149.143247,8882.471304
4616.800085,5107.421000,3140.991542,7772.162391
4616.800399,6513.812290,5439.278036,6291.750507
4616.800713,8364.327145,6128.763984,4885.359217
4616.801028,8364.327145,7048.078582,5847.626942
4616.801342,7179.997637,6511.811733,8364.327145
4616.801656,4737.318029,4519.963438,8956.491898
4616.801971,888.247130,1685.410096,9030.512492
4616.802285,-3330.926739,-1532.190996,11251.130318
4616.802600,-6957.935855,-4903.011187,11399.171507
4616.802914,-7254.018232,-6894.859482,10288.862594
4616.803228,-8438.347739,-7124.688131,10584.944971
4616.803543,-8586.388927,-5362.668486,11547.212695
4616.803857,-6587.832884,-3447.429741,11325.150913
4616.804171,-2664.741391,-995.924147,9622.677246
4616.804486,1110.308913,1378.971896,9178.553681
4616.804800,4737.318029,3753.867940,7698.141797
4616.805115,6735.874072,5745.716235,6291.750507
4616.805429,9104.533087,6741.640382,5255.462188
4616.805743,9770.718434,8810.098227,6513.812290
4616.806058,7550.100608,7354.516781,8808.450710
4616.806372,4959.379811,3983.696590,9030.512492
4616.806687,2664.741391,2451.505594,9622.677246
4616.807001,-1406.391290,-306.438199,11991.336260
4616.807315,-5403.503377,-3983.696590,12287.418637
4616.807630,-7698.141797,-6128.763984,11325.150913
4616.807944,-8438.347739,-6588.421283,11177.109724
4616.808258,-8216.285956,-4366.744339,12139.377449
4616.808573,-6513.812290,-2757.943793,11399.171507
4616.808887,-3330.926739,-1838.629195,9252.574275
4616.809202,0.000000,1915.238745,8068.244768
4616.809516,2960.823768,4443.353888,7328.038826
4616.809830,5255.462188,6358.592633,5847.626942
4616.810145,6661.853478,6971.469032,4737.318029
4616.810459,7105.977043,7967.393179,5699.585753
4616.810774,4885.359217,7354.516781,7179.997637
4616.811088,3552.988522,4443.353888,7846.182985
4616.811402,1184.329507,1762.019645,9400.615463
4616.811717,-1998.556043,-689.485948,10807.006753
4616.812031,-4737.318029,-3294.210641,12657.521608
4616.812345,-6957.935855,-5822.325785,12065.356855
4616.812660,-7254.018232,-6435.202183,11325.150913
4616.812974,-6957.935855,-4213.525239,11843.295072
4616.813289,-4737.318029,-2834.553343,11843.295072
4616.813603,-1554.432478,-1225.752797,10288.862594
4616.813917,1702.473667,536.266849,8512.368333
4616.814232,4145.153275,3140.991542,8142.265362
4616.814546,6217.729913,5515.887586,7179.997637
4616.814861,7846.182985,6511.811733,6217.729913
4616.815175,7994.224174,7431.126331,6587.832884
4616.815489,5995.668130,5822.325785,7994.224174
4616.815804,3330.926739,3294.210641,8660.409521
4616.816118,814.226536,995.924147,9622.677246
4616.816432,-2368.659014,-1608.800546,11399.171507
4616.816747,-4885.359217,-3907.087040,12213.398043
4616.817061,-6587.832884,-7124.688131,11325.150913
4616.817376,-6809.894666,-7048.078582,10881.027347
4616.817690,-6661.853478,-4290.134789,11029.068536
4616.818004,-4885.359217,-2451.505594,10807.006753
4616.818319,-1628.453072,-306.438199,9400.615463
4616.818633,2442.679609,1685.410096,7994.224174
4616.818948,4959.379811,3753.867940,7550.100608
4616.819262,6439.791695,5132.839837,6661.853478
4616.819576,7772.162391,6588.421283,5847.626942
4616.819891,7994.224174,7354.516781,5699.585753
4616.820205,6883.915261,5822.325785,7994.224174
4616.820519,3849.070898,3447.429741,9252.574275
4616.820834,1184.329507,1378.971896,9770.718434
4616.821148,-2294.638420,-766.095498,11029.068536
4616.821463,-5477.523971,-3677.258390,11991.336260
4616.821777,-6809.894666,-5592.497135,12139.377449
4616.822091,-7254.018232,-6281.983084,11843.295072
4616.822406,-7105.977043,-4290.134789,11991.336260
4616.822720,-6069.688724,-2834.553343,10510.924376
4616.823034,-3330.926739,-536.266849,9104.533087
4616.823349,0.000000,2145.067394,7994.224174
4616.823663,2960.823768,4290.134789,7772.162391
4616.823978,4589.276840,5669.106685,6809.894666
4616.824292,5847.626942,6052.154434,5403.503377
4616.824606,6069.688724,6511.811733,6069.688724
4616.824921,4367.215058,5975.544884,8142.265362
4616.825235,2590.720797,3753.867940,9622.677246
4616.825550,518.144159,919.314598,10584.944971
4616.825864,-2294.638420,-1225.752797,11843.295072
4616.826178,-5329.482782,-3753.867940,11991.336260
4616.826493,-6069.688724,-5132.839837,10955.047942
4616.826807,-5995.668130,-4366.744339,11251.130318
4616.827121,-5773.606348,-3370.820191,11695.253884
4616.827436,-3849.070898,-1302.362347,10510.924376
4616.827750,-1480.411884,153.219100,8364.327145
4616.828065,1702.473667,2451.505594,7476.080014
4616.828379,4071.132681,4673.182538,7402.059420
4616.828693,5329.482782,6205.373534,6809.894666
4616.829008,5995.668130,5286.058936,5921.647536
4616.829322,6143.709319,5822.325785,6143.709319
4616.829637,4589.276840,5592.497135,7994.224174
4616.829951,2886.803174,3140.991542,9400.615463
4616.830265,962.267725,306.438199,10214.842000
4616.830580,-1628.453072,-1378.971896,12213.398043
4616.830894,-4145.153275,-3677.258390,12731.542202
4616.831208,-4663.297435,-5515.887586,11917.315666
4616.831523,-5033.400406,-5286.058936,11325.150913
4616.831837,-3404.947333,-2834.553343,11621.233289
4616.832152,-2072.576638,0.000000,10584.944971
4616.832466,222.061783,306.438199,8882.471304
4616.832780,3552.988522,2374.896044,8216.285956
4616.833095,5107.421000,4673.182538,7994.224174
4616.833409,6143.709319,5362.668486,6439.791695
4616.833724,6957.935855,6052.154434,4737.318029
4616.834038,6439.791695,6205.373534,6143.709319
4616.834352,4441.235652,4826.401637,7624.121203
4616.834667,1776.494261,3524.039291,9548.656652
4616.834981,-1110.308913,536.266849,10436.903782
4616.835295,-3775.050304,-2374.896044,11103.089130
4616.835610,-5403.503377,-4519.963438,10881.027347
4616.835924,-5921.647536,-5745.716235,11621.233289
4616.836239,-5625.565159,-4596.572988,11991.336260
4616.836553,-5329.482782,-2451.505594,11695.253884
4616.836867,-3404.947333,-1685.410096,9474.636058
4616.837182,-888.247130,459.657299,7994.224174
4616.837496,1776.494261,3294.210641,8290.306550
4616.837810,4071.132681,4519.963438,7772.162391
4616.838125,5255.462188,5362.668486,6883.915261
4616.838439,5773.606348,5132.839837,6291.750507
4616.838754,5107.421000,5745.716235,7846.182985
4616.839068,2664.741391,4749.792088,8956.491898
4616.839382,1110.308913,2221.676944,9030.512492
4616.839697,-1406.391290,536.266849,9770.718434
4616.840011,-3923.091493,-1838.629195,11991.336260
4616.840326,-5847.626942,-4366.744339,12435.459826
4616.840640,-6365.771101,-5669.106685,11399.171507
4616.840954,-6069.688724,-5592.497135,10955.047942
4616.841269,-5255.462188,-2528.115143,11621.233289
4616.841583,-3701.029710,-612.876398,10807.006753
4616.841897,0.000000,919.314598,9178.553681
4616.842212,3108.864956,2298.286494,7550.100608
4616.842526,4811.338623,4366.744339,7920.203579
4616.842841,5033.400406,5209.449386,6661.853478
4616.843155,5699.585753,5822.325785,5033.400406
4616.843469,5625.565159,6205.373534,6217.729913
4616.843784,3997.112087,4826.401637,9104.533087
4616.844098,2072.576638,2911.162892,10584.944971
4616.844413,-444.123565,0.000000,10288.862594
4616.844727,-3552.988522,-2834.553343,10955.047942
4616.845041,-6069.688724,-4979.620737,11843.295072
4616.845356,-6143.709319,-5975.544884,11399.171507
4616.845670,-5255.462188,-4979.620737,11325.150913
4616.845984,-4219.173869,-2528.115143,11473.192101
4616.846299,-2146.597232,-1302.362347,9992.780217
4616.846613,1258.350101,842.705048,8882.471304
4616.846928,4663.297435,3524.039291,7994.224174
4616.847242,6809.894666,5515.887586,7476.080014
4616.847556,7624.121203,5822.325785,7105.977043
4616.847871,7994.224174,6358.592633,6291.750507
4616.848185,6957.935855,6511.811733,6069.688724
4616.848500,5107.421000,5975.544884,8882.471304
4616.848814,2516.700203,2221.676944,8882.471304
4616.849128,148.041188,-459.657299,9622.677246
4616.849443,-3256.906145,-1991.848295,11399.171507
4616.849757,-5995.668130,-4596.572988,12213.398043
4616.850071,-7402.059420,-6052.154434,11695.253884
4616.850386,-7624.121203,-5515.887586,11029.068536
4616.850700,-6587.832884,-3524.039291,11547.212695
4616.851015,-4441.235652,229.828649,10584.944971
4616.851329,-1110.308913,1378.971896,8808.450710
4616.851643,2368.659014,2987.772442,7254.018232
4616.851958,4811.338623,4903.011187,6735.874072
4616.852272,5921.647536,6894.859482,6143.709319
4616.852586,6439.791695,7354.516781,6217.729913
4616.852901,6735.874072,8273.831378,6587.832884
4616.853215,4959.379811,6818.249932,9104.533087
4616.853530,2812.782580,3217.601092,9252.574275
4616.853844,296.082377,76.609550,9992.780217
4616.854158,-3404.947333,-1762.019645,11843.295072
4616.854473,-5847.626942,-4213.525239,12805.562797
4616.854787,-5773.606348,-5286.058936,12065.356855
4616.855102,-5699.585753,-4903.011187,12287.418637
4616.855416,-5107.421000,-3370.820191,11843.295072
4616.855730,-3997.112087,-383.047749,10955.047942
4616.856045,-1850.514855,689.485948,8438.347739
4616.856359,740.205942,2528.115143,7328.038826
4616.856673,3478.967927,3677.258390,7105.977043
4616.856988,5107.421000,5592.497135,6069.688724
4616.857302,5329.482782,6205.373534,4811.338623
4616.857617,5255.462188,6588.421283,5995.668130
4616.857931,2886.803174,5975.544884,7402.059420
4616.858245,1628.453072,2145.067394,8438.347739
4616.858560,-444.123565,-229.828649,9474.636058
4616.858874,-4145.153275,-2681.334243,11473.192101
4616.859189,-6143.709319,-5056.230287,13249.686362
4616.859503,-6661.853478,-6128.763984,12509.480420
4616.859817,-5699.585753,-5898.935335,11843.295072
4616.860132,-4441.235652,-4826.401637,12361.439231
4616.860446,-2516.700203,-2681.334243,11103.089130
4616.860760,666.185348,76.609550,9400.615463
4616.861075,4441.235652,2757.943793,8364.327145
4616.861389,6661.853478,5056.230287,8142.265362
4616.861704,7698.141797,5439.278036,7105.977043
4616.862018,9030.512492,6205.373534,5255.462188
4616.862332,7994.224174,7277.907231,6217.729913
4616.862647,4885.359217,5056.230287,8216.285956
4616.862961,2072.576638,2145.067394,8364.327145
4616.863276,-666.185348,-766.095498,9400.615463
4616.863590,-4071.132681,-3140.991542,11547.212695
4616.863904,-6957.935855,-4979.620737,11991.336260
4616.864219,-8290.306550,-7431.126331,11547.212695
4616.864533,-8438.347739,-6971.469032,11325.150913
4616.864847,-7105.977043,-4673.182538,10807.006753
4616.865162,-4589.276840,-2757.943793,10658.965565
4616.865476,-1554.432478,-1072.533697,9474.636058
4616.865791,2738.761985,2451.505594,8512.368333
4616.866105,5329.482782,4826.401637,7772.162391
4616.866419,6661.853478,5515.887586,6587.832884
4616.866734,7846.182985,6818.249932,5625.565159
4616.867048,7624.121203,7660.954980,6291.750507
4616.867363,5477.523971,6894.859482,7550.100608
4616.867677,2516.700203,3830.477490,8660.409521
4616.867991,-222.061783,766.095498,9696.697840
4616.868306,-3775.050304,-1302.362347,11843.295072
4616.868620,-6661.853478,-4596.572988,12361.439231
4616.868934,-8512.368333,-6818.249932,11547.212695
4616.869249,-8290.306550,-6818.249932,11843.295072
4616.869563,-7031.956449,-4826.401637,12065.356855
4616.869878,-4293.194464,-2145.067394,11029.068536
4616.870192,-1036.288319,76.609550,9696.697840
4616.870506,2960.823768,3677.258390,7920.203579
4616.870821,5403.503377,5745.716235,7550.100608
4616.871135,7328.038826,7354.516781,6439.791695
4616.871449,8142.265362,7507.735880,5107.421000
4616.871764,7254.018232,7660.954980,6661.853478
4616.872078,4811.338623,7048.078582,7772.162391
4616.872392,2738.761985,3217.601092,9030.512492
4616.872706,-666.185348,153.219100,10436.903782
4616.873020,-4441.235652,-2681.334243,12213.398043
4616.873334,-7328.038826,-4826.401637,12435.459826
4616.873649,-8142.265362,-7201.297681,11399.171507
4616.873963,-7476.080014,-6205.373534,11473.192101
4616.874277,-6291.750507,-4136.915689,11547.212695
4616.874591,-3923.091493,-1762.019645,10362.883188
4616.874905,-296.082377,459.657299,8586.388927
4616.875219,4293.194464,2757.943793,7476.080014
4616.875533,7105.977043,5515.887586,7476.080014
4616.875848,8808.450710,7277.907231,6365.771101
4616.876162,9548.656652,8197.221829,5181.441594
4616.876476,9030.512492,8427.050478,6513.812290
4616.876790,6957.935855,6588.421283,8660.409521
4616.877104,4071.132681,3294.210641,9696.697840
4616.877418,444.123565,536.266849,10510.924376
4616.877732,-3478.967927,-2528.115143,11843.295072
4616.878047,-6217.729913,-5286.058936,11991.336260
4616.878361,-7402.059420,-6894.859482,11251.130318
4616.878675,-7476.080014,-5439.278036,11473.192101
4616.878989,-6587.832884,-4290.134789,11399.171507
4616.879303,-4737.318029,-1532.190996,10510.924376
4616.879617,-2072.576638,153.219100,8586.388927
4616.879931,2368.659014,3064.381992,6957.935855
4616.880246,4515.256246,5132.839837,7254.018232
4616.880560,5625.565159,6052.154434,6365.771101
4616.880874,6661.853478,6588.421283,5181.441594
4616.881188,6069.688724,6741.640382,6217.729913
4616.881502,3923.091493,5439.278036,8290.306550
4616.881816,1702.473667,3140.991542,9474.636058
4616.882130,-1258.350101,0.000000,9918.759623
4616.882445,-4811.338623,-2528.115143,11843.295072
4616.882759,-7254.018232,-5515.887586,12953.603985
4616.883073,-8438.347739,-7277.907231,12435.459826
4616.883387,-7846.182985,-6818.249932,12213.398043
4616.883701,-6217.729913,-4826.401637,11843.295072
4616.884015,-4145.153275,-2221.676944,11103.089130
4616.884329,-666.185348,-153.219100,8734.430116
4616.884644,2960.823768,2451.505594,7624.121203
4616.884958,5625.565159,5822.325785,8068.244768
4616.885272,7179.997637,6435.202183,6809.894666
4616.885586,7476.080014,6358.592633,5033.400406
4616.885900,7031.956449,6128.763984,6365.771101
4616.886214,5033.400406,5898.935335,8438.347739
4616.886528,2146.597232,2987.772442,9326.594869
4616.886843,-962.267725,-1302.362347,9326.594869
4616.887157,-4663.297435,-2834.553343,11029.068536
4616.887471,-7402.059420,-4826.401637,12583.501014
4616.887785,-8586.388927,-6665.030833,11917.315666
4616.888099,-7994.224174,-6588.421283,11695.253884
4616.888413,-6291.750507,-5745.716235,11251.130318
4616.888728,-3627.009116,-2068.457845,10955.047942
4616.889042,-222.061783,536.266849,10288.862594
4616.889356,3849.070898,2451.505594,8586.388927
4616.889670,6587.832884,5362.668486,7402.059420
4616.889984,8438.347739,6741.640382,6587.832884
4616.890298,9770.718434,7967.393179,5625.565159
4616.890612,9178.553681,8044.002729,6513.812290
4616.890927,6957.935855,6588.421283,8068.244768
4616.891241,4663.297435,4366.744339,9474.636058
4616.891555,1258.350101,919.314598,11029.068536
4616.891869,-2664.741391,-1608.800546,11843.295072
4616.892183,-5255.462188,-4596.572988,11991.336260
4616.892497,-6883.915261,-5592.497135,11695.253884
4616.892811,-7105.977043,-5286.058936,10807.006753
4616.893126,-5921.647536,-3064.381992,11103.089130
4616.893440,-3034.844362,-766.095498,10362.883188
4616.893754,518.144159,1149.143247,8734.430116
4616.894068,4145.153275,4749.792088,7846.182985
4616.894382,5995.668130,7048.078582,7328.038826
4616.894696,7105.977043,7814.174080,5921.647536
4616.895010,7920.203579,8197.221829,4885.359217
4616.895325,7105.977043,8427.050478,6217.729913
4616.895639,4589.276840,6665.030833,7772.162391
4616.895953,1406.391290,3830.477490,8142.265362
4616.896267,-1776.494261,1149.143247,9104.533087
4616.896581,-5329.482782,-995.924147,11103.089130
4616.896895,-7698.141797,-4366.744339,12361.439231
4616.897209,-8734.430116,-6128.763984,12139.377449
4616.897524,-8364.327145,-6665.030833,11695.253884
4616.897838,-7254.018232,-4749.792088,11547.212695
4616.898152,-5181.441594,-2451.505594,11103.089130
4616.898466,-1776.494261,-536.266849,9696.697840
4616.898780,2960.823768,2298.286494,8734.430116
4616.899094,5181.441594,4979.620737,8660.409521
4616.899408,6513.812290,6435.202183,7254.018232
4616.899723,7772.162391,6665.030833,6143.709319
4616.900037,7105.977043,7124.688131,7328.038826
4616.900351,5181.441594,5669.106685,8660.409521
4616.900665,2442.679609,3140.991542,9474.636058
4616.900979,-296.082377,-842.705048,9622.677246
4616.901293,-4071.132681,-2757.943793,11473.192101
4616.901608,-7105.977043,-5056.230287,12805.562797
4616.901922,-8512.368333,-7354.516781,11695.253884
4616.902236,-8512.368333,-7354.516781,10584.944971
4616.902550,-7402.059420,-5132.839837,11029.068536
4616.902864,-5107.421000,-3064.381992,10436.903782
4616.903178,-2072.576638,-612.876398,8734.430116
4616.903492,1924.535449,1149.143247,7254.018232
4616.903807,4663.297435,3524.039291,7105.977043
4616.904121,6513.812290,5209.449386,6069.688724
4616.904435,7846.182985,5592.497135,5107.421000
4616.904749,7772.162391,6665.030833,6365.771101
4616.905063,5995.668130,5822.325785,7920.203579
4616.905377,4367.215058,2528.115143,8438.347739
4616.905691,1702.473667,0.000000,9918.759623
4616.906006,-1998.556043,-2451.505594,12287.418637
4616.906320,-4737.318029,-4826.401637,12953.603985
4616.906634,-6069.688724,-6741.640382,12139.377449
4616.906948,-5773.606348,-6511.811733,11769.274478
4616.907262,-4959.379811,-4366.744339,12287.418637
4616.907576,-2738.761985,-2298.286494,11251.130318
4616.907890,814.226536,-1072.533697,9400.615463
4616.908205,4071.132681,2987.772442,9178.553681
4616.908519,4959.379811,5132.839837,8660.409521
4616.908833,6661.853478,6205.373534,7328.038826
4616.909147,8734.430116,7354.516781,5329.482782
4616.909461,7846.182985,7660.954980,6365.771101
4616.909775,5181.441594,7124.688131,8068.244768
4616.910089,1332.370696,3907.087040,8068.244768
4616.910404,-962.267725,1072.533697,8438.347739
4616.910718,-4071.132681,-383.047749,9622.677246
4616.911032,-7846.182985,-3447.429741,11251.130318
4616.911346,-9104.533087,-5362.668486,11103.089130
4616.911660,-9474.636058,-4903.011187,11029.068536
4616.911974,-8438.347739,-4290.134789,10732.986159
4616.912288,-5995.668130,-2451.505594,10510.924376
4616.912603,-2368.659014,-766.095498,9696.697840
4616.912917,2146.597232,2681.334243,8956.491898
4616.913231,5477.523971,5898.935335,7698.141797
4616.913545,7550.100608,7354.516781,6735.874072
4616.913859,8438.347739,7737.564530,5699.585753
4616.914173,8660.409521,8580.269578,5995.668130
4616.914488,6587.832884,8810.098227,8216.285956
4616.914802,4071.132681,5592.497135,8660.409521
4616.915116,814.226536,1608.800546,9252.574275
4616.915430,-3775.050304,-766.095498,11621.233289
4616.915744,-6365.771101,-4519.963438,11843.295072
4616.916058,-7772.162391,-6665.030833,11695.253884
4616.916372,-8512.368333,-7354.516781,11769.274478
4616.916687,-8142.265362,-5056.230287,11991.336260
4616.917001,-6143.709319,-3064.381992,11695.253884
4616.917315,-2664.741391,-1225.752797,10362.883188
4616.917629,1702.473667,1225.752797,9400.615463
4616.917943,4737.318029,3370.820191,8512.368333
4616.918257,6513.812290,4826.401637,7105.977043
4616.918571,8216.285956,6358.592633,5625.565159
4616.918886,8438.347739,7354.516781,6957.935855
4616.919200,7031.956449,6052.154434,7624.121203
4616.919514,4959.379811,3677.258390,7772.162391
4616.919828,1628.453072,919.314598,9326.594869
4616.920142,-2590.720797,-1149.143247,10881.027347
4616.920456,-4885.359217,-3907.087040,11843.295072
4616.920770,-6069.688724,-6665.030833,11325.150913
4616.921085,-6735.874072,-6894.859482,11473.192101
4616.921399,-6291.750507,-4749.792088,11399.171507
4616.921713,-4663.297435,-3600.648841,9770.718434
4616.922027,-1258.350101,-1225.752797,7920.203579
4616.922341,2812.782580,1991.848295,8068.244768
4616.922655,5995.668130,5056.230287,7920.203579
4616.922969,7550.100608,6358.592633,6883.915261
4616.923284,8216.285956,6511.811733,5329.482782
4616.923598,7624.121203,6894.859482,6291.750507
4616.923912,5477.523971,5975.544884,8216.285956
4616.924226,3108.864956,2987.772442,8660.409521
4616.924540,74.020594,153.219100,9770.718434
4616.924854,-3849.070898,-2374.896044,12213.398043
4616.925168,-7031.956449,-5209.449386,12213.398043
4616.925483,-8586.388927,-6894.859482,11769.274478
4616.925797,-8586.388927,-6894.859482,11621.233289
4616.926111,-7920.203579,-4749.792088,12065.356855
4616.926425,-5773.606348,-2987.772442,11177.109724
4616.926739,-2294.638420,-995.924147,8882.471304
4616.927053,1998.556043,2451.505594,8068.244768
4616.927367,4589.276840,5209.449386,7994.224174
4616.927682,7105.977043,7124.688131,7105.977043
4616.927996,7994.224174,8273.831378,6513.812290
4616.928310,7846.182985,8273.831378,6661.853478
4616.928624,5995.668130,6435.202183,7772.162391
4616.928938,3330.926739,3370.820191,8364.327145
4616.929252,74.020594,2221.676944,9548.656652
4616.929567,-4071.132681,-306.438199,11103.089130
4616.929881,-6809.894666,-3447.429741,11473.192101
4616.930195,-7920.203579,-5745.716235,11843.295072
4616.930509,-8142.265362,-6128.763984,10955.047942
4616.930823,-7105.977043,-4213.525239,10510.924376
4616.931137,-5329.482782,-2145.067394,9622.677246
4616.931451,-1850.514855,229.828649,8660.409521
4616.931766,2368.659014,2451.505594,8142.265362
4616.932080,4959.379811,5362.668486,7624.121203
4616.932394,6735.874072,6281.983084,6587.832884
4616.932708,7846.182985,6894.859482,5625.565159
4616.933022,7402.059420,7201.297681,6143.709319
4616.933336,6069.688724,6052.154434,8142.265362
4616.933650,3775.050304,3140.991542,9474.636058
4616.933965,888.247130,76.609550,10140.821405
4616.934279,-2664.741391,-2068.457845,12213.398043
4616.934593,-5551.544565,-4596.572988,11917.315666
4616.934907,-6883.915261,-7124.688131,12435.459826
4616.935221,-6809.894666,-6511.811733,12139.377449
4616.935535,-5699.585753,-5209.449386,11621.233289
4616.935849,-3627.009116,-2604.724693,10955.047942
4616.936164,-666.185348,-229.828649,9474.636058
4616.936478,2960.823768,2374.896044,8808.450710
4616.936792,5995.668130,5592.497135,7920.203579
4616.937106,7179.997637,5745.716235,5995.668130
4616.937420,7550.100608,6741.640382,5403.503377
4616.937734,7179.997637,6818.249932,6143.709319
4616.938048,5551.544565,6358.592633,7550.100608
4616.938363,2664.741391,3064.381992,8734.430116
4616.938677,-888.247130,0.000000,9770.718434
4616.938991,-4145.153275,-2145.067394,11399.171507
4616.939305,-7105.977043,-5286.058936,11843.295072
4616.939619,-8290.306550,-7277.907231,10214.842000
4616.939933,-8290.306550,-6205.373534,11251.130318
4616.940247,-7476.080014,-4673.182538,11621.233289
4616.940562,-5107.421000,-2528.115143,11029.068536
4616.940876,-1628.453072,-1072.533697,9474.636058
4616.941190,2146.597232,1378.971896,8216.285956
4616.941504,5625.565159,4596.572988,8512.368333
4616.941818,6291.750507,6435.202183,7105.977043
4616.942132,7402.059420,6741.640382,5403.503377
4616.942447,7105.977043,6894.859482,6587.832884
4616.942761,4811.338623,5669.106685,8586.388927
4616.943075,2220.617826,2911.162892,9474.636058
4616.943389,0.000000,459.657299,9992.780217
4616.943703,-3552.988522,-2145.067394,11695.253884
4616.944017,-6069.688724,-4903.011187,12287.418637
4616.944331,-7476.080014,-6052.154434,12139.377449
4616.944646,-7624.121203,-6205.373534,11473.192101
4616.944960,-6661.853478,-3907.087040,11029.068536
4616.945274,-4515.256246,-1762.019645,11103.089130
4616.945588,-888.247130,-459.657299,9326.594869
4616.945902,2516.700203,2911.162892,8068.244768
4616.946216,4737.318029,5056.230287,7550.100608
4616.946530,6365.771101,5975.544884,5995.668130
4616.946845,7550.100608,7277.907231,5329.482782
4616.947159,7179.997637,7584.345430,6735.874072
4616.947473,5181.441594,6741.640382,8142.265362
4616.947787,2960.823768,3294.210641,8290.306550
4616.948101,296.082377,842.705048,9622.677246
4616.948415,-3182.885551,-1149.143247,11177.109724
4616.948729,-5995.668130,-3677.258390,11325.150913
4616.949044,-7179.997637,-5898.935335,10510.924376
4616.949358,-6957.935855,-5669.106685,11177.109724
4616.949672,-5403.503377,-2834.553343,11177.109724
4616.949986,-2516.700203,-1608.800546,10510.924376
4616.950300,740.205942,383.047749,9326.594869
4616.950614,4293.194464,3064.381992,9104.533087
4616.950928,6365.771101,5362.668486,8290.306550
4616.951243,7402.059420,6052.154434,7031.956449
4616.951557,8734.430116,5898.935335,5477.523971
4616.951871,7402.059420,6665.030833,6883.915261
4616.952185,5255.462188,6281.983084,8290.306550
4616.952499,2516.700203,3753.867940,9030.512492
4616.952813,-148.041188,1838.629195,9918.759623
4616.953127,-3627.009116,-459.657299,12065.356855
4616.953442,-6365.771101,-4136.915689,11843.295072
4616.953756,-7402.059420,-7048.078582,10732.986159
4616.954070,-7550.100608,-6358.592633,10584.944971
4616.954384,-7105.977043,-4443.353888,10807.006753
4616.954698,-5107.421000,-1991.848295,10584.944971
4616.955012,-1332.370696,306.438199,9474.636058
4616.955326,2220.617826,2374.896044,8438.347739
4616.955641,4293.194464,4366.744339,7254.018232
4616.955955,5847.626942,5056.230287,6735.874072
4616.956269,6883.915261,5975.544884,5625.565159
4616.956583,7105.977043,6971.469032,6439.791695
4616.956897,4959.379811,5515.887586,8068.244768
4616.957211,2368.659014,2834.553343,8734.430116
4616.957526,-592.164754,536.266849,9474.636058
4616.957840,-3849.070898,-1302.362347,11251.130318
4616.958154,-6513.812290,-4136.915689,11991.336260
4616.958468,-7254.018232,-6588.421283,11399.171507
4616.958782,-6587.832884,-6281.983084,10955.047942
4616.959096,-6291.750507,-4903.011187,11029.068536
4616.959410,-4293.194464,-2834.553343,10288.862594
4616.959725,-1258.350101,-383.047749,9770.718434
4616.960039,2368.659014,1762.019645,9400.615463
4616.960353,5181.441594,4903.011187,8586.388927
4616.960667,6069.688724,4903.011187,6809.894666
4616.960981,7328.038826,5209.449386,5625.565159
4616.961295,7105.977043,6358.592633,6439.791695
4616.961609,5033.400406,5132.839837,8068.244768
4616.961924,2516.700203,2374.896044,9030.512492
4616.962238,-296.082377,-306.438199,10658.965565
4616.962552,-3775.050304,-2681.334243,11991.336260
4616.962866,-5995.668130,-5362.668486,12435.459826
4616.963180,-6957.935855,-7277.907231,10807.006753
4616.963494,-6883.915261,-6818.249932,11029.068536
4616.963808,-6883.915261,-4673.182538,12213.398043
4616.964123,-4885.359217,-3064.381992,11547.212695
4616.964437,-222.061783,-383.047749,8808.450710
4616.964751,3552.988522,3294.210641,8438.347739
4616.965065,5551.544565,5515.887586,7698.141797
4616.965379,7624.121203,5592.497135,6365.771101
4616.965693,8882.471304,7354.516781,5625.565159
4616.966007,8364.327145,7814.174080,6217.729913
4616.966322,5329.482782,7201.297681,7328.038826
4616.966636,2442.679609,3753.867940,7624.121203
4616.966950,222.061783,1838.629195,8956.491898
4616.967264,-3627.009116,766.095498,11547.212695
4616.967578,-7105.977043,-3907.087040,11473.192101
4616.967892,-8438.347739,-6818.249932,10140.821405
4616.968206,-8216.285956,-6358.592633,10732.986159
4616.968521,-6883.915261,-3140.991542,11769.274478
4616.968835,-4663.297435,-1302.362347,11695.253884
4616.969149,-1702.473667,0.000000,10140.821405
4616.969463,1924.535449,2681.334243,9178.553681
4616.969777,5255.462188,6052.154434,8438.347739
4616.970091,6513.812290,6358.592633,6587.832884
4616.970406,7550.100608,6665.030833,5255.462188
4616.970720,6809.894666,7814.174080,6661.853478
4616.971034,4441.235652,7507.735880,8512.368333
4616.971348,1998.556043,4519.963438,8216.285956
4616.971662,-444.123565,1302.362347,9474.636058
4616.971976,-4367.215058,-1225.752797,11695.253884
4616.972290,-7105.977043,-3830.477490,11473.192101
4616.972605,-8216.285956,-6894.859482,10955.047942
4616.972919,-8290.306550,-6818.249932,11399.171507
4616.973233,-7105.977043,-4903.011187,11621.233289
4616.973547,-4293.194464,-2221.676944,11473.192101
4616.973861,-1110.308913,459.657299,10214.842000
4616.974176,2886.803174,3294.210641,8734.430116
4616.974490,6143.709319,5286.058936,7994.224174
4616.974804,8216.285956,5822.325785,6291.750507
4616.975118,9252.574275,6971.469032,5107.421000
4616.975432,8512.368333,7354.516781,6809.894666
4616.975746,5995.668130,6741.640382,7698.141797
4616.976061,3552.988522,3753.867940,8660.409521
4616.976375,814.226536,612.876398,9844.739029
4616.976689,-3108.864956,-1532.190996,11991.336260
4616.977003,-6291.750507,-5362.668486,11695.253884
4616.977317,-8068.244768,-8044.002729,11103.089130
4616.977632,-8068.244768,-7431.126331,11547.212695
4616.977946,-7105.977043,-4979.620737,11917.315666
4616.978260,-3849.070898,-2604.724693,11769.274478
4616.978574,0.000000,-1149.143247,9326.594869
4616.978888,3478.967927,2374.896044,8364.327145
4616.979203,5551.544565,4673.182538,7328.038826
4616.979517,7105.977043,6205.373534,5625.565159
4616.979831,8364.327145,6818.249932,4589.276840
4616.980145,8290.306550,7124.688131,6143.709319
4616.980459,5255.462188,6205.373534,8586.388927
4616.980774,2368.659014,2528.115143,9326.594869
4616.981088,-666.185348,0.000000,10955.047942
4616.981402,-3478.967927,-2911.162892,11843.295072
4616.981716,-5773.606348,-5822.325785,11769.274478
4616.982030,-7179.997637,-7737.564530,11843.295072
4616.982344,-7402.059420,-6971.469032,11325.150913
4616.982659,-6957.935855,-3907.087040,11399.171507
4616.982973,-3849.070898,-2068.457845,11103.089130
4616.983287,-370.102971,153.219100,9400.615463
4616.983601,2886.803174,2911.162892,7994.224174
4616.983915,5255.462188,5439.278036,7698.141797
4616.984230,6513.812290,6205.373534,5921.647536
4616.984544,6735.874072,6435.202183,5107.421000
4616.984858,6143.709319,6588.421283,7031.956449
4616.985172,3478.967927,6128.763984,8512.368333
4616.985486,592.164754,2834.553343,8956.491898
4616.985801,-1850.514855,0.000000,10288.862594
4616.986115,-4737.318029,-1915.238745,11991.336260
4616.986429,-6069.688724,-4826.401637,12213.398043
4616.986743,-7328.038826,-6588.421283,11547.212695
4616.987057,-7105.977043,-5515.887586,11251.130318
4616.987371,-6661.853478,-3140.991542,11251.130318
4616.987686,-3849.070898,-919.314598,10436.903782
4616.988000,-222.061783,995.924147,8734.430116
4616.988314,3478.967927,3447.429741,8364.327145
4616.988628,5847.626942,5056.230287,7846.182985
4616.988942,6883.915261,6358.592633,6291.750507
4616.989257,7550.100608,7354.516781,5255.462188
4616.989571,7179.997637,7584.345430,7179.997637
4616.989885,4441.235652,6741.640382,8660.409521
4616.990199,1998.556043,3294.210641,8956.491898
4616.990513,-962.267725,76.609550,9548.656652
4616.990828,-4145.153275,-2604.724693,11103.089130
4616.991142,-5995.668130,-4903.011187,11843.295072
4616.991456,-6735.874072,-5898.935335,11621.233289
4616.991770,-6587.832884,-5975.544884,11103.089130
4616.992084,-5329.482782,-3830.477490,11621.233289
4616.992398,-3552.988522,-1685.410096,10807.006753
4616.992713,74.020594,306.438199,9326.594869
4616.993027,3552.988522,2834.553343,8364.327145
4616.993341,6513.812290,4979.620737,7994.224174
4616.993655,8956.491898,7048.078582,7179.997637
4616.993969,9252.574275,7660.954980,6143.709319
4616.994284,8586.388927,7507.735880,6661.853478
4616.994598,5921.647536,5745.716235,8216.285956
4616.994912,2738.761985,3217.601092,8660.409521
4616.995226,148.041188,459.657299,9474.636058
4616.995540,-3627.009116,-2145.067394,11325.150913
4616.995855,-6365.771101,-4826.401637,12953.603985
4616.996169,-7624.121203,-6818.249932,11843.295072
4616.996483,-7624.121203,-5822.325785,10732.986159
4616.996797,-6809.894666,-5592.497135,9474.636058
4616.997111,-4811.338623,-2834.553343,9622.677246
4616.997425,-1628.453072,383.047749,9548.656652
4616.997740,2220.617826,3294.210641,9326.594869
4616.998054,4959.379811,5362.668486,8142.265362
4616.998368,6291.750507,5592.497135,6809.894666
4616.998682,7476.080014,6052.154434,5329.482782
4616.998996,7105.977043,7277.907231,5921.647536
4616.999311,4589.276840,6741.640382,8068.244768
4616.999625,1850.514855,2604.724693,8216.285956
4616.999939,-1332.370696,-153.219100,10140.821405
4617.000253,-4737.318029,-1838.629195,11917.315666
4617.000567,-7179.997637,-4136.915689,12213.398043
4617.000882,-8216.285956,-7507.735880,11621.233289
4617.001196,-7846.182985,-7354.516781,11473.192101
4617.001510,-6883.915261,-4366.744339,11251.130318
4617.001824,-4367.215058,-2374.896044,10807.006753
4617.002138,-1184.329507,-689.485948,8734.430116
4617.002452,1776.494261,2604.724693,8438.347739
4617.002767,4219.173869,4979.620737,8512.368333
4617.003081,6439.791695,6205.373534,6957.935855
4617.003395,8142.265362,6588.421283,5699.585753
4617.003709,8364.327145,6511.811733,6957.935855
4617.004023,6217.729913,5592.497135,8290.306550
4617.004338,2664.741391,3907.087040,8586.388927
4617.004652,0.000000,1149.143247,9474.636058
4617.004966,-3182.885551,-1608.800546,11621.233289
4617.005280,-5699.585753,-4443.353888,12879.583391
4617.005594,-6439.791695,-5975.544884,11991.336260
4617.005909,-6957.935855,-5975.544884,10955.047942
4617.006223,-6069.688724,-4290.134789,10881.027347
4617.006537,-3701.029710,-2528.115143,10288.862594
4617.006851,-370.102971,0.000000,9400.615463
4617.007165,3256.906145,2757.943793,8290.306550
4617.007480,5773.606348,5515.887586,8142.265362
4617.007794,6661.853478,7048.078582,7031.956449
4617.008108,8586.388927,7354.516781,5477.523971
4617.008422,8512.368333,7431.126331,6439.791695
4617.008736,5847.626942,6435.202183,7994.224174
4617.009050,2664.741391,3753.867940,8438.347739
4617.009365,-222.061783,1225.752797,9548.656652
4617.009679,-3701.029710,-1302.362347,11103.089130
4617.009993,-5847.626942,-4366.744339,11473.192101
4617.010307,-7031.956449,-5439.278036,11695.253884
4617.010621,-7179.997637,-5362.668486,11769.274478
4617.010936,-6143.709319,-3447.429741,11621.233289
4617.011250,-3404.947333,-2145.067394,10807.006753
4617.011564,0.000000,0.000000,9178.553681
4617.011878,3404.947333,2681.334243,7994.224174
4617.012192,5699.585753,5822.325785,7920.203579
4617.012507,6957.935855,7814.174080,6735.874072
4617.012821,7994.224174,8044.002729,5477.523971
4617.013135,7402.059420,7277.907231,6365.771101
4617.013449,5329.482782,5592.497135,8068.244768
4617.013763,2220.617826,3217.601092,8290.306550
4617.014077,-1332.370696,842.705048,9252.574275
4617.014392,-5107.421000,-1455.581446,11103.089130
4617.014706,-7624.121203,-4213.525239,11991.336260
4617.015020,-7846.182985,-6818.249932,11177.109724
4617.015334,-7476.080014,-6281.983084,10807.006753
4617.015648,-6883.915261,-4366.744339,11251.130318
4617.015963,-4515.256246,-2451.505594,11029.068536
4617.016277,-666.185348,-229.828649,9992.780217
4617.016591,2886.803174,1685.410096,8956.491898
4617.016905,5181.441594,4213.525239,8364.327145
4617.017219,6069.688724,6128.763984,8290.306550
4617.017534,7105.977043,6205.373534,6143.709319
4617.017848,7624.121203,6128.763984,6365.771101
4617.018162,5181.441594,5132.839837,8808.450710
4617.018476,1924.535449,2374.896044,9622.677246
4617.018790,-592.164754,153.219100,9474.636058
4617.019104,-4145.153275,-2451.505594,10510.924376
4617.019419,-7031.956449,-5592.497135,11177.109724
4617.019733,-7254.018232,-6511.811733,10955.047942
4617.020047,-7476.080014,-6128.763984,11029.068536
4617.020361,-5995.668130,-4903.011187,11547.212695
4617.020675,-4293.194464,-2451.505594,11251.130318
4617.020990,-1184.329507,-1225.752797,9992.780217
4617.021304,2368.659014,536.266849,8068.244768
4617.021618,5033.400406,3140.991542,7105.977043
4617.021932,6217.729913,4903.011187,6587.832884
4617.022246,7550.100608,6358.592633,5995.668130
4617.022561,8142.265362,7737.564530,7105.977043
4617.022875,6069.688724,5975.544884,8660.409521
4617.023189,3849.070898,3064.381992,8438.347739
4617.023503,1258.350101,842.705048,9104.533087
4617.023817,-1998.556043,-1685.410096,10510.924376
4617.024131,-4663.297435,-3600.648841,11177.109724
4617.024446,-6513.812290,-5822.325785,11029.068536
4617.024760,-7031.956449,-5745.716235,10732.986159
4617.025074,-6439.791695,-3294.210641,11843.295072
4617.025388,-4441.235652,-2298.286494,11769.274478
4617.025702,-1776.494261,-919.314598,9696.697840
4617.026017,1924.535449,1915.238745,8882.471304
4617.026331,4219.173869,3907.087040,8142.265362
4617.026645,5995.668130,5822.325785,6661.853478
4617.026959,7402.059420,6052.154434,5033.400406
4617.027273,6439.791695,7737.564530,6809.894666
4617.027588,4441.235652,7354.516781,8660.409521
4617.027902,2664.741391,4060.306139,9326.594869
4617.028216,666.185348,536.266849,9474.636058
4617.028530,-2664.741391,-1225.752797,10807.006753
4617.028844,-5403.503377,-3064.381992,11621.233289
4617.029158,-6883.915261,-4060.306139,10214.842000
4617.029473,-7179.997637,-4673.182538,9992.780217
4617.029787,-6365.771101,-1378.971896,11695.253884
4617.030101,-4589.276840,-766.095498,11473.192101
4617.030415,-1258.350101,0.000000,9474.636058
4617.030729,1924.535449,1762.019645,7772.162391
4617.031044,3849.070898,3983.696590,7624.121203
4617.031358,5921.647536,6358.592633,7105.977043
4617.031672,7846.182985,7277.907231,5699.585753
4617.031986,7550.100608,7354.516781,6365.771101
4617.032300,5699.585753,7201.297681,9400.615463
4617.032615,3478.967927,4443.353888,9252.574275
4617.032929,1184.329507,1532.190996,9474.636058
4617.033243,-2294.638420,-1532.190996,10732.986159
4617.033557,-4885.359217,-3677.258390,12065.356855
4617.033871,-6143.709319,-5439.278036,10807.006753
4617.034186,-6439.791695,-6128.763984,11177.109724
4617.034500,-5699.585753,-3294.210641,12287.418637
4617.034814,-4071.132681,-1991.848295,11473.192101
4617.035128,-1258.350101,0.000000,9918.759623
4617.035442,1850.514855,1455.581446,7846.182985
4617.035756,3997.112087,3524.039291,6883.915261
4617.036071,5033.400406,4903.011187,6587.832884
4617.036385,6291.750507,5669.106685,5773.606348
4617.036699,6217.729913,6741.640382,6735.874072
4617.037013,4293.194464,5132.839837,9326.594869
4617.037327,1850.514855,2681.334243,9918.759623
4617.037642,-222.061783,0.000000,10214.842000
4617.037956,-3034.844362,-2987.772442,10955.047942
4617.038270,-5255.462188,-5286.058936,11547.212695
4617.038584,-6217.729913,-5822.325785,10732.986159
4617.038898,-5995.668130,-5286.058936,10214.842000
4617.039213,-4811.338623,-2068.457845,11547.212695
4617.039527,-2368.659014,-766.095498,11103.089130
4617.039841,592.164754,153.219100,9474.636058
4617.040155,3330.926739,1762.019645,7994.224174
4617.040469,5033.400406,3753.867940,7476.080014
4617.040783,5773.606348,5132.839837,6513.812290
4617.041098,6291.750507,5745.716235,5995.668130
4617.041412,6365.771101,6588.421283,7328.038826
4617.041726,3997.112087,5745.716235,8808.450710
4617.042040,1110.308913,1455.581446,8364.327145
4617.042354,-1628.453072,-612.876398,9770.718434
4617.042669,-4885.359217,-2374.896044,11399.171507
4617.042983,-6809.894666,-4673.182538,11399.171507
4617.043297,-7624.121203,-6128.763984,10362.883188
4617.043611,-7328.038826,-6128.763984,10214.842000
4617.043925,-6291.750507,-3370.820191,11029.068536
4617.044240,-3923.091493,-1455.581446,10658.965565
4617.044554,-1110.308913,459.657299,8808.450710
4617.044868,2072.576638,2145.067394,9030.512492
4617.045182,4441.235652,3983.696590,8586.388927
4617.045496,5699.585753,4979.620737,7031.956449
4617.045810,6365.771101,4826.401637,5329.482782
4617.046125,4959.379811,5515.887586,7179.997637
4617.046439,3552.988522,5132.839837,9474.636058
4617.046753,2294.638420,2911.162892,10288.862594
4617.047067,74.020594,-229.828649,10584.944971
4617.047381,-3108.864956,-2451.505594,11325.150913
4617.047696,-5403.503377,-4596.572988,10807.006753
4617.048010,-6439.791695,-5286.058936,9770.718434
4617.048324,-5773.606348,-4903.011187,9844.739029
4617.048638,-4737.318029,-2374.896044,11251.130318
4617.048952,-2738.761985,-612.876398,10881.027347
4617.049267,148.041188,689.485948,9770.718434
4617.049581,3256.906145,2145.067394,8956.491898
4617.049895,5107.421000,3983.696590,8290.306550
4617.050209,5477.523971,4979.620737,7476.080014
4617.050523,6143.709319,5439.278036,6291.750507
4617.050837,6069.688724,5898.935335,7105.977043
4617.051152,4515.256246,5439.278036,8660.409521
4617.051466,1924.535449,3294.210641,9474.636058
4617.051780,-370.102971,536.266849,10214.842000
4617.052094,-3108.864956,-2068.457845,11103.089130
4617.052408,-4737.318029,-4290.134789,11547.212695
4617.052723,-5551.544565,-4979.620737,11103.089130
4617.053037,-5181.441594,-4673.182538,10436.903782
4617.053351,-3849.070898,-2145.067394,9918.759623
4617.053665,-1702.473667,459.657299,10066.800811
4617.053979,1184.329507,1915.238745,9252.574275
4617.054294,4219.173869,3370.820191,9104.533087
4617.054608,5551.544565,4366.744339,8068.244768
4617.054922,6291.750507,5822.325785,7476.080014
4617.055236,7031.956449,6128.763984,6291.750507
4617.055550,6291.750507,6358.592633,6809.894666
4617.055864,4589.276840,5362.668486,8586.388927
4617.056179,2368.659014,3983.696590,9474.636058
4617.056493,-888.247130,766.095498,9770.718434
4617.056807,-3923.091493,-1915.238745,10881.027347
4617.057121,-5995.668130,-4060.306139,10584.944971
4617.057435,-6291.750507,-5056.230287,10510.924376
4617.057750,-6661.853478,-3753.867940,10955.047942
4617.058064,-6143.709319,-3064.381992,10807.006753
4617.058378,-4367.215058,-1685.410096,9474.636058
4617.058692,-1184.329507,-306.438199,8068.244768
4617.059006,2220.617826,2374.896044,9030.512492
4617.059321,3997.112087,4290.134789,9030.512492
4617.059635,5181.441594,4979.620737,8216.285956
4617.059949,6069.688724,5209.449386,7031.956449
4617.060263,5773.606348,5439.278036,7550.100608
4617.060577,3701.029710,5056.230287,8586.388927
4617.060892,1850.514855,2681.334243,8586.388927
4617.061206,0.000000,383.047749,9696.697840
4617.061520,-2664.741391,-1149.143247,11917.315666
4617.061834,-4737.318029,-3217.601092,11843.295072
4617.062148,-5403.503377,-4979.620737,10362.883188
4617.062462,-5625.565159,-4903.011187,9844.739029
4617.062777,-5181.441594,-2374.896044,10214.842000
4617.063091,-3478.967927,-229.828649,9992.780217
4617.063405,-444.123565,153.219100,8586.388927
4617.063719,1924.535449,1838.629195,8882.471304
4617.064033,3552.988522,3524.039291,8734.430116
4617.064348,4367.215058,4366.744339,7105.977043
4617.064662,4959.379811,4979.620737,6069.688724
4617.064976,5403.503377,5362.668486,7550.100608
4617.065290,3404.947333,4366.744339,9400.615463
4617.065604,1998.556043,2451.505594,9622.677246
4617.065919,0.000000,-306.438199,9474.636058
4617.066233,-2960.823768,-1838.629195,10658.965565
4617.066547,-5255.462188,-3677.258390,11473.192101
4617.066861,-5255.462188,-4596.572988,11251.130318
4617.067175,-4737.318029,-4290.134789,10732.986159
4617.067489,-4293.194464,-3064.381992,10584.944971
4617.067804,-2516.700203,-1455.581446,9622.677246
4617.068118,-592.164754,612.876398,8734.430116
4617.068432,2812.782580,2987.772442,8586.388927
4617.068746,5107.421000,3983.696590,8142.265362
4617.069060,6587.832884,4366.744339,7402.059420
4617.069375,7254.018232,4903.011187,6957.935855
4617.069689,6513.812290,6205.373534,7179.997637
4617.070003,4293.194464,4290.134789,8956.491898
4617.070317,2590.720797,2068.457845,10436.903782
4617.070631,888.247130,0.000000,11473.192101
4617.070946,-2442.679609,-1838.629195,12065.356855
4617.071260,-4737.318029,-4673.182538,10732.986159
4617.071574,-5329.482782,-5056.230287,9030.512492
4617.071888,-5995.668130,-3677.258390,9400.615463
4617.072202,-5699.585753,-1608.800546,9622.677246
4617.072516,-4145.153275,-459.657299,9252.574275
4617.072831,-2590.720797,689.485948,9178.553681
4617.073145,74.020594,1532.190996,8290.306550
4617.073459,1998.556043,3140.991542,7846.182985
4617.073773,3108.864956,2911.162892,6661.853478
4617.074088,4663.297435,4060.306139,6735.874072
4617.074402,5403.503377,5669.106685,8660.409521
4617.074716,3997.112087,5056.230287,10214.842000
4617.075030,2516.700203,2145.067394,9548.656652
4617.075345,888.247130,995.924147,9918.759623
4617.075659,-1184.329507,-306.438199,11399.171507
4617.075973,-2664.741391,-2221.676944,11251.130318
4617.076287,-4663.297435,-3830.477490,11251.130318
4617.076601,-5107.421000,-4596.572988,10436.903782
4617.076916,-4367.215058,-1762.019645,9844.739029
4617.077230,-2812.782580,-306.438199,10362.883188
4617.077544,-814.226536,383.047749,9474.636058
4617.077858,1554.432478,2681.334243,9252.574275
4617.078173,2590.720797,3140.991542,8438.347739
4617.078487,2960.823768,3983.696590,6809.894666
4617.078801,3997.112087,4136.915689,5847.626942
4617.079115,3256.906145,4826.401637,7105.977043
4617.079430,2368.659014,4979.620737,8438.347739
4617.079744,1628.453072,2681.334243,9326.594869
4617.080058,-518.144159,0.000000,10658.965565
4617.080372,-2590.720797,-2757.943793,10584.944971
4617.080686,-3775.050304,-3524.039291,10658.965565
4617.081001,-4737.318029,-3753.867940,10510.924376
4617.081315,-4145.153275,-3447.429741,10436.903782
4617.081629,-2442.679609,-1302.362347,11177.109724
4617.081943,-296.082377,-612.876398,10288.862594
4617.082258,1924.535449,1532.190996,9696.697840
4617.082572,4145.153275,3524.039291,9104.533087
4617.082886,5551.544565,4443.353888,7698.141797
4617.083200,6661.853478,5209.449386,7105.977043
4617.083514,6735.874072,5209.449386,6439.791695
4617.083829,5773.606348,5132.839837,6809.894666
4617.084143,3404.947333,4903.011187,8290.306550
4617.084457,740.205942,1608.800546,8734.430116
4617.084771,-1850.514855,-229.828649,9696.697840
4617.085086,-4071.132681,-2451.505594,11251.130318
4617.085400,-5403.503377,-4826.401637,11547.212695
4617.085714,-5773.606348,-5209.449386,11251.130318
4617.086028,-5625.565159,-4903.011187,10584.944971
4617.086343,-4737.318029,-2604.724693,10066.800811
4617.086657,-2960.823768,-153.219100,9622.677246
4617.086971,0.000000,1149.143247,8808.450710
4617.087285,2368.659014,3217.601092,8808.450710
4617.087599,4145.153275,4366.744339,8882.471304
4617.087914,4737.318029,4596.572988,7476.080014
4617.088228,5255.462188,4903.011187,6735.874072
4617.088542,4737.318029,5592.497135,7254.018232
4617.088856,2886.803174,4136.915689,8734.430116
4617.089171,1036.288319,2145.067394,9474.636058
4617.089485,-1332.370696,0.000000,10140.821405
4617.089799,-3701.029710,-2451.505594,10955.047942
4617.090113,-5773.606348,-3983.696590,11547.212695
4617.090427,-5921.647536,-4673.182538,10732.986159
4617.090742,-5403.503377,-4136.915689,9770.718434
4617.091056,-4219.173869,-2604.724693,9992.780217
4617.091370,-2812.782580,-842.705048,10140.821405
4617.091684,-444.123565,1378.971896,9474.636058
4617.091999,2220.617826,2757.943793,8142.265362
4617.092313,3849.070898,4290.134789,7846.182985
4617.092627,4737.318029,4519.963438,7550.100608
4617.092941,5181.441594,4826.401637,7031.956449
4617.093256,4737.318029,4903.011187,7402.059420
4617.093570,2368.659014,3753.867940,8586.388927
4617.093884,592.164754,1685.410096,9770.718434
4617.094198,-1110.308913,0.000000,10214.842000
4617.094512,-3478.967927,-1915.238745,11029.068536
4617.094827,-4885.359217,-4136.915689,11325.150913
4617.095141,-5477.523971,-4826.401637,11029.068536
4617.095455,-4663.297435,-4136.915689,11251.130318
4617.095769,-3478.967927,-2298.286494,10584.944971
4617.096084,-1776.494261,-1149.143247,9918.759623
4617.096398,592.164754,689.485948,9178.553681
4617.096712,3627.009116,3294.210641,9104.533087
4617.097026,5403.503377,4749.792088,8364.327145
4617.097341,6661.853478,5362.668486,7105.977043
4617.097655,6587.832884,5132.839837,6661.853478
4617.097969,5551.544565,5822.325785,7105.977043
4617.098283,3330.926739,5286.058936,8364.327145
4617.098597,962.267725,2451.505594,9104.533087
4617.098912,-1480.411884,306.438199,9030.512492
4617.099226,-3849.070898,-1991.848295,11251.130318
4617.099540,-5255.462188,-3907.087040,11695.253884
4617.099854,-5921.647536,-5132.839837,10658.965565
4617.100169,-5477.523971,-4443.353888,10140.821405
4617.100483,-3404.947333,-2068.457845,10807.006753
4617.100797,-962.267725,612.876398,10140.821405
4617.101111,1702.473667,2451.505594,8956.491898
4617.101425,4737.318029,3600.648841,7624.121203
4617.101740,5625.565159,5286.058936,7920.203579
4617.102054,5995.668130,5669.106685,7328.038826
4617.102368,6217.729913,6205.373534,6735.874072
4617.102682,4663.297435,5439.278036,7772.162391
4617.102997,2220.617826,3600.648841,9918.759623
4617.103311,222.061783,1455.581446,10881.027347
4617.103625,-2368.659014,-229.828649,9918.759623
4617.103939,-5181.441594,-3370.820191,10140.821405
4617.104254,-7105.977043,-4596.572988,10510.924376
4617.104568,-7179.997637,-4903.011187,10140.821405
4617.104882,-5847.626942,-3907.087040,10288.862594
4617.105196,-4959.379811,-1685.410096,10658.965565
4617.105510,-2368.659014,-1225.752797,10362.883188
4617.105825,1406.391290,842.705048,8808.450710
4617.106139,4515.256246,3370.820191,8808.450710
4617.106453,5477.523971,4749.792088,8586.388927
4617.106767,6661.853478,5132.839837,7476.080014
4617.107082,6883.915261,5362.668486,7105.977043
4617.107396,5403.503377,5439.278036,8068.244768
4617.107710,3108.864956,4903.011187,8882.471304
4617.108024,444.123565,1072.533697,9400.615463
4617.108339,-2220.617826,-1685.410096,9548.656652
4617.108653,-4589.276840,-3064.381992,10658.965565
4617.108967,-6661.853478,-5362.668486,11177.109724
4617.109281,-7105.977043,-6665.030833,9770.718434
4617.109595,-6735.874072,-5286.058936,10140.821405
4617.109910,-5403.503377,-2681.334243,11029.068536
4617.110224,-2442.679609,-766.095498,10584.944971
4617.110538,814.226536,919.314598,8808.450710
4617.110852,4589.276840,1685.410096,8068.244768
4617.111167,6957.935855,4596.572988,7254.018232
4617.111481,7179.997637,6052.154434,7254.018232
4617.111795,7920.203579,6358.592633,7254.018232
4617.112109,7105.977043,6741.640382,8364.327145
4617.112423,4737.318029,4903.011187,9992.780217
4617.112738,2220.617826,2298.286494,10066.800811
4617.113052,-1110.308913,-459.657299,9844.739029
4617.113366,-4441.235652,-2757.943793,10288.862594
4617.113680,-6809.894666,-4826.401637,10288.862594
4617.113995,-7698.141797,-5822.325785,10288.862594
4617.114309,-6957.935855,-4903.011187,10807.006753
4617.114623,-5477.523971,-2068.457845,11029.068536
4617.114937,-3182.885551,-153.219100,10214.842000
4617.115252,74.020594,459.657299,9104.533087
4617.115566,3182.885551,3447.429741,8660.409521
4617.115880,5773.606348,4903.011187,7476.080014
4617.116194,7105.977043,6281.983084,6883.915261
4617.116508,7328.038826,6741.640382,6291.750507
4617.116823,6217.729913,7201.297681,7772.162391
4617.117137,4367.215058,6358.592633,9252.574275
4617.117451,2442.679609,2757.943793,9326.594869
4617.117765,-370.102971,229.828649,9844.739029
4617.118080,-4145.153275,-1762.019645,11251.130318
4617.118394,-6661.853478,-4290.134789,11177.109724
4617.118708,-7550.100608,-5745.716235,10436.903782
4617.119022,-7772.162391,-5592.497135,10658.965565
4617.119337,-6661.853478,-3064.381992,10955.047942
4617.119651,-4885.359217,-995.924147,10436.903782
4617.119965,-1332.370696,153.219100,9252.574275
4617.120279,2368.659014,2451.505594,8882.471304
4617.120593,4737.318029,4136.915689,8290.306550
4617.120908,5773.606348,5669.106685,7179.997637
4617.121222,6661.853478,6281.983084,5699.585753
4617.121536,6143.709319,7124.688131,7031.956449
4617.121850,4515.256246,5592.497135,8512.368333
4617.122165,2886.803174,3064.381992,9400.615463
4617.122479,444.123565,766.095498,10658.965565
4617.122793,-3330.926739,-2604.724693,11917.315666
4617.123107,-5699.585753,-5822.325785,11621.233289
4617.123421,-6365.771101,-7354.516781,10658.965565
4617.123736,-6069.688724,-5745.716235,11621.233289
4617.124050,-4811.338623,-3217.601092,11843.295072
4617.124364,-2442.679609,-689.485948,11103.089130
4617.124678,296.082377,0.000000,10066.800811
4617.124993,2664.741391,1838.629195,8216.285956
4617.125307,5625.565159,4519.963438,7031.956449
4617.125621,6661.853478,6435.202183,6143.709319
4617.125935,7105.977043,7124.688131,5477.523971
4617.126250,6809.894666,6894.859482,6883.915261
4617.126564,3997.112087,5362.668486,7920.203579
4617.126878,1702.473667,2528.115143,8956.491898
4617.127192,-1258.350101,766.095498,9178.553681
4617.127506,-4737.318029,-3064.381992,10288.862594
4617.127821,-5477.523971,-5286.058936,11917.315666
4617.128135,-6809.894666,-6281.983084,11769.274478
4617.128449,-6513.812290,-5669.106685,11473.192101
4617.128763,-5181.441594,-4060.306139,10584.944971
4617.129078,-2738.761985,-919.314598,9844.739029
4617.129392,1258.350101,1149.143247,9474.636058
4617.129706,4737.318029,2298.286494,8882.471304
4617.130020,6957.935855,4979.620737,8216.285956
4617.130335,7105.977043,5209.449386,7105.977043
4617.130649,7476.080014,7277.907231,6513.812290
4617.130963,6365.771101,7354.516781,7772.162391
4617.131277,4367.215058,5669.106685,8734.430116
4617.131591,1702.473667,2757.943793,9326.594869
4617.131906,-2368.659014,-383.047749,10436.903782
4617.132220,-5551.544565,-2911.162892,10510.924376
4617.132534,-7179.997637,-4443.353888,10584.944971
4617.132848,-8068.244768,-5209.449386,11251.130318
4617.133163,-8216.285956,-5132.839837,10288.862594
4617.133477,-6291.750507,-2757.943793,10881.027347
4617.133791,-4219.173869,-1225.752797,10066.800811
4617.134105,-296.082377,153.219100,9326.594869
4617.134419,3108.864956,1838.629195,8142.265362
4617.134734,4885.359217,4290.134789,8586.388927
4617.135048,6365.771101,6511.811733,7624.121203
4617.135362,7476.080014,7507.735880,6809.894666
4617.135676,7402.059420,7201.297681,7698.141797
4617.135991,5329.482782,5592.497135,8808.450710
4617.136305,2886.803174,3600.648841,9104.533087
4617.136619,-222.061783,995.924147,8882.471304
4617.136933,-3849.070898,-2145.067394,9622.677246
4617.137248,-7031.956449,-4903.011187,10658.965565
4617.137562,-7772.162391,-6205.373534,10955.047942
4617.137876,-7402.059420,-5515.887586,11177.109724
4617.138190,-6809.894666,-3753.867940,11621.233289
4617.138504,-4145.153275,-3830.477490,10510.924376
4617.138819,-518.144159,-459.657299,9918.759623
4617.139133,3182.885551,995.924147,9252.574275
4617.139447,5477.523971,4060.306139,8882.471304
4617.139761,6883.915261,5056.230287,7031.956449
4617.140076,7772.162391,5669.106685,5625.565159
4617.140390,7105.977043,7048.078582,6439.791695
4617.140704,4959.379811,6358.592633,8882.471304
4617.141018,2590.720797,3447.429741,9474.636058
4617.141332,-222.061783,-612.876398,9622.677246
4617.141647,-2738.761985,-3140.991542,11325.150913
4617.141961,-5625.565159,-5209.449386,12139.377449
4617.142275,-7105.977043,-5822.325785,11473.192101
4617.142589,-6883.915261,-5515.887586,10584.944971
4617.142904,-5921.647536,-4213.525239,10584.944971
4617.143218,-3701.029710,-1762.019645,10362.883188
4617.143532,-148.041188,-229.828649,8734.430116
4617.143846,3108.864956,2528.115143,7624.121203
4617.144161,5403.503377,4749.792088,7402.059420
4617.144475,6291.750507,5822.325785,7698.141797
4617.144789,7402.059420,6818.249932,6291.750507
4617.145103,6883.915261,6588.421283,6883.915261
4617.145417,4071.132681,5132.839837,8364.327145
4617.145732,1184.329507,2834.553343,9622.677246
4617.146046,-1184.329507,153.219100,10066.800811
4617.146360,-3997.112087,-2374.896044,11029.068536
4617.146674,-6365.771101,-5745.716235,11621.233289
4617.146989,-7772.162391,-6205.373534,11621.233289
4617.147303,-7402.059420,-4903.011187,10807.006753
4617.147617,-6291.750507,-3064.381992,9992.780217
4617.147931,-3775.050304,-1302.362347,9400.615463
4617.148246,-296.082377,459.657299,9178.553681
4617.148560,2812.782580,3140.991542,8438.347739
4617.148874,5329.482782,4443.353888,7624.121203
4617.149188,6291.750507,5975.544884,6809.894666
4617.149502,6735.874072,6435.202183,6957.935855
4617.149817,6439.791695,7048.078582,8364.327145
4617.150131,4367.215058,6052.154434,8808.450710
4617.150445,1998.556043,2374.896044,8882.471304
4617.150759,-962.267725,0.000000,9548.656652
4617.151074,-3923.091493,-1455.581446,11325.150913
4617.151388,-5773.606348,-4290.134789,11695.253884
4617.151702,-6513.812290,-5362.668486,10955.047942
4617.152016,-6809.894666,-5209.449386,10807.006753
4617.152330,-5847.626942,-2987.772442,10955.047942
4617.152645,-3034.844362,-766.095498,10066.800811
4617.152959,74.020594,0.000000,8512.368333
4617.153273,3256.906145,2834.553343,8438.347739
4617.153587,5181.441594,4673.182538,8512.368333
4617.153902,5773.606348,6435.202183,8068.244768
4617.154216,7105.977043,6588.421283,6661.853478
4617.154530,6735.874072,6435.202183,7031.956449
4617.154844,4145.153275,5132.839837,8290.306550
4617.155159,1998.556043,2834.553343,8882.471304
4617.155473,-740.205942,536.266849,9548.656652
4617.155787,-3182.885551,-1915.238745,11251.130318
4617.156101,-5107.421000,-4213.525239,11325.150913
4617.156415,-6143.709319,-5515.887586,11103.089130
4617.156730,-5773.606348,-5515.887586,10140.821405
4617.157044,-4515.256246,-3294.210641,10288.862594
4617.157358,-2146.597232,-995.924147,10362.883188
4617.157672,1110.308913,76.609550,9252.574275
4617.157987,4885.359217,3217.601092,8882.471304
4617.158301,6365.771101,5439.278036,8068.244768
4617.158615,7179.997637,5898.935335,7624.121203
4617.158929,7846.182985,6358.592633,7031.956449
4617.159244,5773.606348,5745.716235,7772.162391
4617.159558,3034.844362,4060.306139,9474.636058
4617.159872,740.205942,1685.410096,9252.574275
4617.160186,-2590.720797,-919.314598,9548.656652
4617.160500,-5329.482782,-3370.820191,10066.800811
4617.160815,-7698.141797,-5515.887586,11251.130318
4617.161129,-8438.347739,-6128.763984,11103.089130
4617.161443,-7624.121203,-5286.058936,10436.903782
4617.161757,-6587.832884,-3447.429741,10436.903782
4617.162072,-4367.215058,-1915.238745,9918.759623
4617.162386,-74.020594,76.609550,9252.574275
4617.162700,3552.988522,3830.477490,8512.368333
4617.163014,5181.441594,4749.792088,8438.347739
4617.163328,6365.771101,5745.716235,7550.100608
4617.163643,7254.018232,5745.716235,6735.874072
4617.163957,6661.853478,5975.544884,7772.162391
4617.164271,4367.215058,5362.668486,9326.594869
4617.164585,2294.638420,2068.457845,9770.718434
4617.164900,-222.061783,919.314598,10066.800811
4617.165214,-3256.906145,-2451.505594,10510.924376
4617.165528,-5255.462188,-4673.182538,11029.068536
4617.165842,-6587.832884,-5822.325785,10436.903782
4617.166157,-6587.832884,-4596.572988,9474.636058
4617.166471,-5329.482782,-1762.019645,10066.800811
4617.166785,-2960.823768,-612.876398,10584.944971
4617.167099,222.061783,0.000000,9252.574275
4617.167413,2960.823768,1991.848295,8216.285956
4617.167728,4737.318029,4519.963438,7179.997637
4617.168042,5181.441594,5822.325785,7254.018232
4617.168356,6069.688724,6205.373534,7254.018232
4617.168670,5995.668130,5822.325785,8142.265362
4617.168985,4145.153275,5286.058936,10066.800811
4617.169299,1258.350101,2451.505594,9474.636058
4617.169613,-888.247130,0.000000,9622.677246
4617.169927,-3330.926739,-2068.457845,10584.944971
4617.170242,-5033.400406,-3677.258390,11843.295072
4617.170556,-5625.565159,-4826.401637,11177.109724
4617.170870,-5699.585753,-4903.011187,10658.965565
4617.171184,-4737.318029,-2298.286494,10584.944971
4617.171498,-2146.597232,-229.828649,9696.697840
4617.171813,1628.453072,1072.533697,8956.491898
4617.172127,4811.338623,3524.039291,8586.388927
4617.172441,5921.647536,5209.449386,7698.141797
4617.172755,6735.874072,5822.325785,6883.915261
4617.173070,6809.894666,6971.469032,6143.709319
4617.173399,6217.729913,6741.640382,7328.038826
4617.173714,4441.235652,5822.325785,8438.347739
4617.174028,1924.535449,2834.553343,8438.347739
4617.174342,-740.205942,306.438199,9104.533087
4617.174656,-4145.153275,-1455.581446,10288.862594
4617.174971,-6143.709319,-4060.306139,10658.965565
4617.175285,-7031.956449,-5286.058936,10288.862594
4617.175599,-6735.874072,-4826.401637,10140.821405
4617.175913,-6365.771101,-2757.943793,10881.027347
4617.176228,-3627.009116,-1685.410096,10584.944971
4617.176542,0.000000,76.609550,9844.739029
4617.176856,3182.885551,1991.848295,9030.512492
4617.177170,5107.421000,4213.525239,8586.388927
4617.177485,5551.544565,5209.449386,7772.162391
4617.177799,6587.832884,5515.887586,7254.018232
4617.178113,6365.771101,6588.421283,8586.388927
4617.178427,3552.988522,4903.011187,9622.677246
4617.178742,444.123565,1378.971896,9622.677246
4617.179056,-1110.308913,-1225.752797,8808.450710
4617.179370,-3552.988522,-2298.286494,9992.780217
4617.179684,-5995.668130,-3753.867940,11843.295072
4617.179999,-6069.688724,-5439.278036,11399.171507
4617.180313,-6661.853478,-5362.668486,10066.800811
4617.180627,-5699.585753,-3524.039291,10584.944971
4617.180941,-3552.988522,-919.314598,9770.718434
4617.181256,-740.205942,612.876398,8216.285956
4617.181570,3552.988522,1532.190996,8216.285956
4617.181884,4811.338623,3830.477490,7846.182985
4617.182198,5551.544565,5745.716235,6661.853478
4617.182512,5847.626942,5362.668486,6143.709319
4617.182827,5847.626942,5898.935335,6883.915261
4617.183141,3997.112087,5515.887586,8956.491898
4617.183455,2146.597232,3064.381992,9622.677246
4617.183769,-592.164754,-229.828649,9770.718434
4617.184084,-3478.967927,-3294.210641,11325.150913
4617.184398,-5181.441594,-4213.525239,11325.150913
4617.184712,-5255.462188,-4596.572988,10955.047942
4617.185026,-5921.647536,-4596.572988,10288.862594
4617.185341,-4811.338623,-2681.334243,10807.006753
4617.185655,-3108.864956,-1455.581446,10436.903782
4617.185969,0.000000,612.876398,8586.388927
4617.186283,3701.029710,2681.334243,8364.327145
4617.186598,5255.462188,4060.306139,8660.409521
4617.186912,6217.729913,6128.763984,8364.327145
4617.187226,7179.997637,6741.640382,7328.038826
4617.187540,6661.853478,6205.373534,8364.327145
4617.187855,4145.153275,5132.839837,9326.594869
4617.188169,1924.535449,2068.457845,8882.471304
4617.188483,-222.061783,612.876398,9104.533087
4617.188797,-3552.988522,-306.438199,10288.862594
4617.189112,-6069.688724,-2987.772442,10436.903782
4617.189426,-6291.750507,-5132.839837,9474.636058
4617.189740,-6587.832884,-4060.306139,9844.739029
4617.190054,-6513.812290,-2604.724693,10436.903782
4617.190369,-4663.297435,-1149.143247,9548.656652
4617.190683,-962.267725,-383.047749,8734.430116
4617.190997,3034.844362,1532.190996,9104.533087
4617.191311,5477.523971,5209.449386,8586.388927
4617.191626,6809.894666,6205.373534,6883.915261
4617.191940,7328.038826,6358.592633,6439.791695
4617.192254,7476.080014,7124.688131,7328.038826
4617.192568,6217.729913,6281.983084,9030.512492
4617.192882,4219.173869,3524.039291,9844.739029
4617.193197,1036.288319,612.876398,9696.697840
4617.193511,-2294.638420,-1608.800546,10510.924376
4617.193825,-4959.379811,-3447.429741,11547.212695
4617.194139,-6513.812290,-5669.106685,10955.047942
4617.194454,-7031.956449,-5975.544884,10214.842000
4617.194768,-6735.874072,-3830.477490,10584.944971
4617.195082,-5329.482782,-2145.067394,11177.109724
4617.195396,-2516.700203,-766.095498,9992.780217
4617.195711,962.267725,459.657299,8290.306550
4617.196025,3182.885551,1915.238745,7994.224174
4617.196339,4071.132681,4290.134789,7105.977043
4617.196653,5255.462188,4979.620737,5995.668130
4617.196968,5033.400406,5286.058936,7105.977043
4617.197282,3849.070898,4979.620737,9474.636058
4617.197596,2220.617826,2374.896044,10214.842000
4617.197910,370.102971,-459.657299,10436.903782
4617.198225,-2368.659014,-2834.553343,10807.006753
4617.198539,-4441.235652,-4826.401637,11399.171507
4617.198853,-4737.318029,-5209.449386,11325.150913
4617.199167,-4219.173869,-4673.182538,10881.027347
4617.199482,-3182.885551,-2834.553343,10436.903782
4617.199796,-1554.432478,-919.314598,10288.862594
4617.200110,1480.411884,1149.143247,9326.594869
4617.200424,3997.112087,3447.429741,8290.306550
4617.200739,4959.379811,4519.963438,7698.141797
4617.201053,5551.544565,4903.011187,7179.997637
4617.201367,5773.606348,5822.325785,6661.853478
4617.201681,4811.338623,5362.668486,7179.997637
4617.201996,2590.720797,4290.134789,8586.388927
4617.202310,-222.061783,1608.800546,8808.450710
4617.202624,-2146.597232,-306.438199,9030.512492
4617.202938,-4737.318029,-1608.800546,10288.862594
4617.203252,-6069.688724,-3753.867940,11029.068536
4617.203567,-6513.812290,-4903.011187,10807.006753
4617.203881,-5773.606348,-4519.963438,9992.780217
4617.204195,-4441.235652,-2451.505594,9696.697840
4617.204509,-2294.638420,-536.266849,10066.800811
4617.204824,1036.288319,1225.752797,10140.821405
4617.205138,4737.318029,3447.429741,9474.636058
4617.205452,5773.606348,5209.449386,8290.306550
4617.205766,5477.523971,5515.887586,7105.977043
4617.206081,5995.668130,5132.839837,5921.647536
4617.206395,5107.421000,5822.325785,7402.059420
4617.206709,2664.741391,5439.278036,9474.636058
4617.207023,0.000000,2221.676944,10214.842000
4617.207338,-2368.659014,0.000000,10362.883188
4617.207652,-5255.462188,-2145.067394,11325.150913
4617.207966,-6217.729913,-3447.429741,11103.089130
4617.208280,-6439.791695,-4443.353888,9474.636058
4617.208595,-5847.626942,-4443.353888,9326.594869
4617.208909,-4293.194464,-1762.019645,10066.800811
4617.209223,-1850.514855,76.609550,10288.862594
4617.209537,1258.350101,1685.410096,9770.718434
4617.209852,3923.091493,3217.601092,8808.450710
4617.210166,5625.565159,4979.620737,8882.471304
4617.210480,6587.832884,5975.544884,7550.100608
4617.210794,7402.059420,5822.325785,7254.018232
4617.211109,6217.729913,5132.839837,8290.306550
4617.211423,3330.926739,3907.087040,9474.636058
4617.211737,666.185348,2528.115143,9400.615463
4617.212051,-2368.659014,536.266849,9918.759623
4617.212366,-4145.153275,-2451.505594,10732.986159
4617.212680,-5921.647536,-4826.401637,10288.862594
4617.212994,-6587.832884,-6052.154434,9252.574275
4617.213308,-6291.750507,-4443.353888,9178.553681
4617.213622,-5107.421000,-1915.238745,10362.883188
4617.213937,-2960.823768,-383.047749,10732.986159
4617.214251,592.164754,229.828649,9400.615463
4617.214565,3552.988522,1838.629195,8068.244768
4617.214879,5033.400406,3907.087040,8364.327145
4617.215194,6217.729913,4519.963438,7179.997637
4617.215508,7550.100608,4826.401637,6735.874072
4617.215822,6883.915261,5515.887586,8216.285956
4617.216136,4737.318029,5209.449386,9992.780217
4617.216451,1924.535449,1991.848295,9548.656652
4617.216765,-814.226536,0.000000,9622.677246
4617.217079,-3256.906145,-2451.505594,10732.986159
4617.217393,-5477.523971,-3830.477490,10807.006753
4617.217708,-6069.688724,-5362.668486,10066.800811
4617.218022,-6069.688724,-5132.839837,9104.533087
4617.218336,-5625.565159,-3294.210641,9770.718434
4617.218650,-3923.091493,-1149.143247,10658.965565
4617.218965,-1110.308913,459.657299,9770.718434
4617.219279,1776.494261,2451.505594,9326.594869
4617.219593,3701.029710,2911.162892,8216.285956
4617.219907,4219.173869,3600.648841,7254.018232
4617.220222,5181.441594,4443.353888,7031.956449
4617.220536,4663.297435,5822.325785,8068.244768
4617.220850,2738.761985,4366.744339,9474.636058
4617.221164,1036.288319,2221.676944,9918.759623
4617.221479,-666.185348,459.657299,10362.883188
4617.221793,-3034.844362,-1225.752797,11399.171507
4617.222107,-4515.256246,-3140.991542,11399.171507
4617.222421,-4811.338623,-4213.525239,9918.759623
4617.222736,-5107.421000,-3600.648841,10658.965565
4617.223050,-3997.112087,-1608.800546,11029.068536
4617.223364,-2590.720797,-612.876398,10436.903782
4617.223678,0.000000,0.000000,9178.553681
4617.223992,2368.659014,3370.820191,8290.306550
4617.224307,3849.070898,4979.620737,7920.203579
4617.224621,4811.338623,5439.278036,6291.750507
4617.224935,6143.709319,5056.230287,5477.523971
4617.225249,4959.379811,5592.497135,7254.018232
4617.225564,2738.761985,5515.887586,8290.306550
4617.225878,814.226536,3294.210641,8956.491898
4617.226192,-518.144159,306.438199,9326.594869
4617.226506,-2368.659014,-2145.067394,10658.965565
4617.226821,-4367.215058,-3524.039291,11177.109724
4617.227135,-5033.400406,-5362.668486,9918.759623
4617.227449,-5033.400406,-3983.696590,10510.924376
4617.227763,-3923.091493,-2068.457845,11917.315666
4617.228078,-1554.432478,-612.876398,11695.253884
4617.228392,1406.391290,536.266849,10658.965565
4617.228706,4071.132681,1608.800546,9030.512492
4617.229020,5921.647536,4749.792088,8290.306550
4617.229335,7254.018232,6281.983084,6513.812290
4617.229649,7550.100608,5898.935335,5995.668130
4617.229963,7105.977043,7201.297681,7624.121203
4617.230277,4663.297435,5975.544884,9474.636058
4617.230592,2516.700203,3140.991542,9622.677246
4617.230906,-148.041188,612.876398,10732.986159
4617.231220,-2220.617826,-2221.676944,11103.089130
4617.231534,-4293.194464,-3830.477490,10732.986159
4617.231849,-5403.503377,-4903.011187,10362.883188
4617.232163,-6069.688724,-4443.353888,10066.800811
4617.232477,-5921.647536,-2145.067394,10881.027347
4617.232791,-4441.235652,-1225.752797,10584.944971
4617.233106,-222.061783,306.438199,8142.265362
4617.233420,2516.700203,3294.210641,8216.285956
4617.233734,4071.132681,3983.696590,8068.244768
4617.234048,5477.523971,6052.154434,7328.038826
4617.234362,5847.626942,5898.935335,6217.729913
4617.234677,4885.359217,5975.544884,8438.347739
4617.234991,3108.864956,5132.839837,9030.512492
4617.235305,370.102971,1838.629195,8882.471304
4617.235619,-1332.370696,76.609550,9252.574275
4617.235934,-4441.235652,-1149.143247,11251.130318
4617.236248,-6957.935855,-4290.134789,11251.130318
4617.236562,-7402.059420,-6358.592633,9696.697840
4617.236876,-7105.977043,-4979.620737,9844.739029
4617.237191,-6291.750507,-2451.505594,11473.192101
4617.237505,-4219.173869,-995.924147,10955.047942
4617.237819,-962.267725,0.000000,9474.636058
4617.238133,2368.659014,1378.971896,8882.471304
4617.238448,3997.112087,3753.867940,8660.409521
4617.238762,5551.544565,4826.401637,7550.100608
4617.239076,6217.729913,4979.620737,6513.812290
4617.239390,5625.565159,5669.106685,8364.327145
4617.239705,3849.070898,5056.230287,10436.903782
4617.240019,1998.556043,2604.724693,9918.759623
4617.240333,-148.041188,-459.657299,9992.780217
4617.240647,-3256.906145,-2528.115143,10436.903782
4617.240962,-5625.565159,-4366.744339,9770.718434
4617.241276,-6957.935855,-5439.278036,9252.574275
4617.241590,-5847.626942,-4673.182538,9622.677246
4617.241904,-5403.503377,-2528.115143,10362.883188
4617.242219,-3478.967927,-1455.581446,10214.842000
4617.242533,-444.123565,-306.438199,8882.471304
4617.242847,2886.803174,1532.190996,8364.327145
4617.243161,4959.379811,3447.429741,8068.244768
4617.243476,6365.771101,3753.867940,7179.997637
4617.243790,7920.203579,5745.716235,7105.977043
4617.244104,7550.100608,6205.373534,8438.347739
4617.244418,5403.503377,5669.106685,10214.842000
4617.244732,3330.926739,2451.505594,9548.656652
4617.245047,1332.370696,229.828649,9622.677246
4617.245361,-1998.556043,-1302.362347,10881.027347
4617.245675,-3923.091493,-3140.991542,11399.171507
4617.245989,-4959.379811,-4903.011187,10362.883188
4617.246304,-4885.359217,-4673.182538,10436.903782
4617.246618,-4737.318029,-2221.676944,10436.903782
4617.246932,-2812.782580,-1072.533697,9770.718434
4617.247246,0.000000,153.219100,8660.409521
4617.247561,3256.906145,2604.724693,8808.450710
4617.247875,5181.441594,4903.011187,8660.409521
4617.248189,5181.441594,5898.935335,7179.997637
4617.248503,6439.791695,6052.154434,5847.626942
4617.248818,5551.544565,7048.078582,7179.997637
4617.249132,3404.947333,6894.859482,9326.594869
4617.249446,740.205942,3524.039291,9400.615463
4617.249760,-1406.391290,842.705048,9844.739029
4617.250075,-3923.091493,-1762.019645,10362.883188
4617.250389,-6439.791695,-3677.258390,10436.903782
4617.250703,-6809.894666,-4749.792088,9400.615463
4617.251017,-7031.956449,-4060.306139,9622.677246
4617.251332,-5847.626942,-1838.629195,10807.006753
4617.251646,-3182.885551,-306.438199,10510.924376
4617.251960,0.000000,459.657299,8956.491898
4617.252274,2960.823768,2298.286494,8290.306550
4617.252589,4589.276840,4366.744339,7920.203579
4617.252903,5255.462188,5592.497135,7254.018232
4617.253217,5773.606348,5669.106685,7402.059420
4617.253531,5181.441594,5592.497135,8364.327145
4617.253846,3182.885551,4290.134789,9474.636058
4617.254160,1036.288319,1455.581446,9474.636058
4617.254474,-1924.535449,-612.876398,9622.677246
4617.254788,-4515.256246,-2451.505594,11103.089130
4617.255102,-5847.626942,-4290.134789,11177.109724
4617.255417,-5921.647536,-5439.278036,10362.883188
4617.255731,-5995.668130,-5209.449386,10066.800811
4617.256045,-5255.462188,-3600.648841,9622.677246
4617.256359,-3923.091493,-1378.971896,9770.718434
4617.256674,-962.267725,0.000000,9770.718434
4617.256988,2146.597232,1302.362347,9030.512492
4617.257302,4293.194464,2221.676944,8882.471304
4617.257616,5107.421000,3294.210641,7550.100608
4617.257931,5699.585753,3524.039291,7254.018232
4617.258245,5773.606348,4903.011187,8438.347739
4617.258559,4441.235652,4213.525239,9548.656652
4617.258873,2516.700203,1378.971896,10214.842000
4617.259188,370.102971,-153.219100,10732.986159
4617.259502,-1776.494261,-2068.457845,10510.924376
4617.259816,-3404.947333,-3753.867940,9992.780217
4617.260130,-4145.153275,-4673.182538,9326.594869
4617.260445,-4441.235652,-3447.429741,9696.697840
4617.260759,-3256.906145,-1838.629195,9844.739029
4617.261073,-2368.659014,-153.219100,9548.656652
4617.261387,0.000000,459.657299,8364.327145
4617.261702,2146.597232,2221.676944,8290.306550
4617.262016,4071.132681,4366.744339,7476.080014
4617.262330,4811.338623,4903.011187,6883.915261
4617.262644,5329.482782,5362.668486,7254.018232
4617.262959,4737.318029,4826.401637,8068.244768
4617.263273,2664.741391,4519.963438,9178.553681
4617.263587,1036.288319,2298.286494,9252.574275
4617.263901,-888.247130,459.657299,10288.862594
4617.264216,-3034.844362,-1608.800546,11103.089130
4617.264530,-4071.132681,-3064.381992,11843.295072
4617.264844,-4515.256246,-3677.258390,11103.089130
4617.265158,-4367.215058,-2834.553343,10140.821405
4617.265472,-4293.194464,-1532.190996,10066.800811
4617.265787,-2442.679609,76.609550,9400.615463
4617.266101,148.041188,1838.629195,9252.574275
4617.266415,3034.844362,3294.210641,9252.574275
4617.266729,3849.070898,4366.744339,8808.450710
4617.267044,3627.009116,4519.963438,7624.121203
4617.267358,4885.359217,4826.401637,6439.791695
4617.267672,4441.235652,6588.421283,7772.162391
4617.267986,2294.638420,4443.353888,9400.615463
4617.268301,592.164754,2145.067394,9770.718434
4617.268615,-962.267725,306.438199,10362.883188
4617.268929,-2590.720797,-1225.752797,10881.027347
4617.269243,-3923.091493,-2911.162892,11103.089130
4617.269558,-4441.235652,-3600.648841,9992.780217
4617.269872,-3923.091493,-3217.601092,9474.636058
4617.270186,-2960.823768,-536.266849,10288.862594
4617.270500,-1554.432478,306.438199,10140.821405
4617.270815,888.247130,766.095498,9030.512492
4617.271129,2738.761985,2374.896044,8142.265362
4617.271443,3552.988522,4213.525239,8216.285956
4617.271757,3849.070898,4290.134789,7402.059420
4617.272072,3775.050304,4596.572988,6661.853478
4617.272386,3923.091493,3370.820191,7846.182985
4617.272700,2220.617826,3677.258390,9400.615463
4617.273014,444.123565,1762.019645,9992.780217
4617.273329,-1332.370696,-689.485948,10066.800811
4617.273643,-3108.864956,-2451.505594,10510.924376
4617.273957,-3997.112087,-3600.648841,11251.130318
4617.274271,-4367.215058,-4519.963438,10288.862594
4617.274586,-3775.050304,-3753.867940,9400.615463
4617.274900,-2738.761985,-1762.019645,9992.780217
4617.275214,-1480.411884,76.609550,10066.800811
4617.275529,1036.288319,995.924147,9030.512492
4617.275843,3256.906145,1838.629195,8438.347739
4617.276157,3997.112087,2681.334243,8364.327145
4617.276472,4367.215058,2604.724693,8216.285956
4617.276786,4589.276840,4060.306139,8068.244768
4617.277100,4071.132681,4060.306139,7846.182985
4617.277415,2220.617826,2681.334243,9696.697840
4617.277729,370.102971,1149.143247,9844.739029
4617.278043,-1628.453072,-766.095498,9696.697840
4617.278358,-3552.988522,-2298.286494,10214.842000
4617.278672,-4737.318029,-3600.648841,10436.903782
4617.278986,-4737.318029,-4213.525239,9548.656652
4617.279301,-4589.276840,-4366.744339,8734.430116
4617.279615,-4219.173869,-1455.581446,9400.615463
4617.279929,-1924.535449,0.000000,9992.780217
4617.280244,148.041188,1072.533697,9844.739029
4617.280558,2960.823768,2068.457845,9178.553681
4617.280872,4515.256246,2834.553343,8808.450710
4617.281187,4145.153275,3524.039291,8142.265362
4617.281501,4589.276840,3677.258390,7920.203579
4617.281815,2960.823768,4749.792088,8364.327145
4617.282130,1924.535449,3294.210641,9844.739029
4617.282444,0.000000,1608.800546,9770.718434
4617.282758,-1258.350101,-536.266849,9770.718434
4617.283073,-3108.864956,-1915.238745,10584.944971
4617.283387,-4959.379811,-2911.162892,10584.944971
4617.283701,-5625.565159,-3524.039291,9474.636058
4617.284016,-4589.276840,-2987.772442,8734.430116
4617.284330,-3108.864956,-1302.362347,9918.759623
4617.284644,-1480.411884,306.438199,10066.800811
4617.284959,1036.288319,1455.581446,9696.697840
4617.285273,3404.947333,2681.334243,9104.533087
4617.285587,4589.276840,3907.087040,8956.491898
4617.285902,4811.338623,4213.525239,8216.285956
4617.286216,5773.606348,4519.963438,7179.997637
4617.286530,5181.441594,5515.887586,7624.121203
4617.286844,2738.761985,4903.011187,9104.533087
4617.287159,1776.494261,2757.943793,9474.636058
4617.287473,148.041188,1149.143247,9474.636058
4617.287787,-2146.597232,-842.705048,10214.842000
4617.288102,-3701.029710,-2451.505594,10140.821405
4617.288416,-4737.318029,-3524.039291,9104.533087
4617.288730,-4071.132681,-2757.943793,9474.636058
4617.289045,-3330.926739,-459.657299,10288.862594
4617.289359,-1406.391290,-383.047749,10436.903782
4617.289673,814.226536,612.876398,9474.636058
4617.289988,3108.864956,2068.457845,7994.224174
4617.290302,4441.235652,3907.087040,7994.224174
4617.290616,5033.400406,5209.449386,8068.244768
4617.290931,5699.585753,5056.230287,7328.038826
4617.291245,5181.441594,5898.935335,8216.285956
4617.291559,2812.782580,5056.230287,9696.697840
4617.291874,666.185348,2068.457845,9696.697840
4617.292188,-518.144159,0.000000,9918.759623
4617.292502,-1998.556043,-1991.848295,10362.883188
4617.292817,-3701.029710,-2911.162892,11177.109724
4617.293131,-4367.215058,-3753.867940,11177.109724
4617.293445,-4441.235652,-2604.724693,10288.862594
4617.293760,-4145.153275,-1378.971896,9992.780217
4617.294074,-3108.864956,-766.095498,9622.677246
4617.294388,-740.205942,306.438199,9548.656652
4617.294703,1628.453072,1685.410096,9030.512492
4617.295017,2812.782580,2757.943793,8438.347739
4617.295331,3552.988522,3753.867940,7772.162391
4617.295646,3923.091493,4060.306139,7105.977043
4617.295960,3108.864956,4673.182538,7624.121203
4617.296274,1628.453072,4519.963438,7994.224174
4617.296589,370.102971,1378.971896,8586.388927
4617.296903,-1036.288319,-383.047749,9548.656652
4617.297217,-2516.700203,-1991.848295,10510.924376
4617.297532,-3478.967927,-3370.820191,10584.944971
4617.297846,-4071.132681,-3830.477490,10066.800811
4617.298160,-3552.988522,-2604.724693,9918.759623
4617.298475,-2368.659014,-1378.971896,9474.636058
4617.298789,-1628.453072,-919.314598,9548.656652
4617.299103,444.123565,536.266849,9104.533087
4617.299418,2220.617826,1991.848295,9400.615463
4617.299732,2960.823768,2834.553343,8956.491898
4617.300046,2812.782580,2681.334243,8142.265362
4617.300361,2590.720797,2451.505594,8364.327145
4617.300675,2146.597232,3447.429741,8956.491898
4617.300989,148.041188,2298.286494,9252.574275
4617.301303,-1554.432478,0.000000,9622.677246
4617.301618,-2442.679609,-1685.410096,9992.780217
4617.301932,-3404.947333,-2298.286494,10510.924376
4617.302246,-4589.276840,-2911.162892,11103.089130
4617.302561,-3923.091493,-3830.477490,9844.739029
4617.302875,-2516.700203,-3140.991542,9770.718434
4617.303189,-1332.370696,-536.266849,9992.780217
4617.303504,370.102971,1072.533697,10140.821405
4617.303818,2368.659014,1991.848295,9474.636058
4617.304132,4367.215058,2604.724693,9696.697840
4617.304447,5329.482782,4136.915689,9400.615463
4617.304761,5773.606348,4366.744339,8290.306550
4617.305075,5329.482782,3830.477490,7402.059420
4617.305390,3849.070898,4596.572988,7624.121203
4617.305704,2220.617826,4290.134789,8438.347739
4617.306018,222.061783,2451.505594,8512.368333
4617.306333,-1850.514855,229.828649,8808.450710
4617.306647,-3478.967927,-1532.190996,9844.739029
4617.306961,-4959.379811,-2528.115143,9622.677246
4617.307276,-5255.462188,-3064.381992,9326.594869
4617.307590,-4441.235652,-2834.553343,9178.553681
4617.307904,-3108.864956,-612.876398,9548.656652
4617.308219,-1776.494261,842.705048,9844.739029
4617.308533,740.205942,1991.848295,9844.739029
4617.308847,3627.009116,3294.210641,9548.656652
4617.309162,4959.379811,3907.087040,9622.677246
4617.309476,5107.421000,4749.792088,9400.615463
4617.309790,5107.421000,4903.011187,8216.285956
4617.310105,4145.153275,4213.525239,8882.471304
4617.310419,2368.659014,3830.477490,9992.780217
4617.310733,518.144159,2221.676944,9770.718434
4617.311048,-1406.391290,306.438199,10362.883188
4617.311362,-3330.926739,-1762.019645,10288.862594
4617.311676,-4811.338623,-2911.162892,10214.842000
4617.311991,-5403.503377,-3677.258390,9696.697840
4617.312305,-4959.379811,-2681.334243,8956.491898
4617.312619,-3627.009116,-689.485948,9474.636058
4617.312934,-1850.514855,-306.438199,8512.368333
4617.313248,1332.370696,1608.800546,8734.430116
4617.313562,3108.864956,3677.258390,8586.388927
4617.313877,4293.194464,4673.182538,8734.430116
4617.314191,5181.441594,4519.963438,7846.182985
4617.314505,4737.318029,3907.087040,6587.832884
4617.314820,3775.050304,4136.915689,8142.265362
4617.315134,1480.411884,2681.334243,8956.491898
4617.315448,74.020594,995.924147,9474.636058
4617.315762,-1332.370696,-766.095498,10066.800811
4617.316077,-3108.864956,-2834.553343,10807.006753
4617.316391,-4367.215058,-3753.867940,11029.068536
4617.316705,-4885.359217,-4213.525239,9696.697840
4617.317020,-3923.091493,-3447.429741,9400.615463
4617.317334,-2738.761985,-2068.457845,8882.471304
4617.317648,-888.247130,-383.047749,9696.697840
4617.317963,2072.576638,1455.581446,9992.780217
4617.318277,3997.112087,2528.115143,9548.656652
4617.318591,4811.338623,3217.601092,9474.636058
4617.318906,4737.318029,2834.553343,8808.450710
4617.319220,5181.441594,3907.087040,7846.182985
4617.319534,4367.215058,3677.258390,9030.512492
4617.319849,2072.576638,2451.505594,9622.677246
4617.320163,-148.041188,612.876398,9918.759623
4617.320477,-1924.535449,-995.924147,10436.903782
4617.320792,-3034.844362,-2374.896044,10658.965565
4617.321106,-4737.318029,-3983.696590,10658.965565
4617.321420,-5107.421000,-4519.963438,9770.718434
4617.321735,-4589.276840,-3217.601092,8882.471304
4617.322049,-2886.803174,-1455.581446,8808.450710
4617.322363,-1702.473667,612.876398,8586.388927
4617.322678,370.102971,1608.800546,8512.368333
4617.322992,2368.659014,3064.381992,8290.306550
4617.323306,3552.988522,4749.792088,8068.244768
4617.323621,4293.194464,4596.572988,7846.182985
4617.323935,4441.235652,4213.525239,7402.059420
4617.324249,3108.864956,4366.744339,8142.265362
4617.324564,1332.370696,4060.306139,8956.491898
4617.324878,-444.123565,1532.190996,9474.636058
4617.325192,-2294.638420,-153.219100,9992.780217
4617.325507,-3256.906145,-1685.410096,11029.068536
4617.325821,-3997.112087,-2834.553343,11103.089130
4617.326135,-4663.297435,-2834.553343,9918.759623
4617.326450,-4737.318029,-2911.162892,9844.739029
4617.326764,-3182.885551,-612.876398,10140.821405
4617.327078,-1406.391290,842.705048,9844.739029
4617.327393,1184.329507,1302.362347,9548.656652
4617.327707,3256.906145,2987.772442,9400.615463
4617.328021,4367.215058,4290.134789,9474.636058
4617.328336,4589.276840,4903.011187,8512.368333
4617.328650,4959.379811,4979.620737,7254.018232
4617.328964,3775.050304,4136.915689,7846.182985
4617.329279,1702.473667,3294.210641,9326.594869
4617.329593,296.082377,2145.067394,9030.512492
4617.329907,-1850.514855,306.438199,9474.636058
4617.330221,-3108.864956,-2221.676944,10658.965565
4617.330536,-4663.297435,-3217.601092,11251.130318
4617.330850,-4663.297435,-3524.039291,9992.780217
4617.331164,-3552.988522,-2911.162892,8660.409521
4617.331479,-2442.679609,-766.095498,8956.491898
4617.331793,0.000000,0.000000,9548.656652
4617.332107,2812.782580,2145.067394,9326.594869
4617.332422,4885.359217,4060.306139,8882.471304
4617.332736,5477.523971,4596.572988,9104.533087
4617.333050,5329.482782,4903.011187,8290.306550
4617.333365,5773.606348,3983.696590,7402.059420
4617.333679,4737.318029,4213.525239,8438.347739
4617.333993,2220.617826,3140.991542,9252.574275
4617.334308,0.000000,536.266849,10066.800811
4617.334622,-1998.556043,-919.314598,9918.759623
4617.334936,-3775.050304,-2374.896044,10955.047942
4617.335251,-4737.318029,-4136.915689,11621.233289
4617.335565,-5181.441594,-4826.401637,10214.842000
4617.335879,-4737.318029,-4060.306139,9252.574275
4617.336194,-3108.864956,-1532.190996,9548.656652
4617.336508,-1332.370696,229.828649,9696.697840
4617.336822,1184.329507,1302.362347,8808.450710
4617.337137,3552.988522,2911.162892,8734.430116
4617.337451,4663.297435,4596.572988,9178.553681
4617.337765,4737.318029,4136.915689,8660.409521
4617.338080,5033.400406,3753.867940,8290.306550
4617.338394,3701.029710,3677.258390,8734.430116
4617.338708,1554.432478,3370.820191,9326.594869
4617.339023,-296.082377,995.924147,8216.285956
4617.339337,-2294.638420,-229.828649,8438.347739
4617.339651,-3849.070898,-1149.143247,9992.780217
4617.339966,-5181.441594,-2528.115143,10807.006753
4617.340280,-6217.729913,-4060.306139,9844.739029
4617.340594,-5773.606348,-3830.477490,9252.574275
4617.340909,-4441.235652,-2451.505594,8956.491898
4617.341223,-2368.659014,-689.485948,9326.594869
4617.341537,740.205942,1225.752797,9474.636058
4617.341852,3034.844362,3064.381992,9770.718434
4617.342166,3997.112087,4060.306139,9548.656652
4617.342480,4071.132681,4673.182538,9178.553681
4617.342795,5477.523971,4136.915689,7105.977043
4617.343109,4811.338623,5132.839837,7328.038826
4617.343423,2590.720797,4366.744339,8808.450710
4617.343738,888.247130,2068.457845,9178.553681
4617.344052,-1258.350101,612.876398,9696.697840
4617.344366,-2960.823768,-1915.238745,10807.006753
4617.344680,-4515.256246,-3217.601092,10807.006753
4617.344995,-5477.523971,-4060.306139,9844.739029
4617.345309,-4885.359217,-4136.915689,9918.759623
4617.345623,-3182.885551,-1532.190996,10288.862594
4617.345938,-1332.370696,-459.657299,9770.718434
4617.346252,1332.370696,-306.438199,9400.615463
4617.346566,3330.926739,2451.505594,9030.512492
4617.346881,4367.215058,4979.620737,9104.533087
4617.347195,5699.585753,5515.887586,8142.265362
4617.347509,6513.812290,5439.278036,7179.997637
4617.347824,5921.647536,4519.963438,7476.080014
4617.348138,4071.132681,3983.696590,8586.388927
4617.348452,1406.391290,2911.162892,8142.265362
4617.348767,-1480.411884,536.266849,9104.533087
4617.349081,-3552.988522,-1608.800546,10510.924376
4617.349395,-5255.462188,-3217.601092,11473.192101
4617.349710,-5551.544565,-4443.353888,10510.924376
4617.350024,-4737.318029,-4443.353888,9622.677246
4617.350338,-3997.112087,-2451.505594,10140.821405
4617.350653,-1850.514855,-383.047749,10066.800811
4617.350967,1850.514855,2451.505594,9992.780217
4617.351281,3997.112087,3677.258390,9474.636058
4617.351596,5403.503377,4673.182538,8808.450710
4617.351910,5921.647536,5515.887586,7772.162391
4617.352224,6143.709319,5745.716235,6365.771101
4617.352539,4737.318029,6052.154434,7476.080014
4617.352853,2368.659014,4443.353888,9400.615463
4617.353167,370.102971,2451.505594,9622.677246
4617.353482,-1702.473667,383.047749,9844.739029
4617.353796,-4293.194464,-2681.334243,9696.697840
4617.354110,-6513.812290,-4443.353888,10732.986159
4617.354425,-6661.853478,-4443.353888,10288.862594
4617.354739,-5921.647536,-4673.182538,8882.471304
4617.355053,-4959.379811,-3294.210641,8956.491898
4617.355368,-3775.050304,-1838.629195,10214.842000
4617.355682,-666.185348,-612.876398,10510.924376
4617.355996,2960.823768,2757.943793,10214.842000
4617.356311,4737.318029,3370.820191,9474.636058
4617.356625,5551.544565,3370.820191,9030.512492
4617.356939,5847.626942,4136.915689,7772.162391
4617.357254,5847.626942,4903.011187,6957.935855
4617.357568,4071.132681,4979.620737,8586.388927
4617.357882,1036.288319,2374.896044,9030.512492
4617.358197,-888.247130,0.000000,10066.800811
4617.358511,-2664.741391,-995.924147,10732.986159
4617.358825,-5403.503377,-3907.087040,10732.986159
4617.359139,-7254.018232,-6435.202183,9622.677246
4617.359454,-6439.791695,-5745.716235,8660.409521
4617.359768,-5033.400406,-2298.286494,9474.636058
4617.360082,-2516.700203,-689.485948,10214.842000
4617.360397,222.061783,306.438199,10362.883188
4617.360711,3108.864956,2145.067394,9400.615463
4617.361025,4959.379811,3983.696590,8586.388927
4617.361340,6513.812290,5439.278036,6883.915261
4617.361654,6883.915261,5132.839837,7105.977043
4617.361968,6661.853478,5898.935335,8586.388927
4617.362283,5329.482782,5822.325785,9770.718434
4617.362597,2368.659014,3830.477490,9474.636058
4617.362911,-296.082377,-229.828649,8956.491898
4617.363226,-2812.782580,-1225.752797,9844.739029
4617.363540,-4737.318029,-2681.334243,10881.027347
4617.363854,-5329.482782,-3830.477490,10436.903782
4617.364169,-5773.606348,-4519.963438,10955.047942
4617.364483,-5255.462188,-3524.039291,11029.068536
4617.364797,-2664.741391,-536.266849,10510.924376
4617.365112,222.061783,1838.629195,9992.780217
4617.365426,2960.823768,2987.772442,8142.265362
4617.365740,4885.359217,4673.182538,8956.491898
4617.366055,5477.523971,6128.763984,8438.347739
4617.366369,6661.853478,7048.078582,6661.853478
4617.366683,5773.606348,6435.202183,6291.750507
4617.366998,2294.638420,4673.182538,7698.141797
4617.367312,444.123565,3064.381992,7994.224174
4617.367626,-1184.329507,1991.848295,9252.574275
4617.367941,-3404.947333,-1378.971896,10510.924376
4617.368255,-4737.318029,-3907.087040,10955.047942
4617.368569,-5773.606348,-4979.620737,10288.862594
4617.368884,-5847.626942,-4903.011187,9918.759623
4617.369198,-4441.235652,-1838.629195,10510.924376
4617.369512,-2368.659014,-995.924147,11399.171507
4617.369827,444.123565,0.000000,10807.006753
4617.370141,4145.153275,2221.676944,9178.553681
4617.370455,5625.565159,3753.867940,9030.512492
4617.370770,4885.359217,4979.620737,8808.450710
4617.371084,5033.400406,5439.278036,7179.997637
4617.371398,5033.400406,5822.325785,7846.182985
4617.371713,3256.906145,4213.525239,8216.285956
4617.372027,296.082377,1455.581446,8586.388927
4617.372341,-2812.782580,-1149.143247,8364.327145
4617.372656,-5329.482782,-2145.067394,8882.471304
4617.372970,-6587.832884,-3677.258390,10807.006753
4617.373284,-7105.977043,-5515.887586,10807.006753
4617.373598,-6365.771101,-5439.278036,10436.903782
4617.373913,-4737.318029,-3753.867940,10288.862594
4617.374227,-2590.720797,-995.924147,10510.924376
4617.374541,888.247130,76.609550,9844.739029
4617.374856,3775.050304,1838.629195,9178.553681
4617.375170,6143.709319,3753.867940,9326.594869
4617.375485,6957.935855,5515.887586,8290.306550
4617.375799,7105.977043,5975.544884,7179.997637
4617.376113,6217.729913,5362.668486,7402.059420
4617.376428,3849.070898,4596.572988,7772.162391
4617.376742,2072.576638,2451.505594,8142.265362
4617.377056,-1036.288319,-153.219100,9622.677246
4617.377371,-3849.070898,-2374.896044,10881.027347
4617.377685,-5699.585753,-4443.353888,10658.965565
4617.377999,-6217.729913,-5362.668486,10658.965565
4617.378314,-6217.729913,-5362.668486,9770.718434
4617.378628,-4737.318029,-3217.601092,9918.759623
4617.378942,-2590.720797,-1532.190996,9844.739029
4617.379257,296.082377,306.438199,9326.594869
4617.379571,3627.009116,2604.724693,9104.533087
4617.379885,5551.544565,4060.306139,9622.677246
4617.380200,6143.709319,4979.620737,8438.347739
4617.380514,6513.812290,5822.325785,7254.018232
4617.380828,5551.544565,5362.668486,7550.100608
4617.381143,3478.967927,4903.011187,8956.491898
4617.381457,1406.391290,2451.505594,8808.450710
4617.381772,-1184.329507,229.828649,9252.574275
4617.382086,-3849.070898,-1762.019645,10066.800811
4617.382400,-5847.626942,-3524.039291,11103.089130
4617.382715,-7031.956449,-4826.401637,10066.800811
4617.383029,-6735.874072,-4366.744339,9104.533087
4617.383343,-5625.565159,-2145.067394,9918.759623
4617.383658,-3330.926739,-842.705048,9918.759623
4617.383972,0.000000,459.657299,9178.553681
4617.384286,2664.741391,2451.505594,8586.388927
4617.384601,3404.947333,4136.915689,8512.368333
4617.384915,4441.235652,5362.668486,8216.285956
4617.385229,5403.503377,5132.839837,7179.997637
4617.385544,5255.462188,5362.668486,7402.059420
4617.385858,3108.864956,5209.449386,9030.512492
4617.386172,962.267725,2374.896044,8586.388927
4617.386487,-1110.308913,153.219100,9178.553681
4617.386801,-3478.967927,-2068.457845,10214.842000
4617.387115,-5033.400406,-3753.867940,10955.047942
4617.387430,-6069.688724,-4749.792088,10584.944971
4617.387744,-6217.729913,-4519.963438,10066.800811
4617.388058,-4885.359217,-2221.676944,10362.883188
4617.388373,-2368.659014,-995.924147,10881.027347
4617.388687,518.144159,0.000000,9548.656652
4617.389002,2960.823768,1915.238745,8956.491898
4617.389316,4737.318029,3370.820191,8438.347739
4617.389630,5551.544565,5209.449386,8290.306550
4617.389945,6513.812290,5439.278036,7105.977043
4617.390259,5847.626942,5592.497135,7254.018232
4617.390573,3775.050304,4673.182538,8734.430116
4617.390888,1480.411884,2681.334243,8956.491898
4617.391202,-814.226536,689.485948,9178.553681
4617.391516,-3108.864956,-1608.800546,9844.739029
4617.391831,-4885.359217,-3524.039291,10658.965565
4617.392145,-5921.647536,-4366.744339,10658.965565
4617.392459,-5847.626942,-4596.572988,9844.739029
4617.392774,-4441.235652,-2834.553343,9548.656652
4617.393088,-1702.473667,-995.924147,9326.594869
4617.393402,1702.473667,1378.971896,10066.800811
4617.393717,5033.400406,3294.210641,9696.697840
4617.394031,6439.791695,4673.182538,8882.471304
4617.394345,7254.018232,5592.497135,8734.430116
4617.394660,7846.182985,6435.202183,7624.121203
4617.394974,7254.018232,5975.544884,7698.141797
4617.395289,4811.338623,4826.401637,8586.388927
4617.395603,1406.391290,2987.772442,9252.574275
4617.395917,-2294.638420,536.266849,9474.636058
4617.396232,-4219.173869,-1991.848295,9104.533087
4617.396546,-6439.791695,-3447.429741,9474.636058
4617.396860,-7476.080014,-4443.353888,10362.883188
4617.397175,-7402.059420,-4136.915689,10362.883188
4617.397489,-6513.812290,-3753.867940,10066.800811
4617.397803,-4219.173869,-2374.896044,10658.965565
4617.398118,-888.247130,-229.828649,9992.780217
4617.398432,2220.617826,2374.896044,9400.615463
4617.398746,4737.318029,3370.820191,8364.327145
4617.399061,5403.503377,5975.544884,8438.347739
4617.399375,6365.771101,5592.497135,7920.203579
4617.399689,5329.482782,5515.887586,8438.347739
4617.400004,3478.967927,5439.278036,8808.450710
4617.400318,2294.638420,2604.724693,7920.203579
4617.400632,0.000000,689.485948,9400.615463
4617.400947,-2960.823768,-1378.971896,10288.862594
4617.401261,-4885.359217,-3830.477490,10732.986159
4617.401576,-5921.647536,-4519.963438,10362.883188
4617.401890,-6291.750507,-4826.401637,9770.718434
4617.402204,-5921.647536,-2987.772442,10362.883188
4617.402519,-3775.050304,-1149.143247,10955.047942
4617.402833,-518.144159,-919.314598,9844.739029
4617.403147,2960.823768,229.828649,9400.615463
4617.403462,4663.297435,2528.115143,9770.718434
4617.403776,4885.359217,4290.134789,8956.491898
4617.404090,5625.565159,5745.716235,7254.018232
4617.404405,5329.482782,5592.497135,7254.018232
4617.404719,3701.029710,4596.572988,9030.512492
4617.405033,2368.659014,2528.115143,8734.430116
4617.405348,444.123565,153.219100,8364.327145
4617.405662,-2442.679609,-1455.581446,9548.656652
4617.405976,-4885.359217,-3600.648841,10436.903782
4617.406291,-5477.523971,-4290.134789,9844.739029
4617.406605,-4441.235652,-4366.744339,9992.780217
4617.406919,-3627.009116,-2145.067394,10658.965565
4617.407234,-1998.556043,-689.485948,10807.006753
4617.407548,592.164754,689.485948,9474.636058
4617.407862,3701.029710,1991.848295,7772.162391
4617.408177,5477.523971,3217.601092,7698.141797
4617.408491,5995.668130,5515.887586,8364.327145
4617.408806,6809.894666,6818.249932,7328.038826
4617.409120,5995.668130,6358.592633,7698.141797
4617.409434,3478.967927,4826.401637,8882.471304
4617.409749,1998.556043,2681.334243,8956.491898
4617.410063,-370.102971,536.266849,8734.430116
4617.410377,-3182.885551,-995.924147,9326.594869
4617.410692,-6069.688724,-3217.601092,10881.027347
4617.411006,-6883.915261,-4290.134789,11399.171507
4617.411320,-6587.832884,-4290.134789,10584.944971
4617.411635,-6069.688724,-3677.258390,10436.903782
4617.411949,-4145.153275,-2374.896044,9548.656652
4617.412263,-1332.370696,-306.438199,9474.636058
4617.412578,1184.329507,1838.629195,9400.615463
4617.412892,3701.029710,3217.601092,8586.388927
4617.413206,5551.544565,4979.620737,8586.388927
4617.413521,6439.791695,5362.668486,7698.141797
4617.413835,5995.668130,6894.859482,8216.285956
4617.414149,4071.132681,5975.544884,8882.471304
4617.414464,2590.720797,2834.553343,8438.347739
4617.414778,1110.308913,1608.800546,9474.636058
4617.415093,-2072.576638,-459.657299,10362.883188
4617.415407,-4441.235652,-2681.334243,10510.924376
4617.415721,-6143.709319,-4136.915689,9326.594869
4617.416036,-7105.977043,-4060.306139,9622.677246
4617.416350,-6439.791695,-3064.381992,10288.862594
4617.416664,-4737.318029,-2145.067394,10510.924376
4617.416979,-2072.576638,-995.924147,9918.759623
4617.417293,962.267725,1072.533697,9844.739029
4617.417607,2368.659014,2681.334243,9030.512492
4617.417922,3627.009116,3447.429741,7476.080014
4617.418236,5107.421000,4749.792088,6291.750507
