#time,accel_x,accel_y,accel_z
1112.184360,518.144159,1685.410096,9178.553681
1112.184685,1036.288319,1225.752797,9548.656652
1112.185011,888.247130,612.876398,9844.739029
1112.185337,0.000000,689.485948,9400.615463
1112.185663,-148.041188,1225.752797,8808.450710
1112.185989,74.020594,229.828649,9104.533087
1112.186315,-814.226536,-383.047749,9400.615463
1112.186641,-1702.473667,0.000000,8956.491898
1112.186966,-1036.288319,306.438199,9104.533087
1112.187292,-444.123565,306.438199,9178.553681
1112.187618,-592.164754,0.000000,9178.553681
1112.187944,-592.164754,229.828649,8956.491898
1112.188270,-370.102971,1608.800546,8808.450710
1112.188596,666.185348,1072.533697,8512.368333
1112.188922,1184.329507,459.657299,9918.759623
1112.189248,518.144159,536.266849,9548.656652
1112.189573,-148.041188,1378.971896,9030.512492
1112.189899,592.164754,1149.143247,9252.574275
1112.190225,888.247130,689.485948,9252.574275
1112.190551,-444.123565,76.609550,8512.368333
1112.190877,-296.082377,536.266849,8364.327145
1112.191203,370.102971,1608.800546,8956.491898
1112.191529,518.144159,1072.533697,9178.553681
1112.191854,222.061783,459.657299,9326.594869
1112.192180,370.102971,1378.971896,9104.533087
1112.192506,962.267725,1762.019645,8956.491898
1112.192832,1554.432478,1302.362347,9992.780217
1112.193158,1184.329507,1149.143247,9770.718434
1112.193484,370.102971,1532.190996,9104.533087
1112.193810,592.164754,1685.410096,9252.574275
1112.194136,1406.391290,919.314598,9696.697840
1112.194461,518.144159,766.095498,9844.739029
1112.194787,0.000000,383.047749,9474.636058
1112.195113,1184.329507,1532.190996,9326.594869
1112.195439,2072.576638,1838.629195,9548.656652
1112.195765,2294.638420,1455.581446,10140.821405
1112.196091,2368.659014,2374.896044,9992.780217
1112.196417,3034.844362,2987.772442,9474.636058
1112.196742,4071.132681,2757.943793,9696.697840
1112.197068,4515.256246,2451.505594,10288.862594
1112.197394,3034.844362,3294.210641,9326.594869
1112.197720,3256.906145,3830.477490,8734.430116
1112.198046,4145.153275,3524.039291,9104.533087
1112.198372,3478.967927,2834.553343,9400.615463
1112.198698,2220.617826,3370.820191,8586.388927
1112.199023,2072.576638,4060.306139,8068.244768
1112.199349,2220.617826,4136.915689,7846.182985
1112.199675,1850.514855,3064.381992,7772.162391
1112.200001,962.267725,3830.477490,7550.100608
1112.200327,962.267725,4443.353888,7402.059420
1112.200653,1702.473667,4366.744339,7920.203579
1112.200979,2220.617826,3907.087040,8586.388927
1112.201305,1628.453072,3753.867940,8586.388927
1112.201630,1036.288319,4519.963438,7994.224174
1112.201956,2294.638420,4136.915689,8660.409521
1112.202282,2368.659014,2911.162892,9548.656652
1112.202608,1702.473667,2757.943793,9770.718434
1112.202934,1776.494261,3524.039291,10140.821405
1112.203260,2738.761985,3447.429741,10807.006753
1112.203586,3108.864956,2757.943793,11251.130318
1112.203911,3034.844362,3370.820191,11103.089130
1112.204237,3478.967927,4136.915689,11029.068536
1112.204563,4515.256246,4519.963438,10807.006753
1112.204889,5033.400406,3983.696590,10510.924376
1112.205215,4885.359217,4366.744339,9992.780217
1112.205541,3849.070898,4826.401637,8586.388927
1112.205867,3478.967927,4596.572988,7698.141797
1112.206193,3627.009116,3830.477490,8216.285956
1112.206518,1776.494261,3600.648841,7846.182985
1112.206844,0.000000,2604.724693,7624.121203
1112.207170,-1110.308913,2604.724693,6587.832884
1112.207496,-1406.391290,842.705048,7105.977043
1112.207822,-1850.514855,459.657299,7772.162391
1112.208148,-1998.556043,1072.533697,8216.285956
1112.208474,-1480.411884,1608.800546,8290.306550
1112.208799,-592.164754,919.314598,8808.450710
1112.209125,74.020594,0.000000,9474.636058
1112.209451,-740.205942,306.438199,10362.883188
1112.209777,-1332.370696,229.828649,10510.924376
1112.210103,0.000000,-1149.143247,11621.233289
1112.210429,296.082377,-2528.115143,12879.583391
1112.210755,-148.041188,-2068.457845,12583.501014
1112.211081,-370.102971,-1225.752797,12139.377449
1112.211406,1702.473667,-459.657299,12805.562797
1112.211732,2368.659014,-842.705048,11547.212695
1112.212058,3256.906145,153.219100,10066.800811
1112.212384,4885.359217,2834.553343,8734.430116
1112.212710,7105.977043,4903.011187,7550.100608
1112.213036,8364.327145,6358.592633,7402.059420
1112.213362,8586.388927,6588.421283,7402.059420
1112.213687,7105.977043,6205.373534,6661.853478
1112.214013,6291.750507,5669.106685,7402.059420
1112.214339,5551.544565,4060.306139,9252.574275
1112.214665,3256.906145,2374.896044,10510.924376
1112.214991,370.102971,1149.143247,11547.212695
1112.215317,-1036.288319,-229.828649,11325.150913
1112.215643,-1258.350101,-1608.800546,11029.068536
1112.215969,-888.247130,-842.705048,10510.924376
1112.216294,0.000000,2221.676944,9104.533087
1112.216620,2294.638420,5745.716235,7105.977043
1112.216946,4811.338623,7507.735880,4959.379811
1112.217272,6069.688724,7967.393179,3627.009116
1112.217598,4811.338623,9576.193725,2960.823768
1112.217924,4367.215058,11338.213370,3182.885551
1112.218250,4367.215058,9499.584175,6069.688724
1112.218575,1554.432478,4903.011187,9400.615463
1112.218901,-2664.741391,1302.362347,11399.171507
1112.219227,-3775.050304,-536.266849,13175.665768
1112.219553,-2886.803174,-1762.019645,15618.345376
1112.219879,-1850.514855,-1762.019645,17246.798449
1112.220205,-1110.308913,-919.314598,16950.716072
1112.220531,1776.494261,2451.505594,14285.974681
1112.220857,3256.906145,4060.306139,11769.274478
1112.221182,4441.235652,5286.058936,9770.718434
1112.221508,4219.173869,6741.640382,5699.585753
1112.221834,5181.441594,8273.831378,3256.906145
1112.222160,6587.832884,9499.584175,3330.926739
1112.222486,5773.606348,9499.584175,3552.988522
1112.222812,4367.215058,8350.440928,2960.823768
1112.223138,2220.617826,5669.106685,3701.029710
1112.223463,1110.308913,3370.820191,5033.400406
1112.223789,-740.205942,2451.505594,7254.018232
1112.224115,-2220.617826,1072.533697,9474.636058
1112.224441,-3108.864956,-612.876398,10066.800811
1112.224767,-3330.926739,-1915.238745,10732.986159
1112.225093,-1924.535449,-2681.334243,12435.459826
1112.225419,-740.205942,-2221.676944,14804.118840
1112.225744,-444.123565,-612.876398,14211.954086
1112.226070,-370.102971,-1991.848295,14730.098246
1112.226396,1332.370696,-3524.039291,13545.768739
1112.226722,2738.761985,-2604.724693,11843.295072
1112.227048,4071.132681,0.000000,10436.903782
1112.227374,4515.256246,1991.848295,9326.594869
1112.227700,5773.606348,2987.772442,7328.038826
1112.228026,7772.162391,3447.429741,7698.141797
1112.228351,7179.997637,4366.744339,7254.018232
1112.228677,5033.400406,4443.353888,5699.585753
1112.229003,4515.256246,2911.162892,5181.441594
1112.229329,4515.256246,2068.457845,7920.203579
1112.229655,2220.617826,1685.410096,9992.780217
1112.229981,-370.102971,612.876398,10955.047942
1112.230307,-1332.370696,-1762.019645,12065.356855
1112.230632,-2738.761985,-4749.792088,13767.830521
1112.230958,-4885.359217,-5975.544884,13841.851115
1112.231284,-3627.009116,-4903.011187,12435.459826
1112.231610,-1998.556043,-2451.505594,11917.315666
1112.231936,-666.185348,536.266849,9770.718434
1112.232262,1480.411884,2987.772442,6661.853478
1112.232588,4663.297435,5592.497135,4589.276840
1112.232914,5625.565159,7277.907231,1702.473667
1112.233239,5551.544565,9499.584175,-0.000000
1112.233565,5995.668130,10342.289223,296.082377
1112.233891,5477.523971,10878.556072,3701.029710
1112.234217,2960.823768,8580.269578,5921.647536
1112.234543,-740.205942,4136.915689,9622.677246
1112.234869,-6217.729913,-995.924147,12879.583391
1112.235195,-10807.006753,-5286.058936,14878.139434
1112.235520,-10732.986159,-8197.221829,16950.716072
1112.235846,-9400.615463,-9039.926876,20651.745782
1112.236172,-9622.677246,-7354.516781,20577.725188
1112.236498,-8364.327145,-3983.696590,16284.530724
1112.236824,-2590.720797,-1915.238745,11473.192101
1112.237150,2812.782580,1608.800546,7402.059420
1112.237476,5625.565159,7660.954980,4515.256246
1112.237802,8660.409521,13713.109414,1406.391290
1112.238127,10140.821405,14402.595362,-518.144159
1112.238453,10066.800811,10189.070123,592.164754
1112.238779,6143.709319,7048.078582,4663.297435
1112.239105,592.164754,5592.497135,6439.791695
1112.239431,-4293.194464,0.000000,8808.450710
1112.239757,-7254.018232,-7431.126331,12953.603985
1112.240083,-9622.677246,-11108.384721,15248.242405
1112.240407,-10807.006753,-9729.412825,14730.098246
1112.240733,-9770.718434,-7890.783629,14211.954086
1112.241058,-6513.812290,-7124.688131,13101.645173
1112.241384,-740.205942,-4060.306139,10584.944971
1112.241710,3627.009116,2451.505594,8290.306550
1112.242036,8068.244768,8273.831378,5995.668130
1112.242362,10140.821405,9422.974625,3849.070898
1112.242687,9992.780217,7660.954980,3108.864956
1112.243013,8216.285956,5286.058936,4441.235652
1112.243339,6143.709319,3064.381992,6957.935855
1112.243665,3108.864956,689.485948,9992.780217
1112.243991,444.123565,-2451.505594,13693.809927
1112.244316,-1998.556043,-5822.325785,15322.262999
1112.244642,-3108.864956,-7354.516781,14285.974681
1112.244968,-4293.194464,-6511.811733,12731.542202
1112.245294,-3849.070898,-4213.525239,12361.439231
1112.245620,-1480.411884,-1225.752797,10955.047942
1112.245945,1628.453072,1991.848295,10214.842000
1112.246271,2146.597232,3294.210641,8438.347739
1112.246597,1998.556043,4443.353888,6735.874072
1112.246923,1332.370696,4136.915689,5995.668130
1112.247249,-518.144159,2221.676944,6217.729913
1112.247574,-2590.720797,-459.657299,7254.018232
1112.247900,-4071.132681,-2068.457845,8882.471304
1112.248226,-3404.947333,-2528.115143,11251.130318
1112.248552,-2220.617826,-2528.115143,12509.480420
1112.248878,-2664.741391,-1455.581446,10955.047942
1112.249203,-1702.473667,-1608.800546,8512.368333
1112.249529,518.144159,689.485948,7179.997637
1112.249855,2664.741391,3753.867940,5329.482782
1112.250181,2738.761985,6665.030833,3997.112087
1112.250507,2590.720797,7507.735880,5255.462188
1112.250832,2146.597232,5209.449386,6661.853478
1112.251158,-592.164754,3064.381992,9104.533087
1112.251484,-3034.844362,-536.266849,9844.739029
1112.251810,-5477.523971,-3983.696590,12287.418637
1112.252136,-7179.997637,-5362.668486,14508.036463
1112.252461,-6735.874072,-5515.887586,15396.283594
1112.252787,-3923.091493,-5592.497135,15470.304188
1112.253113,-1776.494261,-3217.601092,13989.892304
1112.253439,-666.185348,-306.438199,10955.047942
1112.253765,2812.782580,2451.505594,5329.482782
1112.254090,6365.771101,5898.935335,3775.050304
1112.254416,8142.265362,8733.488677,3552.988522
1112.254742,8586.388927,10112.460574,3478.967927
1112.255068,6143.709319,9193.145976,3923.091493
1112.255394,3034.844362,4213.525239,6957.935855
1112.255719,-1480.411884,-995.924147,9696.697840
1112.256045,-3478.967927,-4979.620737,12657.521608
1112.256371,-4885.359217,-6894.859482,15914.427753
1112.256697,-6365.771101,-7048.078582,17838.963202
1112.257023,-4737.318029,-7048.078582,17394.839637
1112.257349,-1702.473667,-5439.278036,14656.077652
1112.257674,888.247130,-2681.334243,10288.862594
1112.258000,2738.761985,2298.286494,5847.626942
1112.258326,7105.977043,7967.393179,3552.988522
1112.258652,10807.006753,11261.603821,1924.535449
1112.258978,9918.759623,11184.994271,740.205942
1112.259303,5995.668130,8273.831378,1258.350101
1112.259629,1776.494261,5286.058936,3627.009116
1112.259955,-592.164754,1378.971896,6735.874072
1112.260281,-3775.050304,-3294.210641,11103.089130
1112.260607,-6291.750507,-6741.640382,15174.221811
1112.260932,-7994.224174,-7507.735880,16432.571912
1112.261258,-7624.121203,-6665.030833,16432.571912
1112.261584,-5773.606348,-5745.716235,15766.386565
1112.261910,-4515.256246,-4136.915689,11029.068536
1112.262236,-1332.370696,383.047749,8660.409521
1112.262561,3256.906145,5975.544884,8290.306550
1112.262887,4663.297435,8656.879127,6217.729913
1112.263213,3108.864956,7277.907231,3627.009116
1112.263539,1480.411884,3524.039291,3627.009116
1112.263865,0.000000,1532.190996,5847.626942
1112.264190,-1702.473667,229.828649,7476.080014
1112.264516,-2368.659014,-842.705048,11251.130318
1112.264842,-3330.926739,-3600.648841,13471.748144
1112.265168,-3997.112087,-4903.011187,13989.892304
1112.265494,-3627.009116,-4826.401637,13989.892304
1112.265819,-2368.659014,-3294.210641,11991.336260
1112.266145,-1110.308913,-1302.362347,9474.636058
1112.266471,2294.638420,2374.896044,9696.697840
1112.266797,3997.112087,5286.058936,8290.306550
1112.267123,3256.906145,5209.449386,5403.503377
1112.267448,1776.494261,3524.039291,5329.482782
1112.267774,296.082377,1532.190996,6069.688724
1112.268100,-1480.411884,459.657299,7105.977043
1112.268426,-2294.638420,-766.095498,9548.656652
1112.268752,-1924.535449,-2528.115143,12287.418637
1112.269077,-1924.535449,-4519.963438,13545.768739
1112.269403,-1776.494261,-4290.134789,12879.583391
1112.269729,-444.123565,-1991.848295,11325.150913
1112.270055,2146.597232,-919.314598,8956.491898
1112.270381,4219.173869,1149.143247,6883.915261
1112.270706,6217.729913,5362.668486,6661.853478
1112.271032,5551.544565,8656.879127,6069.688724
1112.271358,4145.153275,6128.763984,5181.441594
1112.271684,3108.864956,4519.963438,7105.977043
1112.272010,740.205942,536.266849,9030.512492
1112.272335,-2590.720797,-1455.581446,10288.862594
1112.272661,-4293.194464,-2911.162892,12583.501014
1112.272987,-4293.194464,-3907.087040,15766.386565
1112.273313,-3997.112087,-4136.915689,15396.283594
1112.273639,-2442.679609,-2987.772442,12805.562797
1112.273964,-740.205942,-842.705048,10732.986159
1112.274290,1036.288319,1838.629195,7476.080014
1112.274616,4441.235652,5592.497135,4811.338623
1112.274942,7476.080014,9269.755526,4219.173869
1112.275268,6957.935855,10265.679673,2664.741391
1112.275593,4071.132681,9193.145976,2664.741391
1112.275919,2442.679609,5286.058936,5033.400406
1112.276245,0.000000,1532.190996,8142.265362
1112.276571,-4737.318029,-1302.362347,11103.089130
1112.276897,-7031.956449,-4596.572988,13989.892304
1112.277222,-7105.977043,-6358.592633,15766.386565
1112.277548,-6365.771101,-7124.688131,16062.468941
1112.277874,-5995.668130,-4903.011187,15396.283594
1112.278200,-4737.318029,-2681.334243,11621.233289
1112.278526,-962.267725,919.314598,8068.244768
1112.278851,3997.112087,4290.134789,6883.915261
1112.279177,5551.544565,7814.174080,4737.318029
1112.279503,4737.318029,9499.584175,2368.659014
1112.279829,4219.173869,7431.126331,3478.967927
1112.280155,2590.720797,3983.696590,5921.647536
1112.280480,-370.102971,76.609550,7254.018232
1112.280806,-2220.617826,-2374.896044,11621.233289
1112.281132,-2368.659014,-4136.915689,15174.221811
1112.281458,-1998.556043,-6128.763984,16210.510130
1112.281784,-1554.432478,-5975.544884,15470.304188
1112.282109,-962.267725,-3677.258390,13915.871710
1112.282435,148.041188,-995.924147,9104.533087
1112.282761,3478.967927,2681.334243,6661.853478
1112.283087,5403.503377,4979.620737,5699.585753
1112.283413,4885.359217,7507.735880,4737.318029
1112.283738,2368.659014,7814.174080,3034.844362
1112.284064,1702.473667,3983.696590,4145.153275
1112.284390,-814.226536,-383.047749,5625.565159
1112.284716,-3701.029710,-2681.334243,7920.203579
1112.285042,-4737.318029,-2911.162892,11843.295072
1112.285368,-4441.235652,-3447.429741,14211.954086
1112.285693,-3923.091493,-5975.544884,15174.221811
1112.286019,-3182.885551,-6358.592633,14359.995275
1112.286345,-1776.494261,-2757.943793,12435.459826
1112.286671,1406.391290,1608.800546,9252.574275
1112.286997,5329.482782,4290.134789,7698.141797
1112.287322,6439.791695,4903.011187,6957.935855
1112.287648,5033.400406,6128.763984,5551.544565
1112.287974,4219.173869,6741.640382,6587.832884
1112.288300,2368.659014,4519.963438,8586.388927
1112.288626,-888.247130,-612.876398,9400.615463
1112.288951,-3034.844362,-4060.306139,10436.903782
1112.289277,-3775.050304,-4213.525239,13471.748144
1112.289603,-3997.112087,-2528.115143,15544.324782
1112.289929,-4441.235652,-3370.820191,14359.995275
1112.290255,-3552.988522,-3447.429741,11621.233289
1112.290580,-1998.556043,-2604.724693,8364.327145
1112.290906,888.247130,1762.019645,5033.400406
1112.291232,1998.556043,6894.859482,6143.709319
1112.291558,2220.617826,8733.488677,3997.112087
1112.291884,3404.947333,6741.640382,2368.659014
1112.292209,1184.329507,5132.839837,4811.338623
1112.292535,-2590.720797,2145.067394,6513.812290
1112.292861,-5033.400406,-919.314598,7179.997637
1112.293187,-4737.318029,-3370.820191,12065.356855
1112.293513,-4589.276840,-5209.449386,16950.716072
1112.293838,-4219.173869,-4596.572988,16506.592507
1112.294164,-2738.761985,-4443.353888,13841.851115
1112.294490,-1110.308913,-3370.820191,12139.377449
1112.294816,1184.329507,0.000000,8364.327145
1112.295142,5033.400406,5056.230287,6809.894666
1112.295467,8142.265362,9116.536426,5921.647536
1112.295793,7698.141797,9729.412825,4071.132681
1112.296119,6439.791695,7277.907231,4071.132681
1112.296445,4737.318029,5132.839837,5625.565159
1112.296771,296.082377,2604.724693,7698.141797
1112.297096,-2886.803174,-612.876398,10510.924376
1112.297422,-3034.844362,-5286.058936,13545.768739
1112.297748,-3849.070898,-6894.859482,16654.633695
1112.298074,-5403.503377,-6128.763984,17172.777854
1112.298400,-5625.565159,-4443.353888,13841.851115
1112.298725,-2738.761985,-3830.477490,11251.130318
1112.299051,888.247130,-2451.505594,7994.224174
1112.299377,4219.173869,4136.915689,6809.894666
1112.299703,5551.544565,9729.412825,4145.153275
1112.300029,5921.647536,9499.584175,2738.761985
1112.300354,5551.544565,6358.592633,3108.864956
1112.300680,3701.029710,3524.039291,4737.318029
1112.301006,1332.370696,2681.334243,7254.018232
1112.301332,-1480.411884,689.485948,10140.821405
1112.301658,-2960.823768,-3217.601092,13175.665768
1112.301983,-2516.700203,-6435.202183,15544.324782
1112.302309,-3849.070898,-5745.716235,15100.201217
1112.302635,-4737.318029,-3447.429741,12509.480420
1112.302961,-2368.659014,-2451.505594,9696.697840
1112.303287,592.164754,-766.095498,7698.141797
1112.303612,1850.514855,3983.696590,6957.935855
1112.303938,2886.803174,7660.954980,4515.256246
1112.304264,2442.679609,7277.907231,3478.967927
1112.304590,518.144159,4060.306139,4811.338623
1112.304916,-1998.556043,995.924147,6661.853478
1112.305241,-4293.194464,-766.095498,7476.080014
1112.305567,-4219.173869,-2451.505594,11621.233289
1112.305893,-4885.359217,-5056.230287,15100.201217
1112.306219,-4811.338623,-5898.935335,15470.304188
1112.306545,-4737.318029,-5592.497135,14211.954086
1112.306870,-2812.782580,-4596.572988,12435.459826
1112.307196,0.000000,-1532.190996,10288.862594
1112.307522,3404.947333,3064.381992,8290.306550
1112.307848,5403.503377,6128.763984,7328.038826
1112.308174,5699.585753,7201.297681,6069.688724
1112.308499,5107.421000,6205.373534,5033.400406
1112.308825,3627.009116,4290.134789,6365.771101
1112.309151,592.164754,1991.848295,7254.018232
1112.309477,-1702.473667,-459.657299,8808.450710
1112.309803,-1628.453072,-2451.505594,11917.315666
1112.310128,-2516.700203,-3447.429741,14804.118840
1112.310454,-4219.173869,-4136.915689,13693.809927
1112.310780,-3256.906145,-4290.134789,11621.233289
1112.311106,-1036.288319,-2757.943793,9622.677246
1112.311432,444.123565,-612.876398,7698.141797
1112.311758,1924.535449,4443.353888,5329.482782
1112.312083,3997.112087,7354.516781,4071.132681
1112.312409,5329.482782,6511.811733,4145.153275
1112.312735,3552.988522,4979.620737,5181.441594
1112.313061,1110.308913,3294.210641,7328.038826
1112.313387,-1480.411884,1149.143247,8438.347739
1112.313712,-2368.659014,-2528.115143,10658.965565
1112.314038,-2368.659014,-4673.182538,15026.180623
1112.314364,-3552.988522,-4213.525239,16136.489536
1112.314690,-3330.926739,-3217.601092,13841.851115
1112.315016,-1628.453072,-2451.505594,12805.562797
1112.315341,888.247130,-1532.190996,11399.171507
1112.315667,1850.514855,2298.286494,7476.080014
1112.315993,4293.194464,6894.859482,5033.400406
1112.316319,5773.606348,7814.174080,4885.359217
1112.316645,4737.318029,7354.516781,5107.421000
1112.316970,2072.576638,5822.325785,5329.482782
1112.317296,-814.226536,3064.381992,6143.709319
1112.317622,-2960.823768,-1149.143247,8068.244768
1112.317948,-4071.132681,-3524.039291,12139.377449
1112.318274,-4737.318029,-3370.820191,14878.139434
1112.318599,-5699.585753,-3524.039291,14211.954086
1112.318925,-4737.318029,-3370.820191,12805.562797
1112.319251,-2368.659014,-3983.696590,11473.192101
1112.319577,0.000000,-612.876398,8734.430116
1112.319903,1702.473667,4290.134789,5921.647536
1112.320228,3552.988522,7048.078582,5329.482782
1112.320554,4663.297435,6205.373534,5403.503377
1112.320880,3701.029710,4749.792088,5847.626942
1112.321206,888.247130,3753.867940,7624.121203
1112.321532,-962.267725,383.047749,7031.956449
1112.321857,-2738.761985,-2451.505594,8586.388927
1112.322183,-2072.576638,-4366.744339,13101.645173
1112.322509,-3552.988522,-3677.258390,15470.304188
1112.322835,-4071.132681,-2911.162892,13397.727550
1112.323161,-1998.556043,-4060.306139,12213.398043
1112.323486,0.000000,-4060.306139,9696.697840
1112.323812,666.185348,229.828649,6735.874072
1112.324138,3256.906145,6128.763984,6809.894666
1112.324464,5329.482782,7890.783629,6661.853478
1112.324790,3849.070898,4213.525239,6069.688724
1112.325115,1924.535449,2068.457845,6217.729913
1112.325441,296.082377,1455.581446,7105.977043
1112.325767,-1184.329507,229.828649,8364.327145
1112.326093,-888.247130,-2757.943793,11843.295072
1112.326419,-1702.473667,-4596.572988,14952.160028
1112.326744,-2294.638420,-3600.648841,14434.015869
1112.327070,-1924.535449,-2451.505594,12805.562797
1112.327396,444.123565,-2528.115143,11103.089130
1112.327722,1480.411884,-1072.533697,8438.347739
1112.328048,2442.679609,2911.162892,6513.812290
1112.328373,4515.256246,7584.345430,6365.771101
1112.328699,5107.421000,6741.640382,6217.729913
1112.329025,2664.741391,4443.353888,6069.688724
1112.329351,-370.102971,2451.505594,7846.182985
1112.329677,-1850.514855,306.438199,8364.327145
1112.330002,-3256.906145,-2451.505594,10066.800811
1112.330328,-3923.091493,-4903.011187,13767.830521
1112.330654,-4737.318029,-3830.477490,15100.201217
1112.330980,-4071.132681,-2681.334243,13323.706956
1112.331306,-2146.597232,-1915.238745,11399.171507
1112.331631,-518.144159,-1225.752797,9548.656652
1112.331957,518.144159,1685.410096,5477.523971
1112.332283,3552.988522,6435.202183,4293.194464
1112.332609,6291.750507,8810.098227,5255.462188
1112.332935,5033.400406,8656.879127,5699.585753
1112.333260,3034.844362,5669.106685,5847.626942
1112.333586,1998.556043,2987.772442,7254.018232
1112.333912,-814.226536,76.609550,8734.430116
1112.334238,-2516.700203,-2374.896044,12287.418637
1112.334564,-2516.700203,-3294.210641,15174.221811
1112.334889,-2886.803174,-3217.601092,15174.221811
1112.335215,-2368.659014,-2681.334243,13989.892304
1112.335541,-1850.514855,-2221.676944,12953.603985
1112.335867,-1480.411884,-536.266849,7994.224174
1112.336193,666.185348,3447.429741,5033.400406
1112.336518,3627.009116,6588.421283,5625.565159
1112.336844,4441.235652,7584.345430,4663.297435
1112.337170,2590.720797,7124.688131,3627.009116
1112.337496,0.000000,4290.134789,5403.503377
1112.337822,-2368.659014,842.705048,7624.121203
1112.338147,-4071.132681,-2528.115143,9474.636058
1112.338473,-4515.256246,-4673.182538,13323.706956
1112.338799,-4811.338623,-5975.544884,15544.324782
1112.339125,-5107.421000,-5669.106685,15100.201217
1112.339451,-3108.864956,-4826.401637,14359.995275
1112.339777,-444.123565,-2987.772442,12731.542202
1112.340102,1628.453072,-1302.362347,8216.285956
1112.340428,4811.338623,3677.258390,6217.729913
1112.340754,7624.121203,7737.564530,5403.503377
1112.341080,7105.977043,8733.488677,5551.544565
1112.341406,5551.544565,6894.859482,4811.338623
1112.341731,2960.823768,2834.553343,6069.688724
1112.342057,-666.185348,-1225.752797,7550.100608
1112.342383,-3256.906145,-3983.696590,10362.883188
1112.342709,-4737.318029,-4673.182538,14211.954086
1112.343035,-6365.771101,-6205.373534,15322.262999
1112.343361,-6143.709319,-7737.564530,14656.077652
1112.343687,-4441.235652,-6741.640382,12583.501014
1112.344013,-3404.947333,-3064.381992,9696.697840
1112.344339,-888.247130,383.047749,5625.565159
1112.344664,3701.029710,4443.353888,5033.400406
1112.344990,6069.688724,7277.907231,4885.359217
1112.345316,4737.318029,8120.612279,4367.215058
1112.345642,3182.885551,6894.859482,4737.318029
1112.345968,2220.617826,2757.943793,7179.997637
1112.346294,-888.247130,-1072.533697,9400.615463
1112.346620,-3034.844362,-3830.477490,12435.459826
1112.346946,-4071.132681,-4749.792088,15766.386565
1112.347271,-3849.070898,-4673.182538,16062.468941
1112.347597,-2960.823768,-5439.278036,15396.283594
1112.347923,-2072.576638,-4290.134789,13619.789333
1112.348249,-518.144159,-536.266849,8734.430116
1112.348575,3478.967927,4519.963438,6513.812290
1112.348901,7031.956449,8273.831378,5847.626942
1112.349227,7254.018232,9806.022374,3849.070898
1112.349553,4737.318029,9116.536426,3701.029710
1112.349879,3034.844362,7431.126331,4441.235652
1112.350204,296.082377,2987.772442,5625.565159
1112.350530,-2738.761985,-919.314598,8882.471304
1112.350856,-5181.441594,-2911.162892,11843.295072
1112.351182,-6069.688724,-3753.867940,14656.077652
1112.351508,-5107.421000,-5132.839837,15248.242405
1112.351834,-4663.297435,-5822.325785,13841.851115
1112.352160,-4367.215058,-3370.820191,10732.986159
1112.352486,-1258.350101,689.485948,7476.080014
1112.352811,3775.050304,4596.572988,5699.585753
1112.353137,6069.688724,7507.735880,5403.503377
1112.353463,5255.462188,8733.488677,4441.235652
1112.353789,4885.359217,8120.612279,4219.173869
1112.354115,3404.947333,5592.497135,5699.585753
1112.354441,814.226536,689.485948,8882.471304
1112.354767,-2516.700203,-1762.019645,10732.986159
1112.355093,-3478.967927,-3064.381992,13767.830521
1112.355419,-3552.988522,-4443.353888,15692.365970
1112.355744,-3256.906145,-5515.887586,15470.304188
1112.356070,-2738.761985,-4060.306139,13323.706956
1112.356396,-1036.288319,-1532.190996,10066.800811
1112.356722,1850.514855,1225.752797,7179.997637
1112.357048,4515.256246,5132.839837,6661.853478
1112.357374,5181.441594,7277.907231,6439.791695
1112.357700,4071.132681,7354.516781,4959.379811
1112.358026,2590.720797,5056.230287,4959.379811
1112.358351,1406.391290,1072.533697,6957.935855
1112.358677,-1480.411884,-995.924147,9326.594869
1112.359003,-3701.029710,-2451.505594,11621.233289
1112.359329,-3775.050304,-3983.696590,15174.221811
1112.359655,-3627.009116,-5822.325785,14878.139434
1112.359981,-4219.173869,-5898.935335,13841.851115
1112.360307,-3552.988522,-4213.525239,11029.068536
1112.360633,-1184.329507,-1149.143247,8068.244768
1112.360959,2294.638420,1991.848295,6587.832884
1112.361284,3775.050304,5056.230287,6661.853478
1112.361610,3849.070898,6741.640382,5699.585753
1112.361936,3701.029710,5439.278036,4885.359217
1112.362262,2220.617826,2987.772442,6883.915261
1112.362588,0.000000,0.000000,8364.327145
1112.362914,-2368.659014,-1838.629195,9770.718434
1112.363240,-2812.782580,-2681.334243,12361.439231
1112.363566,-2516.700203,-3753.867940,14804.118840
1112.363891,-2442.679609,-4596.572988,13767.830521
1112.364217,-3034.844362,-3907.087040,11769.274478
1112.364543,-1480.411884,-2298.286494,9252.574275
1112.364869,814.226536,1072.533697,7920.203579
1112.365195,2664.741391,5286.058936,6883.915261
1112.365521,4367.215058,6358.592633,6587.832884
1112.365847,3404.947333,6435.202183,4885.359217
1112.366173,1924.535449,4749.792088,4959.379811
1112.366499,296.082377,2068.457845,7105.977043
1112.366824,-2072.576638,-229.828649,9104.533087
1112.367150,-4071.132681,-1608.800546,11325.150913
1112.367476,-3701.029710,-3677.258390,13767.830521
1112.367802,-2738.761985,-4519.963438,14508.036463
1112.368128,-3256.906145,-3294.210641,13619.789333
1112.368454,-2442.679609,-1378.971896,10658.965565
1112.368780,-888.247130,-229.828649,8586.388927
1112.369106,1924.535449,1608.800546,7179.997637
1112.369431,4145.153275,5132.839837,7476.080014
1112.369757,4145.153275,8273.831378,7624.121203
1112.370083,3849.070898,6741.640382,4885.359217
1112.370409,3997.112087,2451.505594,6291.750507
1112.370735,1110.308913,995.924147,9104.533087
1112.371061,-2146.597232,0.000000,10288.862594
1112.371387,-3034.844362,-1072.533697,12139.377449
1112.371713,-1628.453072,-3983.696590,14952.160028
1112.372039,-2590.720797,-4979.620737,14804.118840
1112.372364,-3034.844362,-3677.258390,10510.924376
1112.372690,-814.226536,383.047749,9030.512492
1112.373016,1998.556043,1608.800546,7920.203579
1112.373342,3182.885551,3600.648841,6365.771101
1112.373668,4367.215058,6511.811733,5329.482782
1112.373994,4811.338623,7277.907231,4441.235652
1112.374320,3256.906145,6665.030833,4515.256246
1112.374646,1924.535449,3294.210641,7402.059420
1112.374971,-888.247130,-842.705048,8068.244768
1112.375297,-3923.091493,-2374.896044,9770.718434
1112.375623,-3627.009116,-3600.648841,12583.501014
1112.375949,-3478.967927,-3983.696590,14359.995275
1112.376275,-4367.215058,-3753.867940,13397.727550
1112.376601,-2812.782580,-2834.553343,11547.212695
1112.376927,0.000000,-1149.143247,9030.512492
1112.377253,2368.659014,1378.971896,7105.977043
1112.377579,4737.318029,5362.668486,6513.812290
1112.377904,5477.523971,8273.831378,6217.729913
1112.378230,4663.297435,7967.393179,5477.523971
1112.378556,3034.844362,4673.182538,7179.997637
1112.378882,740.205942,1532.190996,9104.533087
1112.379208,-3182.885551,-1149.143247,9474.636058
1112.379534,-3701.029710,-4060.306139,11843.295072
1112.379860,-3701.029710,-5898.935335,15618.345376
1112.380186,-4959.379811,-5669.106685,16284.530724
1112.380511,-4737.318029,-4443.353888,13767.830521
1112.380837,-2368.659014,-3140.991542,11325.150913
1112.381163,0.000000,-1608.800546,8290.306550
1112.381489,1628.453072,2451.505594,5995.668130
1112.381815,4589.276840,7201.297681,4737.318029
1112.382141,5329.482782,8963.317327,4515.256246
1112.382467,3478.967927,6052.154434,4515.256246
1112.382793,1628.453072,2757.943793,6661.853478
1112.383119,-1480.411884,229.828649,7402.059420
1112.383444,-3701.029710,-2451.505594,8438.347739
1112.383770,-3552.988522,-4826.401637,12213.398043
1112.384096,-2516.700203,-5669.106685,15618.345376
1112.384422,-3627.009116,-4596.572988,14285.974681
1112.384748,-3034.844362,-3294.210641,11843.295072
1112.385074,0.000000,-2374.896044,10584.944971
1112.385400,3108.864956,229.828649,7994.224174
1112.385726,5033.400406,5669.106685,6365.771101
1112.386051,7031.956449,9346.365076,6217.729913
1112.386377,7254.018232,9193.145976,5921.647536
1112.386703,5033.400406,6358.592633,5847.626942
1112.387029,1702.473667,2681.334243,7402.059420
1112.387355,-2368.659014,153.219100,8216.285956
1112.387681,-4515.256246,-2221.676944,11177.109724
1112.388007,-3849.070898,-4903.011187,15470.304188
1112.388333,-4515.256246,-4826.401637,16506.592507
1112.388659,-6217.729913,-3830.477490,12879.583391
1112.388984,-4811.338623,-3677.258390,11103.089130
1112.389310,-2368.659014,-1608.800546,8660.409521
1112.389636,814.226536,2451.505594,6365.771101
1112.389962,3478.967927,7048.078582,5995.668130
1112.390288,4737.318029,8963.317327,4885.359217
1112.390614,4959.379811,7814.174080,4515.256246
1112.390940,3701.029710,5056.230287,6217.729913
1112.391266,-518.144159,2987.772442,7105.977043
1112.391591,-3330.926739,-153.219100,7846.182985
1112.391917,-2960.823768,-3830.477490,11399.171507
1112.392243,-3552.988522,-4826.401637,15544.324782
1112.392569,-4885.359217,-4290.134789,15322.262999
1112.392895,-3849.070898,-3600.648841,12657.521608
1112.393221,-1332.370696,-2757.943793,11177.109724
1112.393547,-148.041188,-1608.800546,8216.285956
1112.393873,2146.597232,3294.210641,6513.812290
1112.394199,4737.318029,7814.174080,5107.421000
1112.394524,5255.462188,7814.174080,5329.482782
1112.394850,3775.050304,4749.792088,5107.421000
1112.395176,1628.453072,2834.553343,6957.935855
1112.395502,-1480.411884,1149.143247,7254.018232
1112.395828,-3478.967927,-2145.067394,10362.883188
1112.396154,-4219.173869,-5745.716235,13767.830521
1112.396480,-4885.359217,-6128.763984,15396.283594
1112.396806,-5033.400406,-5132.839837,14211.954086
1112.397131,-2738.761985,-4596.572988,12287.418637
1112.397457,370.102971,-3294.210641,11029.068536
1112.397783,2664.741391,-229.828649,8586.388927
1112.398109,4737.318029,6205.373534,7031.956449
1112.398435,6957.935855,8810.098227,6217.729913
1112.398761,7105.977043,7124.688131,5995.668130
1112.399087,4959.379811,4596.572988,6217.729913
1112.399413,1332.370696,2604.724693,6735.874072
1112.399739,-1184.329507,-383.047749,7624.121203
1112.400064,-2368.659014,-3217.601092,11103.089130
1112.400390,-3627.009116,-4519.963438,14656.077652
1112.400716,-4515.256246,-4673.182538,14952.160028
1112.401042,-4145.153275,-4443.353888,13397.727550
1112.401368,-2442.679609,-3600.648841,11991.336260
1112.401694,-296.082377,-1302.362347,8660.409521
1112.402020,2368.659014,3217.601092,6143.709319
1112.402346,4811.338623,7201.297681,5551.544565
1112.402671,6069.688724,8580.269578,4811.338623
1112.402997,4959.379811,7737.564530,4145.153275
1112.403323,2960.823768,5209.449386,5625.565159
1112.403649,-666.185348,2681.334243,6735.874072
1112.403975,-3330.926739,-459.657299,8808.450710
1112.404301,-4145.153275,-3140.991542,11917.315666
1112.404627,-5403.503377,-4903.011187,14359.995275
1112.404953,-6069.688724,-4749.792088,14063.912898
1112.405279,-5033.400406,-4366.744339,12509.480420
1112.405604,-2812.782580,-2834.553343,11029.068536
1112.405930,-296.082377,459.657299,8586.388927
1112.406256,2590.720797,4443.353888,6513.812290
1112.406582,5329.482782,7890.783629,5699.585753
1112.406908,5477.523971,8273.831378,5477.523971
1112.407234,3627.009116,7737.564530,6291.750507
1112.407560,888.247130,5209.449386,6809.894666
1112.407886,-444.123565,306.438199,7550.100608
1112.408211,-1702.473667,-3600.648841,10288.862594
1112.408537,-3108.864956,-4673.182538,14285.974681
1112.408863,-4071.132681,-3524.039291,15988.448347
1112.409189,-3404.947333,-3524.039291,14582.057057
1112.409515,-1776.494261,-4749.792088,12953.603985
1112.409841,0.000000,-3370.820191,10436.903782
1112.410167,2072.576638,1915.238745,7031.956449
1112.410493,5107.421000,7354.516781,5699.585753
1112.410819,6587.832884,8427.050478,5773.606348
1112.411144,5033.400406,6818.249932,5403.503377
1112.411470,2516.700203,4749.792088,5255.462188
1112.411796,222.061783,2374.896044,6439.791695
1112.412122,-1702.473667,-1455.581446,8290.306550
1112.412448,-3627.009116,-4290.134789,11177.109724
1112.412774,-4441.235652,-5592.497135,14359.995275
1112.413100,-4293.194464,-5362.668486,15396.283594
1112.413426,-2516.700203,-5439.278036,13471.748144
1112.413751,-1406.391290,-3907.087040,11843.295072
1112.414077,-222.061783,-1302.362347,9400.615463
1112.414403,3404.947333,3524.039291,6439.791695
1112.414729,6439.791695,7277.907231,5921.647536
1112.415055,6957.935855,7277.907231,5329.482782
1112.415381,4441.235652,6741.640382,4071.132681
1112.415707,1924.535449,5745.716235,5255.462188
1112.416033,-1110.308913,2068.457845,7105.977043
1112.416359,-3627.009116,-2834.553343,8956.491898
1112.416684,-5033.400406,-6205.373534,12139.377449
1112.417010,-6513.812290,-5822.325785,15248.242405
1112.417336,-6365.771101,-5592.497135,14952.160028
1112.417662,-5181.441594,-5056.230287,13545.768739
1112.417988,-2294.638420,-4213.525239,11473.192101
1112.418314,222.061783,-919.314598,7846.182985
1112.418640,3997.112087,5669.106685,5921.647536
1112.418966,6883.915261,9959.241474,5625.565159
1112.419291,6143.709319,8886.707777,4737.318029
1112.419617,3108.864956,6741.640382,4663.297435
1112.419943,962.267725,3907.087040,6439.791695
1112.420269,-1702.473667,459.657299,7254.018232
1112.420595,-5033.400406,-2757.943793,10140.821405
1112.420921,-5181.441594,-5592.497135,13915.871710
1112.421247,-5255.462188,-6358.592633,15840.407159
1112.421573,-4589.276840,-5515.887586,15914.427753
1112.421899,-3330.926739,-4366.744339,13767.830521
1112.422224,-666.185348,-2757.943793,10288.862594
1112.422550,2664.741391,2145.067394,6661.853478
1112.422876,6809.894666,7354.516781,6513.812290
1112.423202,8660.409521,10189.070123,5403.503377
1112.423528,6365.771101,9422.974625,4145.153275
1112.423854,3404.947333,6435.202183,4515.256246
1112.424180,2072.576638,2681.334243,5921.647536
1112.424506,-1258.350101,-459.657299,7254.018232
1112.424831,-4737.318029,-3524.039291,10288.862594
1112.425157,-4441.235652,-5362.668486,14656.077652
1112.425483,-4589.276840,-5209.449386,16062.468941
1112.425809,-4071.132681,-4903.011187,14582.057057
1112.426135,-2738.761985,-3983.696590,12139.377449
1112.426461,-740.205942,-1532.190996,7994.224174
1112.426787,2812.782580,3217.601092,5921.647536
1112.427113,6439.791695,8120.612279,6291.750507
1112.427439,5625.565159,9039.926876,4737.318029
1112.427764,2812.782580,7737.564530,3849.070898
1112.428090,1480.411884,4673.182538,5625.565159
1112.428416,-666.185348,612.876398,7772.162391
1112.428742,-4145.153275,-2298.286494,10214.842000
1112.429068,-5033.400406,-4903.011187,13175.665768
1112.429394,-3849.070898,-5515.887586,16654.633695
1112.429720,-2442.679609,-5515.887586,15914.427753
1112.430046,-1998.556043,-3677.258390,13989.892304
1112.430371,0.000000,-1532.190996,10732.986159
1112.430697,3404.947333,919.314598,6587.832884
1112.431023,6587.832884,5669.106685,6365.771101
1112.431349,7846.182985,9499.584175,7105.977043
1112.431675,5551.544565,9729.412825,5255.462188
1112.432001,3256.906145,6741.640382,4589.276840
1112.432327,888.247130,1225.752797,6291.750507
1112.432653,-2590.720797,-1608.800546,7846.182985
1112.432979,-5403.503377,-2834.553343,9548.656652
1112.433304,-5329.482782,-4673.182538,14063.912898
1112.433630,-5625.565159,-6741.640382,15988.448347
1112.433956,-6439.791695,-6665.030833,13767.830521
1112.434282,-4441.235652,-4366.744339,11103.089130
1112.434608,-1184.329507,-1838.629195,8216.285956
1112.434934,2072.576638,2298.286494,5551.544565
1112.435260,5921.647536,6818.249932,7105.977043
1112.435586,6587.832884,9576.193725,6069.688724
1112.435911,3997.112087,8044.002729,4293.194464
1112.436237,3256.906145,3907.087040,5255.462188
1112.436563,1776.494261,229.828649,7105.977043
1112.436889,-2368.659014,0.000000,9104.533087
1112.437215,-2738.761985,-2911.162892,12213.398043
1112.437541,-2812.782580,-4596.572988,16358.551318
1112.437867,-3256.906145,-6358.592633,16136.489536
1112.438193,-3552.988522,-4903.011187,14359.995275
1112.438519,-1480.411884,-2451.505594,10955.047942
1112.438844,1480.411884,536.266849,7772.162391
1112.439170,4663.297435,3983.696590,7328.038826
1112.439496,6291.750507,8733.488677,6513.812290
1112.439822,5255.462188,9806.022374,3923.091493
1112.440148,3108.864956,6741.640382,3404.947333
1112.440474,666.185348,3370.820191,5699.585753
1112.440800,-2516.700203,1378.971896,7031.956449
1112.441126,-4885.359217,-1149.143247,8882.471304
1112.441451,-5403.503377,-5209.449386,12361.439231
1112.441777,-5625.565159,-7354.516781,15396.283594
1112.442103,-4885.359217,-5592.497135,14285.974681
1112.442429,-3552.988522,-2834.553343,13175.665768
1112.442755,-1184.329507,-1455.581446,10584.944971
1112.443080,2072.576638,0.000000,7179.997637
1112.443406,5773.606348,4366.744339,7105.977043
1112.443732,6217.729913,9806.022374,5995.668130
1112.444058,4959.379811,10648.727422,3849.070898
1112.444383,4441.235652,6128.763984,4515.256246
1112.444709,1258.350101,1378.971896,7031.956449
1112.445035,-3552.988522,-766.095498,7772.162391
1112.445361,-5477.523971,-2221.676944,10658.965565
1112.445686,-5107.421000,-4903.011187,14582.057057
1112.446012,-4959.379811,-7124.688131,15766.386565
1112.446338,-4663.297435,-5515.887586,14211.954086
1112.446664,-3034.844362,-3370.820191,12287.418637
1112.446990,-1036.288319,-1072.533697,9326.594869
1112.447315,3552.988522,1991.848295,7105.977043
1112.447641,6069.688724,6818.249932,7105.977043
1112.447967,5181.441594,10035.851024,4959.379811
1112.448293,3849.070898,8350.440928,3552.988522
1112.448618,3552.988522,3830.477490,5921.647536
1112.448944,0.000000,306.438199,7624.121203
1112.449270,-4293.194464,-1302.362347,8882.471304
1112.449596,-4367.215058,-3907.087040,12139.377449
1112.449921,-3923.091493,-6205.373534,15544.324782
1112.450247,-4515.256246,-6511.811733,15766.386565
1112.450573,-3552.988522,-5056.230287,13989.892304
1112.450899,-1554.432478,-1762.019645,10881.027347
1112.451224,1554.432478,-153.219100,7624.121203
1112.451550,5033.400406,3677.258390,7031.956449
1112.451876,6217.729913,8963.317327,6217.729913
1112.452202,5551.544565,9806.022374,3701.029710
1112.452527,4589.276840,6358.592633,4071.132681
1112.452853,2072.576638,2681.334243,6513.812290
1112.453179,-1554.432478,153.219100,7994.224174
1112.453505,-3849.070898,-1685.410096,9992.780217
1112.453830,-3627.009116,-4826.401637,13619.789333
1112.454156,-3997.112087,-7048.078582,15840.407159
1112.454482,-3701.029710,-5515.887586,15100.201217
1112.454808,-2146.597232,-2604.724693,12657.521608
1112.455133,518.144159,-459.657299,9030.512492
1112.455459,2886.803174,1378.971896,6661.853478
1112.455785,5181.441594,6128.763984,5995.668130
1112.456111,5255.462188,10418.898773,4441.235652
1112.456436,5033.400406,9806.022374,3108.864956
1112.456762,3256.906145,5132.839837,4885.359217
1112.457088,-962.267725,1685.410096,6217.729913
1112.457414,-4145.153275,-459.657299,6883.915261
1112.457739,-4885.359217,-2451.505594,10436.903782
1112.458065,-5551.544565,-5592.497135,14508.036463
1112.458391,-6143.709319,-6358.592633,16950.716072
1112.458717,-4737.318029,-4366.744339,15322.262999
1112.459042,-1924.535449,-2374.896044,12509.480420
1112.459368,1776.494261,-2145.067394,9104.533087
1112.459694,4293.194464,1302.362347,7994.224174
1112.460020,6069.688724,8580.269578,6957.935855
1112.460345,7105.977043,11338.213370,5551.544565
1112.460671,6217.729913,7890.783629,5625.565159
1112.460997,3627.009116,2451.505594,6883.915261
1112.461323,-962.267725,842.705048,6513.812290
1112.461648,-3478.967927,-536.266849,7994.224174
1112.461974,-3923.091493,-3217.601092,13323.706956
1112.462300,-4885.359217,-6128.763984,15396.283594
1112.462626,-5773.606348,-6665.030833,14878.139434
1112.462951,-4441.235652,-5286.058936,11917.315666
1112.463277,-2368.659014,-3217.601092,9918.759623
1112.463603,148.041188,-919.314598,8586.388927
1112.463929,4663.297435,4519.963438,6587.832884
1112.464254,5625.565159,8503.660028,4959.379811
1112.464580,5107.421000,7660.954980,3552.988522
1112.464906,3478.967927,4366.744339,3627.009116
1112.465232,370.102971,3140.991542,5181.441594
1112.465557,-1850.514855,536.266849,6809.894666
1112.465883,-3701.029710,-2681.334243,9548.656652
1112.466209,-3627.009116,-4903.011187,13915.871710
1112.466535,-3849.070898,-5592.497135,16728.654289
1112.466860,-3627.009116,-4136.915689,15692.365970
1112.467186,-2442.679609,-3524.039291,12435.459826
1112.467512,148.041188,-3447.429741,9844.739029
1112.467838,3627.009116,76.609550,7550.100608
1112.468163,5255.462188,7660.954980,7846.182985
1112.468489,6217.729913,10495.508323,6587.832884
1112.468815,5255.462188,7967.393179,5181.441594
1112.469141,1924.535449,3140.991542,5699.585753
1112.469466,-888.247130,536.266849,6365.771101
1112.469792,-2960.823768,76.609550,7846.182985
1112.470118,-3701.029710,-1762.019645,12065.356855
1112.470444,-3997.112087,-4673.182538,16284.530724
1112.470769,-4145.153275,-4749.792088,15174.221811
1112.471095,-3849.070898,-4826.401637,11843.295072
1112.471421,-2664.741391,-3294.210641,10658.965565
1112.471747,-666.185348,-766.095498,8734.430116
1112.472072,2072.576638,4136.915689,7105.977043
1112.472398,4219.173869,7507.735880,5995.668130
1112.472724,4663.297435,7201.297681,4071.132681
1112.473050,2368.659014,5439.278036,3997.112087
1112.473375,148.041188,4519.963438,5699.585753
1112.473701,-2072.576638,1915.238745,7179.997637
1112.474027,-2960.823768,-1762.019645,9252.574275
1112.474353,-2960.823768,-4903.011187,12139.377449
1112.474678,-3182.885551,-4136.915689,14952.160028
1112.475004,-3256.906145,-2451.505594,14434.015869
1112.475330,-1406.391290,-1991.848295,12657.521608
1112.475656,370.102971,-2374.896044,10510.924376
1112.475981,3330.926739,-689.485948,7994.224174
1112.476307,4811.338623,5822.325785,6661.853478
1112.476633,6217.729913,9729.412825,6587.832884
1112.476959,5107.421000,7354.516781,5995.668130
1112.477284,1850.514855,3140.991542,5699.585753
1112.477610,148.041188,536.266849,6069.688724
1112.477936,-2146.597232,-536.266849,7994.224174
1112.478262,-3997.112087,-1685.410096,11547.212695
1112.478588,-4219.173869,-4290.134789,14359.995275
1112.478913,-4219.173869,-5745.716235,14952.160028
1112.479239,-3627.009116,-5669.106685,12583.501014
1112.479565,-1628.453072,-3217.601092,11029.068536
1112.479891,222.061783,0.000000,9178.553681
1112.480216,2294.638420,3140.991542,7846.182985
1112.480542,4367.215058,6205.373534,6513.812290
1112.480868,5847.626942,7048.078582,5625.565159
1112.481194,3997.112087,5822.325785,5107.421000
1112.481519,888.247130,3907.087040,5699.585753
1112.481845,-1406.391290,1455.581446,7031.956449
1112.482171,-2368.659014,-2298.286494,8734.430116
1112.482497,-3404.947333,-4366.744339,12731.542202
1112.482822,-3849.070898,-4366.744339,15692.365970
1112.483148,-3478.967927,-3064.381992,15100.201217
1112.483474,-1998.556043,-3294.210641,12509.480420
1112.483800,74.020594,-3370.820191,11399.171507
1112.484125,2146.597232,-383.047749,8068.244768
1112.484451,3478.967927,5745.716235,6217.729913
1112.484777,5699.585753,8886.707777,5773.606348
1112.485103,4367.215058,7584.345430,4885.359217
1112.485428,1332.370696,5056.230287,4589.276840
1112.485754,-592.164754,3140.991542,6439.791695
1112.486080,-2146.597232,-612.876398,7105.977043
1112.486406,-4293.194464,-3830.477490,9844.739029
1112.486731,-5329.482782,-5286.058936,14063.912898
1112.487057,-5181.441594,-4060.306139,14878.139434
1112.487383,-3034.844362,-2911.162892,13619.789333
1112.487709,-1184.329507,-3294.210641,12879.583391
1112.488034,-222.061783,-1991.848295,9992.780217
1112.488360,1924.535449,2604.724693,6439.791695
1112.488686,5551.544565,7890.783629,6513.812290
1112.489012,7179.997637,8503.660028,6143.709319
1112.489337,4959.379811,6971.469032,4367.215058
1112.489663,2886.803174,5132.839837,5625.565159
1112.489989,814.226536,3370.820191,7698.141797
1112.490315,-2442.679609,-229.828649,8956.491898
1112.490640,-3627.009116,-4060.306139,12213.398043
1112.490966,-3997.112087,-5669.106685,14878.139434
1112.491292,-4071.132681,-4443.353888,14359.995275
1112.491618,-2368.659014,-2911.162892,13471.748144
1112.491943,-370.102971,-1838.629195,12065.356855
1112.492269,592.164754,-306.438199,8734.430116
1112.492595,3182.885551,2834.553343,5921.647536
1112.492921,5699.585753,6741.640382,5921.647536
1112.493246,4737.318029,8427.050478,5625.565159
1112.493572,2220.617826,6741.640382,4811.338623
1112.493898,666.185348,3064.381992,5847.626942
1112.494224,-2146.597232,-612.876398,7772.162391
1112.494549,-5181.441594,-3600.648841,9622.677246
1112.494875,-5403.503377,-4903.011187,12879.583391
1112.495201,-5107.421000,-5132.839837,14878.139434
1112.495527,-4811.338623,-5515.887586,14656.077652
1112.495852,-2812.782580,-4136.915689,13397.727550
1112.496178,-888.247130,-1838.629195,10288.862594
1112.496504,888.247130,689.485948,6661.853478
1112.496830,4071.132681,4443.353888,5921.647536
1112.497155,6217.729913,7354.516781,5847.626942
1112.497481,4367.215058,8427.050478,5255.462188
1112.497807,2442.679609,5592.497135,5255.462188
1112.498133,0.000000,1072.533697,6883.915261
1112.498458,-3034.844362,-2145.067394,7772.162391
1112.498784,-4737.318029,-3217.601092,10658.965565
1112.499110,-4071.132681,-3370.820191,15396.283594
1112.499436,-3404.947333,-4749.792088,16432.571912
1112.499761,-2738.761985,-6052.154434,13397.727550
1112.500087,-1480.411884,-4290.134789,12435.459826
1112.500413,0.000000,-612.876398,9548.656652
1112.500739,3034.844362,3753.867940,6587.832884
1112.501064,6735.874072,6894.859482,6809.894666
1112.501390,6735.874072,6588.421283,5625.565159
1112.501716,3108.864956,6818.249932,4145.153275
1112.502042,2368.659014,5439.278036,6291.750507
1112.502367,74.020594,1915.238745,8068.244768
1112.502693,-3256.906145,-3140.991542,8734.430116
1112.503019,-3552.988522,-5439.278036,12213.398043
1112.503345,-3478.967927,-3983.696590,14878.139434
1112.503670,-3330.926739,-3217.601092,14952.160028
1112.503996,-2220.617826,-4060.306139,13545.768739
1112.504322,-1184.329507,-2987.772442,11177.109724
1112.504648,666.185348,-306.438199,7179.997637
1112.504973,3997.112087,4443.353888,5847.626942
1112.505299,5329.482782,8810.098227,5773.606348
1112.505625,4145.153275,7660.954980,3923.091493
1112.505951,3182.885551,6435.202183,3404.947333
1112.506276,2516.700203,3907.087040,6143.709319
1112.506602,-222.061783,1608.800546,7624.121203
1112.506928,-2812.782580,-1302.362347,9030.512492
1112.507254,-2664.741391,-3447.429741,12509.480420
1112.507579,-1850.514855,-3524.039291,16062.468941
1112.507905,-1702.473667,-3217.601092,15914.427753
1112.508231,-2960.823768,-1991.848295,13175.665768
1112.508557,-962.267725,-2604.724693,10066.800811
1112.508882,1850.514855,-612.876398,6883.915261
1112.509208,3775.050304,4979.620737,7179.997637
1112.509534,3775.050304,9269.755526,6883.915261
1112.509860,2590.720797,8503.660028,4959.379811
1112.510186,814.226536,3983.696590,5255.462188
1112.510511,-962.267725,0.000000,7328.038826
1112.510837,-4145.153275,-995.924147,7624.121203
1112.511163,-5773.606348,-2451.505594,9548.656652
1112.511489,-5033.400406,-5209.449386,14211.954086
1112.511814,-3775.050304,-6205.373534,15914.427753
1112.512140,-3404.947333,-3677.258390,14804.118840
1112.512466,-1924.535449,-2298.286494,11547.212695
1112.512792,370.102971,-2145.067394,8068.244768
1112.513117,4737.318029,536.266849,6513.812290
1112.513443,7328.038826,6818.249932,8068.244768
1112.513769,6735.874072,10418.898773,5699.585753
1112.514095,5181.441594,7660.954980,4219.173869
1112.514420,3701.029710,2757.943793,5403.503377
1112.514746,1110.308913,0.000000,7031.956449
1112.515072,-1998.556043,0.000000,8734.430116
1112.515398,-2590.720797,-1455.581446,11769.274478
1112.515723,-3330.926739,-4060.306139,15322.262999
1112.516049,-3182.885551,-6358.592633,15692.365970
1112.516375,-3552.988522,-4749.792088,12361.439231
1112.516701,-3108.864956,-1915.238745,9326.594869
1112.517026,-518.144159,-842.705048,8068.244768
1112.517352,2664.741391,2528.115143,7105.977043
1112.517678,3775.050304,6358.592633,5699.585753
1112.518004,2516.700203,7967.393179,5699.585753
1112.518329,1258.350101,5439.278036,5033.400406
1112.518655,0.000000,2451.505594,6143.709319
1112.518981,-1924.535449,-612.876398,6587.832884
1112.519307,-3627.009116,-1762.019645,9696.697840
1112.519632,-2516.700203,-2451.505594,13841.851115
1112.519958,-1702.473667,-4519.963438,17024.736666
1112.520284,-2442.679609,-3907.087040,15248.242405
1112.520610,-2516.700203,-3140.991542,12435.459826
1112.520935,-592.164754,-1915.238745,9696.697840
1112.521261,3552.988522,995.924147,7031.956449
1112.521587,4219.173869,6588.421283,7402.059420
1112.521913,4885.359217,9269.755526,7031.956449
1112.522238,3034.844362,8273.831378,5329.482782
1112.522564,1554.432478,4213.525239,6069.688724
1112.522890,-888.247130,0.000000,7179.997637
1112.523216,-4219.173869,-2068.457845,8068.244768
1112.523541,-4885.359217,-3064.381992,10658.965565
1112.523867,-3330.926739,-3983.696590,15248.242405
1112.524193,-3108.864956,-4596.572988,15914.427753
1112.524519,-3552.988522,-4673.182538,12731.542202
1112.524844,-2516.700203,-3524.039291,9474.636058
1112.525170,888.247130,-1302.362347,7402.059420
1112.525496,4071.132681,3677.258390,7105.977043
1112.525822,4737.318029,8273.831378,6513.812290
1112.526147,4515.256246,8810.098227,4811.338623
1112.526473,4145.153275,5745.716235,4663.297435
1112.526799,1998.556043,2374.896044,5921.647536
1112.527125,-1258.350101,919.314598,6069.688724
1112.527450,-3256.906145,-766.095498,8660.409521
1112.527776,-2590.720797,-2757.943793,13471.748144
1112.528102,-1554.432478,-4213.525239,16802.674883
1112.528428,-2590.720797,-4290.134789,15766.386565
1112.528753,-3034.844362,-3140.991542,12287.418637
1112.529079,-370.102971,-1072.533697,9178.553681
1112.529405,3552.988522,76.609550,7698.141797
1112.529731,4811.338623,5439.278036,7920.203579
1112.530056,5773.606348,9269.755526,7105.977043
1112.530382,5033.400406,8197.221829,6069.688724
1112.530708,3034.844362,4519.963438,5477.523971
1112.531034,370.102971,1608.800546,6735.874072
1112.531359,-2368.659014,0.000000,8068.244768
1112.531685,-4071.132681,-1991.848295,9992.780217
1112.532011,-4219.173869,-4596.572988,14137.933492
1112.532337,-3923.091493,-6205.373534,16136.489536
1112.532662,-4589.276840,-4443.353888,13693.809927
1112.532988,-3849.070898,-2681.334243,10881.027347
1112.533314,-1110.308913,-2068.457845,8512.368333
1112.533640,1776.494261,1991.848295,6809.894666
1112.533965,3182.885551,6435.202183,5773.606348
1112.534291,4737.318029,7814.174080,4663.297435
1112.534617,3256.906145,6894.859482,4145.153275
1112.534943,1258.350101,3217.601092,5403.503377
1112.535268,-592.164754,995.924147,7105.977043
1112.535594,-2294.638420,-919.314598,8438.347739
1112.535920,-2664.741391,-3140.991542,11621.233289
1112.536246,-2368.659014,-4443.353888,14730.098246
1112.536571,-2738.761985,-4136.915689,14878.139434
1112.536897,-2442.679609,-3677.258390,12435.459826
1112.537223,-444.123565,-3447.429741,11103.089130
1112.537549,1332.370696,-1838.629195,9104.533087
1112.537874,3256.906145,3600.648841,7476.080014
1112.538200,4441.235652,7277.907231,7402.059420
1112.538526,5107.421000,7201.297681,6513.812290
1112.538852,3256.906145,4903.011187,6513.812290
1112.539177,1332.370696,2374.896044,7105.977043
1112.539503,-1258.350101,459.657299,7254.018232
1112.539829,-2368.659014,-1762.019645,9400.615463
1112.540155,-2072.576638,-3140.991542,13619.789333
1112.540480,-1998.556043,-3447.429741,15322.262999
1112.540806,-3330.926739,-2757.943793,13619.789333
1112.541132,-2368.659014,-3217.601092,11325.150913
1112.541458,-296.082377,-2451.505594,10362.883188
1112.541783,1480.411884,459.657299,7772.162391
1112.542109,3034.844362,5439.278036,6439.791695
1112.542435,4441.235652,7890.783629,5625.565159
1112.542761,3849.070898,6971.469032,5181.441594
1112.543087,2442.679609,4749.792088,5625.565159
1112.543412,74.020594,2834.553343,6365.771101
1112.543738,-2368.659014,612.876398,7328.038826
1112.544064,-3108.864956,-2298.286494,9770.718434
1112.544390,-2664.741391,-3600.648841,13397.727550
1112.544716,-3552.988522,-2987.772442,14582.057057
1112.545042,-3849.070898,-2604.724693,12139.377449
1112.545368,-1998.556043,-3217.601092,12139.377449
1112.545693,-296.082377,-1991.848295,9474.636058
1112.546019,888.247130,1915.238745,6587.832884
1112.546345,3627.009116,6741.640382,6291.750507
1112.546671,4737.318029,7431.126331,6587.832884
1112.546997,3034.844362,6281.983084,5699.585753
1112.547323,1110.308913,3907.087040,6069.688724
1112.547649,-1850.514855,1991.848295,6735.874072
1112.547975,-3552.988522,-1072.533697,7698.141797
1112.548300,-3404.947333,-3140.991542,12509.480420
1112.548626,-3182.885551,-3983.696590,15396.283594
1112.548952,-5107.421000,-3677.258390,14508.036463
1112.549278,-4663.297435,-3907.087040,12287.418637
1112.549604,-2072.576638,-4443.353888,10584.944971
1112.549930,-444.123565,-1302.362347,8068.244768
1112.550256,888.247130,3677.258390,6661.853478
1112.550582,4367.215058,7277.907231,7402.059420
1112.550907,5329.482782,6971.469032,6217.729913
1112.551233,3330.926739,4213.525239,5847.626942
1112.551559,1628.453072,2374.896044,6735.874072
1112.551885,-444.123565,612.876398,7402.059420
1112.552211,-666.185348,-1072.533697,10658.965565
1112.552537,0.000000,-4213.525239,13841.851115
1112.552863,-888.247130,-3907.087040,15766.386565
1112.553189,-2220.617826,-3217.601092,14211.954086
1112.553514,-370.102971,-3064.381992,11991.336260
1112.553840,1110.308913,-2451.505594,9696.697840
1112.554166,1850.514855,383.047749,6291.750507
1112.554492,3552.988522,4826.401637,5699.585753
1112.554818,5107.421000,7507.735880,4737.318029
1112.555144,3256.906145,6665.030833,4885.359217
1112.555470,518.144159,3600.648841,6069.688724
1112.555796,-1850.514855,1225.752797,6513.812290
1112.556121,-3701.029710,-1302.362347,7402.059420
1112.556447,-3997.112087,-4136.915689,9918.759623
1112.556773,-4589.276840,-4290.134789,14211.954086
1112.557099,-5033.400406,-3753.867940,14508.036463
1112.557425,-3552.988522,-3677.258390,13397.727550
1112.557751,-296.082377,-3447.429741,11103.089130
1112.558077,518.144159,-919.314598,9326.594869
1112.558403,2220.617826,3907.087040,6661.853478
1112.558728,5255.462188,8197.221829,6143.709319
1112.559054,6291.750507,8273.831378,6587.832884
1112.559380,3182.885551,5745.716235,7105.977043
1112.559706,1480.411884,3753.867940,6883.915261
1112.560032,0.000000,2068.457845,7550.100608
1112.560358,-2294.638420,-1149.143247,9918.759623
1112.560684,-3108.864956,-3983.696590,13397.727550
1112.561010,-3849.070898,-2987.772442,15248.242405
1112.561335,-2886.803174,-2911.162892,14211.954086
1112.561661,-2738.761985,-2451.505594,12139.377449
1112.561987,-2368.659014,-2221.676944,10140.821405
1112.562313,-370.102971,-383.047749,6365.771101
1112.562639,2294.638420,4519.963438,5107.421000
1112.562965,3552.988522,6665.030833,5921.647536
1112.563291,3182.885551,6435.202183,5625.565159
1112.563617,1702.473667,5669.106685,5921.647536
1112.563942,444.123565,2451.505594,6883.915261
1112.564268,-1702.473667,-995.924147,7772.162391
1112.564594,-2960.823768,-3370.820191,9252.574275
1112.564920,-2072.576638,-3447.429741,12879.583391
1112.565246,-2368.659014,-2604.724693,14211.954086
1112.565572,-740.205942,-2681.334243,13397.727550
1112.565898,0.000000,-2757.943793,12287.418637
1112.566224,1036.288319,-1225.752797,8216.285956
1112.566549,2960.823768,2374.896044,6291.750507
1112.566875,5847.626942,6205.373534,7328.038826
1112.567201,6217.729913,8273.831378,7846.182985
1112.567527,5033.400406,7201.297681,6661.853478
1112.567853,3256.906145,4519.963438,6513.812290
1112.568179,-592.164754,919.314598,7179.997637
1112.568505,-3034.844362,-1685.410096,8734.430116
1112.568831,-3627.009116,-3677.258390,11843.295072
1112.569156,-4737.318029,-4903.011187,15322.262999
1112.569482,-5625.565159,-5669.106685,14952.160028
1112.569808,-4219.173869,-4673.182538,13767.830521
1112.570134,-2220.617826,-3447.429741,10732.986159
1112.570460,-1628.453072,-1532.190996,6513.812290
1112.570786,1110.308913,2068.457845,5551.544565
1112.571112,4145.153275,6588.421283,6883.915261
1112.571438,4515.256246,9116.536426,7105.977043
1112.571763,2812.782580,7048.078582,5625.565159
1112.572089,666.185348,2298.286494,5477.523971
1112.572415,-888.247130,-1762.019645,6661.853478
1112.572741,-2886.803174,-1838.629195,9918.759623
1112.573067,-3627.009116,-2298.286494,13989.892304
1112.573393,-3701.029710,-3830.477490,15248.242405
1112.573719,-2960.823768,-5132.839837,14211.954086
1112.574045,-1702.473667,-4673.182538,12139.377449
1112.574370,-962.267725,-995.924147,8734.430116
1112.574696,1924.535449,1608.800546,6513.812290
1112.575022,4441.235652,4826.401637,7402.059420
1112.575348,4811.338623,7277.907231,5773.606348
1112.575674,3330.926739,7660.954980,5625.565159
1112.576000,1258.350101,4979.620737,5181.441594
1112.576326,-518.144159,1455.581446,6513.812290
1112.576652,-2664.741391,-1532.190996,8734.430116
1112.576977,-3627.009116,-3294.210641,11399.171507
1112.577303,-3923.091493,-3524.039291,14137.933492
1112.577629,-3404.947333,-3753.867940,14656.077652
1112.577955,-2812.782580,-4596.572988,12879.583391
1112.578281,-2368.659014,-3064.381992,11029.068536
1112.578607,222.061783,-383.047749,8586.388927
1112.578933,3552.988522,3140.991542,7402.059420
1112.579258,5625.565159,6128.763984,7031.956449
1112.579584,5477.523971,6665.030833,7105.977043
1112.579910,3330.926739,7201.297681,5699.585753
1112.580236,1554.432478,3600.648841,6735.874072
1112.580562,592.164754,-229.828649,7550.100608
1112.580888,-1110.308913,-2604.724693,9474.636058
1112.581214,-2812.782580,-2145.067394,12953.603985
1112.581540,-2368.659014,-2451.505594,15322.262999
1112.581865,-1924.535449,-3907.087040,13323.706956
1112.582191,-1924.535449,-4979.620737,11547.212695
1112.582517,-1554.432478,-2757.943793,9770.718434
1112.582843,1036.288319,1455.581446,7254.018232
1112.583169,3701.029710,5515.887586,7254.018232
1112.583495,4441.235652,6281.983084,7698.141797
1112.583821,2146.597232,6205.373534,6291.750507
1112.584147,1480.411884,3907.087040,4811.338623
1112.584472,74.020594,1838.629195,6365.771101
1112.584798,-2220.617826,-383.047749,8586.388927
1112.585124,-3552.988522,-2374.896044,10658.965565
1112.585450,-3182.885551,-3064.381992,13471.748144
1112.585776,-3034.844362,-3907.087040,14211.954086
1112.586102,-3182.885551,-4136.915689,12139.377449
1112.586428,-1776.494261,-2528.115143,9400.615463
1112.586754,592.164754,0.000000,7624.121203
1112.587079,2590.720797,2911.162892,6735.874072
1112.587405,4811.338623,6128.763984,6587.832884
1112.587731,5033.400406,8044.002729,7550.100608
1112.588057,3108.864956,6971.469032,6291.750507
1112.588383,1776.494261,3600.648841,7105.977043
1112.588709,-296.082377,383.047749,7772.162391
1112.589035,-3034.844362,-2604.724693,9770.718434
1112.589361,-4293.194464,-4136.915689,11991.336260
1112.589686,-3330.926739,-3600.648841,14508.036463
1112.590012,-3108.864956,-4519.963438,14359.995275
1112.590338,-3108.864956,-4136.915689,12583.501014
1112.590664,-1628.453072,-1149.143247,10214.842000
1112.590990,2220.617826,1225.752797,8364.327145
1112.591316,4663.297435,4366.744339,7179.997637
1112.591642,5625.565159,6818.249932,6291.750507
1112.591968,5107.421000,7660.954980,5181.441594
1112.592293,4367.215058,6205.373534,5033.400406
1112.592619,2294.638420,3524.039291,7179.997637
1112.592945,-518.144159,229.828649,8586.388927
1112.593271,-3256.906145,-2834.553343,9548.656652
1112.593597,-3701.029710,-4060.306139,12361.439231
1112.593923,-3034.844362,-4749.792088,14359.995275
1112.594249,-3775.050304,-4443.353888,12805.562797
1112.594575,-4145.153275,-3140.991542,11547.212695
1112.594900,-1850.514855,-1455.581446,9622.677246
1112.595226,1258.350101,919.314598,7402.059420
1112.595552,3775.050304,4213.525239,6365.771101
1112.595878,4293.194464,7737.564530,5921.647536
1112.596204,3849.070898,8350.440928,4737.318029
1112.596530,2516.700203,4979.620737,5699.585753
1112.596856,74.020594,1455.581446,7846.182985
1112.597182,-3108.864956,-1685.410096,9178.553681
1112.597507,-5329.482782,-3447.429741,10584.944971
1112.597833,-4219.173869,-5286.058936,13471.748144
1112.598159,-3775.050304,-4903.011187,15618.345376
1112.598485,-3552.988522,-3447.429741,13693.809927
1112.598811,-2960.823768,-1225.752797,11843.295072
1112.599137,0.000000,-689.485948,9622.677246
1112.599463,2812.782580,1838.629195,6883.915261
1112.599789,4219.173869,6052.154434,5699.585753
1112.600114,4293.194464,8733.488677,5551.544565
1112.600440,3330.926739,7660.954980,5699.585753
1112.600766,2146.597232,3907.087040,7624.121203
1112.601092,-518.144159,-919.314598,8142.265362
1112.601418,-4145.153275,-2681.334243,8660.409521
1112.601744,-4663.297435,-3677.258390,10658.965565
1112.602070,-3182.885551,-4290.134789,14878.139434
1112.602396,-3256.906145,-4903.011187,15322.262999
1112.602721,-2664.741391,-3677.258390,12139.377449
1112.603047,-1036.288319,-2221.676944,10066.800811
1112.603373,2146.597232,612.876398,6217.729913
1112.603699,4589.276840,4519.963438,5773.606348
1112.604025,6217.729913,8580.269578,6661.853478
1112.604351,5625.565159,9346.365076,6661.853478
1112.604677,4367.215058,5975.544884,6217.729913
1112.605003,2516.700203,842.705048,7328.038826
1112.605328,-1850.514855,-995.924147,7179.997637
1112.605654,-4737.318029,-2451.505594,9252.574275
1112.605980,-3627.009116,-3524.039291,14211.954086
1112.606306,-1258.350101,-4673.182538,16950.716072
1112.606632,-3034.844362,-3830.477490,15026.180623
1112.606958,-2812.782580,-2987.772442,10510.924376
1112.607284,-444.123565,-1225.752797,7846.182985
1112.607610,2738.761985,1685.410096,7031.956449
1112.607935,3997.112087,6894.859482,6883.915261
1112.608261,4737.318029,9959.241474,6217.729913
1112.608587,4441.235652,8273.831378,5329.482782
1112.608913,2590.720797,3907.087040,6587.832884
1112.609239,-592.164754,536.266849,7624.121203
1112.609565,-4811.338623,-612.876398,8438.347739
1112.609891,-4811.338623,-3064.381992,11177.109724
1112.610217,-2442.679609,-5515.887586,15396.283594
1112.610542,-3997.112087,-5056.230287,15914.427753
1112.610868,-4663.297435,-4060.306139,13027.624579
1112.611194,-2812.782580,-1838.629195,11103.089130
1112.611520,592.164754,-919.314598,8586.388927
1112.611846,3256.906145,2604.724693,7031.956449
1112.612172,5329.482782,7814.174080,6809.894666
1112.612498,5625.565159,10112.460574,5551.544565
1112.612823,4441.235652,7507.735880,4737.318029
1112.613149,2220.617826,2987.772442,5773.606348
1112.613475,-1776.494261,306.438199,6661.853478
1112.613801,-3849.070898,-2068.457845,8142.265362
1112.614127,-2960.823768,-3983.696590,12139.377449
1112.614453,-2812.782580,-4979.620737,16728.654289
1112.614779,-4737.318029,-5745.716235,14508.036463
1112.615105,-4441.235652,-3983.696590,11029.068536
1112.615430,-1480.411884,-3600.648841,9252.574275
1112.615756,1554.432478,-1378.971896,7846.182985
1112.616082,3997.112087,4903.011187,7402.059420
1112.616408,5477.523971,10035.851024,7179.997637
1112.616734,5773.606348,8810.098227,4959.379811
1112.617060,4885.359217,4443.353888,5329.482782
1112.617386,1628.453072,1149.143247,6439.791695
1112.617712,-2220.617826,-306.438199,6883.915261
1112.618037,-2664.741391,-1915.238745,9918.759623
1112.618363,-1998.556043,-4060.306139,15766.386565
1112.618689,-3552.988522,-5745.716235,16432.571912
1112.619015,-3997.112087,-5286.058936,13323.706956
1112.619341,-2072.576638,-4213.525239,11029.068536
1112.619667,0.000000,-2145.067394,10140.821405
1112.619993,2368.659014,2528.115143,8364.327145
1112.620319,5255.462188,7660.954980,7254.018232
1112.620644,6291.750507,8580.269578,5477.523971
1112.620970,4071.132681,6894.859482,4293.194464
1112.621296,2368.659014,4366.744339,5107.421000
1112.621622,-370.102971,2987.772442,7031.956449
1112.621948,-3256.906145,0.000000,8438.347739
1112.622274,-3552.988522,-4519.963438,11621.233289
1112.622600,-4071.132681,-6511.811733,14730.098246
1112.622926,-5403.503377,-5209.449386,14211.954086
1112.623251,-4737.318029,-3677.258390,12509.480420
1112.623577,-1998.556043,-2834.553343,11547.212695
1112.623903,592.164754,-1685.410096,8586.388927
1112.624229,2738.761985,3600.648841,6809.894666
1112.624555,4293.194464,9193.145976,6069.688724
1112.624881,4737.318029,9346.365076,4589.276840
1112.625207,2960.823768,5515.887586,4515.256246
1112.625533,888.247130,2911.162892,6661.853478
1112.625858,-3108.864956,1072.533697,6957.935855
1112.626184,-5403.503377,-2374.896044,8512.368333
1112.626510,-4885.359217,-5592.497135,13545.768739
1112.626836,-5773.606348,-6205.373534,16580.613101
1112.627162,-5995.668130,-4903.011187,14211.954086
1112.627488,-3182.885551,-3600.648841,12139.377449
1112.627814,148.041188,-2911.162892,10732.986159
1112.628140,2146.597232,536.266849,7846.182985
1112.628465,4737.318029,6818.249932,5921.647536
1112.628791,7550.100608,10418.898773,5477.523971
1112.629117,7105.977043,9652.803275,5255.462188
1112.629443,4885.359217,5592.497135,5625.565159
1112.629769,1924.535449,2757.943793,6661.853478
1112.630095,-962.267725,766.095498,8142.265362
1112.630421,-2738.761985,-2451.505594,11103.089130
1112.630747,-2590.720797,-5362.668486,14878.139434
1112.631072,-3775.050304,-5669.106685,15100.201217
1112.631398,-2886.803174,-5132.839837,13101.645173
1112.631724,-1554.432478,-3677.258390,12657.521608
1112.632050,518.144159,-1302.362347,10214.842000
1112.632376,3330.926739,3064.381992,7698.141797
1112.632702,5773.606348,7584.345430,6069.688724
1112.633028,5255.462188,8580.269578,4293.194464
1112.633354,4515.256246,5975.544884,3849.070898
1112.633679,1406.391290,4749.792088,5551.544565
1112.634005,-1776.494261,1838.629195,7179.997637
1112.634331,-4293.194464,-2068.457845,8512.368333
1112.634657,-4071.132681,-4749.792088,11917.315666
1112.634983,-3404.947333,-5439.278036,14508.036463
1112.635309,-4441.235652,-4443.353888,14063.912898
1112.635635,-2516.700203,-4519.963438,12583.501014
1112.635961,-1036.288319,-2757.943793,11843.295072
1112.636286,1924.535449,-459.657299,9622.677246
1112.636612,3923.091493,4826.401637,7846.182985
1112.636938,5995.668130,7967.393179,6587.832884
1112.637264,6143.709319,8273.831378,4885.359217
1112.637590,4219.173869,6435.202183,5329.482782
1112.637916,1184.329507,4366.744339,6661.853478
1112.638242,-2442.679609,1302.362347,7105.977043
1112.638568,-3552.988522,-3677.258390,7920.203579
1112.638893,-5107.421000,-5286.058936,12509.480420
1112.639219,-5107.421000,-4443.353888,15470.304188
1112.639545,-4811.338623,-3677.258390,14952.160028
1112.639871,-3552.988522,-4366.744339,12657.521608
1112.640197,-1480.411884,-3447.429741,10807.006753
1112.640523,962.267725,0.000000,6957.935855
1112.640849,4367.215058,6128.763984,5033.400406
1112.641175,6365.771101,9193.145976,6069.688724
1112.641500,5625.565159,7967.393179,5625.565159
1112.641826,3330.926739,6358.592633,5033.400406
1112.642152,1036.288319,3140.991542,5995.668130
1112.642478,-1480.411884,-689.485948,7920.203579
1112.642804,-2368.659014,-2834.553343,10881.027347
1112.643130,-2738.761985,-3830.477490,14508.036463
1112.643456,-3627.009116,-4903.011187,15618.345376
1112.643781,-3108.864956,-6281.983084,13915.871710
1112.644107,-1406.391290,-4443.353888,12435.459826
1112.644433,592.164754,-1455.581446,10584.944971
1112.644759,2368.659014,3524.039291,7402.059420
1112.645085,5107.421000,7048.078582,6439.791695
1112.645411,6365.771101,7201.297681,5921.647536
1112.645737,3849.070898,6281.983084,4219.173869
1112.646063,814.226536,4060.306139,4811.338623
1112.646388,-1110.308913,1455.581446,6069.688724
1112.646714,-3108.864956,-689.485948,9178.553681
1112.647040,-4663.297435,-4136.915689,11547.212695
1112.647366,-4071.132681,-5209.449386,14730.098246
1112.647692,-3701.029710,-5209.449386,14508.036463
1112.648018,-2960.823768,-4213.525239,13767.830521
1112.648344,-1480.411884,-1991.848295,12435.459826
1112.648669,1702.473667,153.219100,8956.491898
1112.648995,4071.132681,4213.525239,7550.100608
1112.649321,5477.523971,7507.735880,7105.977043
1112.649647,4219.173869,8044.002729,4737.318029
1112.649973,1998.556043,6971.469032,4293.194464
1112.650299,370.102971,3830.477490,6439.791695
1112.650625,-2516.700203,0.000000,6661.853478
1112.650951,-5329.482782,-2221.676944,7550.100608
1112.651276,-6365.771101,-4290.134789,11547.212695
1112.651602,-5921.647536,-5209.449386,15248.242405
1112.651928,-6069.688724,-4749.792088,14285.974681
1112.652254,-3256.906145,-4903.011187,12731.542202
1112.652580,-666.185348,-2604.724693,11029.068536
1112.652906,1776.494261,1378.971896,8364.327145
1112.653232,5181.441594,5898.935335,7402.059420
1112.653557,6587.832884,8503.660028,7179.997637
1112.653883,4737.318029,7048.078582,5477.523971
1112.654209,3108.864956,5056.230287,5403.503377
1112.654535,1924.535449,2451.505594,5921.647536
1112.654861,-1110.308913,0.000000,8068.244768
1112.655187,-3330.926739,-2528.115143,10288.862594
1112.655513,-3627.009116,-4290.134789,13101.645173
1112.655839,-3034.844362,-5362.668486,14508.036463
1112.656164,-3552.988522,-4290.134789,13397.727550
1112.656490,-2072.576638,-2068.457845,12805.562797
1112.656816,518.144159,-995.924147,9178.553681
1112.657142,3404.947333,1762.019645,6291.750507
1112.657468,5773.606348,5898.935335,7105.977043
1112.657794,5625.565159,9346.365076,6217.729913
1112.658120,3478.967927,8810.098227,4293.194464
1112.658445,2072.576638,4366.744339,5625.565159
1112.658771,222.061783,-1532.190996,7179.997637
1112.659097,-3478.967927,-2068.457845,7920.203579
1112.659423,-4367.215058,-2145.067394,11325.150913
1112.659749,-3552.988522,-4060.306139,15470.304188
1112.660075,-3701.029710,-5056.230287,15396.283594
1112.660401,-2516.700203,-4290.134789,14285.974681
1112.660727,-666.185348,-1762.019645,11843.295072
1112.661052,2220.617826,1149.143247,7772.162391
1112.661378,4959.379811,4443.353888,7402.059420
1112.661704,6439.791695,7354.516781,8364.327145
1112.662030,4737.318029,8886.707777,6069.688724
1112.662356,3330.926739,6358.592633,5329.482782
1112.662682,1406.391290,1838.629195,5847.626942
1112.663008,-2516.700203,-1072.533697,6069.688724
1112.663333,-4589.276840,-1685.410096,7994.224174
1112.663659,-3775.050304,-2451.505594,13471.748144
1112.663985,-4515.256246,-3830.477490,15322.262999
1112.664311,-5699.585753,-5515.887586,13249.686362
1112.664637,-3923.091493,-5056.230287,10881.027347
1112.664963,-2072.576638,-1762.019645,8512.368333
1112.665289,518.144159,1378.971896,6809.894666
1112.665615,3849.070898,5132.839837,7920.203579
1112.665940,4219.173869,7277.907231,6439.791695
1112.666266,2812.782580,6358.592633,4663.297435
1112.666592,2368.659014,3983.696590,5329.482782
1112.666918,888.247130,1455.581446,6957.935855
1112.667244,-1998.556043,-536.266849,7846.182985
1112.667570,-2516.700203,-2145.067394,11177.109724
1112.667896,-962.267725,-3600.648841,15026.180623
1112.668221,-1406.391290,-4596.572988,15840.407159
1112.668547,-1480.411884,-3677.258390,14137.933492
1112.668873,0.000000,-1991.848295,11991.336260
1112.669199,2590.720797,-459.657299,9844.739029
1112.669525,5255.462188,2604.724693,8586.388927
1112.669851,5773.606348,6818.249932,8512.368333
1112.670177,3923.091493,8273.831378,6365.771101
1112.670503,2590.720797,6128.763984,4959.379811
1112.670828,1480.411884,1838.629195,5255.462188
1112.671154,-1924.535449,-919.314598,5847.626942
1112.671480,-4737.318029,-1302.362347,7328.038826
1112.671806,-4663.297435,-2451.505594,11991.336260
1112.672132,-4145.153275,-4749.792088,14285.974681
1112.672458,-4515.256246,-5745.716235,12583.501014
1112.672784,-3997.112087,-4290.134789,11769.274478
1112.673109,-1702.473667,-1225.752797,9548.656652
1112.673435,1258.350101,1072.533697,7624.121203
1112.673761,4441.235652,3753.867940,8882.471304
1112.674087,4071.132681,7048.078582,8068.244768
1112.674413,2960.823768,7354.516781,5699.585753
1112.674739,2590.720797,5209.449386,5847.626942
1112.675065,888.247130,1225.752797,7550.100608
1112.675391,-2664.741391,-1378.971896,6809.894666
1112.675716,-3701.029710,-1915.238745,9252.574275
1112.676042,-2738.761985,-2757.943793,13397.727550
1112.676368,-2960.823768,-3217.601092,14878.139434
1112.676694,-2960.823768,-2221.676944,13027.624579
1112.677020,-1628.453072,-2374.896044,11769.274478
1112.677346,-222.061783,-1225.752797,8660.409521
1112.677672,2294.638420,1302.362347,7698.141797
1112.677997,3849.070898,6052.154434,8734.430116
1112.678323,3478.967927,8197.221829,6587.832884
1112.678649,2220.617826,6435.202183,5033.400406
1112.678975,1554.432478,2145.067394,5847.626942
1112.679301,-1332.370696,-766.095498,6883.915261
1112.679627,-3256.906145,-1149.143247,7105.977043
1112.679953,-2738.761985,-1762.019645,11991.336260
1112.680279,-2590.720797,-2757.943793,14508.036463
1112.680604,-2590.720797,-3830.477490,14137.933492
1112.680930,-1332.370696,-3064.381992,12731.542202
1112.681256,-148.041188,-2221.676944,10436.903782
1112.681582,2294.638420,0.000000,8364.327145
1112.681908,5255.462188,3217.601092,8142.265362
1112.682234,6365.771101,7354.516781,7994.224174
1112.682560,4441.235652,7354.516781,6291.750507
1112.682885,3108.864956,5056.230287,5921.647536
1112.683211,1258.350101,2145.067394,7105.977043
1112.683537,-1702.473667,-383.047749,6365.771101
1112.683863,-2738.761985,-1915.238745,7846.182985
1112.684189,-1850.514855,-3140.991542,12065.356855
1112.684515,-2664.741391,-3600.648841,14730.098246
1112.684841,-3034.844362,-3447.429741,13989.892304
1112.685167,-2442.679609,-2681.334243,11621.233289
1112.685492,-444.123565,-2451.505594,9030.512492
1112.685818,2442.679609,536.266849,7402.059420
1112.686144,4219.173869,5515.887586,7328.038826
1112.686470,3997.112087,8656.879127,7254.018232
1112.686796,3034.844362,6741.640382,5699.585753
1112.687122,2220.617826,2681.334243,6069.688724
1112.687448,-1554.432478,306.438199,6587.832884
1112.687773,-4367.215058,-459.657299,6809.894666
1112.688099,-4071.132681,-1991.848295,10807.006753
1112.688425,-3701.029710,-4060.306139,14285.974681
1112.688751,-4515.256246,-4903.011187,14582.057057
1112.689077,-4145.153275,-3983.696590,13397.727550
1112.689403,-1998.556043,-2451.505594,10732.986159
1112.689729,444.123565,-383.047749,9252.574275
1112.690055,2590.720797,2451.505594,7772.162391
1112.690380,3997.112087,6435.202183,7994.224174
1112.690706,4737.318029,8044.002729,6513.812290
1112.691032,3849.070898,5515.887586,5625.565159
1112.691358,1332.370696,2221.676944,5995.668130
1112.691684,-1554.432478,76.609550,6439.791695
1112.692010,-3034.844362,-919.314598,8586.388927
1112.692336,-2590.720797,-2681.334243,11917.315666
1112.692661,-2960.823768,-4826.401637,14508.036463
1112.692987,-3478.967927,-4596.572988,14582.057057
1112.693313,-2220.617826,-2451.505594,12139.377449
1112.693639,222.061783,-1149.143247,10066.800811
1112.693965,2664.741391,0.000000,8290.306550
1112.694291,3552.988522,4136.915689,7105.977043
1112.694617,4515.256246,8580.269578,6365.771101
1112.694943,4811.338623,7890.783629,5625.565159
1112.695268,3552.988522,4903.011187,5625.565159
1112.695594,666.185348,2068.457845,5995.668130
1112.695920,-2072.576638,0.000000,6291.750507
1112.696246,-2516.700203,-1915.238745,9400.615463
1112.696572,-2146.597232,-3983.696590,13027.624579
1112.696898,-3256.906145,-3524.039291,16580.613101
1112.697224,-3108.864956,-2451.505594,14508.036463
1112.697549,-1554.432478,-1991.848295,11547.212695
1112.697875,518.144159,-2451.505594,10066.800811
1112.698201,2294.638420,76.609550,8068.244768
1112.698527,2812.782580,6511.811733,6957.935855
1112.698853,4367.215058,8886.707777,5995.668130
1112.699179,3849.070898,6588.421283,5699.585753
1112.699505,666.185348,3370.820191,5995.668130
1112.699831,-2590.720797,995.924147,5773.606348
1112.700156,-3404.947333,-995.924147,6809.894666
1112.700482,-4737.318029,-2757.943793,11917.315666
1112.700808,-3997.112087,-4673.182538,15174.221811
1112.701134,-2960.823768,-4443.353888,14878.139434
1112.701460,-2590.720797,-3140.991542,12213.398043
1112.701786,-1924.535449,-2911.162892,11177.109724
1112.702112,148.041188,0.000000,8956.491898
1112.702437,2516.700203,3217.601092,7994.224174
1112.702763,3404.947333,6281.983084,7402.059420
1112.703089,3256.906145,6281.983084,5329.482782
1112.703415,1184.329507,4903.011187,5255.462188
1112.703741,-1036.288319,2757.943793,6069.688724
1112.704067,-3478.967927,-766.095498,6069.688724
1112.704393,-4219.173869,-3524.039291,7920.203579
1112.704719,-3404.947333,-4903.011187,13027.624579
1112.705044,-2886.803174,-3064.381992,15914.427753
1112.705370,-2516.700203,-2068.457845,14063.912898
1112.705696,0.000000,-3370.820191,11917.315666
1112.706022,1776.494261,-3370.820191,10584.944971
1112.706348,3923.091493,1072.533697,8290.306550
1112.706674,5625.565159,7048.078582,7179.997637
1112.707000,7402.059420,8810.098227,6957.935855
1112.707325,6439.791695,5822.325785,6513.812290
1112.707651,3108.864956,3600.648841,5847.626942
1112.707977,592.164754,2221.676944,5477.523971
1112.708303,-1850.514855,76.609550,6883.915261
1112.708629,-2886.803174,-2911.162892,10807.006753
1112.708955,-2886.803174,-4213.525239,14878.139434
1112.709281,-3997.112087,-4136.915689,15248.242405
1112.709607,-3997.112087,-4673.182538,12139.377449
1112.709932,-2590.720797,-4213.525239,11399.171507
1112.710258,-592.164754,-2298.286494,9992.780217
1112.710584,1924.535449,2528.115143,8438.347739
1112.710910,4737.318029,6971.469032,7328.038826
1112.711236,5477.523971,7048.078582,6291.750507
1112.711562,3627.009116,6128.763984,5995.668130
1112.711888,1924.535449,4903.011187,4515.256246
1112.712213,-296.082377,3294.210641,6661.853478
1112.712539,-1702.473667,-919.314598,7624.121203
1112.712865,-2664.741391,-3064.381992,11473.192101
1112.713191,-2886.803174,-3217.601092,14211.954086
1112.713517,-4071.132681,-2374.896044,14211.954086
1112.713843,-3108.864956,-2987.772442,12953.603985
1112.714169,-222.061783,-3370.820191,12287.418637
1112.714495,444.123565,-1225.752797,8734.430116
1112.714820,1554.432478,4136.915689,6587.832884
1112.715146,3997.112087,7584.345430,7105.977043
1112.715472,4515.256246,7048.078582,5773.606348
1112.715798,962.267725,6128.763984,4811.338623
1112.716124,-444.123565,2834.553343,5403.503377
1112.716450,-2442.679609,995.924147,6365.771101
1112.716776,-4367.215058,-2221.676944,8142.265362
1112.717101,-4737.318029,-4519.963438,13175.665768
1112.717427,-4663.297435,-4519.963438,15100.201217
1112.717753,-3552.988522,-3294.210641,13915.871710
1112.718079,-1776.494261,-3217.601092,13841.851115
1112.718405,444.123565,-2987.772442,10807.006753
1112.718731,2294.638420,1149.143247,7328.038826
1112.719057,5181.441594,6588.421283,7994.224174
1112.719383,7328.038826,8963.317327,7402.059420
1112.719708,5773.606348,7814.174080,4885.359217
1112.720034,3108.864956,4903.011187,4885.359217
1112.720360,814.226536,2221.676944,5921.647536
1112.720686,-1628.453072,-689.485948,7254.018232
1112.721012,-2812.782580,-2451.505594,10881.027347
1112.721338,-3478.967927,-3907.087040,15026.180623
1112.721664,-4145.153275,-4136.915689,14730.098246
1112.721989,-2738.761985,-4213.525239,12583.501014
1112.722315,-1554.432478,-4060.306139,11843.295072
1112.722641,-148.041188,-1608.800546,8882.471304
1112.722967,1332.370696,3907.087040,6217.729913
1112.723293,4737.318029,6894.859482,6439.791695
1112.723619,4367.215058,6052.154434,5329.482782
1112.723945,1406.391290,5209.449386,4737.318029
1112.724271,0.000000,4213.525239,5551.544565
1112.724596,-1258.350101,995.924147,6217.729913
1112.724922,-3330.926739,-3140.991542,7550.100608
1112.725248,-3108.864956,-4826.401637,12213.398043
1112.725574,-3034.844362,-4213.525239,14878.139434
1112.725900,-2886.803174,-3140.991542,14211.954086
1112.726226,-1110.308913,-3140.991542,14211.954086
1112.726552,370.102971,-2757.943793,12435.459826
1112.726877,1480.411884,229.828649,8586.388927
1112.727203,4071.132681,4903.011187,7105.977043
1112.727529,5181.441594,6818.249932,7179.997637
1112.727855,3034.844362,6511.811733,6291.750507
1112.728181,1036.288319,4443.353888,5921.647536
1112.728507,-148.041188,1685.410096,7105.977043
1112.728833,-3256.906145,-995.924147,7920.203579
1112.729159,-5181.441594,-3677.258390,9474.636058
1112.729484,-4959.379811,-4443.353888,13619.789333
1112.729810,-3775.050304,-4826.401637,14582.057057
1112.730136,-3404.947333,-3907.087040,13767.830521
1112.730462,-1332.370696,-3294.210641,12065.356855
1112.730788,148.041188,-1685.410096,9400.615463
1112.731114,1924.535449,1991.848295,7624.121203
1112.731440,4959.379811,5362.668486,7402.059420
1112.731765,4885.359217,7048.078582,6439.791695
1112.732091,3775.050304,6128.763984,4589.276840
1112.732417,1776.494261,3677.258390,4811.338623
1112.732743,666.185348,1455.581446,6439.791695
1112.733069,-1628.453072,-612.876398,8216.285956
1112.733395,-2590.720797,-2451.505594,11251.130318
1112.733721,-2294.638420,-4136.915689,13767.830521
1112.734047,-2072.576638,-3524.039291,14137.933492
1112.734372,-592.164754,-2604.724693,12583.501014
1112.734698,0.000000,-459.657299,11991.336260
1112.735024,592.164754,536.266849,8438.347739
1112.735350,3330.926739,3064.381992,6439.791695
1112.735676,4737.318029,6205.373534,6735.874072
1112.736002,3108.864956,7277.907231,5107.421000
1112.736328,1110.308913,5822.325785,4589.276840
1112.736653,444.123565,3370.820191,6291.750507
1112.736979,-1480.411884,229.828649,8364.327145
1112.737305,-3256.906145,-1762.019645,9178.553681
1112.737631,-3330.926739,-2068.457845,12139.377449
1112.737957,-2590.720797,-2681.334243,14434.015869
1112.738283,-1554.432478,-2987.772442,14730.098246
1112.738609,-888.247130,-2528.115143,13693.809927
1112.738935,-444.123565,-1225.752797,10584.944971
1112.739260,740.205942,1302.362347,8290.306550
1112.739586,3404.947333,4596.572988,7624.121203
1112.739912,4071.132681,6818.249932,7328.038826
1112.740238,2220.617826,6588.421283,5847.626942
1112.740564,148.041188,4290.134789,5255.462188
1112.740890,-1184.329507,1072.533697,6143.709319
1112.741216,-2886.803174,-1149.143247,7105.977043
1112.741541,-4219.173869,-2451.505594,9474.636058
1112.741867,-3849.070898,-2145.067394,13175.665768
1112.742193,-2738.761985,-3370.820191,13693.809927
1112.742519,-1776.494261,-4060.306139,12805.562797
1112.742845,-1258.350101,-3370.820191,11547.212695
1112.743171,-370.102971,-1072.533697,8660.409521
1112.743497,2738.761985,1378.971896,7254.018232
1112.743823,5625.565159,4290.134789,9252.574275
1112.744148,5107.421000,5898.935335,7994.224174
1112.744474,3478.967927,5209.449386,6069.688724
1112.744800,2146.597232,2451.505594,6291.750507
1112.745126,148.041188,-1302.362347,7105.977043
1112.745452,-1406.391290,-1838.629195,8290.306550
1112.745778,-2368.659014,-2374.896044,11399.171507
1112.746104,-1776.494261,-2834.553343,13545.768739
1112.746430,-2368.659014,-3447.429741,14211.954086
1112.746756,-2146.597232,-3983.696590,12657.521608
1112.747081,-1258.350101,-2911.162892,11029.068536
1112.747407,370.102971,-689.485948,7994.224174
1112.747733,2368.659014,2451.505594,7698.141797
1112.748059,3627.009116,5132.839837,7105.977043
1112.748385,2812.782580,6281.983084,5995.668130
1112.748711,1406.391290,4903.011187,6883.915261
1112.749037,444.123565,2374.896044,6661.853478
1112.749363,-2072.576638,0.000000,6883.915261
1112.749689,-2812.782580,-1302.362347,8438.347739
1112.750015,-2368.659014,-1072.533697,11843.295072
1112.750341,-1110.308913,-1072.533697,14656.077652
1112.750667,-962.267725,-1915.238745,12879.583391
1112.750993,-2146.597232,-2145.067394,11621.233289
1112.751318,-592.164754,-1225.752797,9844.739029
1112.751644,1924.535449,2145.067394,7846.182985
1112.751970,3849.070898,5515.887586,7328.038826
1112.752296,3552.988522,6052.154434,7105.977043
1112.752622,2368.659014,5745.716235,5699.585753
1112.752948,1998.556043,5592.497135,6291.750507
1112.753274,-370.102971,2451.505594,7550.100608
1112.753600,-2886.803174,-995.924147,7920.203579
1112.753926,-4737.318029,-2221.676944,9770.718434
1112.754252,-3997.112087,-2604.724693,13101.645173
1112.754578,-3478.967927,-3600.648841,13767.830521
1112.754904,-4515.256246,-3447.429741,12509.480420
1112.755229,-3849.070898,-2757.943793,11029.068536
1112.755555,-1332.370696,-1072.533697,9178.553681
1112.755881,1110.308913,1532.190996,7772.162391
1112.756207,2072.576638,4749.792088,7994.224174
1112.756533,2664.741391,5515.887586,5403.503377
1112.756859,3108.864956,4903.011187,4663.297435
1112.757185,2886.803174,4519.963438,7105.977043
1112.757511,1036.288319,2604.724693,7105.977043
1112.757837,-2072.576638,612.876398,8586.388927
1112.758163,-1184.329507,-2911.162892,11399.171507
1112.758489,-888.247130,-4443.353888,14656.077652
1112.758815,-1036.288319,-3600.648841,14211.954086
1112.759141,-296.082377,-2451.505594,13249.686362
1112.759466,1110.308913,-2145.067394,11251.130318
1112.759792,2442.679609,-1225.752797,8660.409521
1112.760118,3552.988522,2528.115143,8068.244768
1112.760444,4737.318029,6358.592633,7179.997637
1112.760770,4293.194464,7048.078582,5847.626942
1112.761096,2960.823768,3907.087040,5625.565159
1112.761422,74.020594,1072.533697,7179.997637
1112.761748,-2294.638420,0.000000,7179.997637
1112.762074,-3701.029710,-1762.019645,9030.512492
1112.762400,-3034.844362,-3677.258390,12361.439231
1112.762726,-3034.844362,-4903.011187,14359.995275
1112.763052,-3478.967927,-3677.258390,13471.748144
1112.763377,-2368.659014,-2757.943793,11399.171507
1112.763703,-296.082377,-2451.505594,9474.636058
1112.764029,1628.453072,612.876398,7772.162391
1112.764355,3552.988522,5669.106685,7031.956449
1112.764681,5033.400406,8197.221829,5551.544565
1112.765007,3552.988522,6818.249932,5329.482782
1112.765333,1628.453072,3600.648841,5921.647536
1112.765659,0.000000,1762.019645,6883.915261
1112.765985,-1332.370696,995.924147,7772.162391
1112.766311,-2220.617826,-842.705048,11103.089130
1112.766637,-2368.659014,-1915.238745,13471.748144
1112.766963,-3108.864956,-2451.505594,13397.727550
1112.767289,-3923.091493,-2451.505594,12509.480420
1112.767614,-2590.720797,-1915.238745,11251.130318
1112.767940,-740.205942,-1072.533697,8734.430116
1112.768266,814.226536,1991.848295,7920.203579
1112.768592,1480.411884,5209.449386,8512.368333
1112.768918,1110.308913,5439.278036,7698.141797
1112.769244,518.144159,3524.039291,6883.915261
1112.769570,0.000000,1302.362347,7179.997637
1112.769896,-1628.453072,0.000000,7550.100608
1112.770222,-2220.617826,-459.657299,8142.265362
1112.770548,-1184.329507,-1532.190996,11843.295072
1112.770874,-222.061783,-3140.991542,15470.304188
1112.771200,-1184.329507,-1991.848295,13767.830521
1112.771525,-222.061783,-1532.190996,10362.883188
1112.771851,1702.473667,-1455.581446,8808.450710
1112.772177,2368.659014,612.876398,7476.080014
1112.772503,2812.782580,4826.401637,7105.977043
1112.772829,3997.112087,6971.469032,7328.038826
1112.773155,2960.823768,4290.134789,6365.771101
1112.773481,1110.308913,1915.238745,5921.647536
1112.773807,0.000000,1378.971896,7031.956449
1112.774133,-1776.494261,536.266849,8216.285956
1112.774459,-2294.638420,-1685.410096,9474.636058
1112.774785,-1702.473667,-3983.696590,13841.851115
1112.775111,-2368.659014,-4136.915689,13989.892304
1112.775437,-2220.617826,-2221.676944,10881.027347
1112.775762,-740.205942,-1225.752797,10510.924376
1112.776088,444.123565,-1532.190996,9770.718434
1112.776414,1554.432478,1455.581446,8216.285956
1112.776740,3404.947333,5132.839837,8364.327145
1112.777066,3775.050304,5975.544884,7772.162391
1112.777392,2072.576638,3907.087040,6735.874072
1112.777718,444.123565,1762.019645,7550.100608
1112.778044,-1184.329507,383.047749,8068.244768
1112.778370,-2664.741391,-919.314598,8512.368333
1112.778696,-2442.679609,-3064.381992,11621.233289
1112.779022,-2590.720797,-2987.772442,14730.098246
1112.779348,-3404.947333,-2145.067394,13101.645173
1112.779673,-2812.782580,-1685.410096,11325.150913
1112.779999,-592.164754,-2068.457845,10066.800811
1112.780325,148.041188,-536.266849,7476.080014
1112.780651,444.123565,2987.772442,5921.647536
1112.780977,2368.659014,6205.373534,6957.935855
1112.781303,2146.597232,5745.716235,6661.853478
1112.781629,888.247130,3064.381992,5995.668130
1112.781955,-666.185348,766.095498,6513.812290
1112.782281,-1998.556043,-689.485948,6291.750507
1112.782607,-2442.679609,-1225.752797,9992.780217
1112.782933,-1554.432478,-2145.067394,13693.809927
1112.783259,-2072.576638,-3447.429741,13915.871710
1112.783585,-2516.700203,-3677.258390,11843.295072
1112.783910,-962.267725,-3064.381992,11399.171507
1112.784236,814.226536,-919.314598,10362.883188
1112.784562,1702.473667,2681.334243,8290.306550
1112.784888,3256.906145,5056.230287,8068.244768
1112.785214,4441.235652,5286.058936,7994.224174
1112.785540,3404.947333,5132.839837,5699.585753
1112.785866,1924.535449,3370.820191,5403.503377
1112.786192,0.000000,842.705048,6513.812290
1112.786518,-1702.473667,-612.876398,8734.430116
1112.786844,-1332.370696,-1532.190996,12731.542202
1112.787170,-1110.308913,-2298.286494,15248.242405
1112.787496,-2738.761985,-3907.087040,13027.624579
1112.787821,-2072.576638,-4443.353888,10807.006753
1112.788147,814.226536,-2374.896044,11399.171507
1112.788473,2738.761985,1302.362347,9548.656652
1112.788799,3627.009116,4290.134789,7846.182985
1112.789125,4293.194464,5822.325785,7402.059420
1112.789451,5329.482782,5745.716235,7328.038826
1112.789777,3775.050304,5515.887586,5773.606348
1112.790103,2072.576638,4443.353888,7105.977043
1112.790429,-370.102971,766.095498,7476.080014
1112.790755,-2516.700203,-2221.676944,8586.388927
1112.791081,-3182.885551,-3064.381992,12509.480420
1112.791407,-4071.132681,-2834.553343,13619.789333
1112.791733,-5329.482782,-3370.820191,11843.295072
1112.792058,-3701.029710,-4366.744339,10288.862594
1112.792384,-2146.597232,-2451.505594,9474.636058
1112.792710,-1332.370696,1225.752797,7031.956449
1112.793036,888.247130,4826.401637,6809.894666
1112.793362,2072.576638,6435.202183,7105.977043
1112.793688,1998.556043,5745.716235,5181.441594
1112.794014,1628.453072,5209.449386,5699.585753
1112.794340,740.205942,2987.772442,6661.853478
1112.794666,-1036.288319,536.266849,7698.141797
1112.794992,-1776.494261,-2221.676944,10955.047942
1112.795318,-1480.411884,-3064.381992,14211.954086
1112.795644,-1998.556043,-2987.772442,14359.995275
1112.795969,-1702.473667,-2681.334243,13027.624579
1112.796295,-592.164754,-1991.848295,13175.665768
1112.796621,74.020594,-383.047749,10881.027347
1112.796947,1924.535449,1991.848295,6957.935855
1112.797273,4441.235652,3753.867940,6883.915261
1112.797599,4145.153275,5669.106685,6587.832884
1112.797925,1776.494261,6971.469032,6957.935855
1112.798251,370.102971,5362.668486,7920.203579
1112.798577,-740.205942,536.266849,7179.997637
1112.798903,-3404.947333,-4673.182538,7402.059420
1112.799229,-3701.029710,-4136.915689,10436.903782
1112.799555,-3923.091493,-2451.505594,12731.542202
1112.799881,-3478.967927,-2604.724693,13249.686362
1112.800206,-2220.617826,-4290.134789,13397.727550
1112.800532,-1184.329507,-3524.039291,11103.089130
1112.800858,-592.164754,-229.828649,6735.874072
1112.801184,2220.617826,3830.477490,5329.482782
1112.801510,5773.606348,6128.763984,6661.853478
1112.801836,5625.565159,5745.716235,6513.812290
1112.802162,3923.091493,5362.668486,6291.750507
1112.802488,1998.556043,3830.477490,6735.874072
1112.802814,592.164754,919.314598,7476.080014
1112.803140,-962.267725,-1991.848295,8956.491898
1112.803466,-2368.659014,-2528.115143,11621.233289
1112.803792,-2368.659014,-2911.162892,13619.789333
1112.804117,-2072.576638,-2757.943793,14063.912898
1112.804443,-1924.535449,-3600.648841,13249.686362
1112.804769,-2590.720797,-2757.943793,10584.944971
1112.805095,-1110.308913,0.000000,7402.059420
1112.805421,2072.576638,3140.991542,7772.162391
1112.805747,3404.947333,5592.497135,8734.430116
1112.806073,2072.576638,5669.106685,7402.059420
1112.806399,74.020594,4596.572988,6661.853478
1112.806725,-962.267725,1685.410096,6587.832884
1112.807051,-1702.473667,-1608.800546,6439.791695
1112.807377,-2664.741391,-2145.067394,10066.800811
1112.807703,-3330.926739,-1302.362347,13545.768739
1112.808029,-3034.844362,-1762.019645,14582.057057
1112.808354,-1258.350101,-3830.477490,13175.665768
1112.808680,-1184.329507,-4673.182538,11547.212695
1112.809006,-1258.350101,-1532.190996,7698.141797
1112.809332,1628.453072,4136.915689,6143.709319
1112.809658,4071.132681,6435.202183,7105.977043
1112.809984,4441.235652,5745.716235,7031.956449
1112.810310,3108.864956,5975.544884,5847.626942
1112.810636,2442.679609,5286.058936,4885.359217
1112.810962,444.123565,2374.896044,6365.771101
1112.811288,-592.164754,-919.314598,8290.306550
1112.811614,-1702.473667,-1838.629195,11769.274478
1112.811940,-2368.659014,-1991.848295,13397.727550
1112.812265,-2220.617826,-3064.381992,13397.727550
1112.812591,-2220.617826,-3677.258390,12435.459826
1112.812917,-1924.535449,-2681.334243,10288.862594
1112.813243,-592.164754,-153.219100,7920.203579
1112.813569,1998.556043,2528.115143,7402.059420
1112.813895,2960.823768,4136.915689,8512.368333
1112.814221,1406.391290,4826.401637,7698.141797
1112.814547,296.082377,4443.353888,5847.626942
1112.814873,222.061783,2068.457845,6217.729913
1112.815199,-1036.288319,-1685.410096,7624.121203
1112.815525,-2516.700203,-2145.067394,10066.800811
1112.815851,-2664.741391,-2068.457845,12657.521608
1112.816177,-2294.638420,-2528.115143,13323.706956
1112.816502,-1110.308913,-3907.087040,13323.706956
1112.816828,-740.205942,-1685.410096,12139.377449
1112.817154,592.164754,-153.219100,8882.471304
1112.817480,2590.720797,1685.410096,6809.894666
1112.817806,4515.256246,3524.039291,7698.141797
1112.818132,4959.379811,5822.325785,8068.244768
1112.818458,3849.070898,7201.297681,7031.956449
1112.818784,2368.659014,4290.134789,6513.812290
1112.819110,814.226536,229.828649,7328.038826
1112.819436,-518.144159,-1455.581446,8512.368333
1112.819762,-2590.720797,-1378.971896,11029.068536
1112.820088,-2738.761985,-995.924147,12583.501014
1112.820413,-2516.700203,-3447.429741,13175.665768
1112.820739,-2146.597232,-4213.525239,12657.521608
1112.821065,-1480.411884,-2374.896044,10066.800811
1112.821391,-518.144159,689.485948,7179.997637
1112.821717,1258.350101,3217.601092,7402.059420
1112.822043,3330.926739,5362.668486,7402.059420
1112.822369,3330.926739,6358.592633,6735.874072
1112.822695,1998.556043,4749.792088,5625.565159
1112.823021,-148.041188,2451.505594,6143.709319
1112.823347,-1554.432478,229.828649,7476.080014
1112.823673,-2368.659014,-1378.971896,9918.759623
1112.823999,-2664.741391,-2145.067394,12583.501014
1112.824324,-2368.659014,-3600.648841,13693.809927
1112.824650,-1850.514855,-3983.696590,13693.809927
1112.824976,-1480.411884,-1838.629195,12657.521608
1112.825302,-444.123565,-383.047749,10510.924376
1112.825628,1776.494261,1378.971896,8512.368333
1112.825954,3627.009116,4060.306139,7846.182985
1112.826280,4515.256246,7354.516781,7254.018232
1112.826606,4515.256246,7814.174080,5995.668130
1112.826932,2442.679609,5439.278036,5329.482782
1112.827258,740.205942,2451.505594,7476.080014
1112.827584,-2072.576638,-306.438199,8364.327145
1112.827910,-4441.235652,-2068.457845,9326.594869
1112.828236,-4589.276840,-3753.867940,12213.398043
1112.828561,-4515.256246,-5209.449386,13841.851115
1112.828887,-4959.379811,-4366.744339,12657.521608
1112.829213,-4737.318029,-3370.820191,10584.944971
1112.829539,-1998.556043,-2528.115143,8364.327145
1112.829865,592.164754,153.219100,6661.853478
1112.830191,2886.803174,4749.792088,7105.977043
1112.830517,3256.906145,7814.174080,7105.977043
1112.830843,3997.112087,6971.469032,5773.606348
1112.831169,3997.112087,3907.087040,6809.894666
1112.831495,1406.391290,76.609550,7698.141797
1112.831821,-1184.329507,-536.266849,8290.306550
1112.832147,-1850.514855,-1532.190996,11251.130318
1112.832472,-592.164754,-4213.525239,15618.345376
1112.832798,-1258.350101,-5132.839837,16062.468941
1112.833124,-2072.576638,-3830.477490,13619.789333
1112.833450,-888.247130,-1991.848295,11547.212695
1112.833776,1480.411884,-1378.971896,9030.512492
1112.834102,3478.967927,2221.676944,7624.121203
1112.834428,4441.235652,6281.983084,7105.977043
1112.834754,3627.009116,8427.050478,5255.462188
1112.835080,2664.741391,6511.811733,4441.235652
1112.835406,1776.494261,1915.238745,6143.709319
1112.835732,-814.226536,-229.828649,7179.997637
1112.836058,-3478.967927,-536.266849,8438.347739
1112.836384,-2442.679609,-2068.457845,11991.336260
1112.836709,-1850.514855,-4903.011187,14730.098246
1112.837035,-2442.679609,-5056.230287,13989.892304
1112.837361,-2368.659014,-2451.505594,12287.418637
1112.837687,-592.164754,-383.047749,10658.965565
1112.838013,2220.617826,1149.143247,8216.285956
1112.838339,3552.988522,4213.525239,7772.162391
1112.838665,4441.235652,7584.345430,7476.080014
1112.838991,3330.926739,8197.221829,4959.379811
1112.839317,1776.494261,5745.716235,4811.338623
1112.839643,148.041188,1302.362347,6439.791695
1112.839969,-3034.844362,612.876398,7550.100608
1112.840295,-5033.400406,-383.047749,9400.615463
1112.840620,-3701.029710,-2987.772442,13175.665768
1112.840946,-4515.256246,-5362.668486,15174.221811
1112.841272,-6291.750507,-5745.716235,12583.501014
1112.841598,-2960.823768,-3677.258390,9918.759623
1112.841924,444.123565,-919.314598,9326.594869
1112.842250,1702.473667,2681.334243,8438.347739
1112.842576,4071.132681,6128.763984,7698.141797
1112.842902,4737.318029,8197.221829,5699.585753
1112.843228,4885.359217,6435.202183,5255.462188
1112.843554,2516.700203,4290.134789,6217.729913
1112.843880,-148.041188,1762.019645,6365.771101
1112.844206,-2664.741391,-153.219100,8364.327145
1112.844532,-3182.885551,-3370.820191,11621.233289
1112.844857,-3256.906145,-5592.497135,14582.057057
1112.845183,-4737.318029,-5439.278036,14656.077652
1112.845509,-4737.318029,-3907.087040,12657.521608
1112.845835,-2368.659014,-3294.210641,11399.171507
1112.846161,1184.329507,-2528.115143,8512.368333
1112.846487,2590.720797,1915.238745,8364.327145
1112.846813,4145.153275,7048.078582,7846.182985
1112.847139,4959.379811,8963.317327,5477.523971
1112.847465,5921.647536,5592.497135,5921.647536
1112.847791,4441.235652,2145.067394,7624.121203
1112.848117,1258.350101,1608.800546,7402.059420
1112.848443,814.226536,383.047749,8882.471304
1112.848769,1776.494261,-1915.238745,13693.809927
1112.849095,222.061783,-3677.258390,15618.345376
1112.849421,-1998.556043,-2221.676944,13545.768739
1112.849747,-1110.308913,-1685.410096,10807.006753
1112.850073,-518.144159,-1915.238745,9400.615463
1112.850399,0.000000,-612.876398,6883.915261
1112.850725,666.185348,4519.963438,7031.956449
1112.851051,2368.659014,7277.907231,6513.812290
1112.851377,1184.329507,5975.544884,4885.359217
1112.851702,-666.185348,3370.820191,5255.462188
1112.852028,-2368.659014,842.705048,4515.256246
1112.852354,-4515.256246,459.657299,5403.503377
1112.852680,-3849.070898,-842.705048,9474.636058
1112.853006,-3330.926739,-2681.334243,14063.912898
1112.853332,-4219.173869,-4060.306139,14211.954086
1112.853658,-3775.050304,-3830.477490,13249.686362
1112.853984,-2368.659014,-3294.210641,12805.562797
1112.854310,-370.102971,-1149.143247,11251.130318
1112.854636,2294.638420,1302.362347,9252.574275
1112.854962,4589.276840,4443.353888,9030.512492
1112.855288,4737.318029,7048.078582,6809.894666
1112.855614,4071.132681,6588.421283,6809.894666
1112.855940,2368.659014,4596.572988,6365.771101
1112.856266,0.000000,3140.991542,6735.874072
1112.856592,-1998.556043,0.000000,8438.347739
1112.856918,-2664.741391,-2987.772442,11029.068536
1112.857244,-4663.297435,-3600.648841,12213.398043
1112.857570,-5403.503377,-4366.744339,12361.439231
1112.857896,-4589.276840,-4519.963438,12065.356855
1112.858222,-3404.947333,-3907.087040,11547.212695
1112.858548,-888.247130,-1915.238745,8882.471304
1112.858874,1184.329507,2451.505594,7846.182985
1112.859200,2886.803174,5056.230287,7254.018232
1112.859526,3923.091493,4903.011187,6513.812290
1112.859851,4145.153275,3907.087040,6439.791695
1112.860177,1998.556043,2145.067394,7031.956449
1112.860503,-444.123565,-383.047749,6513.812290
1112.860829,-444.123565,-1915.238745,9548.656652
1112.861155,0.000000,-2604.724693,13841.851115
1112.861481,-1628.453072,-3524.039291,15396.283594
1112.861807,-1998.556043,-4903.011187,12805.562797
1112.862133,-370.102971,-4213.525239,11843.295072
1112.862459,1332.370696,-2221.676944,10214.842000
1112.862785,2738.761985,2221.676944,7550.100608
1112.863111,4071.132681,6894.859482,7402.059420
1112.863437,5847.626942,7737.564530,6439.791695
1112.863763,4515.256246,6971.469032,4885.359217
1112.864089,2812.782580,4519.963438,5181.441594
1112.864415,-1036.288319,2681.334243,5847.626942
1112.864741,-2590.720797,-153.219100,7105.977043
1112.865067,-1924.535449,-2451.505594,10584.944971
1112.865393,-2960.823768,-3370.820191,13915.871710
1112.865719,-5033.400406,-3600.648841,13323.706956
1112.866045,-3923.091493,-3140.991542,11843.295072
1112.866371,-962.267725,-2681.334243,11991.336260
1112.866697,592.164754,-153.219100,10066.800811
1112.867023,1998.556043,4366.744339,8290.306550
1112.867349,4145.153275,7737.564530,7698.141797
1112.867675,4737.318029,7431.126331,7105.977043
1112.868001,2294.638420,5975.544884,6809.894666
1112.868326,-296.082377,2681.334243,6513.812290
1112.868652,-2516.700203,383.047749,6661.853478
1112.868978,-2886.803174,-1149.143247,9178.553681
1112.869304,-3108.864956,-2528.115143,12731.542202
1112.869630,-4367.215058,-3064.381992,13767.830521
1112.869956,-4663.297435,-3600.648841,12361.439231
1112.870282,-3404.947333,-3447.429741,10807.006753
1112.870608,-1554.432478,-2068.457845,9548.656652
1112.870934,740.205942,1532.190996,7624.121203
1112.871260,3034.844362,5592.497135,7105.977043
1112.871586,4293.194464,7048.078582,6735.874072
1112.871912,4663.297435,5515.887586,5921.647536
1112.872238,2368.659014,3907.087040,5921.647536
1112.872564,0.000000,2221.676944,5995.668130
1112.872890,-666.185348,-459.657299,7105.977043
1112.873216,-1480.411884,-2451.505594,10362.883188
1112.873542,-2220.617826,-3677.258390,13989.892304
1112.873868,-2960.823768,-4213.525239,13989.892304
1112.874194,-2294.638420,-4596.572988,12435.459826
1112.874520,-1110.308913,-4060.306139,12361.439231
1112.874846,518.144159,-1838.629195,11251.130318
1112.875172,2886.803174,2757.943793,8808.450710
1112.875498,5181.441594,4903.011187,7698.141797
1112.875824,5699.585753,4673.182538,6957.935855
1112.876150,4293.194464,4979.620737,7254.018232
1112.876476,2368.659014,4673.182538,7328.038826
1112.876801,1036.288319,1225.752797,7328.038826
1112.877127,-444.123565,-3447.429741,8142.265362
1112.877453,-2294.638420,-4366.744339,11769.274478
1112.877779,-4071.132681,-2757.943793,13397.727550
1112.878105,-3404.947333,-2374.896044,13989.892304
1112.878431,-1998.556043,-5056.230287,12287.418637
1112.878757,-1850.514855,-4903.011187,10732.986159
1112.879083,-740.205942,306.438199,8586.388927
1112.879409,1628.453072,5975.544884,7105.977043
1112.879735,3997.112087,6511.811733,6587.832884
1112.880061,3478.967927,4366.744339,6365.771101
1112.880387,1036.288319,4826.401637,5255.462188
1112.880713,-740.205942,4903.011187,5033.400406
1112.881039,-2072.576638,1915.238745,6143.709319
1112.881365,-3108.864956,-2911.162892,8438.347739
1112.881691,-4367.215058,-3370.820191,12213.398043
1112.882017,-4515.256246,-1608.800546,13027.624579
1112.882343,-4589.276840,-2221.676944,13175.665768
1112.882669,-3552.988522,-3830.477490,12065.356855
1112.882995,-2146.597232,-3140.991542,10584.944971
1112.883321,0.000000,1455.581446,8438.347739
1112.883647,2590.720797,6358.592633,7550.100608
1112.883973,4663.297435,6894.859482,8216.285956
1112.884299,4441.235652,5439.278036,7031.956449
1112.884625,1776.494261,5056.230287,6143.709319
1112.884950,1036.288319,3064.381992,6809.894666
1112.885276,740.205942,0.000000,8956.491898
1112.885602,-1480.411884,-1915.238745,11695.253884
1112.885928,-2442.679609,-2298.286494,13693.809927
1112.886254,-2812.782580,-3064.381992,13323.706956
1112.886580,-2960.823768,-3753.867940,12953.603985
1112.886906,-1628.453072,-4443.353888,11695.253884
1112.887232,74.020594,-1225.752797,8808.450710
1112.887558,740.205942,3294.210641,7105.977043
1112.887884,3849.070898,5362.668486,6587.832884
1112.888210,4589.276840,5822.325785,7031.956449
1112.888536,2738.761985,4519.963438,4959.379811
1112.888862,1258.350101,3370.820191,4737.318029
1112.889188,444.123565,1072.533697,5773.606348
1112.889514,-888.247130,-1302.362347,7624.121203
1112.889840,-2738.761985,-2834.553343,10658.965565
1112.890166,-2812.782580,-3447.429741,13471.748144
1112.890492,-2442.679609,-3217.601092,13915.871710
1112.890818,-1184.329507,-4136.915689,12583.501014
1112.891144,0.000000,-3370.820191,10955.047942
1112.891470,1702.473667,306.438199,8660.409521
1112.891796,4145.153275,4903.011187,8364.327145
1112.892122,6143.709319,5669.106685,7920.203579
1112.892448,4737.318029,5898.935335,7698.141797
1112.892774,2516.700203,5439.278036,6217.729913
1112.893100,1480.411884,3294.210641,6661.853478
1112.893425,0.000000,-536.266849,7698.141797
1112.893751,-3182.885551,-3217.601092,9622.677246
1112.894077,-4737.318029,-3217.601092,13101.645173
1112.894403,-4589.276840,-3600.648841,14359.995275
1112.894729,-4737.318029,-3983.696590,14063.912898
1112.895055,-3552.988522,-4749.792088,12731.542202
1112.895381,-2368.659014,-2757.943793,10436.903782
1112.895707,-296.082377,1149.143247,7476.080014
1112.896033,2590.720797,5056.230287,7105.977043
1112.896359,3775.050304,6818.249932,7624.121203
1112.896685,3182.885551,5898.935335,5847.626942
1112.897011,1258.350101,5056.230287,5995.668130
1112.897337,814.226536,2451.505594,5847.626942
1112.897663,-814.226536,76.609550,7031.956449
1112.897989,-2220.617826,-689.485948,9400.615463
1112.898315,-1184.329507,-1302.362347,12657.521608
1112.898641,-1776.494261,-1685.410096,13101.645173
1112.898967,-1924.535449,-3447.429741,11251.130318
1112.899293,-2072.576638,-2451.505594,11325.150913
1112.899619,-222.061783,0.000000,8290.306550
1112.899945,1702.473667,3294.210641,7772.162391
1112.900271,4071.132681,4596.572988,8364.327145
1112.900597,3552.988522,4903.011187,7698.141797
1112.900923,2294.638420,5209.449386,5625.565159
1112.901249,1702.473667,3524.039291,6069.688724
1112.901575,74.020594,459.657299,7550.100608
1112.901900,-1702.473667,-1302.362347,8882.471304
1112.902226,-1702.473667,-1685.410096,12213.398043
1112.902552,-1480.411884,-2145.067394,13915.871710
1112.902878,-2664.741391,-3064.381992,13471.748144
1112.903204,-1480.411884,-3140.991542,12731.542202
1112.903530,444.123565,-1455.581446,10510.924376
1112.903856,2442.679609,1685.410096,8216.285956
1112.904182,4145.153275,4826.401637,8660.409521
1112.904508,4737.318029,5975.544884,8438.347739
1112.904834,2960.823768,6511.811733,6365.771101
1112.905160,1776.494261,4519.963438,5773.606348
1112.905486,666.185348,1991.848295,6143.709319
1112.905812,-2146.597232,-1302.362347,6143.709319
1112.906138,-3627.009116,-1915.238745,9474.636058
1112.906464,-3552.988522,-2451.505594,13693.809927
1112.906790,-4219.173869,-3600.648841,14285.974681
1112.907116,-3849.070898,-4213.525239,12139.377449
1112.907442,-2738.761985,-4366.744339,10510.924376
1112.907768,-296.082377,-1378.971896,8734.430116
1112.908094,1702.473667,2374.896044,7920.203579
1112.908420,3478.967927,5056.230287,8586.388927
1112.908746,2886.803174,5898.935335,6957.935855
1112.909072,1332.370696,4749.792088,5107.421000
1112.909398,1036.288319,2451.505594,6143.709319
1112.909724,-1628.453072,766.095498,6883.915261
1112.910049,-4441.235652,-1838.629195,7920.203579
1112.910375,-5329.482782,-3677.258390,11103.089130
1112.910701,-4367.215058,-5362.668486,13397.727550
1112.911027,-4293.194464,-4903.011187,14137.933492
1112.911353,-3404.947333,-4213.525239,12435.459826
1112.911679,-2072.576638,-3064.381992,11029.068536
1112.912005,666.185348,-919.314598,8586.388927
1112.912331,4737.318029,3294.210641,8956.491898
1112.912657,5403.503377,7124.688131,7624.121203
1112.912983,5181.441594,6818.249932,5033.400406
1112.913309,4219.173869,5209.449386,5625.565159
1112.913635,3256.906145,3524.039291,7772.162391
1112.913961,518.144159,1225.752797,7846.182985
1112.914287,-1110.308913,-1302.362347,8586.388927
1112.914613,-1406.391290,-3140.991542,12583.501014
1112.914939,-1184.329507,-3907.087040,13915.871710
1112.915265,-1776.494261,-2374.896044,13619.789333
1112.915591,-1184.329507,-2068.457845,12583.501014
1112.915917,-148.041188,-2068.457845,10288.862594
1112.916243,1776.494261,-306.438199,7402.059420
1112.916569,3923.091493,4519.963438,7105.977043
1112.916895,3701.029710,6971.469032,5847.626942
1112.917221,2220.617826,6511.811733,5477.523971
1112.917547,2146.597232,3524.039291,5921.647536
1112.917873,0.000000,689.485948,6661.853478
1112.918199,-2886.803174,-383.047749,5995.668130
1112.918524,-3034.844362,-1532.190996,8808.450710
1112.918850,-2886.803174,-2298.286494,13101.645173
1112.919176,-3108.864956,-2757.943793,13397.727550
1112.919502,-3256.906145,-2834.553343,12731.542202
1112.919828,-1332.370696,-2374.896044,11769.274478
1112.920154,370.102971,-689.485948,9992.780217
1112.920480,2886.803174,2834.553343,9252.574275
1112.920806,4885.359217,6205.373534,8586.388927
1112.921132,4663.297435,7737.564530,7031.956449
1112.921458,3701.029710,5056.230287,6217.729913
1112.921784,2368.659014,3370.820191,6439.791695
1112.922110,-1036.288319,2068.457845,6883.915261
1112.922436,-3330.926739,-536.266849,7846.182985
1112.922762,-3923.091493,-2145.067394,11103.089130
1112.923088,-3775.050304,-3677.258390,13545.768739
1112.923414,-4293.194464,-4213.525239,13471.748144
1112.923740,-4737.318029,-3830.477490,12065.356855
1112.924066,-2812.782580,-2757.943793,10140.821405
1112.924392,888.247130,-995.924147,9400.615463
1112.924718,1850.514855,3524.039291,9104.533087
1112.925044,3701.029710,6205.373534,6513.812290
1112.925370,4737.318029,6741.640382,5403.503377
1112.925696,4219.173869,4596.572988,5699.585753
1112.926022,740.205942,2757.943793,6143.709319
1112.926348,0.000000,1072.533697,4885.359217
1112.926674,148.041188,-689.485948,9548.656652
1112.926999,-814.226536,-2298.286494,13545.768739
1112.927325,-2146.597232,-3140.991542,13767.830521
1112.927651,-2072.576638,-3447.429741,13471.748144
1112.927977,-1110.308913,-4213.525239,12065.356855
1112.928303,-814.226536,-3064.381992,9622.677246
1112.928629,2072.576638,689.485948,8068.244768
1112.928955,3552.988522,4826.401637,8734.430116
1112.929281,3478.967927,6665.030833,7105.977043
1112.929607,3182.885551,4519.963438,5921.647536
1112.929933,1998.556043,2298.286494,5921.647536
1112.930259,-1406.391290,1455.581446,5921.647536
1112.930585,-2146.597232,-229.828649,6957.935855
1112.930911,-1776.494261,-2374.896044,10362.883188
1112.931237,-2146.597232,-3830.477490,14434.015869
1112.931563,-3701.029710,-3600.648841,14656.077652
1112.931889,-2812.782580,-3753.867940,12139.377449
1112.932215,-962.267725,-3447.429741,11325.150913
1112.932541,1110.308913,-1685.410096,10732.986159
1112.932867,2442.679609,3370.820191,11177.109724
1112.933193,3034.844362,7048.078582,8734.430116
1112.933519,2886.803174,5362.668486,6883.915261
1112.933845,1702.473667,2451.505594,5921.647536
1112.934171,-592.164754,1991.848295,5329.482782
1112.934497,-3404.947333,1991.848295,5477.523971
1112.934823,-4219.173869,-536.266849,7920.203579
1112.935148,-4589.276840,-2834.553343,11473.192101
1112.935474,-4737.318029,-3447.429741,13175.665768
1112.935800,-4885.359217,-2834.553343,11103.089130
1112.936126,-3256.906145,-2221.676944,9770.718434
1112.936452,-1258.350101,-1991.848295,9992.780217
1112.936778,1406.391290,153.219100,9326.594869
1112.937104,2812.782580,5362.668486,9252.574275
1112.937430,3997.112087,6588.421283,7624.121203
1112.937756,4737.318029,4673.182538,5551.544565
1112.938082,3404.947333,3907.087040,6291.750507
1112.938408,1184.329507,3524.039291,6883.915261
1112.938734,0.000000,2374.896044,7698.141797
1112.939060,-444.123565,-1302.362347,9400.615463
1112.939386,-962.267725,-3753.867940,12287.418637
1112.939712,-1480.411884,-1762.019645,13915.871710
1112.940038,-1850.514855,459.657299,12583.501014
1112.940364,-1110.308913,-1225.752797,11399.171507
1112.940690,962.267725,-2834.553343,9918.759623
1112.941016,1332.370696,842.705048,8586.388927
1112.941342,2368.659014,6128.763984,7179.997637
1112.941668,3108.864956,7354.516781,6513.812290
1112.941994,2886.803174,4596.572988,6291.750507
1112.942320,1184.329507,2681.334243,7402.059420
1112.942646,-1332.370696,2145.067394,6957.935855
1112.942972,-1480.411884,229.828649,7105.977043
1112.943298,-1258.350101,-2451.505594,10436.903782
1112.943623,-1702.473667,-2834.553343,13545.768739
1112.943949,-1554.432478,-766.095498,13619.789333
1112.944275,-222.061783,-995.924147,11769.274478
1112.944601,962.267725,-1838.629195,10807.006753
1112.944927,1036.288319,-1685.410096,8808.450710
1112.945253,2368.659014,3370.820191,7698.141797
1112.945579,4441.235652,7890.783629,8068.244768
1112.945905,4737.318029,6588.421283,7624.121203
1112.946231,1702.473667,2298.286494,6291.750507
1112.946557,-1036.288319,766.095498,5329.482782
1112.946883,-2294.638420,689.485948,6365.771101
1112.947209,-3775.050304,-842.705048,8660.409521
1112.947534,-3849.070898,-3294.210641,12213.398043
1112.947860,-4293.194464,-4979.620737,13323.706956
1112.948186,-4293.194464,-3600.648841,12509.480420
1112.948512,-3330.926739,-3064.381992,11843.295072
1112.948838,-1776.494261,-4060.306139,10510.924376
1112.949164,-888.247130,-1225.752797,8956.491898
1112.949490,814.226536,3064.381992,8438.347739
1112.949816,3478.967927,4673.182538,8808.450710
1112.950142,3404.947333,4136.915689,8068.244768
1112.950468,1480.411884,2374.896044,7105.977043
1112.950794,74.020594,1149.143247,6513.812290
1112.951119,370.102971,-306.438199,6957.935855
1112.951445,148.041188,-842.705048,9992.780217
1112.951771,-962.267725,-1302.362347,13175.665768
1112.952097,-1702.473667,-1762.019645,13175.665768
1112.952423,-962.267725,-2068.457845,11399.171507
1112.952749,814.226536,-2911.162892,11547.212695
1112.953075,888.247130,-1532.190996,9548.656652
1112.953401,1406.391290,2298.286494,7402.059420
1112.953727,3478.967927,5209.449386,8142.265362
1112.954053,4441.235652,4749.792088,8290.306550
1112.954379,2368.659014,3064.381992,6587.832884
1112.954705,0.000000,2681.334243,5107.421000
1112.955030,-1850.514855,1302.362347,5921.647536
1112.955356,-2368.659014,-612.876398,8290.306550
1112.955682,-2294.638420,-1838.629195,11695.253884
1112.956008,-2812.782580,-2221.676944,13545.768739
1112.956334,-3256.906145,-2451.505594,11621.233289
1112.956660,-2368.659014,-3447.429741,11325.150913
1112.956986,-740.205942,-2374.896044,11695.253884
1112.957312,74.020594,612.876398,9622.677246
1112.957638,1554.432478,4136.915689,8734.430116
1112.957964,3923.091493,5056.230287,8660.409521
1112.958290,3478.967927,4519.963438,6957.935855
1112.958615,1554.432478,4366.744339,5625.565159
1112.958941,444.123565,3600.648841,6217.729913
1112.959267,-1184.329507,766.095498,7328.038826
1112.959593,-1776.494261,-1378.971896,9548.656652
1112.959919,-2294.638420,-1378.971896,12435.459826
1112.960245,-3182.885551,-842.705048,11991.336260
1112.960571,-3849.070898,-1991.848295,11029.068536
1112.960897,-2072.576638,-2451.505594,10807.006753
1112.961223,-1036.288319,-1915.238745,9622.677246
1112.961549,-740.205942,2068.457845,7624.121203
1112.961875,1480.411884,4903.011187,7698.141797
1112.962200,2812.782580,4979.620737,7846.182985
1112.962526,1480.411884,4136.915689,6809.894666
1112.962852,148.041188,3140.991542,6439.791695
1112.963178,-666.185348,1225.752797,6735.874072
1112.963504,-1332.370696,-1455.581446,7550.100608
1112.963830,-2294.638420,-1838.629195,11251.130318
1112.964156,-2368.659014,-1455.581446,13989.892304
1112.964482,-2220.617826,-2298.286494,12139.377449
1112.964808,-148.041188,-3677.258390,11843.295072
1112.965134,1628.453072,-3677.258390,12361.439231
1112.965460,1924.535449,1072.533697,9030.512492
1112.965785,3404.947333,4443.353888,9104.533087
1112.966111,6217.729913,4979.620737,9030.512492
1112.966437,5181.441594,3983.696590,7105.977043
1112.966763,3108.864956,4213.525239,4737.318029
1112.967089,2220.617826,3907.087040,4589.276840
1112.967415,1776.494261,2298.286494,6365.771101
1112.967741,-222.061783,-612.876398,8734.430116
1112.968067,-1850.514855,-2374.896044,11843.295072
1112.968393,-1998.556043,-2451.505594,13397.727550
1112.968719,-1258.350101,-3217.601092,12879.583391
1112.969045,-296.082377,-2757.943793,13545.768739
1112.969370,296.082377,-1991.848295,11325.150913
1112.969696,74.020594,383.047749,8216.285956
1112.970022,1924.535449,2068.457845,8068.244768
1112.970348,2738.761985,4749.792088,8660.409521
1112.970674,888.247130,4903.011187,6883.915261
1112.971000,-444.123565,4136.915689,5107.421000
1112.971326,-1850.514855,2221.676944,6957.935855
1112.971652,-2812.782580,-1302.362347,7105.977043
1112.971978,-4367.215058,-2145.067394,9252.574275
1112.972304,-4737.318029,-1838.629195,11177.109724
1112.972630,-3849.070898,-3064.381992,11251.130318
1112.972956,-1924.535449,-2604.724693,11769.274478
1112.973281,-740.205942,-1762.019645,11843.295072
1112.973607,-962.267725,0.000000,10140.821405
1112.973933,962.267725,2528.115143,8438.347739
1112.974259,4515.256246,3753.867940,9030.512492
1112.974585,5255.462188,4903.011187,8438.347739
1112.974911,3108.864956,6665.030833,5551.544565
1112.975237,2220.617826,4826.401637,5921.647536
1112.975563,222.061783,1149.143247,7105.977043
1112.975889,-1554.432478,-1608.800546,7698.141797
1112.976215,-1776.494261,-919.314598,11251.130318
1112.976541,-2072.576638,-306.438199,12731.542202
1112.976866,-2590.720797,-2145.067394,11991.336260
1112.977192,-2516.700203,-3907.087040,11843.295072
1112.977518,-2664.741391,-3600.648841,10288.862594
1112.977844,-2220.617826,-1302.362347,7698.141797
1112.978170,1258.350101,1838.629195,7846.182985
1112.978496,3182.885551,3753.867940,9178.553681
1112.978822,2368.659014,4749.792088,7476.080014
1112.979148,1332.370696,3600.648841,6291.750507
1112.979474,962.267725,1608.800546,6587.832884
1112.979800,370.102971,459.657299,7920.203579
1112.980126,-222.061783,-383.047749,8808.450710
1112.980451,148.041188,0.000000,10807.006753
1112.980777,0.000000,-1378.971896,11695.253884
1112.981103,-296.082377,-2298.286494,12361.439231
1112.981429,-666.185348,-1762.019645,12583.501014
