#time,accel_x,accel_y,accel_z
87546.730409,888.247130,1685.410096,9400.615463
87546.730739,-740.205942,1072.533697,7698.141797
87546.731068,-2516.700203,1378.971896,6661.853478
87546.731398,-2368.659014,919.314598,7031.956449
87546.731728,-2886.803174,-459.657299,7254.018232
87546.732058,-3701.029710,-153.219100,7772.162391
87546.732387,-4071.132681,153.219100,8142.265362
87546.732717,-3478.967927,306.438199,7476.080014
87546.733047,-2664.741391,0.000000,7994.224174
87546.733377,-2812.782580,-1072.533697,8586.388927
87546.733706,-1850.514855,-766.095498,6957.935855
87546.734036,-296.082377,-306.438199,8438.347739
87546.734366,0.000000,459.657299,9844.739029
87546.734696,-962.267725,153.219100,10436.903782
87546.735025,-1702.473667,-153.219100,10955.047942
87546.735355,-666.185348,-1378.971896,11621.233289
87546.735685,-666.185348,-919.314598,12657.521608
87546.736014,-370.102971,306.438199,12287.418637
87546.736344,222.061783,842.705048,13249.686362
87546.736674,444.123565,1072.533697,12139.377449
87546.737004,222.061783,1225.752797,11473.192101
87546.737333,-740.205942,1685.410096,11251.130318
87546.737663,-2368.659014,2757.943793,10288.862594
87546.737993,-3256.906145,3217.601092,9622.677246
87546.738323,-4589.276840,2374.896044,9918.759623
87546.738652,-5995.668130,2374.896044,10066.800811
87546.738982,-8438.347739,2911.162892,9326.594869
87546.739312,-8512.368333,3370.820191,8586.388927
87546.739641,-8068.244768,2987.772442,8882.471304
87546.739971,-8734.430116,2834.553343,7846.182985
87546.740301,-9252.574275,5592.497135,7402.059420
87546.740631,-8142.265362,6588.421283,6883.915261
87546.740960,-6809.894666,6205.373534,5921.647536
87546.741290,-6661.853478,6052.154434,5773.606348
87546.741620,-6217.729913,6741.640382,5847.626942
87546.741950,-5033.400406,7201.297681,5995.668130
87546.742279,-3552.988522,6665.030833,6661.853478
87546.742609,-1776.494261,6052.154434,7031.956449
87546.742939,-962.267725,5515.887586,7550.100608
87546.743269,222.061783,6741.640382,7550.100608
87546.743598,2516.700203,7354.516781,8808.450710
87546.743928,3775.050304,7277.907231,9474.636058
87546.744258,4515.256246,7431.126331,9548.656652
87546.744587,4737.318029,7048.078582,9178.553681
87546.744917,5551.544565,6205.373534,9474.636058
87546.745247,5181.441594,5439.278036,11251.130318
87546.745577,3034.844362,4903.011187,12139.377449
87546.745906,814.226536,3447.429741,11843.295072
87546.746236,-888.247130,1838.629195,12139.377449
87546.746566,-1924.535449,76.609550,12287.418637
87546.746896,-3404.947333,612.876398,12287.418637
87546.747225,-4885.359217,1072.533697,10584.944971
87546.747555,-4811.338623,459.657299,9992.780217
87546.747885,-4885.359217,995.924147,9770.718434
87546.748215,-4811.338623,1608.800546,8734.430116
87546.748544,-4293.194464,2604.724693,7624.121203
87546.748874,-1998.556043,2451.505594,5847.626942
87546.749204,0.000000,2068.457845,5255.462188
87546.749533,1184.329507,2374.896044,5403.503377
87546.749863,2146.597232,995.924147,4811.338623
87546.750193,2886.803174,76.609550,4959.379811
87546.750523,4367.215058,-2068.457845,7031.956449
87546.750852,3552.988522,-2604.724693,8216.285956
87546.751182,2442.679609,-2221.676944,9030.512492
87546.751512,2664.741391,-2528.115143,10140.821405
87546.751842,2664.741391,-5056.230287,11843.295072
87546.752171,2294.638420,-5132.839837,13323.706956
87546.752501,1110.308913,-3524.039291,14063.912898
87546.752831,1628.453072,-2451.505594,13397.727550
87546.753161,2220.617826,-2757.943793,13471.748144
87546.753490,1480.411884,-3524.039291,12509.480420
87546.753820,0.000000,-3217.601092,10288.862594
87546.754150,-370.102971,-3447.429741,9178.553681
87546.754479,0.000000,-4596.572988,9844.739029
87546.754809,-962.267725,-5898.935335,10584.944971
87546.755139,-2812.782580,-6665.030833,10288.862594
87546.755469,-3330.926739,-7660.954980,10510.924376
87546.755798,-2886.803174,-8733.488677,11473.192101
87546.756128,-3923.091493,-7967.393179,12509.480420
87546.756458,-4219.173869,-5286.058936,12879.583391
87546.756787,-2812.782580,-2528.115143,12065.356855
87546.757117,-814.226536,-612.876398,11917.315666
87546.757447,296.082377,2451.505594,12139.377449
87546.757777,0.000000,6205.373534,10066.800811
87546.758106,-592.164754,9039.926876,7772.162391
87546.758436,222.061783,9269.755526,6143.709319
87546.758766,-370.102971,8044.002729,5403.503377
87546.759095,-2072.576638,8810.098227,3404.947333
87546.759425,-2590.720797,8044.002729,1850.514855
87546.759755,-2220.617826,6052.154434,1776.494261
87546.760085,-2664.741391,3524.039291,2516.700203
87546.760414,-2886.803174,2604.724693,3627.009116
87546.760744,-2368.659014,2834.553343,5329.482782
87546.761074,-2294.638420,1455.581446,6957.935855
87546.761403,-1554.432478,383.047749,9326.594869
87546.761733,-1554.432478,1225.752797,11103.089130
87546.762063,-592.164754,3140.991542,11843.295072
87546.762393,1406.391290,5132.839837,12953.603985
87546.762722,3701.029710,6128.763984,13323.706956
87546.763052,3997.112087,8120.612279,12213.398043
87546.763382,4441.235652,8273.831378,10881.027347
87546.763711,5773.606348,8427.050478,9770.718434
87546.764041,6217.729913,7507.735880,8882.471304
87546.764371,5847.626942,5439.278036,7920.203579
87546.764701,4959.379811,3217.601092,7254.018232
87546.765030,3701.029710,536.266849,6883.915261
87546.765360,2442.679609,-2068.457845,7402.059420
87546.765690,1702.473667,-4749.792088,10881.027347
87546.766019,-296.082377,-5669.106685,11843.295072
87546.766349,-1036.288319,-5362.668486,12731.542202
87546.766679,0.000000,-5209.449386,13397.727550
87546.767009,-148.041188,-2834.553343,14137.933492
87546.767338,74.020594,-536.266849,12879.583391
87546.767668,666.185348,3294.210641,12213.398043
87546.767998,888.247130,4366.744339,11473.192101
87546.768327,0.000000,5132.839837,9474.636058
87546.768657,0.000000,5515.887586,7179.997637
87546.768987,74.020594,4979.620737,4885.359217
87546.769317,-1628.453072,3370.820191,3108.864956
87546.769646,-2590.720797,0.000000,3404.947333
87546.769976,-4293.194464,-2757.943793,3997.112087
87546.770306,-5477.523971,-5975.544884,4663.297435
87546.770635,-6587.832884,-8580.269578,6661.853478
87546.770965,-7328.038826,-10495.508323,8216.285956
87546.771295,-7772.162391,-10495.508323,8586.388927
87546.771625,-6291.750507,-9729.412825,11103.089130
87546.771954,-2886.803174,-7124.688131,13841.851115
87546.772284,-740.205942,-3370.820191,15692.365970
87546.772614,1480.411884,-459.657299,15396.283594
87546.772943,3923.091493,1991.848295,14359.995275
87546.773273,6439.791695,3600.648841,12287.418637
87546.773603,7254.018232,4519.963438,10362.883188
87546.773933,7179.997637,4443.353888,8586.388927
87546.774262,6809.894666,3217.601092,7105.977043
87546.774592,5847.626942,1149.143247,7328.038826
87546.774922,3034.844362,-1532.190996,7254.018232
87546.775251,-888.247130,-4826.401637,7328.038826
87546.775581,-3404.947333,-7277.907231,8956.491898
87546.775911,-4515.256246,-9499.584175,10658.965565
87546.776240,-5625.565159,-9116.536426,11843.295072
87546.776570,-4811.338623,-7124.688131,12435.459826
87546.776900,-3256.906145,-2834.553343,13027.624579
87546.777230,-740.205942,1608.800546,13101.645173
87546.777559,1776.494261,5822.325785,12213.398043
87546.777889,1998.556043,9269.755526,10436.903782
87546.778219,2220.617826,11491.432470,7994.224174
87546.778548,2738.761985,11951.089769,6291.750507
87546.778878,4071.132681,11338.213370,4885.359217
87546.779208,3552.988522,9959.241474,4145.153275
87546.779538,1628.453072,8427.050478,2738.761985
87546.779867,-592.164754,5286.058936,3182.885551
87546.780197,-1110.308913,1149.143247,3997.112087
87546.780527,-2294.638420,-1532.190996,6365.771101
87546.780856,-3552.988522,-2604.724693,6809.894666
87546.781186,-4367.215058,-2374.896044,7402.059420
87546.781516,-3478.967927,-2604.724693,9252.574275
87546.781846,-1924.535449,-689.485948,12287.418637
87546.782175,0.000000,2068.457845,13767.830521
87546.782505,2368.659014,4596.572988,14211.954086
87546.782835,3775.050304,6052.154434,13471.748144
87546.783164,4219.173869,6741.640382,11325.150913
87546.783494,4959.379811,7354.516781,9252.574275
87546.783824,6069.688724,7354.516781,8290.306550
87546.784154,5255.462188,6588.421283,7254.018232
87546.784483,3701.029710,3753.867940,6809.894666
87546.784813,1998.556043,1149.143247,7476.080014
87546.785143,0.000000,-2451.505594,7846.182985
87546.785472,-2664.741391,-5132.839837,10510.924376
87546.785802,-4367.215058,-8350.440928,12361.439231
87546.786132,-5403.503377,-10189.070123,12139.377449
87546.786462,-6217.729913,-8733.488677,12065.356855
87546.786791,-4589.276840,-6511.811733,13323.706956
87546.787121,-3108.864956,-2604.724693,14211.954086
87546.787451,-1850.514855,842.705048,13249.686362
87546.787780,-1184.329507,3524.039291,12287.418637
87546.788110,0.000000,5822.325785,9178.553681
87546.788440,-666.185348,6128.763984,7179.997637
87546.788770,1184.329507,6205.373534,4811.338623
87546.789099,2072.576638,5209.449386,4441.235652
87546.789429,666.185348,3600.648841,3923.091493
87546.789759,-1332.370696,1149.143247,3404.947333
87546.790088,-1850.514855,-1685.410096,4367.215058
87546.790418,-2812.782580,-5669.106685,5995.668130
87546.790748,-5181.441594,-7814.174080,7105.977043
87546.791078,-6809.894666,-9269.755526,8512.368333
87546.791407,-5921.647536,-10112.460574,9400.615463
87546.791737,-3997.112087,-8656.879127,11843.295072
87546.792067,-740.205942,-5669.106685,14878.139434
87546.792396,1776.494261,-766.095498,15174.221811
87546.792726,2738.761985,2911.162892,13249.686362
87546.793056,5995.668130,4060.306139,11177.109724
87546.793386,9178.553681,4749.792088,10140.821405
87546.793715,9326.594869,5975.544884,8882.471304
87546.794045,8882.471304,6665.030833,7920.203579
87546.794375,7994.224174,4060.306139,7550.100608
87546.794704,6513.812290,0.000000,9104.533087
87546.795034,2368.659014,-2911.162892,10140.821405
87546.795364,-1258.350101,-5822.325785,10140.821405
87546.795694,-4145.153275,-8120.612279,11399.171507
87546.796023,-4885.359217,-9959.241474,11843.295072
87546.796353,-4663.297435,-7737.564530,13101.645173
87546.796683,-3775.050304,-3677.258390,13767.830521
87546.797012,-2960.823768,1455.581446,13027.624579
87546.797342,-814.226536,4903.011187,11769.274478
87546.797672,1110.308913,7584.345430,10288.862594
87546.798001,1332.370696,9806.022374,7920.203579
87546.798331,962.267725,12104.308868,5107.421000
87546.798661,1036.288319,12717.185267,3478.967927
87546.798991,1554.432478,10189.070123,3330.926739
87546.799320,0.000000,8503.660028,3108.864956
87546.799650,-2368.659014,6052.154434,2590.720797
87546.799980,-3552.988522,2681.334243,4145.153275
87546.800309,-4367.215058,-919.314598,5551.544565
87546.800639,-5699.585753,-2374.896044,7031.956449
87546.800969,-6143.709319,-3753.867940,8438.347739
87546.801299,-5255.462188,-2757.943793,9474.636058
87546.801628,-3701.029710,-1838.629195,11991.336260
87546.801958,-888.247130,0.000000,14211.954086
87546.802288,1258.350101,3217.601092,14137.933492
87546.802617,2294.638420,5975.544884,14211.954086
87546.802947,4145.153275,5975.544884,11843.295072
87546.803277,4737.318029,5209.449386,10732.986159
87546.803607,5403.503377,4673.182538,9178.553681
87546.803936,5181.441594,4519.963438,8956.491898
87546.804266,4441.235652,3064.381992,9178.553681
87546.804596,2664.741391,229.828649,9252.574275
87546.804925,666.185348,-3983.696590,9696.697840
87546.805255,-1628.453072,-6358.592633,10807.006753
87546.805585,-3330.926739,-8273.831378,11473.192101
87546.805915,-4071.132681,-8963.317327,12361.439231
87546.806244,-3330.926739,-8963.317327,12731.542202
87546.806574,-2590.720797,-6818.249932,12583.501014
87546.806904,-1110.308913,-2911.162892,13249.686362
87546.807233,1036.288319,1378.971896,11843.295072
87546.807563,962.267725,4060.306139,10510.924376
87546.807893,1998.556043,5362.668486,8734.430116
87546.808223,2664.741391,5975.544884,6587.832884
87546.808552,2516.700203,6205.373534,3849.070898
87546.808882,2960.823768,4749.792088,3108.864956
87546.809212,3478.967927,3294.210641,3404.947333
87546.809541,1110.308913,1838.629195,3182.885551
87546.809871,-888.247130,-766.095498,4367.215058
87546.810201,-2442.679609,-4673.182538,6069.688724
87546.810531,-3478.967927,-8044.002729,7772.162391
87546.810860,-4811.338623,-8810.098227,8808.450710
87546.811190,-4737.318029,-7814.174080,10288.862594
87546.811520,-3034.844362,-6205.373534,11547.212695
87546.811849,-666.185348,-3294.210641,13693.809927
87546.812179,3182.885551,-1455.581446,14878.139434
87546.812509,3404.947333,3600.648841,14211.954086
87546.812839,3478.967927,5132.839837,10881.027347
87546.813168,5329.482782,4979.620737,9178.553681
87546.813498,7624.121203,4519.963438,8956.491898
87546.813828,6143.709319,5056.230287,8512.368333
87546.814157,2960.823768,4673.182538,7994.224174
87546.814487,888.247130,1532.190996,8586.388927
87546.814817,-888.247130,-3370.820191,8734.430116
87546.815147,-3404.947333,-5975.544884,10214.842000
87546.815476,-6883.915261,-6052.154434,11473.192101
87546.815806,-8068.244768,-6128.763984,10881.027347
87546.816136,-6291.750507,-5286.058936,11177.109724
87546.816465,-3478.967927,-4213.525239,12361.439231
87546.816795,-2368.659014,2374.896044,12657.521608
87546.817125,-1332.370696,7431.126331,10732.986159
87546.817454,666.185348,9806.022374,9548.656652
87546.817784,2294.638420,9882.631924,8438.347739
87546.818114,2664.741391,10495.508323,6883.915261
87546.818444,1776.494261,11797.870669,4589.276840
87546.818773,1776.494261,10265.679673,3849.070898
87546.819103,1554.432478,6511.811733,4071.132681
87546.819433,-222.061783,3294.210641,4811.338623
87546.819762,-2886.803174,1608.800546,4885.359217
87546.820092,-4219.173869,-995.924147,6587.832884
87546.820422,-4663.297435,-4596.572988,7698.141797
87546.820752,-5107.421000,-5975.544884,9104.533087
87546.821081,-3775.050304,-4519.963438,9992.780217
87546.821411,-1554.432478,-842.705048,11473.192101
87546.821741,1406.391290,153.219100,13175.665768
87546.822070,3775.050304,1915.238745,14137.933492
87546.822400,5033.400406,4366.744339,13767.830521
87546.822730,6143.709319,6665.030833,11399.171507
87546.823060,7105.977043,5822.325785,9474.636058
87546.823389,7476.080014,3677.258390,9474.636058
87546.823719,6587.832884,2298.286494,9548.656652
87546.824049,4589.276840,1608.800546,8512.368333
87546.824378,2812.782580,-1685.410096,9252.574275
87546.824708,666.185348,-5975.544884,9844.739029
87546.825038,-1480.411884,-7354.516781,11621.233289
87546.825368,-3552.988522,-7354.516781,11991.336260
87546.825697,-3775.050304,-8350.440928,11251.130318
87546.826027,-3627.009116,-8273.831378,11621.233289
87546.826357,-3108.864956,-5286.058936,11621.233289
87546.826686,-1850.514855,-612.876398,11769.274478
87546.827016,0.000000,2834.553343,10955.047942
87546.827346,0.000000,4290.134789,10066.800811
87546.827676,-740.205942,4749.792088,7772.162391
87546.828005,-222.061783,5132.839837,5329.482782
87546.828335,444.123565,5209.449386,3627.009116
87546.828665,222.061783,4596.572988,4145.153275
87546.828994,-666.185348,2068.457845,3849.070898
87546.829324,-1110.308913,0.000000,4811.338623
87546.829654,-2294.638420,-1838.629195,5477.523971
87546.829984,-3701.029710,-3600.648841,6957.935855
87546.830313,-4737.318029,-6128.763984,8068.244768
87546.830643,-5107.421000,-6894.859482,9400.615463
87546.830973,-3330.926739,-6435.202183,10584.944971
87546.831302,-2294.638420,-4213.525239,12805.562797
87546.831632,-296.082377,-995.924147,13693.809927
87546.831962,2146.597232,1608.800546,13767.830521
87546.832292,4663.297435,3600.648841,12879.583391
87546.832621,5107.421000,5439.278036,11473.192101
87546.832951,4441.235652,5362.668486,9104.533087
87546.833281,6365.771101,5592.497135,8438.347739
87546.833610,7105.977043,4290.134789,9474.636058
87546.833940,4663.297435,3524.039291,8586.388927
87546.834270,1332.370696,1608.800546,8216.285956
87546.834600,74.020594,-1532.190996,8512.368333
87546.834929,-2294.638420,-4519.963438,10881.027347
87546.835259,-4811.338623,-6128.763984,11399.171507
87546.835589,-6217.729913,-5286.058936,11103.089130
87546.835918,-5477.523971,-4366.744339,10955.047942
87546.836248,-3182.885551,-1915.238745,11621.233289
87546.836578,-1406.391290,2451.505594,12287.418637
87546.836908,-370.102971,7277.907231,10510.924376
87546.837237,74.020594,10189.070123,8364.327145
87546.837567,2516.700203,9806.022374,7328.038826
87546.837897,3552.988522,10265.679673,5847.626942
87546.838226,2590.720797,10955.165621,4589.276840
87546.838556,1258.350101,9882.631924,3701.029710
87546.838886,740.205942,5592.497135,3627.009116
87546.839215,444.123565,1685.410096,5033.400406
87546.839545,-1924.535449,-1149.143247,6143.709319
87546.839875,-4737.318029,-1378.971896,7402.059420
87546.840205,-5699.585753,-4213.525239,7698.141797
87546.840534,-4441.235652,-6358.592633,9622.677246
87546.840864,-2738.761985,-5515.887586,11769.274478
87546.841194,-1850.514855,-1532.190996,12583.501014
87546.841523,888.247130,1838.629195,12287.418637
87546.841853,4071.132681,2451.505594,13323.706956
87546.842183,5255.462188,3983.696590,12953.603985
87546.842513,4959.379811,5362.668486,11399.171507
87546.842842,4811.338623,5592.497135,9104.533087
87546.843172,5329.482782,3447.429741,8512.368333
87546.843502,4737.318029,229.828649,9400.615463
87546.843831,1998.556043,-1378.971896,8068.244768
87546.844161,-1036.288319,-2374.896044,7772.162391
87546.844491,-2146.597232,-5822.325785,9326.594869
87546.844821,-3627.009116,-8733.488677,11769.274478
87546.845150,-5403.503377,-9193.145976,11843.295072
87546.845480,-5699.585753,-7584.345430,11325.150913
87546.845810,-4663.297435,-6358.592633,10732.986159
87546.846139,-2516.700203,-4749.792088,11769.274478
87546.846469,-592.164754,-383.047749,12361.439231
87546.846799,444.123565,4596.572988,11177.109724
87546.847129,518.144159,6511.811733,8734.430116
87546.847458,1332.370696,5822.325785,6883.915261
87546.847788,1258.350101,6128.763984,5403.503377
87546.848118,1480.411884,5975.544884,3627.009116
87546.848447,1628.453072,5056.230287,3849.070898
87546.848777,444.123565,2145.067394,4515.256246
87546.849107,-962.267725,-1149.143247,5329.482782
87546.849437,-1998.556043,-2834.553343,6587.832884
87546.849766,-3034.844362,-4060.306139,7846.182985
87546.850096,-3923.091493,-5592.497135,8808.450710
87546.850426,-3849.070898,-6588.421283,10436.903782
87546.850755,-2886.803174,-5898.935335,11399.171507
87546.851085,-1184.329507,-2451.505594,13175.665768
87546.851415,2072.576638,919.314598,13249.686362
87546.851745,2812.782580,3294.210641,13693.809927
87546.852074,3923.091493,4519.963438,11991.336260
87546.852404,5181.441594,5132.839837,10658.965565
87546.852734,5255.462188,5362.668486,9622.677246
87546.853063,5181.441594,5132.839837,8956.491898
87546.853393,5107.421000,4136.915689,8586.388927
87546.853723,4071.132681,1762.019645,8364.327145
87546.854053,1332.370696,76.609550,9252.574275
87546.854382,-518.144159,-2451.505594,9622.677246
87546.854712,-2368.659014,-4903.011187,11769.274478
87546.855042,-3923.091493,-5975.544884,11843.295072
87546.855371,-4367.215058,-5439.278036,11695.253884
87546.855701,-3701.029710,-3447.429741,11473.192101
87546.856031,-2368.659014,76.609550,11325.150913
87546.856361,-962.267725,3830.477490,10732.986159
87546.856690,592.164754,6971.469032,10214.842000
87546.857020,0.000000,9422.974625,8216.285956
87546.857350,0.000000,10495.508323,5921.647536
87546.857679,1998.556043,9422.974625,4663.297435
87546.858009,2664.741391,8503.660028,4145.153275
87546.858338,296.082377,7354.516781,3108.864956
87546.858668,-1554.432478,4903.011187,3552.988522
87546.858997,-1702.473667,306.438199,4959.379811
87546.859327,-2886.803174,-2911.162892,6587.832884
87546.859656,-4367.215058,-5209.449386,8216.285956
87546.859986,-6513.812290,-5822.325785,8438.347739
87546.860315,-5773.606348,-5898.935335,9252.574275
87546.860645,-3478.967927,-5439.278036,11695.253884
87546.860975,-1110.308913,-3524.039291,14063.912898
87546.861304,962.267725,306.438199,13619.789333
87546.861634,2812.782580,3064.381992,12879.583391
87546.861963,5625.565159,4060.306139,11621.233289
87546.862293,6735.874072,4060.306139,10362.883188
87546.862622,6587.832884,4979.620737,8660.409521
87546.862952,6291.750507,3753.867940,7624.121203
87546.863281,5847.626942,1225.752797,7550.100608
87546.863611,3701.029710,-1455.581446,8364.327145
87546.863940,444.123565,-4213.525239,9178.553681
87546.864270,-1850.514855,-6052.154434,10140.821405
87546.864599,-3108.864956,-7737.564530,11621.233289
87546.864929,-3775.050304,-9499.584175,11991.336260
87546.865258,-4441.235652,-9116.536426,11473.192101
87546.865588,-3330.926739,-5132.839837,11843.295072
87546.865917,-1406.391290,-1149.143247,12657.521608
87546.866247,592.164754,2068.457845,11917.315666
87546.866576,1406.391290,5132.839837,11103.089130
87546.866906,1184.329507,7431.126331,8512.368333
87546.867235,1480.411884,7507.735880,6217.729913
87546.867565,1850.514855,6435.202183,5477.523971
87546.867894,1332.370696,5362.668486,4737.318029
87546.868224,-592.164754,4213.525239,4367.215058
87546.868553,-1850.514855,1532.190996,4885.359217
87546.868883,-2664.741391,-1838.629195,5699.585753
87546.869212,-2960.823768,-3677.258390,7550.100608
87546.869542,-3775.050304,-4979.620737,8734.430116
87546.869871,-4515.256246,-5056.230287,9030.512492
87546.870201,-3256.906145,-5745.716235,10732.986159
87546.870531,-1406.391290,-4290.134789,13101.645173
87546.870860,148.041188,-842.705048,13915.871710
87546.871190,3182.885551,2757.943793,13545.768739
87546.871519,4737.318029,4290.134789,13471.748144
87546.871849,4737.318029,5056.230287,10881.027347
87546.872178,5255.462188,5362.668486,8956.491898
87546.872508,6365.771101,5362.668486,8808.450710
87546.872837,5033.400406,5515.887586,8956.491898
87546.873167,3182.885551,3294.210641,7846.182985
87546.873496,1850.514855,383.047749,8438.347739
87546.873826,148.041188,-2221.676944,8660.409521
87546.874155,-1924.535449,-4673.182538,9844.739029
87546.874485,-3775.050304,-5898.935335,11103.089130
87546.874814,-4663.297435,-6665.030833,11029.068536
87546.875144,-5181.441594,-4903.011187,11103.089130
87546.875473,-3108.864956,-2451.505594,12139.377449
87546.875803,-1850.514855,1072.533697,12287.418637
87546.876132,-518.144159,4596.572988,10584.944971
87546.876462,444.123565,7201.297681,9992.780217
87546.876791,1850.514855,8197.221829,8068.244768
87546.877121,1184.329507,9269.755526,5847.626942
87546.877450,1628.453072,9116.536426,4737.318029
87546.877780,2072.576638,7890.783629,4441.235652
87546.878109,888.247130,6358.592633,4589.276840
87546.878439,-1702.473667,3370.820191,3775.050304
87546.878768,-2738.761985,-766.095498,4367.215058
87546.879098,-2812.782580,-3447.429741,5921.647536
87546.879427,-3997.112087,-4979.620737,7920.203579
87546.879757,-5773.606348,-5745.716235,8438.347739
87546.880086,-5033.400406,-5975.544884,10214.842000
87546.880416,-2664.741391,-3983.696590,11843.295072
87546.880746,74.020594,-1915.238745,13619.789333
87546.881075,2590.720797,1302.362347,13915.871710
87546.881405,3256.906145,3753.867940,12657.521608
87546.881734,5033.400406,4749.792088,10584.944971
87546.882064,7328.038826,4673.182538,9770.718434
87546.882393,7772.162391,4519.963438,9252.574275
87546.882723,5181.441594,4596.572988,8808.450710
87546.883052,3256.906145,2298.286494,7772.162391
87546.883382,2442.679609,-1991.848295,9252.574275
87546.883711,444.123565,-5745.716235,9844.739029
87546.884041,-3627.009116,-7660.954980,11325.150913
87546.884370,-6143.709319,-8350.440928,11399.171507
87546.884700,-5995.668130,-9193.145976,11399.171507
87546.885029,-4737.318029,-8580.269578,12509.480420
87546.885359,-4663.297435,-4673.182538,13027.624579
87546.885688,-2664.741391,0.000000,12435.459826
87546.886018,-444.123565,3524.039291,10436.903782
87546.886347,1406.391290,5592.497135,10140.821405
87546.886677,2590.720797,7277.907231,8438.347739
87546.887006,1998.556043,8733.488677,5477.523971
87546.887336,2146.597232,8120.612279,3997.112087
87546.887665,2664.741391,5822.325785,4441.235652
87546.887995,666.185348,3524.039291,4737.318029
87546.888324,-1258.350101,1455.581446,5329.482782
87546.888654,-2368.659014,-1608.800546,5921.647536
87546.888983,-3182.885551,-4749.792088,7402.059420
87546.889313,-4145.153275,-6435.202183,8956.491898
87546.889642,-4589.276840,-5898.935335,9844.739029
87546.889972,-2886.803174,-3983.696590,11399.171507
87546.890302,-1184.329507,-2451.505594,13471.748144
87546.890631,740.205942,0.000000,13915.871710
87546.890961,2590.720797,3370.820191,13915.871710
87546.891290,3997.112087,6052.154434,12213.398043
87546.891620,4737.318029,6052.154434,9918.759623
87546.891949,5551.544565,5745.716235,9548.656652
87546.892279,5477.523971,5209.449386,8142.265362
87546.892608,5181.441594,4826.401637,7920.203579
87546.892938,3478.967927,2911.162892,8438.347739
87546.893267,814.226536,-153.219100,8512.368333
87546.893597,-222.061783,-3217.601092,9326.594869
87546.893926,-1332.370696,-5209.449386,11103.089130
87546.894256,-3478.967927,-5132.839837,10510.924376
87546.894585,-3849.070898,-5822.325785,11325.150913
87546.894915,-3182.885551,-5592.497135,11917.315666
87546.895244,-2738.761985,-1532.190996,12435.459826
87546.895574,-1406.391290,2757.943793,11843.295072
87546.895903,0.000000,5439.278036,11029.068536
87546.896233,-444.123565,7048.078582,8882.471304
87546.896562,296.082377,7814.174080,6587.832884
87546.896892,1480.411884,8503.660028,5921.647536
87546.897221,740.205942,9039.926876,3997.112087
87546.897551,222.061783,7048.078582,3552.988522
87546.897880,-222.061783,4366.744339,3552.988522
87546.898210,-1702.473667,1685.410096,4071.132681
87546.898539,-3108.864956,-1072.533697,4885.359217
87546.898869,-3701.029710,-3983.696590,6883.915261
87546.899198,-5033.400406,-6741.640382,7846.182985
87546.899528,-4737.318029,-7277.907231,9548.656652
87546.899857,-3627.009116,-6128.763984,11251.130318
87546.900187,-1776.494261,-4136.915689,13323.706956
87546.900517,518.144159,-995.924147,14063.912898
87546.900846,3404.947333,1838.629195,14285.974681
87546.901176,4663.297435,3524.039291,13989.892304
87546.901505,5477.523971,4903.011187,10510.924376
87546.901835,6735.874072,4519.963438,8660.409521
87546.902164,8142.265362,4519.963438,8808.450710
87546.902494,7105.977043,4290.134789,9178.553681
87546.902823,3849.070898,2528.115143,8142.265362
87546.903153,1258.350101,-1302.362347,8216.285956
87546.903482,-444.123565,-5898.935335,9622.677246
87546.903812,-2886.803174,-7277.907231,11251.130318
87546.904141,-5625.565159,-9193.145976,11325.150913
87546.904471,-6217.729913,-9039.926876,11621.233289
87546.904800,-4811.338623,-7890.783629,12213.398043
87546.905130,-2516.700203,-4749.792088,13841.851115
87546.905459,-1258.350101,995.924147,13471.748144
87546.905789,-518.144159,5209.449386,10955.047942
87546.906118,518.144159,6281.983084,8882.471304
87546.906448,2960.823768,6358.592633,7402.059420
87546.906777,3108.864956,8580.269578,6143.709319
87546.907107,1924.535449,9806.022374,4515.256246
87546.907436,1258.350101,7354.516781,3404.947333
87546.907766,1110.308913,3447.429741,4737.318029
87546.908095,-1480.411884,0.000000,4811.338623
87546.908425,-3997.112087,-1072.533697,5033.400406
87546.908754,-4737.318029,-3370.820191,7031.956449
87546.909084,-5255.462188,-6358.592633,8290.306550
87546.909413,-5181.441594,-7277.907231,9252.574275
87546.909743,-3478.967927,-5209.449386,11103.089130
87546.910072,-1924.535449,-1302.362347,13101.645173
87546.910402,1258.350101,1532.190996,13175.665768
87546.910732,3627.009116,3140.991542,14137.933492
87546.911061,5033.400406,4673.182538,13027.624579
87546.911391,5329.482782,6894.859482,9178.553681
87546.911720,6661.853478,7354.516781,7698.141797
87546.912050,7254.018232,5515.887586,8808.450710
87546.912379,5255.462188,5286.058936,7846.182985
87546.912709,3034.844362,3753.867940,7476.080014
87546.913038,0.000000,0.000000,7476.080014
87546.913368,-1776.494261,-4136.915689,8512.368333
87546.913697,-4367.215058,-7048.078582,10436.903782
87546.914027,-5699.585753,-7124.688131,11103.089130
87546.914356,-5477.523971,-6665.030833,10807.006753
87546.914686,-4293.194464,-5822.325785,11769.274478
87546.915015,-3256.906145,-2221.676944,12287.418637
87546.915345,-1850.514855,2451.505594,11251.130318
87546.915674,0.000000,6128.763984,10584.944971
87546.916004,592.164754,7277.907231,9696.697840
87546.916333,888.247130,7814.174080,7179.997637
87546.916663,1850.514855,8886.707777,5403.503377
87546.916992,2590.720797,8810.098227,4589.276840
87546.917322,1850.514855,7277.907231,4293.194464
87546.917651,370.102971,4213.525239,4441.235652
87546.917981,-444.123565,919.314598,5107.421000
87546.918310,-2072.576638,-1608.800546,5847.626942
87546.918640,-3849.070898,-3830.477490,7254.018232
87546.918969,-4589.276840,-6588.421283,8586.388927
87546.919299,-4737.318029,-8044.002729,9844.739029
87546.919628,-3775.050304,-6818.249932,10807.006753
87546.919958,-1702.473667,-3524.039291,13323.706956
87546.920288,1406.391290,-1149.143247,14434.015869
87546.920617,2516.700203,1608.800546,14359.995275
87546.920947,3997.112087,3140.991542,12731.542202
87546.921276,5033.400406,4519.963438,10658.965565
87546.921606,5255.462188,5132.839837,8808.450710
87546.921935,7031.956449,4443.353888,8438.347739
87546.922265,7920.203579,3294.210641,8808.450710
87546.922594,4811.338623,2298.286494,8734.430116
87546.922924,740.205942,-612.876398,8512.368333
87546.923253,-666.185348,-4673.182538,9622.677246
87546.923583,-2442.679609,-7354.516781,11621.233289
87546.923912,-5181.441594,-8350.440928,11769.274478
87546.924242,-6143.709319,-8580.269578,11917.315666
87546.924571,-5329.482782,-7124.688131,11917.315666
87546.924901,-3775.050304,-3983.696590,12583.501014
87546.925230,-1554.432478,229.828649,12805.562797
87546.925560,-518.144159,4596.572988,11251.130318
87546.925889,-518.144159,7737.564530,8734.430116
87546.926219,1480.411884,8273.831378,6143.709319
87546.926548,3108.864956,8886.707777,4885.359217
87546.926878,2812.782580,9193.145976,4589.276840
87546.927207,1110.308913,7890.783629,2812.782580
87546.927537,296.082377,4060.306139,2886.803174
87546.927866,0.000000,459.657299,4663.297435
87546.928196,-2664.741391,-1685.410096,5773.606348
87546.928525,-5255.462188,-3983.696590,6365.771101
87546.928855,-5699.585753,-5132.839837,7550.100608
87546.929184,-4737.318029,-6665.030833,8882.471304
87546.929514,-2960.823768,-5592.497135,11843.295072
87546.929843,-1702.473667,-1762.019645,13767.830521
87546.930173,814.226536,2068.457845,13545.768739
87546.930503,3404.947333,2911.162892,14063.912898
87546.930832,4959.379811,3830.477490,12731.542202
87546.931162,5921.647536,4979.620737,10510.924376
87546.931491,5699.585753,7507.735880,8290.306550
87546.931821,6587.832884,6052.154434,8142.265362
87546.932150,5551.544565,3753.867940,8882.471304
87546.932480,2738.761985,1455.581446,8216.285956
87546.932809,-296.082377,-306.438199,7920.203579
87546.933139,-2146.597232,-3753.867940,9178.553681
87546.933468,-3330.926739,-7507.735880,11473.192101
87546.933798,-4885.359217,-7124.688131,11473.192101
87546.934127,-4811.338623,-5975.544884,11325.150913
87546.934457,-3627.009116,-4290.134789,11695.253884
87546.934786,-1924.535449,-1532.190996,12509.480420
87546.935116,0.000000,2374.896044,12065.356855
87546.935445,1110.308913,6741.640382,10584.944971
87546.935775,740.205942,9116.536426,8438.347739
87546.936104,2072.576638,8120.612279,7105.977043
87546.936434,2294.638420,7737.564530,5551.544565
87546.936763,1480.411884,7660.954980,3997.112087
87546.937093,444.123565,6128.763984,4293.194464
87546.937422,-1258.350101,2911.162892,4367.215058
87546.937752,-2590.720797,-229.828649,5625.565159
87546.938081,-3404.947333,-2221.676944,6957.935855
87546.938411,-4441.235652,-4366.744339,7994.224174
87546.938740,-5403.503377,-6205.373534,8586.388927
87546.939070,-4737.318029,-7507.735880,10584.944971
87546.939399,-3478.967927,-6128.763984,12139.377449
87546.939729,-1628.453072,-3064.381992,14211.954086
87546.940059,1776.494261,-306.438199,14211.954086
87546.940388,3404.947333,1149.143247,14434.015869
87546.940718,4145.153275,2298.286494,12065.356855
87546.941047,5477.523971,3447.429741,10955.047942
87546.941377,6587.832884,4213.525239,9548.656652
87546.941706,5773.606348,4213.525239,9474.636058
87546.942036,5403.503377,2451.505594,9548.656652
87546.942365,4885.359217,383.047749,9326.594869
87546.942695,2368.659014,-1685.410096,8808.450710
87546.943024,-1332.370696,-3830.477490,8734.430116
87546.943354,-2812.782580,-6511.811733,10955.047942
87546.943683,-3701.029710,-7890.783629,10732.986159
87546.944013,-4219.173869,-6818.249932,11547.212695
87546.944342,-4367.215058,-4903.011187,11917.315666
87546.944672,-3997.112087,-1762.019645,11991.336260
87546.945001,-1036.288319,1762.019645,10436.903782
87546.945331,222.061783,4979.620737,10510.924376
87546.945660,148.041188,7201.297681,8734.430116
87546.945990,148.041188,8503.660028,5403.503377
87546.946319,1776.494261,8733.488677,4071.132681
87546.946649,2664.741391,7814.174080,4293.194464
87546.946978,814.226536,6894.859482,3997.112087
87546.947308,-1406.391290,4366.744339,3775.050304
87546.947637,-2886.803174,689.485948,4367.215058
87546.947967,-2812.782580,-3064.381992,6513.812290
87546.948296,-4441.235652,-4749.792088,8216.285956
87546.948626,-6069.688724,-5286.058936,8734.430116
87546.948955,-5033.400406,-5132.839837,8956.491898
87546.949285,-2146.597232,-5286.058936,12065.356855
87546.949614,0.000000,-1991.848295,14137.933492
87546.949944,2368.659014,2374.896044,13767.830521
87546.950274,3997.112087,5439.278036,13323.706956
87546.950603,6143.709319,5286.058936,11029.068536
87546.950933,7772.162391,4903.011187,10288.862594
87546.951262,7846.182985,6818.249932,9030.512492
87546.951592,6661.853478,7660.954980,8142.265362
87546.951921,5255.462188,4749.792088,8364.327145
87546.952251,3923.091493,0.000000,9474.636058
87546.952580,-592.164754,-2911.162892,9326.594869
87546.952910,-3627.009116,-4443.353888,9918.759623
87546.953239,-5329.482782,-6818.249932,11399.171507
87546.953569,-5477.523971,-9193.145976,11843.295072
87546.953898,-6217.729913,-7431.126331,12139.377449
87546.954228,-5107.421000,-3524.039291,11399.171507
87546.954557,-3108.864956,76.609550,11621.233289
87546.954887,-444.123565,2681.334243,11177.109724
87546.955216,666.185348,4903.011187,10807.006753
87546.955546,1110.308913,7814.174080,8364.327145
87546.955875,1776.494261,9116.536426,5255.462188
87546.956205,2146.597232,8044.002729,4959.379811
87546.956534,2294.638420,5362.668486,5107.421000
87546.956864,296.082377,4213.525239,4367.215058
87546.957193,-666.185348,2298.286494,5107.421000
87546.957523,-1924.535449,-1378.971896,6069.688724
87546.957852,-2368.659014,-4366.744339,7920.203579
87546.958182,-3478.967927,-6128.763984,9622.677246
87546.958511,-3404.947333,-6128.763984,8882.471304
87546.958841,-2368.659014,-5745.716235,9622.677246
87546.959170,-962.267725,-4903.011187,12583.501014
87546.959500,962.267725,-1991.848295,13915.871710
87546.959829,2960.823768,1762.019645,13693.809927
87546.960159,4145.153275,3294.210641,13323.706956
87546.960489,4293.194464,3294.210641,11029.068536
87546.960818,4515.256246,3524.039291,9178.553681
87546.961148,5255.462188,4290.134789,8660.409521
87546.961477,4663.297435,4136.915689,9178.553681
87546.961807,2664.741391,1915.238745,8882.471304
87546.962136,1036.288319,-1455.581446,8882.471304
87546.962466,-370.102971,-3753.867940,9178.553681
87546.962795,-2072.576638,-4826.401637,9474.636058
87546.963125,-4293.194464,-5822.325785,10436.903782
87546.963454,-4441.235652,-7124.688131,10807.006753
87546.963784,-4219.173869,-6435.202183,11251.130318
87546.964113,-2886.803174,-2911.162892,11769.274478
87546.964443,-1258.350101,1149.143247,11843.295072
87546.964772,0.000000,4060.306139,10288.862594
87546.965102,518.144159,6052.154434,9178.553681
87546.965431,1924.535449,7814.174080,7402.059420
87546.965761,2220.617826,9039.926876,6069.688724
87546.966090,1776.494261,9193.145976,4293.194464
87546.966420,2294.638420,7354.516781,3997.112087
87546.966749,1184.329507,5822.325785,4589.276840
87546.967079,-1110.308913,3064.381992,4219.173869
87546.967408,-2590.720797,229.828649,4959.379811
87546.967738,-3404.947333,-3447.429741,6809.894666
87546.968067,-4737.318029,-5286.058936,8216.285956
87546.968397,-6217.729913,-5209.449386,9252.574275
87546.968727,-5255.462188,-5056.230287,10436.903782
87546.969056,-3478.967927,-4366.744339,11843.295072
87546.969386,0.000000,-1991.848295,13397.727550
87546.969715,2368.659014,1685.410096,14359.995275
87546.970045,3182.885551,4826.401637,13101.645173
87546.970374,4219.173869,5822.325785,10362.883188
87546.970704,6809.894666,4826.401637,10066.800811
87546.971033,7698.141797,5132.839837,9696.697840
87546.971363,5773.606348,5745.716235,9030.512492
87546.971692,4219.173869,3447.429741,8068.244768
87546.972022,2960.823768,-1532.190996,8882.471304
87546.972351,1258.350101,-4060.306139,9770.718434
87546.972681,-2368.659014,-5286.058936,10140.821405
87546.973010,-5033.400406,-6511.811733,11177.109724
87546.973340,-5477.523971,-7431.126331,11251.130318
87546.973669,-4293.194464,-7354.516781,11769.274478
87546.973999,-3034.844362,-4136.915689,12879.583391
87546.974328,-2368.659014,2068.457845,11843.295072
87546.974658,-592.164754,4749.792088,10066.800811
87546.974987,1258.350101,5592.497135,9104.533087
87546.975317,1776.494261,6511.811733,8216.285956
87546.975646,666.185348,8503.660028,5847.626942
87546.975976,1258.350101,8580.269578,4145.153275
87546.976305,1702.473667,6281.983084,4737.318029
87546.976635,592.164754,2451.505594,4885.359217
87546.976965,-2146.597232,766.095498,4885.359217
87546.977294,-3182.885551,-1302.362347,6217.729913
87546.977624,-3330.926739,-4136.915689,7550.100608
87546.977953,-3923.091493,-6205.373534,9252.574275
87546.978283,-4367.215058,-6894.859482,9992.780217
87546.978612,-3627.009116,-4749.792088,10658.965565
87546.978942,-1332.370696,-2221.676944,12065.356855
87546.979271,1776.494261,-612.876398,13915.871710
87546.979601,3627.009116,1915.238745,13841.851115
87546.979930,3701.029710,4826.401637,11917.315666
87546.980260,4737.318029,5286.058936,9844.739029
87546.980589,5255.462188,4673.182538,9104.533087
87546.980919,4811.338623,4213.525239,8142.265362
87546.981248,4219.173869,3294.210641,7550.100608
87546.981578,2886.803174,1608.800546,8068.244768
87546.981907,0.000000,-1225.752797,8142.265362
87546.982237,-1480.411884,-4443.353888,9178.553681
87546.982566,-2812.782580,-6052.154434,10510.924376
87546.982896,-4441.235652,-6435.202183,10732.986159
87546.983225,-4589.276840,-6052.154434,10658.965565
87546.983555,-3330.926739,-5286.058936,11695.253884
87546.983884,-2442.679609,-1991.848295,11769.274478
87546.984214,-1110.308913,2604.724693,12139.377449
87546.984543,666.185348,5056.230287,10807.006753
87546.984873,592.164754,6665.030833,9400.615463
87546.985203,888.247130,7277.907231,6883.915261
87546.985532,1850.514855,8197.221829,5403.503377
87546.985862,1776.494261,8656.879127,4737.318029
87546.986191,518.144159,7277.907231,4219.173869
87546.986521,222.061783,4290.134789,4589.276840
87546.986850,-740.205942,1302.362347,4885.359217
87546.987180,-2368.659014,-995.924147,5477.523971
87546.987509,-3256.906145,-3370.820191,7846.182985
87546.987839,-4071.132681,-5439.278036,8956.491898
87546.988168,-4219.173869,-5286.058936,10288.862594
87546.988498,-3330.926739,-4673.182538,11547.212695
87546.988827,-1850.514855,-3370.820191,13397.727550
87546.989157,666.185348,-306.438199,13915.871710
87546.989486,2590.720797,2298.286494,14582.057057
87546.989816,4219.173869,3983.696590,13175.665768
87546.990145,4071.132681,5286.058936,11029.068536
87546.990475,5329.482782,5362.668486,8956.491898
87546.990804,7476.080014,4979.620737,8438.347739
87546.991134,5921.647536,4519.963438,8808.450710
87546.991463,3256.906145,2834.553343,8290.306550
87546.991793,222.061783,-306.438199,8586.388927
87546.992122,-740.205942,-4673.182538,9474.636058
87546.992452,-2664.741391,-7124.688131,11547.212695
87546.992781,-4441.235652,-8120.612279,12435.459826
87546.993111,-5699.585753,-7124.688131,11325.150913
87546.993441,-4515.256246,-6128.763984,11029.068536
87546.993770,-2072.576638,-3064.381992,13175.665768
87546.994100,-962.267725,1838.629195,12361.439231
87546.994429,-592.164754,5975.544884,10584.944971
87546.994759,518.144159,7660.954980,8438.347739
87546.995088,1702.473667,7507.735880,6439.791695
87546.995418,1850.514855,9039.926876,5403.503377
87546.995747,1776.494261,9039.926876,4663.297435
87546.996077,74.020594,6665.030833,3330.926739
87546.996406,-296.082377,2145.067394,3627.009116
87546.996736,-1850.514855,-1532.190996,5033.400406
87546.997065,-4219.173869,-2757.943793,5847.626942
87546.997395,-4811.338623,-4366.744339,6883.915261
87546.997724,-4441.235652,-7354.516781,8216.285956
87546.998054,-4145.153275,-8197.221829,9918.759623
87546.998383,-3108.864956,-5822.325785,11769.274478
87546.998713,-592.164754,-1838.629195,13545.768739
87546.999042,3034.844362,995.924147,13767.830521
87546.999372,4589.276840,2604.724693,14211.954086
87546.999701,5329.482782,4213.525239,12953.603985
87547.000031,5847.626942,6435.202183,10214.842000
87547.000360,6365.771101,6052.154434,7920.203579
87547.000690,6661.853478,3983.696590,8808.450710
87547.001019,4959.379811,2987.772442,8068.244768
87547.001349,2442.679609,1608.800546,7328.038826
87547.001679,370.102971,-1225.752797,8956.491898
87547.002008,-1702.473667,-5209.449386,9030.512492
87547.002338,-4145.153275,-7277.907231,10658.965565
87547.002667,-4885.359217,-7737.564530,10955.047942
87547.002997,-4811.338623,-6128.763984,11177.109724
87547.003326,-3404.947333,-4673.182538,12139.377449
87547.003656,-2146.597232,-1378.971896,13175.665768
87547.003985,-666.185348,3447.429741,11769.274478
87547.004315,666.185348,6894.859482,10288.862594
87547.004644,1184.329507,8197.221829,8956.491898
87547.004974,1036.288319,8197.221829,6217.729913
87547.005303,1702.473667,9039.926876,4885.359217
87547.005633,1850.514855,9116.536426,4663.297435
87547.005962,0.000000,7124.688131,4219.173869
87547.006292,-1258.350101,4290.134789,4441.235652
87547.006621,-1924.535449,689.485948,5699.585753
87547.006951,-3478.967927,-2374.896044,6143.709319
87547.007280,-4811.338623,-4290.134789,7772.162391
87547.007610,-4737.318029,-6128.763984,9400.615463
87547.007939,-4737.318029,-6435.202183,10288.862594
87547.008269,-3330.926739,-4903.011187,11843.295072
87547.008598,-592.164754,-1378.971896,13915.871710
87547.008928,1850.514855,689.485948,14137.933492
87547.009257,3256.906145,2528.115143,14137.933492
87547.009587,5181.441594,4213.525239,12139.377449
87547.009916,5995.668130,5132.839837,10362.883188
87547.010246,6439.791695,5209.449386,8734.430116
87547.010576,6957.935855,4826.401637,9030.512492
87547.010905,6809.894666,3753.867940,8734.430116
87547.011235,4293.194464,1225.752797,8808.450710
87547.011564,814.226536,-1608.800546,7920.203579
87547.011894,-888.247130,-5898.935335,9178.553681
87547.012223,-2960.823768,-7814.174080,11399.171507
87547.012553,-5107.421000,-8503.660028,11843.295072
87547.012882,-5847.626942,-8044.002729,11843.295072
87547.013212,-5107.421000,-6128.763984,11769.274478
87547.013541,-3108.864956,-2604.724693,12509.480420
87547.013871,-814.226536,1225.752797,12361.439231
87547.014200,-666.185348,5439.278036,10955.047942
87547.014530,-962.267725,6971.469032,7846.182985
87547.014859,888.247130,7201.297681,5551.544565
87547.015189,3182.885551,7814.174080,4959.379811
87547.015518,2294.638420,8350.440928,3627.009116
87547.015848,0.000000,6894.859482,2664.741391
87547.016177,-518.144159,2757.943793,3552.988522
87547.016507,-592.164754,-995.924147,4885.359217
87547.016836,-2516.700203,-3217.601092,6513.812290
87547.017166,-4737.318029,-4443.353888,7772.162391
87547.017495,-5181.441594,-6435.202183,8216.285956
87547.017825,-3478.967927,-7660.954980,9844.739029
87547.018154,-1702.473667,-5592.497135,12953.603985
87547.018484,296.082377,-1378.971896,14508.036463
87547.018814,3034.844362,2681.334243,14211.954086
87547.019143,4737.318029,4213.525239,14137.933492
87547.019473,6143.709319,4290.134789,11621.233289
87547.019802,6735.874072,5975.544884,9400.615463
87547.020132,6661.853478,7660.954980,8438.347739
87547.020461,5847.626942,6511.811733,7476.080014
87547.020791,4885.359217,4060.306139,8216.285956
87547.021120,1554.432478,612.876398,8808.450710
87547.021450,-2368.659014,-2374.896044,8364.327145
87547.021779,-4367.215058,-5745.716235,9400.615463
87547.022109,-5403.503377,-8350.440928,11473.192101
87547.022438,-6587.832884,-8580.269578,11769.274478
87547.022768,-5773.606348,-6588.421283,11769.274478
87547.023097,-3478.967927,-4213.525239,12435.459826
87547.023427,-1702.473667,0.000000,13249.686362
87547.023756,148.041188,3524.039291,11843.295072
87547.024086,1184.329507,7354.516781,10658.965565
87547.024415,1776.494261,9959.241474,7698.141797
87547.024745,2590.720797,9269.755526,6661.853478
87547.025074,3404.947333,8580.269578,5403.503377
87547.025404,2738.761985,8503.660028,4071.132681
87547.025733,1036.288319,6741.640382,3923.091493
87547.026063,-1110.308913,3217.601092,4589.276840
87547.026392,-1924.535449,-995.924147,5625.565159
87547.026722,-3108.864956,-3524.039291,7476.080014
87547.027052,-4737.318029,-5209.449386,7476.080014
87547.027381,-4885.359217,-7201.297681,8290.306550
87547.027711,-4367.215058,-7431.126331,10140.821405
87547.028040,-3256.906145,-5669.106685,13249.686362
87547.028370,-1036.288319,-2451.505594,14211.954086
87547.028699,2368.659014,229.828649,14656.077652
87547.029029,3775.050304,1838.629195,14063.912898
87547.029358,4367.215058,2528.115143,11177.109724
87547.029688,6217.729913,4290.134789,9622.677246
87547.030017,6809.894666,5439.278036,8660.409521
87547.030347,6587.832884,4979.620737,8882.471304
87547.030676,5847.626942,2911.162892,8290.306550
87547.031006,3849.070898,1072.533697,8438.347739
87547.031335,1406.391290,-2145.067394,8216.285956
87547.031665,-1184.329507,-5362.668486,9474.636058
87547.031994,-3404.947333,-7814.174080,10732.986159
87547.032324,-4737.318029,-9499.584175,11399.171507
87547.032653,-5181.441594,-7814.174080,11769.274478
87547.032983,-4589.276840,-5515.887586,12361.439231
87547.033312,-3182.885551,-1455.581446,12065.356855
87547.033642,-888.247130,2145.067394,10584.944971
87547.033971,296.082377,5515.887586,10140.821405
87547.034301,592.164754,7814.174080,8068.244768
87547.034630,370.102971,9039.926876,4737.318029
87547.034960,2886.803174,9422.974625,3701.029710
87547.035290,3775.050304,8273.831378,3923.091493
87547.035619,888.247130,7201.297681,3849.070898
87547.035949,-1110.308913,3983.696590,3849.070898
87547.036278,-1850.514855,0.000000,4959.379811
87547.036608,-3256.906145,-4136.915689,6365.771101
87547.036937,-4811.338623,-6588.421283,8734.430116
87547.037267,-6291.750507,-6665.030833,9326.594869
87547.037596,-5625.565159,-6741.640382,10732.986159
87547.037926,-3256.906145,-5362.668486,13693.809927
87547.038255,74.020594,-2374.896044,15544.324782
87547.038585,2442.679609,1838.629195,14804.118840
87547.038914,2960.823768,5286.058936,13841.851115
87547.039244,5551.544565,5132.839837,11473.192101
87547.039573,7328.038826,6052.154434,9992.780217
87547.039903,7624.121203,7277.907231,9104.533087
87547.040232,5847.626942,7507.735880,8068.244768
87547.040562,4737.318029,4596.572988,7698.141797
87547.040891,2812.782580,612.876398,8512.368333
87547.041221,-592.164754,-2911.162892,8882.471304
87547.041550,-4219.173869,-4673.182538,9770.718434
87547.041880,-5477.523971,-7507.735880,11547.212695
87547.042209,-5699.585753,-9422.974625,11843.295072
87547.042539,-5329.482782,-7507.735880,12139.377449
87547.042868,-3997.112087,-3294.210641,12139.377449
87547.043198,-1258.350101,1762.019645,11843.295072
87547.043528,814.226536,4213.525239,10955.047942
87547.043857,1184.329507,6358.592633,9844.739029
87547.044187,1628.453072,8580.269578,7105.977043
87547.044516,1554.432478,10035.851024,4737.318029
87547.044846,2368.659014,8810.098227,4071.132681
87547.045175,2146.597232,6971.469032,4663.297435
87547.045505,0.000000,4903.011187,3108.864956
87547.045834,-2146.597232,1991.848295,4219.173869
87547.046164,-2812.782580,-1838.629195,5403.503377
87547.046493,-4145.153275,-5209.449386,7994.224174
87547.046823,-4885.359217,-7124.688131,9178.553681
87547.047152,-4885.359217,-7507.735880,9548.656652
87547.047482,-3997.112087,-6741.640382,10436.903782
87547.047811,-1628.453072,-5209.449386,13915.871710
87547.048141,962.267725,-1149.143247,14359.995275
87547.048470,3627.009116,1532.190996,14211.954086
87547.048800,5107.421000,3600.648841,13101.645173
87547.049129,5477.523971,3753.867940,10881.027347
87547.049459,5477.523971,4979.620737,8660.409521
87547.049788,6735.874072,5515.887586,7328.038826
87547.050118,6365.771101,4903.011187,8586.388927
87547.050447,3330.926739,2451.505594,7772.162391
87547.050777,1776.494261,-229.828649,7550.100608
87547.051106,-592.164754,-2911.162892,8660.409521
87547.051436,-2516.700203,-5515.887586,9844.739029
87547.051765,-4737.318029,-7660.954980,11029.068536
87547.052095,-5255.462188,-8733.488677,11029.068536
87547.052425,-5329.482782,-6358.592633,10732.986159
87547.052754,-3701.029710,-3294.210641,11991.336260
87547.053084,-1406.391290,229.828649,12731.542202
87547.053413,-518.144159,3753.867940,10732.986159
87547.053743,0.000000,5822.325785,9252.574275
87547.054072,1110.308913,6894.859482,7402.059420
87547.054402,962.267725,8810.098227,5847.626942
87547.054731,1702.473667,9039.926876,4737.318029
87547.055061,2368.659014,7431.126331,5181.441594
87547.055390,1702.473667,5132.839837,4515.256246
87547.055720,-518.144159,2451.505594,5255.462188
87547.056049,-2368.659014,-766.095498,5699.585753
87547.056379,-2738.761985,-3294.210641,8364.327145
87547.056708,-3701.029710,-5745.716235,9252.574275
87547.057038,-4811.338623,-6894.859482,10066.800811
87547.057367,-4589.276840,-6281.983084,10658.965565
87547.057697,-2590.720797,-3830.477490,13545.768739
87547.058026,1110.308913,-459.657299,14285.974681
87547.058356,3775.050304,1991.848295,15174.221811
87547.058685,3552.988522,4826.401637,13249.686362
87547.059015,4737.318029,5286.058936,9770.718434
87547.059344,7105.977043,5898.935335,8512.368333
87547.059674,8216.285956,7124.688131,8364.327145
87547.060003,5625.565159,6358.592633,8734.430116
87547.060333,2516.700203,4060.306139,7476.080014
87547.060662,1110.308913,-689.485948,8290.306550
87547.060992,-814.226536,-4903.011187,9474.636058
87547.061321,-4071.132681,-7277.907231,10955.047942
87547.061651,-6661.853478,-7354.516781,10584.944971
87547.061980,-6143.709319,-7890.783629,10881.027347
87547.062310,-4515.256246,-7048.078582,11621.233289
87547.062639,-2812.782580,-2911.162892,12953.603985
87547.062969,-1406.391290,2834.553343,11917.315666
87547.063298,296.082377,6358.592633,10214.842000
87547.063628,1998.556043,7277.907231,8734.430116
87547.063957,3034.844362,7431.126331,7920.203579
87547.064287,2146.597232,9652.803275,5329.482782
87547.064616,2072.576638,9806.022374,3627.009116
87547.064946,1850.514855,6665.030833,3256.906145
87547.065275,0.000000,2604.724693,4515.256246
87547.065605,-2220.617826,306.438199,5329.482782
87547.065934,-3849.070898,-1838.629195,5773.606348
87547.066264,-4219.173869,-5286.058936,7846.182985
87547.066593,-4737.318029,-8044.002729,8512.368333
87547.066923,-4515.256246,-7890.783629,9178.553681
87547.067252,-3034.844362,-5209.449386,10807.006753
87547.067582,-444.123565,-2145.067394,13249.686362
87547.067911,3182.885551,-306.438199,14063.912898
87547.068241,4811.338623,2221.676944,14730.098246
87547.068570,4959.379811,5132.839837,11843.295072
87547.068900,6365.771101,6052.154434,9770.718434
87547.069229,7328.038826,4903.011187,8734.430116
87547.069559,6883.915261,4060.306139,8364.327145
87547.069888,5033.400406,3677.258390,7624.121203
87547.070218,2664.741391,2604.724693,8290.306550
87547.070547,0.000000,-1302.362347,8512.368333
87547.070877,-2072.576638,-5362.668486,9474.636058
87547.071206,-3923.091493,-7967.393179,11473.192101
87547.071536,-5699.585753,-8733.488677,10955.047942
87547.071865,-6217.729913,-7660.954980,11473.192101
87547.072195,-4737.318029,-6128.763984,12657.521608
87547.072524,-3627.009116,-2451.505594,12731.542202
87547.072854,-1554.432478,1991.848295,11695.253884
87547.073183,-148.041188,5592.497135,11177.109724
87547.073513,74.020594,7354.516781,9252.574275
87547.073842,518.144159,7967.393179,6809.894666
87547.074172,1184.329507,8273.831378,4959.379811
87547.074501,1258.350101,8810.098227,4441.235652
87547.074831,518.144159,7048.078582,4071.132681
87547.075160,0.000000,4519.963438,4293.194464
87547.075490,-962.267725,1225.752797,5107.421000
87547.075819,-2442.679609,-612.876398,6365.771101
87547.076149,-3552.988522,-3830.477490,8142.265362
87547.076478,-3923.091493,-6128.763984,9030.512492
87547.076808,-3923.091493,-6818.249932,9622.677246
87547.077137,-3034.844362,-5286.058936,11621.233289
87547.077467,-1332.370696,-2604.724693,13915.871710
87547.077796,2294.638420,153.219100,14137.933492
87547.078126,3849.070898,2374.896044,14508.036463
87547.078455,5329.482782,4290.134789,12509.480420
87547.078785,5033.400406,5745.716235,9918.759623
87547.079114,5921.647536,6128.763984,8068.244768
87547.079444,7994.224174,5515.887586,8438.347739
87547.079773,7105.977043,4596.572988,8364.327145
87547.080103,3330.926739,2911.162892,7328.038826
87547.080432,592.164754,-459.657299,7254.018232
87547.080762,-444.123565,-5209.449386,9326.594869
87547.081091,-3256.906145,-7584.345430,11769.274478
87547.081421,-5551.544565,-8810.098227,11843.295072
87547.081750,-6439.791695,-8427.050478,11473.192101
87547.082080,-4737.318029,-7124.688131,11843.295072
87547.082409,-2368.659014,-3140.991542,13027.624579
87547.082739,-296.082377,1532.190996,12435.459826
87547.083068,-444.123565,5286.058936,10214.842000
87547.083398,0.000000,7354.516781,7476.080014
87547.083727,2072.576638,8120.612279,6217.729913
87547.084057,3256.906145,8810.098227,4811.338623
87547.084386,1628.453072,9729.412825,3256.906145
87547.084716,296.082377,6435.202183,2220.617826
87547.085045,-370.102971,2528.115143,3034.844362
87547.085375,-666.185348,-1072.533697,5477.523971
87547.085704,-3256.906145,-3064.381992,6587.832884
87547.086034,-4959.379811,-4673.182538,7698.141797
87547.086363,-4737.318029,-7584.345430,8512.368333
87547.086693,-3923.091493,-8810.098227,10584.944971
87547.087022,-2442.679609,-6128.763984,12065.356855
87547.087352,-370.102971,-1762.019645,13989.892304
87547.087681,2368.659014,1608.800546,14878.139434
87547.088011,3997.112087,2681.334243,15100.201217
87547.088340,4811.338623,3830.477490,12731.542202
87547.088670,4959.379811,5745.716235,10510.924376
87547.088999,4959.379811,6435.202183,8364.327145
87547.089329,4959.379811,5209.449386,8438.347739
87547.089658,3478.967927,2681.334243,8660.409521
87547.089988,740.205942,919.314598,7846.182985
87547.090317,-2072.576638,-1762.019645,8364.327145
87547.090647,-3330.926739,-5286.058936,9696.697840
87547.090976,-4515.256246,-7354.516781,11621.233289
87547.091306,-4959.379811,-7660.954980,11325.150913
87547.091635,-3404.947333,-7201.297681,11399.171507
87547.091965,-2072.576638,-3370.820191,11769.274478
87547.092294,296.082377,536.266849,12805.562797
87547.092624,1406.391290,4979.620737,11177.109724
87547.092953,2146.597232,8427.050478,9992.780217
87547.093283,2368.659014,9422.974625,8216.285956
87547.093612,2146.597232,9806.022374,6587.832884
87547.093942,962.267725,9959.241474,4219.173869
87547.094271,1332.370696,9116.536426,4441.235652
87547.094601,0.000000,5898.935335,4515.256246
87547.094930,-2368.659014,2911.162892,3775.050304
87547.095260,-3182.885551,153.219100,5181.441594
87547.095589,-4293.194464,-2221.676944,6143.709319
87547.095919,-5329.482782,-4213.525239,7105.977043
87547.096248,-5033.400406,-6281.983084,8586.388927
87547.096578,-4515.256246,-6818.249932,9992.780217
87547.096907,-3108.864956,-5822.325785,11843.295072
87547.097237,0.000000,-2298.286494,14359.995275
87547.097566,2886.803174,306.438199,15100.201217
87547.097896,4145.153275,2451.505594,14804.118840
87547.098225,5847.626942,3983.696590,12213.398043
87547.098555,7328.038826,4979.620737,10510.924376
87547.098884,7254.018232,5822.325785,8734.430116
87547.099214,8142.265362,5822.325785,8364.327145
87547.099543,7550.100608,3830.477490,8290.306550
87547.099873,4589.276840,1991.848295,8068.244768
87547.100202,222.061783,-1608.800546,7254.018232
87547.100532,-2146.597232,-5056.230287,9030.512492
87547.100861,-3034.844362,-8503.660028,11621.233289
87547.101191,-5995.668130,-9806.022374,11843.295072
87547.101520,-7105.977043,-9039.926876,11325.150913
87547.101850,-6291.750507,-6818.249932,11325.150913
87547.102179,-3849.070898,-2911.162892,11843.295072
87547.102509,-666.185348,1302.362347,11547.212695
87547.102838,-666.185348,5822.325785,10881.027347
87547.103168,-1184.329507,7890.783629,7254.018232
87547.103497,222.061783,7890.783629,5329.482782
87547.103827,2886.803174,7507.735880,4737.318029
87547.104156,2368.659014,7431.126331,4737.318029
87547.104486,-592.164754,7048.078582,3552.988522
87547.104815,-1184.329507,3140.991542,4441.235652
87547.105145,-1406.391290,-1608.800546,5921.647536
87547.105474,-2442.679609,-3907.087040,8142.265362
87547.105804,-4663.297435,-5362.668486,8882.471304
87547.106133,-5921.647536,-6741.640382,8956.491898
87547.106463,-4663.297435,-8350.440928,10066.800811
87547.106792,-2146.597232,-6971.469032,13323.706956
87547.107122,-222.061783,-1991.848295,14878.139434
87547.107451,2738.761985,2911.162892,14063.912898
87547.107781,4219.173869,4519.963438,13693.809927
87547.108110,6957.935855,4673.182538,12065.356855
87547.108440,7772.162391,6205.373534,10362.883188
87547.108769,6957.935855,7660.954980,8142.265362
87547.109099,6439.791695,7201.297681,7698.141797
87547.109428,5921.647536,3447.429741,8512.368333
87547.109758,3404.947333,612.876398,8882.471304
87547.110087,-962.267725,-1455.581446,7920.203579
87547.110417,-2812.782580,-4213.525239,9326.594869
87547.110746,-4441.235652,-7890.783629,11103.089130
87547.111076,-5773.606348,-8580.269578,11843.295072
87547.111405,-5477.523971,-6511.811733,11843.295072
87547.111735,-3849.070898,-3217.601092,11991.336260
87547.112064,-1554.432478,1149.143247,12065.356855
87547.112394,444.123565,3907.087040,11843.295072
87547.112723,296.082377,7048.078582,10436.903782
87547.113053,0.000000,9576.193725,7994.224174
87547.113382,1258.350101,9499.584175,5773.606348
87547.113712,2368.659014,8197.221829,5477.523971
87547.114041,1776.494261,7507.735880,4145.153275
87547.114371,-370.102971,6971.469032,2368.659014
87547.114700,-814.226536,4749.792088,4293.194464
87547.115030,-1258.350101,-766.095498,5181.441594
87547.115359,-2664.741391,-3294.210641,7105.977043
87547.115689,-3552.988522,-4366.744339,7994.224174
87547.116018,-3627.009116,-5286.058936,8142.265362
87547.116348,-2664.741391,-6205.373534,9918.759623
87547.116677,-1184.329507,-5822.325785,12879.583391
87547.117007,814.226536,-2145.067394,14211.954086
87547.117336,3775.050304,1685.410096,14211.954086
87547.117666,4219.173869,2604.724693,14063.912898
87547.117995,3849.070898,2757.943793,10732.986159
87547.118325,5033.400406,3907.087040,8956.491898
87547.118654,5625.565159,4903.011187,7994.224174
87547.118984,3923.091493,3907.087040,7476.080014
87547.119313,2886.803174,1915.238745,6957.935855
87547.119643,1480.411884,-995.924147,8438.347739
87547.119972,-1480.411884,-3600.648841,8216.285956
87547.120302,-4219.173869,-6435.202183,9770.718434
87547.120631,-5255.462188,-8963.317327,11917.315666
87547.120961,-5699.585753,-9422.974625,11917.315666
87547.121290,-5181.441594,-7737.564530,11843.295072
87547.121620,-3404.947333,-5439.278036,12879.583391
87547.121949,-1998.556043,-1225.752797,12805.562797
87547.122279,296.082377,3140.991542,11621.233289
87547.122608,1850.514855,5822.325785,10807.006753
87547.122938,1776.494261,7737.564530,8512.368333
87547.123267,1332.370696,9039.926876,5921.647536
87547.123597,2960.823768,8886.707777,5033.400406
87547.123926,3701.029710,6971.469032,4589.276840
87547.124256,1332.370696,5362.668486,3849.070898
87547.124585,-1036.288319,2681.334243,4145.153275
87547.124915,-2442.679609,-612.876398,4885.359217
87547.125244,-3330.926739,-3753.867940,7402.059420
87547.125574,-5403.503377,-6205.373534,8808.450710
87547.125903,-5995.668130,-7048.078582,9474.636058
87547.126233,-5921.647536,-7048.078582,9252.574275
87547.126562,-3108.864956,-5515.887586,12731.542202
87547.126892,370.102971,-2298.286494,14656.077652
87547.127221,1776.494261,2451.505594,14804.118840
87547.127551,3478.967927,4979.620737,12805.562797
87547.127880,6069.688724,5592.497135,10584.944971
87547.128210,8512.368333,6128.763984,9770.718434
87547.128539,8438.347739,7354.516781,8734.430116
87547.128869,7105.977043,7584.345430,7846.182985
87547.129198,5329.482782,4519.963438,7698.141797
87547.129528,3034.844362,0.000000,9178.553681
87547.129857,-444.123565,-3370.820191,9252.574275
87547.130187,-3552.988522,-5669.106685,10214.842000
87547.130516,-5699.585753,-6741.640382,11769.274478
87547.130846,-5551.544565,-8503.660028,12065.356855
87547.131175,-4811.338623,-6971.469032,12361.439231
87547.131505,-3701.029710,-2451.505594,12213.398043
87547.131834,-1406.391290,2987.772442,11843.295072
87547.132164,666.185348,5592.497135,10066.800811
87547.132493,814.226536,7737.564530,9326.594869
87547.132823,1628.453072,9499.584175,6143.709319
87547.133152,1702.473667,10955.165621,4737.318029
87547.133482,1332.370696,10035.851024,3256.906145
87547.133811,1258.350101,6818.249932,3404.947333
87547.134141,-1258.350101,4366.744339,2886.803174
87547.134470,-3330.926739,1149.143247,3182.885551
87547.134800,-3627.009116,-1915.238745,4811.338623
87547.135129,-4441.235652,-4060.306139,7105.977043
87547.135459,-5329.482782,-6588.421283,8660.409521
87547.135788,-5403.503377,-6818.249932,9104.533087
87547.136118,-3182.885551,-6052.154434,10288.862594
87547.136447,-666.185348,-4290.134789,13767.830521
87547.136777,2516.700203,-766.095498,14211.954086
87547.137106,4663.297435,2987.772442,14656.077652
87547.137436,5921.647536,3753.867940,13175.665768
87547.137765,7105.977043,4060.306139,11103.089130
87547.138095,7105.977043,4596.572988,9474.636058
87547.138424,6883.915261,4596.572988,8142.265362
87547.138754,6291.750507,3447.429741,8808.450710
87547.139083,3478.967927,689.485948,8512.368333
87547.139413,222.061783,-2145.067394,8512.368333
87547.139742,-1110.308913,-5439.278036,9104.533087
87547.140072,-3330.926739,-7277.907231,11325.150913
87547.140401,-5551.544565,-8810.098227,11917.315666
87547.140731,-5329.482782,-9346.365076,12731.542202
87547.141060,-4737.318029,-7201.297681,11917.315666
87547.141390,-3627.009116,-3064.381992,12879.583391
87547.141719,-296.082377,536.266849,11843.295072
87547.142049,1110.308913,4903.011187,10955.047942
87547.142378,296.082377,7277.907231,8660.409521
87547.142708,1184.329507,8044.002729,7179.997637
87547.143037,1332.370696,8886.707777,5403.503377
87547.143367,962.267725,8427.050478,3627.009116
87547.143696,1480.411884,6588.421283,4293.194464
87547.144026,888.247130,4673.182538,4959.379811
87547.144355,-2146.597232,1915.238745,3923.091493
87547.144685,-3849.070898,-1225.752797,4959.379811
87547.145014,-3775.050304,-4519.963438,8216.285956
87547.145344,-5107.421000,-6511.811733,9030.512492
87547.145673,-5625.565159,-6281.983084,9844.739029
87547.146003,-4441.235652,-6128.763984,11325.150913
87547.146332,-2368.659014,-3907.087040,13619.789333
87547.146662,1628.453072,-306.438199,14656.077652
87547.146991,4293.194464,3140.991542,15840.407159
87547.147321,4737.318029,5132.839837,13101.645173
87547.147650,5625.565159,6358.592633,9770.718434
87547.147980,8586.388927,6511.811733,8808.450710
87547.148309,9696.697840,7277.907231,8586.388927
87547.148639,6439.791695,7584.345430,7846.182985
87547.148968,2664.741391,3524.039291,6809.894666
87547.149298,592.164754,-1762.019645,7476.080014
87547.149627,-1332.370696,-5439.278036,9178.553681
87547.149957,-5033.400406,-6818.249932,11621.233289
87547.150286,-7772.162391,-7814.174080,11547.212695
87547.150616,-7031.956449,-7967.393179,10436.903782
87547.150945,-4071.132681,-6741.640382,11843.295072
87547.151275,-2072.576638,-2374.896044,12731.542202
87547.151604,-740.205942,3600.648841,11103.089130
87547.151934,814.226536,8044.002729,9474.636058
87547.152263,2368.659014,8733.488677,8216.285956
87547.152593,3849.070898,8810.098227,6513.812290
87547.152922,2886.803174,10878.556072,4515.256246
87547.153252,2072.576638,9729.412825,3034.844362
87547.153581,962.267725,6971.469032,2146.597232
87547.153911,-518.144159,2221.676944,4441.235652
87547.154240,-3330.926739,-842.705048,5329.482782
87547.154570,-5625.565159,-2451.505594,5773.606348
87547.154899,-5847.626942,-4903.011187,7846.182985
87547.155229,-5995.668130,-8503.660028,9252.574275
87547.155558,-6439.791695,-8273.831378,9474.636058
87547.155888,-4219.173869,-4903.011187,11547.212695
87547.156217,-888.247130,-2145.067394,13989.892304
87547.156547,3108.864956,0.000000,14434.015869
87547.156876,4959.379811,2374.896044,15174.221811
87547.157206,5477.523971,4366.744339,11843.295072
87547.157535,5921.647536,5975.544884,8956.491898
87547.157865,8364.327145,5515.887586,9252.574275
87547.158194,7328.038826,4596.572988,9252.574275
87547.158524,5329.482782,3294.210641,7994.224174
87547.158853,2442.679609,995.924147,8438.347739
87547.159183,-296.082377,-2834.553343,9030.512492
87547.159512,-2146.597232,-6358.592633,10140.821405
87547.159842,-4737.318029,-8580.269578,12361.439231
87547.160171,-6587.832884,-8350.440928,11621.233289
87547.160501,-5921.647536,-7967.393179,11621.233289
87547.160830,-4145.153275,-6818.249932,13101.645173
87547.161160,-2442.679609,-2221.676944,13175.665768
87547.161489,-444.123565,2911.162892,11621.233289
87547.161819,1036.288319,6665.030833,10436.903782
87547.162148,1332.370696,7507.735880,8290.306550
87547.162478,1480.411884,8044.002729,5921.647536
87547.162807,2072.576638,9346.365076,4367.215058
87547.163137,2368.659014,8963.317327,4145.153275
87547.163466,1110.308913,6588.421283,3552.988522
87547.163796,0.000000,2757.943793,4071.132681
87547.164125,-1480.411884,229.828649,4811.338623
87547.164455,-3627.009116,-1378.971896,5477.523971
87547.164784,-4589.276840,-4136.915689,7772.162391
87547.165114,-4441.235652,-6894.859482,9622.677246
87547.165443,-5329.482782,-7431.126331,9178.553681
87547.165773,-3627.009116,-5056.230287,12139.377449
87547.166102,-666.185348,-1991.848295,14359.995275
87547.166432,1776.494261,536.266849,13989.892304
87547.166761,3256.906145,2987.772442,13249.686362
87547.167091,5699.585753,4213.525239,11769.274478
87547.167420,5921.647536,6894.859482,9400.615463
87547.167749,5995.668130,7048.078582,7476.080014
87547.168079,8216.285956,6281.983084,8438.347739
87547.168408,7179.997637,5132.839837,8438.347739
87547.168738,2886.803174,2451.505594,7624.121203
87547.169067,-592.164754,-1532.190996,7476.080014
87547.169397,-1850.514855,-5209.449386,9770.718434
87547.169726,-4145.153275,-8197.221829,11843.295072
87547.170056,-6217.729913,-8733.488677,12361.439231
87547.170385,-6661.853478,-7201.297681,11917.315666
87547.170715,-4515.256246,-5439.278036,11621.233289
87547.171044,-1554.432478,-1608.800546,12361.439231
87547.171374,296.082377,3064.381992,12361.439231
87547.171703,74.020594,7431.126331,10140.821405
87547.172033,666.185348,9499.584175,7031.956449
87547.172362,2812.782580,8963.317327,5847.626942
87547.172692,2812.782580,9499.584175,4737.318029
87547.173021,666.185348,9882.631924,3923.091493
87547.173351,-1036.288319,7737.564530,3034.844362
87547.173680,-1776.494261,2298.286494,3701.029710
87547.174010,-2960.823768,-1685.410096,4219.173869
87547.174339,-5107.421000,-2834.553343,5847.626942
87547.174669,-7031.956449,-4749.792088,7846.182985
87547.174998,-6217.729913,-7124.688131,8586.388927
87547.175328,-4293.194464,-8580.269578,10658.965565
87547.175657,-2738.761985,-6511.811733,13027.624579
87547.175987,0.000000,-1762.019645,14434.015869
87547.176316,3849.070898,1685.410096,14730.098246
87547.176646,5625.565159,2528.115143,15100.201217
87547.176975,7105.977043,3524.039291,13027.624579
87547.177305,7624.121203,5898.935335,9992.780217
87547.177634,8364.327145,6205.373534,7994.224174
87547.177964,8734.430116,4290.134789,8956.491898
87547.178293,5995.668130,2374.896044,9104.533087
87547.178623,2294.638420,76.609550,8290.306550
87547.178952,-1110.308913,-2911.162892,8956.491898
87547.179281,-2590.720797,-7124.688131,10362.883188
87547.179611,-5107.421000,-10112.460574,11917.315666
87547.179940,-6365.771101,-9806.022374,12139.377449
87547.180270,-5403.503377,-7354.516781,11843.295072
87547.180599,-2960.823768,-4903.011187,12287.418637
87547.180929,-1110.308913,-766.095498,12879.583391
87547.181258,740.205942,3370.820191,11251.130318
87547.181588,962.267725,7354.516781,9178.553681
87547.181917,2146.597232,8273.831378,7179.997637
87547.182247,2072.576638,8580.269578,6143.709319
87547.182576,1924.535449,8810.098227,4145.153275
87547.182906,1850.514855,8044.002729,3627.009116
87547.183235,0.000000,5209.449386,3997.112087
87547.183565,-2664.741391,1455.581446,3923.091493
87547.183894,-3849.070898,-1455.581446,5477.523971
87547.184224,-4441.235652,-3217.601092,6883.915261
87547.184553,-5107.421000,-5132.839837,7624.121203
87547.184883,-4885.359217,-6281.983084,9104.533087
87547.185212,-3849.070898,-6128.763984,10732.986159
87547.185542,-2516.700203,-3830.477490,11843.295072
87547.185871,962.267725,-306.438199,13841.851115
87547.186201,3775.050304,2145.067394,14878.139434
87547.186530,4219.173869,3907.087040,13323.706956
87547.186860,5329.482782,4749.792088,10658.965565
87547.187189,6365.771101,5745.716235,9474.636058
87547.187519,6069.688724,5898.935335,8068.244768
87547.187848,5625.565159,5362.668486,7994.224174
87547.188178,5107.421000,3600.648841,8512.368333
87547.188507,2072.576638,1225.752797,8364.327145
87547.188837,-1924.535449,-1991.848295,7624.121203
87547.189166,-3182.885551,-5439.278036,9770.718434
87547.189496,-4589.276840,-7737.564530,11621.233289
87547.189825,-5773.606348,-7660.954980,11843.295072
87547.190154,-5107.421000,-6435.202183,11917.315666
87547.190484,-3627.009116,-3064.381992,11177.109724
87547.190813,-1998.556043,306.438199,11103.089130
87547.191143,740.205942,4366.744339,11029.068536
87547.191472,1554.432478,8044.002729,9992.780217
87547.191802,1110.308913,9959.241474,6957.935855
87547.192131,1924.535449,10265.679673,4589.276840
87547.192461,3775.050304,9193.145976,4293.194464
87547.192790,2886.803174,8963.317327,3923.091493
87547.193120,-518.144159,6435.202183,3627.009116
87547.193449,-2368.659014,2221.676944,4071.132681
87547.193779,-2664.741391,-2528.115143,5773.606348
87547.194108,-4071.132681,-5209.449386,7772.162391
87547.194438,-5699.585753,-5592.497135,9252.574275
87547.194767,-5921.647536,-6435.202183,9252.574275
87547.195097,-4293.194464,-7277.907231,11325.150913
87547.195426,-1258.350101,-6358.592633,13989.892304
87547.195756,1628.453072,-2221.676944,15470.304188
87547.196085,2812.782580,2298.286494,14582.057057
87547.196415,4515.256246,3600.648841,13767.830521
87547.196744,7031.956449,3600.648841,11991.336260
87547.197074,8438.347739,4749.792088,10732.986159
87547.197403,6735.874072,5898.935335,8734.430116
87547.197733,5699.585753,4826.401637,8216.285956
87547.198062,4811.338623,766.095498,8734.430116
87547.198392,1332.370696,-2451.505594,9474.636058
87547.198721,-2146.597232,-4979.620737,8882.471304
87547.199051,-4885.359217,-5822.325785,10140.821405
87547.199380,-5329.482782,-9039.926876,11325.150913
87547.199710,-5255.462188,-9652.803275,11473.192101
87547.200039,-4293.194464,-6741.640382,11769.274478
87547.200369,-2664.741391,-2221.676944,11473.192101
87547.200698,-296.082377,1762.019645,11177.109724
87547.201028,2146.597232,4596.572988,10732.986159
87547.201357,1184.329507,7048.078582,8808.450710
87547.201686,1184.329507,9422.974625,6069.688724
87547.202016,1480.411884,9422.974625,5181.441594
87547.202345,1628.453072,7354.516781,4737.318029
87547.202675,-222.061783,6435.202183,3923.091493
87547.203004,-1998.556043,4749.792088,3552.988522
87547.203334,-3108.864956,1378.971896,4219.173869
87547.203663,-3552.988522,-1685.410096,4959.379811
87547.203993,-4885.359217,-3140.991542,7031.956449
87547.204322,-5255.462188,-4366.744339,8068.244768
87547.204652,-4071.132681,-4596.572988,8882.471304
87547.204981,-2442.679609,-4903.011187,10807.006753
87547.205311,-962.267725,-2911.162892,13619.789333
87547.205640,1628.453072,1378.971896,13915.871710
87547.205970,5181.441594,4060.306139,14137.933492
87547.206299,5847.626942,4903.011187,13027.624579
87547.206629,5847.626942,4826.401637,10436.903782
87547.206958,6809.894666,6205.373534,8512.368333
87547.207288,6957.935855,7048.078582,8142.265362
87547.207617,5625.565159,5975.544884,8068.244768
87547.207947,3330.926739,2681.334243,7698.141797
87547.208276,1850.514855,-919.314598,8586.388927
87547.208606,-1110.308913,-2068.457845,8068.244768
87547.208935,-3478.967927,-5056.230287,9918.759623
87547.209265,-4885.359217,-7890.783629,11399.171507
87547.209594,-4959.379811,-7584.345430,11917.315666
87547.209924,-4071.132681,-5209.449386,11991.336260
87547.210253,-2664.741391,-2374.896044,12287.418637
87547.210583,-962.267725,612.876398,11843.295072
87547.210912,444.123565,3677.258390,10510.924376
87547.211242,1036.288319,5975.544884,9474.636058
87547.211571,1554.432478,7354.516781,7772.162391
87547.211901,962.267725,7507.735880,6365.771101
87547.212230,1776.494261,6588.421283,4663.297435
87547.212559,1924.535449,5515.887586,4737.318029
87547.212889,0.000000,4443.353888,4663.297435
87547.213218,-2960.823768,153.219100,5995.668130
87547.213548,-3552.988522,-3600.648841,6735.874072
87547.213877,-4071.132681,-6741.640382,8364.327145
87547.214207,-5107.421000,-7124.688131,9252.574275
87547.214536,-5181.441594,-7124.688131,10658.965565
87547.214866,-4071.132681,-6665.030833,11547.212695
87547.215195,-1258.350101,-4443.353888,13101.645173
87547.215525,2886.803174,-1302.362347,15100.201217
87547.215854,3775.050304,2528.115143,14952.160028
87547.216184,4367.215058,4673.182538,11695.253884
87547.216513,7254.018232,4749.792088,9992.780217
87547.216843,8734.430116,4826.401637,9252.574275
87547.217172,7476.080014,5439.278036,8364.327145
87547.217502,4441.235652,4903.011187,7105.977043
87547.217831,3108.864956,1455.581446,7105.977043
87547.218161,740.205942,-2528.115143,8068.244768
87547.218490,-2590.720797,-5745.716235,9474.636058
87547.218820,-6291.750507,-7124.688131,10362.883188
87547.219149,-7624.121203,-7890.783629,10436.903782
87547.219479,-5699.585753,-8656.879127,11547.212695
87547.219808,-3701.029710,-6511.811733,12509.480420
87547.220138,-3108.864956,-536.266849,11695.253884
87547.220467,-1258.350101,4213.525239,10140.821405
87547.220797,1332.370696,6818.249932,10066.800811
87547.221126,2368.659014,7660.954980,8364.327145
87547.221456,1850.514855,9652.803275,6661.853478
87547.221785,1480.411884,11261.603821,5773.606348
87547.222115,2590.720797,9652.803275,4737.318029
87547.222444,2294.638420,6128.763984,4885.359217
87547.222774,-1036.288319,2681.334243,4367.215058
87547.223103,-3478.967927,1149.143247,4367.215058
87547.223432,-4441.235652,-1991.848295,5329.482782
87547.223762,-4811.338623,-4213.525239,7772.162391
87547.224091,-5403.503377,-4596.572988,8956.491898
87547.224421,-4811.338623,-3907.087040,9622.677246
87547.224750,-2442.679609,-3447.429741,10955.047942
87547.225080,0.000000,-1762.019645,12953.603985
87547.225409,3034.844362,1072.533697,14211.954086
87547.225739,4293.194464,4749.792088,13397.727550
87547.226068,5847.626942,5975.544884,10955.047942
87547.226398,7031.956449,5286.058936,9770.718434
87547.226727,6513.812290,5209.449386,8734.430116
87547.227057,5921.647536,4903.011187,7624.121203
87547.227386,5033.400406,4366.744339,7994.224174
87547.227716,1776.494261,612.876398,9400.615463
87547.228045,-814.226536,-3983.696590,9548.656652
87547.228375,-2442.679609,-6281.983084,10510.924376
87547.228704,-4071.132681,-7584.345430,12657.521608
87547.229034,-5033.400406,-7814.174080,11769.274478
87547.229363,-4367.215058,-8120.612279,12213.398043
87547.229693,-2738.761985,-5209.449386,12287.418637
87547.230022,-1850.514855,-612.876398,12509.480420
87547.230352,592.164754,3294.210641,11695.253884
87547.230681,1184.329507,5056.230287,10584.944971
87547.231011,1258.350101,6358.592633,8068.244768
87547.231340,1036.288319,7814.174080,5847.626942
87547.231670,1628.453072,7814.174080,5255.462188
87547.231999,444.123565,6205.373534,4145.153275
87547.232329,-222.061783,4596.572988,4219.173869
87547.232658,-1480.411884,1991.848295,5255.462188
87547.232988,-3256.906145,-536.266849,4811.338623
87547.233317,-4885.359217,-3140.991542,6291.750507
87547.233647,-4885.359217,-5975.544884,8512.368333
87547.233976,-4737.318029,-6894.859482,9252.574275
87547.234306,-4515.256246,-6665.030833,9844.739029
87547.234635,-2960.823768,-5515.887586,12139.377449
87547.234964,-666.185348,-2528.115143,13101.645173
87547.235294,3034.844362,306.438199,13915.871710
87547.235623,4737.318029,2221.676944,13471.748144
87547.235953,5403.503377,4366.744339,11769.274478
87547.236282,5773.606348,5515.887586,8586.388927
87547.236612,7698.141797,4903.011187,8364.327145
87547.236941,8290.306550,4826.401637,9104.533087
87547.237271,4959.379811,4060.306139,8586.388927
87547.237600,1628.453072,1149.143247,8142.265362
87547.237930,0.000000,-3064.381992,8142.265362
87547.238259,-1776.494261,-6894.859482,10214.842000
87547.238589,-5033.400406,-7890.783629,11325.150913
87547.238918,-6513.812290,-7737.564530,11399.171507
87547.239248,-5625.565159,-6665.030833,10955.047942
87547.239577,-2738.761985,-5286.058936,12213.398043
87547.239907,-1480.411884,-995.924147,12657.521608
87547.240236,0.000000,4979.620737,10955.047942
87547.240566,592.164754,8656.879127,9622.677246
87547.240895,2442.679609,8044.002729,7328.038826
87547.241225,3552.988522,8044.002729,6661.853478
87547.241554,2590.720797,10418.898773,4219.173869
87547.241884,962.267725,9959.241474,3478.967927
87547.242213,222.061783,6435.202183,2960.823768
87547.242543,-962.267725,1838.629195,4663.297435
87547.242872,-3701.029710,-919.314598,5477.523971
87547.243202,-5847.626942,-2145.067394,6069.688724
87547.243531,-6069.688724,-4749.792088,7402.059420
87547.243861,-5551.544565,-7354.516781,9474.636058
87547.244190,-4737.318029,-6435.202183,10807.006753
87547.244520,-2294.638420,-2757.943793,13249.686362
87547.244849,-148.041188,459.657299,13989.892304
87547.245179,3478.967927,1915.238745,13915.871710
87547.245508,5403.503377,4060.306139,14211.954086
87547.245837,5995.668130,5286.058936,11177.109724
87547.246167,6439.791695,7124.688131,8586.388927
87547.246496,7476.080014,5286.058936,9252.574275
87547.246826,6513.812290,4060.306139,9178.553681
87547.247155,3849.070898,3447.429741,7846.182985
87547.247485,592.164754,76.609550,9030.512492
87547.247814,-1480.411884,-3983.696590,9178.553681
87547.248144,-3404.947333,-7277.907231,11177.109724
87547.248473,-5181.441594,-8810.098227,12731.542202
87547.248803,-5699.585753,-7584.345430,11991.336260
87547.249132,-4293.194464,-6511.811733,12287.418637
87547.249462,-2368.659014,-4136.915689,12805.562797
87547.249791,-1110.308913,-306.438199,11917.315666
87547.250121,148.041188,4519.963438,11029.068536
87547.250450,1628.453072,7048.078582,10658.965565
87547.250780,1332.370696,6818.249932,7624.121203
87547.251109,1924.535449,6894.859482,5033.400406
87547.251439,2738.761985,7431.126331,4589.276840
87547.251768,1776.494261,7737.564530,3997.112087
87547.252098,0.000000,4903.011187,4071.132681
87547.252427,-962.267725,612.876398,5329.482782
87547.252757,-2072.576638,-2221.676944,5625.565159
87547.253086,-3997.112087,-3830.477490,6217.729913
87547.253416,-4663.297435,-5669.106685,7772.162391
87547.253745,-3849.070898,-7431.126331,9326.594869
87547.254075,-3404.947333,-7584.345430,11695.253884
87547.254404,-1850.514855,-4443.353888,13767.830521
87547.254734,666.185348,-1685.410096,13989.892304
87547.255063,2886.803174,842.705048,13915.871710
87547.255393,4515.256246,2604.724693,12583.501014
87547.255722,5847.626942,4673.182538,10214.842000
87547.256052,6143.709319,5975.544884,8438.347739
87547.256381,6439.791695,5975.544884,7328.038826
87547.256711,7105.977043,5439.278036,6661.853478
87547.257040,4737.318029,3140.991542,7476.080014
87547.257369,962.267725,459.657299,7698.141797
87547.257699,-1554.432478,-2757.943793,8290.306550
87547.258028,-3330.926739,-6741.640382,10436.903782
87547.258358,-5181.441594,-8350.440928,11843.295072
87547.258687,-6439.791695,-7967.393179,11695.253884
87547.259017,-5773.606348,-5898.935335,11843.295072
87547.259346,-3478.967927,-2911.162892,11843.295072
87547.259676,-296.082377,1455.581446,12213.398043
87547.260005,666.185348,5132.839837,12287.418637
87547.260335,222.061783,8427.050478,9178.553681
87547.260664,1184.329507,10035.851024,5995.668130
87547.260994,3997.112087,9652.803275,5773.606348
87547.261323,3256.906145,9193.145976,4959.379811
87547.261653,74.020594,9193.145976,3552.988522
87547.261982,-1406.391290,5975.544884,3701.029710
87547.262312,-2368.659014,536.266849,4811.338623
87547.262641,-3552.988522,-2757.943793,6439.791695
87547.262971,-6217.729913,-3447.429741,7772.162391
87547.263301,-7402.059420,-4749.792088,8586.388927
87547.263630,-5773.606348,-8044.002729,9252.574275
87547.263960,-3256.906145,-7814.174080,12361.439231
87547.264289,-1258.350101,-3447.429741,14730.098246
87547.264619,1628.453072,2145.067394,14137.933492
87547.264948,4959.379811,4596.572988,13841.851115
87547.265278,7328.038826,3983.696590,12731.542202
87547.265607,8512.368333,4366.744339,10881.027347
87547.265937,7920.203579,8886.707777,8734.430116
87547.266266,8290.306550,8044.002729,7476.080014
87547.266596,7624.121203,3677.258390,7846.182985
87547.266925,4515.256246,0.000000,8364.327145
87547.267255,-74.020594,-1762.019645,8734.430116
87547.267584,-3478.967927,-3677.258390,10066.800811
87547.267914,-4737.318029,-8580.269578,12139.377449
87547.268243,-6143.709319,-11721.261119,12287.418637
87547.268573,-6661.853478,-9959.241474,12731.542202
87547.268902,-4811.338623,-5898.935335,12065.356855
87547.269232,-2368.659014,-1838.629195,12953.603985
87547.269561,-222.061783,766.095498,12509.480420
87547.269891,962.267725,3600.648841,11029.068536
87547.270220,1554.432478,7967.393179,8216.285956
87547.270550,1850.514855,9039.926876,6513.812290
87547.270879,2516.700203,8427.050478,5921.647536
87547.271209,1998.556043,7048.078582,4885.359217
87547.271538,962.267725,5669.106685,3552.988522
87547.271868,-888.247130,3983.696590,4515.256246
87547.272197,-2294.638420,612.876398,4737.318029
87547.272527,-3627.009116,-1915.238745,5625.565159
87547.272856,-5033.400406,-3753.867940,6883.915261
87547.273186,-5699.585753,-5439.278036,7254.018232
87547.273515,-5033.400406,-6511.811733,9474.636058
87547.273845,-3627.009116,-5898.935335,11251.130318
87547.274174,-2146.597232,-2374.896044,12805.562797
87547.274504,1184.329507,766.095498,13323.706956
87547.274833,3256.906145,2681.334243,14063.912898
87547.275163,4441.235652,3524.039291,11843.295072
87547.275492,5773.606348,4826.401637,9770.718434
87547.275822,7031.956449,6052.154434,8734.430116
87547.276151,6365.771101,6205.373534,7772.162391
87547.276481,5403.503377,5132.839837,7105.977043
87547.276811,4885.359217,2757.943793,8586.388927
87547.277140,1332.370696,306.438199,8364.327145
87547.277470,-2220.617826,-3064.381992,8956.491898
87547.277799,-3627.009116,-6741.640382,11251.130318
87547.278129,-5033.400406,-8886.707777,12213.398043
87547.278458,-5699.585753,-8656.879127,12731.542202
87547.278788,-4441.235652,-5286.058936,13027.624579
87547.279117,-2960.823768,-1378.971896,12731.542202
87547.279447,-666.185348,1149.143247,12065.356855
87547.279776,1480.411884,4903.011187,11843.295072
87547.280106,1406.391290,7967.393179,9548.656652
87547.280435,1110.308913,9499.584175,6365.771101
87547.280765,3034.844362,9652.803275,4737.318029
87547.281094,4737.318029,8580.269578,4959.379811
87547.281424,3182.885551,7048.078582,3923.091493
87547.281753,-148.041188,5286.058936,3330.926739
87547.282083,-2294.638420,1608.800546,4737.318029
87547.282412,-3108.864956,-2834.553343,6439.791695
87547.282742,-4885.359217,-5362.668486,8660.409521
87547.283071,-6735.874072,-6511.811733,9400.615463
87547.283401,-7402.059420,-6971.469032,9844.739029
87547.283730,-5329.482782,-7354.516781,11695.253884
87547.284060,-666.185348,-5056.230287,14730.098246
87547.284389,1554.432478,0.000000,15026.180623
87547.284719,3034.844362,3907.087040,14063.912898
87547.285048,5033.400406,4903.011187,11621.233289
87547.285378,7994.224174,4749.792088,9844.739029
87547.285707,8290.306550,6358.592633,8660.409521
87547.286037,7105.977043,7354.516781,7698.141797
87547.286366,5329.482782,5898.935335,7402.059420
87547.286696,3552.988522,536.266849,8068.244768
87547.287025,148.041188,-3064.381992,8956.491898
87547.287355,-3478.967927,-5056.230287,9696.697840
87547.287684,-6217.729913,-7277.907231,11769.274478
87547.288014,-6809.894666,-9346.365076,12509.480420
87547.288343,-6291.750507,-10189.070123,12657.521608
87547.288673,-5625.565159,-6818.249932,11843.295072
87547.289002,-2368.659014,-1915.238745,12731.542202
87547.289332,0.000000,3140.991542,11547.212695
87547.289661,1554.432478,5439.278036,10214.842000
87547.289991,1554.432478,7124.688131,8216.285956
87547.290320,1998.556043,9806.022374,5181.441594
87547.290650,3182.885551,9269.755526,3627.009116
87547.290980,3034.844362,8656.879127,3849.070898
87547.291309,1702.473667,5822.325785,3404.947333
87547.291639,-1258.350101,4060.306139,3478.967927
87547.291968,-3034.844362,1072.533697,4959.379811
87547.292298,-3849.070898,-2604.724693,6143.709319
87547.292627,-5403.503377,-5209.449386,8438.347739
87547.292957,-5921.647536,-5439.278036,8660.409521
87547.293286,-5255.462188,-6128.763984,9696.697840
87547.293616,-2368.659014,-5286.058936,11843.295072
87547.293945,-74.020594,-2604.724693,14211.954086
87547.294275,2516.700203,1302.362347,14063.912898
87547.294604,5107.421000,4903.011187,13545.768739
87547.294934,6291.750507,5822.325785,11177.109724
87547.295263,6809.894666,6358.592633,8808.450710
87547.295593,7920.203579,6052.154434,7994.224174
87547.295922,7550.100608,6511.811733,7476.080014
87547.296252,5107.421000,4903.011187,7772.162391
87547.296581,2368.659014,1225.752797,8438.347739
87547.296911,296.082377,-2528.115143,9030.512492
87547.297240,-2812.782580,-4213.525239,9326.594869
87547.297570,-5033.400406,-6128.763984,11769.274478
87547.297899,-6069.688724,-8733.488677,12583.501014
87547.298229,-6809.894666,-8963.317327,12139.377449
87547.298558,-4811.338623,-6205.373534,12509.480420
87547.298888,-2664.741391,-1532.190996,13027.624579
87547.299217,-592.164754,2911.162892,11917.315666
87547.299547,888.247130,5592.497135,11103.089130
87547.299876,1332.370696,6588.421283,8364.327145
87547.300206,1998.556043,8120.612279,5699.585753
87547.300535,2220.617826,9422.974625,4737.318029
87547.300865,2812.782580,8120.612279,4663.297435
87547.301194,2664.741391,5822.325785,4515.256246
87547.301524,-666.185348,2987.772442,4515.256246
87547.301853,-2886.803174,-536.266849,4515.256246
87547.302183,-3552.988522,-4060.306139,6365.771101
87547.302512,-4293.194464,-5592.497135,8068.244768
87547.302842,-5847.626942,-7354.516781,9770.718434
87547.303171,-5773.606348,-7967.393179,10732.986159
87547.303501,-3330.926739,-6818.249932,11917.315666
87547.303830,296.082377,-3447.429741,13915.871710
87547.304160,3552.988522,536.266849,14582.057057
87547.304490,4293.194464,3064.381992,13693.809927
87547.304819,4885.359217,4366.744339,10436.903782
87547.305149,7179.997637,4903.011187,8734.430116
87547.305478,8808.450710,5286.058936,8734.430116
87547.305808,6883.915261,5822.325785,8068.244768
87547.306137,3849.070898,4060.306139,7476.080014
87547.306467,1628.453072,-536.266849,8142.265362
87547.306796,-962.267725,-4213.525239,9178.553681
87547.307126,-4515.256246,-6281.983084,10658.965565
87547.307455,-7402.059420,-7584.345430,11473.192101
87547.307785,-8216.285956,-9116.536426,11177.109724
87547.308114,-5699.585753,-9116.536426,11473.192101
87547.308444,-3627.009116,-5056.230287,12583.501014
87547.308773,-1776.494261,1072.533697,11917.315666
87547.309103,222.061783,4826.401637,10362.883188
87547.309432,2368.659014,6818.249932,9326.594869
87547.309762,3552.988522,8733.488677,7698.141797
87547.310091,3775.050304,10572.117872,5995.668130
87547.310421,3775.050304,11338.213370,4219.173869
87547.310750,3404.947333,8427.050478,3034.844362
87547.311080,1702.473667,4979.620737,4293.194464
87547.311409,-1480.411884,2681.334243,4293.194464
87547.311739,-3478.967927,1072.533697,5033.400406
87547.312068,-5107.421000,-2528.115143,6883.915261
87547.312398,-6069.688724,-5975.544884,8660.409521
87547.312727,-7105.977043,-7048.078582,9474.636058
87547.313057,-5255.462188,-6052.154434,10362.883188
87547.313386,-2812.782580,-2451.505594,12139.377449
87547.313716,518.144159,-1149.143247,13767.830521
87547.314045,3034.844362,1455.581446,13989.892304
87547.314375,4441.235652,4903.011187,12731.542202
87547.314704,6069.688724,6665.030833,10214.842000
87547.315034,6661.853478,6435.202183,9474.636058
87547.315363,7476.080014,5745.716235,8882.471304
87547.315693,6809.894666,4979.620737,8364.327145
87547.316022,5255.462188,2911.162892,8512.368333
87547.316352,2072.576638,459.657299,8660.409521
87547.316681,222.061783,-2987.772442,9918.759623
87547.317011,-1480.411884,-5362.668486,11843.295072
87547.317340,-4145.153275,-6205.373534,11991.336260
87547.317670,-4589.276840,-7354.516781,11843.295072
87547.318000,-3552.988522,-6818.249932,11843.295072
87547.318329,-3256.906145,-3140.991542,12287.418637
87547.318659,-1702.473667,1072.533697,12435.459826
87547.318988,296.082377,3524.039291,11843.295072
87547.319318,666.185348,4749.792088,9992.780217
87547.319647,0.000000,6665.030833,7476.080014
87547.319977,962.267725,7814.174080,5329.482782
87547.320306,1332.370696,7124.688131,4071.132681
87547.320636,0.000000,5362.668486,3849.070898
87547.320965,222.061783,3140.991542,4441.235652
87547.321295,-222.061783,1532.190996,5255.462188
87547.321624,-2368.659014,-689.485948,4959.379811
87547.321954,-4293.194464,-3370.820191,7328.038826
87547.322283,-4367.215058,-6281.983084,9030.512492
87547.322613,-3923.091493,-7354.516781,9696.697840
87547.322942,-3256.906145,-6358.592633,11103.089130
87547.323272,-1406.391290,-4903.011187,13249.686362
87547.323601,888.247130,-1838.629195,13693.809927
87547.323931,3775.050304,612.876398,13989.892304
87547.324260,4959.379811,2528.115143,13323.706956
87547.324590,5181.441594,5209.449386,10584.944971
87547.324919,5033.400406,6052.154434,7846.182985
87547.325249,6957.935855,5056.230287,7476.080014
87547.325578,6883.915261,3983.696590,7772.162391
87547.325908,3330.926739,2528.115143,7772.162391
87547.326237,-444.123565,153.219100,7846.182985
87547.326567,-1480.411884,-3600.648841,8364.327145
87547.326896,-2664.741391,-7354.516781,10584.944971
87547.327226,-6143.709319,-7354.516781,11547.212695
87547.327555,-6957.935855,-7201.297681,11029.068536
87547.327885,-5477.523971,-5669.106685,10584.944971
87547.328214,-2368.659014,-3217.601092,12435.459826
87547.328544,-370.102971,536.266849,12805.562797
87547.328873,74.020594,6052.154434,10362.883188
87547.329203,1258.350101,9039.926876,8512.368333
87547.329532,3552.988522,8273.831378,7031.956449
87547.329862,4219.173869,8580.269578,5181.441594
87547.330191,2664.741391,9806.022374,4367.215058
87547.330521,888.247130,8427.050478,3701.029710
87547.330850,-222.061783,4749.792088,3923.091493
87547.331180,-1184.329507,612.876398,5477.523971
87547.331510,-3701.029710,-1762.019645,6365.771101
87547.331839,-5847.626942,-2681.334243,8216.285956
87547.332169,-5847.626942,-5669.106685,9474.636058
87547.332498,-4515.256246,-7507.735880,11029.068536
87547.332828,-3701.029710,-5975.544884,11991.336260
87547.333157,-1184.329507,-1991.848295,13471.748144
87547.333487,2738.761985,1072.533697,13767.830521
87547.333816,5107.421000,2987.772442,14211.954086
87547.334146,6217.729913,4673.182538,12731.542202
87547.334475,7031.956449,7048.078582,10510.924376
87547.334805,7772.162391,7507.735880,8808.450710
87547.335134,6809.894666,5362.668486,8142.265362
87547.335464,5403.503377,3140.991542,8438.347739
87547.335793,2738.761985,1455.581446,8512.368333
87547.336123,-370.102971,-536.266849,8512.368333
87547.336452,-2368.659014,-5132.839837,9104.533087
87547.336782,-4441.235652,-7967.393179,10881.027347
87547.337111,-5847.626942,-8350.440928,11991.336260
87547.337441,-6291.750507,-6971.469032,11473.192101
87547.337770,-4145.153275,-4903.011187,11843.295072
87547.338100,-2590.720797,-2911.162892,13027.624579
87547.338429,-962.267725,689.485948,12065.356855
87547.338759,962.267725,4903.011187,9770.718434
87547.339088,2664.741391,6894.859482,9252.574275
87547.339418,1998.556043,7277.907231,7105.977043
87547.339747,1480.411884,7354.516781,5403.503377
87547.340077,2146.597232,6588.421283,4515.256246
87547.340406,518.144159,4903.011187,4515.256246
87547.340736,-666.185348,3294.210641,4663.297435
87547.341065,-1628.453072,0.000000,4737.318029
87547.341395,-2220.617826,-3600.648841,6587.832884
87547.341724,-4737.318029,-4903.011187,7179.997637
87547.342054,-5329.482782,-6281.983084,9030.512492
87547.342383,-4885.359217,-6971.469032,10436.903782
87547.342713,-3552.988522,-5745.716235,11325.150913
87547.343042,-1184.329507,-3600.648841,13471.748144
87547.343372,2072.576638,-842.705048,13471.748144
87547.343701,3849.070898,1838.629195,13101.645173
87547.344031,5107.421000,4136.915689,11473.192101
87547.344360,6143.709319,5286.058936,9400.615463
87547.344690,5995.668130,5822.325785,7920.203579
87547.345019,5699.585753,5515.887586,7772.162391
87547.345349,6069.688724,4136.915689,7698.141797
87547.345679,4071.132681,1838.629195,8438.347739
87547.346008,296.082377,-766.095498,7846.182985
87547.346338,-2072.576638,-4443.353888,8956.491898
87547.346667,-3701.029710,-6665.030833,10658.965565
87547.346997,-5255.462188,-7737.564530,11399.171507
87547.347326,-5995.668130,-6741.640382,11769.274478
87547.347656,-5625.565159,-5132.839837,11917.315666
87547.347985,-2960.823768,-2145.067394,11769.274478
87547.348315,-592.164754,2374.896044,11251.130318
87547.348644,888.247130,5362.668486,10807.006753
87547.348974,888.247130,8044.002729,8364.327145
87547.349303,2368.659014,9729.412825,5921.647536
87547.349633,4293.194464,9652.803275,5329.482782
87547.349962,3775.050304,9116.536426,5107.421000
87547.350292,666.185348,7507.735880,3627.009116
87547.350621,-1036.288319,4060.306139,4219.173869
87547.350951,-1924.535449,0.000000,5477.523971
87547.351280,-3330.926739,-2681.334243,7698.141797
87547.351610,-5995.668130,-5056.230287,9252.574275
87547.351939,-7328.038826,-6818.249932,9548.656652
87547.352269,-6217.729913,-7277.907231,11177.109724
87547.352598,-3256.906145,-6205.373534,14211.954086
87547.352928,-1702.473667,-2528.115143,15026.180623
87547.353257,814.226536,919.314598,13915.871710
87547.353587,3701.029710,3217.601092,13175.665768
87547.353916,6291.750507,4136.915689,11399.171507
87547.354246,7698.141797,6281.983084,9770.718434
87547.354575,7846.182985,7507.735880,8512.368333
87547.354905,7031.956449,6894.859482,7179.997637
87547.355234,6143.709319,3677.258390,7698.141797
87547.355564,3775.050304,1225.752797,8660.409521
87547.355893,0.000000,-1532.190996,8438.347739
87547.356223,-2294.638420,-4826.401637,8956.491898
87547.356552,-2960.823768,-7737.564530,11251.130318
87547.356882,-4293.194464,-8886.707777,12435.459826
87547.357211,-4737.318029,-5898.935335,12731.542202
87547.357541,-3775.050304,-3600.648841,11843.295072
87547.357870,-2220.617826,-1608.800546,11769.274478
87547.358200,-740.205942,919.314598,11473.192101
87547.358529,222.061783,5286.058936,10584.944971
87547.358856,1258.350101,8044.002729,7550.100608
87547.359186,888.247130,8810.098227,7105.977043
87547.359515,222.061783,7048.078582,5699.585753
87547.359845,0.000000,5975.544884,4145.153275
87547.360175,-518.144159,4979.620737,2886.803174
87547.360504,-2146.597232,2298.286494,3256.906145
87547.360834,-2738.761985,-536.266849,4811.338623
87547.361163,-3256.906145,-2374.896044,6587.832884
87547.361493,-4071.132681,-4596.572988,8216.285956
87547.361822,-3923.091493,-6281.983084,9400.615463
87547.362152,-2960.823768,-5822.325785,11251.130318
87547.362481,-1184.329507,-4903.011187,13323.706956
87547.362811,814.226536,-1762.019645,14063.912898
87547.363140,3997.112087,153.219100,13471.748144
87547.363470,4811.338623,2681.334243,13471.748144
87547.363799,5181.441594,4519.963438,10140.821405
87547.364129,6143.709319,5975.544884,8586.388927
87547.364458,6217.729913,6435.202183,8142.265362
87547.364788,4663.297435,5132.839837,7994.224174
87547.365117,2886.803174,2604.724693,7179.997637
87547.365447,1332.370696,0.000000,6809.894666
87547.365776,-1480.411884,-2221.676944,7994.224174
87547.366106,-4737.318029,-4979.620737,9474.636058
87547.366435,-5477.523971,-7890.783629,11843.295072
87547.366765,-5847.626942,-8273.831378,12435.459826
87547.367094,-6439.791695,-7431.126331,12361.439231
87547.367424,-4737.318029,-5056.230287,12435.459826
87547.367753,-2368.659014,-1302.362347,12139.377449
87547.368083,222.061783,2757.943793,11843.295072
87547.368412,2220.617826,5669.106685,11621.233289
87547.368742,2960.823768,7507.735880,9400.615463
87547.369071,2960.823768,9499.584175,6661.853478
87547.369401,4515.256246,9652.803275,4811.338623
87547.369730,5033.400406,8580.269578,4737.318029
87547.370060,2886.803174,7048.078582,4589.276840
87547.370389,0.000000,4903.011187,4219.173869
87547.370719,-1554.432478,995.924147,5773.606348
87547.371048,-2886.803174,-3524.039291,7402.059420
87547.371378,-5181.441594,-5362.668486,9252.574275
87547.371707,-7179.997637,-6665.030833,9548.656652
87547.372037,-6661.853478,-6741.640382,9992.780217
87547.372366,-4737.318029,-6511.811733,12139.377449
87547.372696,-1110.308913,-3677.258390,14211.954086
87547.373025,1036.288319,536.266849,14508.036463
87547.373355,2368.659014,4903.011187,13471.748144
87547.373684,5551.544565,5592.497135,10584.944971
87547.374014,7994.224174,5515.887586,9030.512492
87547.374343,7994.224174,6511.811733,8068.244768
87547.374673,6365.771101,7048.078582,7402.059420
87547.375002,5699.585753,5132.839837,7105.977043
87547.375332,4367.215058,919.314598,8438.347739
87547.375661,0.000000,-2987.772442,9326.594869
87547.375991,-3404.947333,-5209.449386,9770.718434
87547.376320,-5403.503377,-7201.297681,11103.089130
87547.376650,-5625.565159,-8886.707777,12435.459826
87547.376980,-4959.379811,-8273.831378,12435.459826
87547.377309,-4145.153275,-4903.011187,12583.501014
87547.377639,-2738.761985,153.219100,11177.109724
87547.377968,-444.123565,3447.429741,10658.965565
87547.378298,1406.391290,5286.058936,9844.739029
87547.378627,2146.597232,7967.393179,7550.100608
87547.378957,2220.617826,9882.631924,4737.318029
87547.379286,2368.659014,9346.365076,3034.844362
87547.379616,2664.741391,6281.983084,3923.091493
87547.379945,444.123565,5669.106685,3256.906145
87547.380275,-1702.473667,2911.162892,3775.050304
87547.380604,-3182.885551,-766.095498,5699.585753
87547.380934,-4515.256246,-4213.525239,7402.059420
87547.381263,-5403.503377,-5898.935335,9696.697840
87547.381593,-5625.565159,-6358.592633,9992.780217
87547.381922,-5033.400406,-6205.373534,10584.944971
87547.382252,-2960.823768,-5592.497135,13027.624579
87547.382581,-222.061783,-3217.601092,14656.077652
87547.382911,2960.823768,1762.019645,14285.974681
87547.383240,4737.318029,4596.572988,13323.706956
87547.383570,5625.565159,5132.839837,10510.924376
87547.383899,6439.791695,5898.935335,8216.285956
87547.384229,7328.038826,6205.373534,6735.874072
87547.384558,6883.915261,6052.154434,7624.121203
87547.384888,4589.276840,4366.744339,7624.121203
87547.385217,2220.617826,766.095498,8142.265362
87547.385547,0.000000,-2757.943793,9252.574275
87547.385876,-2442.679609,-5592.497135,9918.759623
87547.386206,-4663.297435,-6894.859482,11695.253884
87547.386535,-4885.359217,-7890.783629,12435.459826
87547.386865,-4737.318029,-7277.907231,12435.459826
87547.387194,-3701.029710,-4443.353888,12139.377449
87547.387524,-1628.453072,-459.657299,12509.480420
87547.387853,-296.082377,3217.601092,11843.295072
87547.388183,592.164754,6281.983084,9548.656652
87547.388512,1258.350101,7967.393179,7402.059420
87547.388842,1702.473667,8656.879127,4959.379811
87547.389171,1702.473667,7814.174080,4367.215058
87547.389501,2220.617826,7201.297681,4293.194464
87547.389830,1850.514855,4903.011187,4367.215058
87547.390160,-2146.597232,2604.724693,5625.565159
87547.390489,-4441.235652,-1608.800546,5847.626942
87547.390819,-4219.173869,-4903.011187,7920.203579
87547.391148,-4145.153275,-7277.907231,10584.944971
87547.391478,-5329.482782,-7660.954980,12139.377449
87547.391807,-4441.235652,-6511.811733,12287.418637
87547.392137,-1554.432478,-4903.011187,13693.809927
87547.392466,1850.514855,-2757.943793,14508.036463
87547.392796,5699.585753,919.314598,15322.262999
87547.393125,5921.647536,4903.011187,12953.603985
87547.393455,6957.935855,6894.859482,9474.636058
87547.393784,8882.471304,7431.126331,7402.059420
87547.394114,9844.739029,6205.373534,7328.038826
87547.394444,7031.956449,6358.592633,6883.915261
87547.394773,3404.947333,4596.572988,6291.750507
87547.395103,740.205942,-383.047749,7254.018232
87547.395432,-2368.659014,-5209.449386,8216.285956
87547.395762,-5107.421000,-7507.735880,10658.965565
87547.396091,-8882.471304,-7890.783629,11325.150913
87547.396421,-9400.615463,-9116.536426,10732.986159
87547.396750,-7105.977043,-8963.317327,11843.295072
87547.397080,-4737.318029,-5669.106685,13027.624579
87547.397409,-3108.864956,612.876398,11621.233289
87547.397739,-592.164754,5515.887586,10214.842000
87547.398068,2146.597232,7660.954980,9400.615463
87547.398398,3256.906145,8197.221829,7031.956449
87547.398727,4145.153275,10189.070123,5847.626942
87547.399057,3478.967927,10878.556072,4145.153275
87547.399386,3404.947333,8656.879127,4071.132681
87547.399716,2072.576638,4290.134789,4293.194464
87547.400045,-1628.453072,1532.190996,4811.338623
87547.400375,-4219.173869,-459.657299,4959.379811
87547.400704,-4737.318029,-3294.210641,7698.141797
87547.401034,-5329.482782,-6435.202183,9844.739029
87547.401363,-5921.647536,-7431.126331,10881.027347
87547.401693,-4737.318029,-6205.373534,11029.068536
87547.402022,-2368.659014,-3753.867940,12731.542202
87547.402352,1480.411884,-2145.067394,13397.727550
87547.402681,4145.153275,2451.505594,13693.809927
87547.403011,5181.441594,5669.106685,11843.295072
87547.403340,5551.544565,6818.249932,8808.450710
87547.403670,6957.935855,6128.763984,8364.327145
87547.403999,6809.894666,5362.668486,7698.141797
87547.404329,5477.523971,4903.011187,6883.915261
87547.404658,2886.803174,2528.115143,7179.997637
87547.404988,0.000000,-1378.971896,8882.471304
87547.405317,-1998.556043,-5286.058936,9992.780217
87547.405647,-3923.091493,-7048.078582,12583.501014
87547.405976,-5181.441594,-7660.954980,13027.624579
87547.406306,-5329.482782,-7584.345430,12731.542202
87547.406635,-3923.091493,-6894.859482,13249.686362
87547.406965,-2738.761985,-3294.210641,13323.706956
87547.407294,-370.102971,842.705048,12435.459826
87547.407624,1406.391290,5056.230287,11547.212695
87547.407953,2220.617826,6971.469032,9622.677246
87547.408283,2294.638420,8273.831378,6587.832884
87547.408612,3552.988522,8580.269578,4737.318029
87547.408942,3923.091493,8810.098227,4663.297435
87547.409271,1924.535449,7048.078582,3478.967927
87547.409601,222.061783,4443.353888,4145.153275
87547.409930,-592.164754,1302.362347,5477.523971
87547.410260,-2738.761985,-1608.800546,6291.750507
87547.410589,-4959.379811,-3983.696590,7846.182985
87547.410919,-5033.400406,-6894.859482,9548.656652
87547.411249,-4737.318029,-7507.735880,10436.903782
87547.411578,-4219.173869,-6435.202183,12213.398043
87547.411908,-2368.659014,-4443.353888,13397.727550
87547.412237,888.247130,-1072.533697,13027.624579
87547.412567,3256.906145,1455.581446,12805.562797
87547.412896,4589.276840,3907.087040,11621.233289
87547.413226,5033.400406,5439.278036,9474.636058
87547.413555,4811.338623,6358.592633,7328.038826
87547.413885,6809.894666,5362.668486,6809.894666
87547.414214,6883.915261,4443.353888,7179.997637
87547.414544,2738.761985,2834.553343,7476.080014
87547.414873,-296.082377,76.609550,7994.224174
87547.415203,-962.267725,-4213.525239,9844.739029
87547.415532,-2886.803174,-7660.954980,11843.295072
87547.415862,-6069.688724,-7890.783629,12657.521608
87547.416191,-6883.915261,-7124.688131,11251.130318
87547.416521,-5329.482782,-5745.716235,11473.192101
87547.416850,-2738.761985,-3524.039291,12287.418637
87547.417180,-518.144159,1302.362347,12879.583391
87547.417509,0.000000,6665.030833,10658.965565
87547.417839,296.082377,8580.269578,7772.162391
87547.418168,2146.597232,8350.440928,5625.565159
87547.418498,3701.029710,8044.002729,4515.256246
87547.418827,1406.391290,9116.536426,3330.926739
87547.419157,-370.102971,7967.393179,2960.823768
87547.419486,-1110.308913,3140.991542,3627.009116
87547.419816,-2072.576638,-919.314598,5773.606348
87547.420145,-4367.215058,-2528.115143,6587.832884
87547.420475,-6143.709319,-3064.381992,7476.080014
87547.420804,-5107.421000,-6128.763984,9104.533087
87547.421134,-4219.173869,-7890.783629,10881.027347
87547.421463,-2664.741391,-6358.592633,13027.624579
87547.421793,-666.185348,-1915.238745,13841.851115
87547.422122,3256.906145,1455.581446,14137.933492
87547.422452,5551.544565,2298.286494,14211.954086
87547.422781,6365.771101,3217.601092,12731.542202
87547.423111,6513.812290,6435.202183,9992.780217
87547.423440,6957.935855,6894.859482,8586.388927
87547.423770,6365.771101,4290.134789,8660.409521
87547.424099,4811.338623,2681.334243,8438.347739
87547.424429,2368.659014,1378.971896,8068.244768
87547.424758,-1110.308913,-995.924147,8734.430116
87547.425088,-2738.761985,-4596.572988,9030.512492
87547.425417,-4219.173869,-7431.126331,11399.171507
87547.425747,-5477.523971,-8273.831378,12435.459826
87547.426076,-5477.523971,-6281.983084,11621.233289
87547.426406,-2960.823768,-4596.572988,12213.398043
87547.426735,-1480.411884,-2145.067394,13249.686362
87547.427065,-518.144159,2145.067394,12287.418637
87547.427394,1850.514855,5745.716235,10658.965565
87547.427724,2220.617826,7354.516781,8660.409521
87547.428053,1480.411884,7124.688131,5995.668130
87547.428383,1258.350101,7507.735880,4589.276840
87547.428713,1628.453072,7584.345430,4293.194464
87547.429042,370.102971,6358.592633,4219.173869
87547.429372,-1628.453072,3524.039291,4219.173869
87547.429701,-2812.782580,0.000000,4811.338623
87547.430031,-3849.070898,-2987.772442,5403.503377
87547.430360,-5329.482782,-3907.087040,6809.894666
87547.430690,-5477.523971,-5822.325785,9474.636058
87547.431019,-4737.318029,-7124.688131,11103.089130
87547.431349,-3108.864956,-5975.544884,11991.336260
87547.431678,-370.102971,-3217.601092,13841.851115
87547.432008,2072.576638,76.609550,14211.954086
87547.432337,3997.112087,2374.896044,13397.727550
87547.432667,5995.668130,3370.820191,11547.212695
87547.432996,6661.853478,3983.696590,9696.697840
87547.433326,6069.688724,5745.716235,7772.162391
87547.433655,6513.812290,5286.058936,7254.018232
87547.433985,6587.832884,3983.696590,7772.162391
87547.434314,4293.194464,1762.019645,8068.244768
87547.434644,518.144159,-842.705048,8068.244768
87547.434973,-2146.597232,-3983.696590,8586.388927
87547.435303,-3627.009116,-7201.297681,10807.006753
87547.435632,-5255.462188,-8350.440928,11399.171507
87547.435962,-6069.688724,-7354.516781,11547.212695
87547.436291,-4885.359217,-4749.792088,12139.377449
87547.436621,-3034.844362,-2068.457845,11843.295072
87547.436950,-962.267725,1455.581446,11029.068536
87547.437280,148.041188,4903.011187,10658.965565
87547.437609,-148.041188,7967.393179,8068.244768
87547.437939,666.185348,8350.440928,5847.626942
87547.438268,3478.967927,7737.564530,5551.544565
87547.438598,3108.864956,7584.345430,4663.297435
87547.438927,592.164754,7354.516781,3330.926739
87547.439257,-666.185348,4596.572988,4145.153275
87547.439586,-1628.453072,459.657299,5699.585753
87547.439916,-3108.864956,-2451.505594,7624.121203
87547.440245,-5403.503377,-3830.477490,9326.594869
87547.440575,-6143.709319,-5439.278036,9918.759623
87547.440904,-4737.318029,-7354.516781,10807.006753
87547.441234,-2590.720797,-5822.325785,13397.727550
87547.441563,-592.164754,-2068.457845,15544.324782
87547.441893,1702.473667,1455.581446,13989.892304
87547.442222,3404.947333,2911.162892,12657.521608
87547.442552,5921.647536,3524.039291,11769.274478
87547.442881,6587.832884,5822.325785,9844.739029
87547.443211,6513.812290,8273.831378,8216.285956
87547.443540,6143.709319,6358.592633,7179.997637
87547.443870,5995.668130,2451.505594,7698.141797
87547.444199,3256.906145,689.485948,8438.347739
87547.444529,0.000000,-842.705048,8586.388927
87547.444858,-2220.617826,-3140.991542,9326.594869
87547.445188,-3108.864956,-7277.907231,11695.253884
87547.445518,-3627.009116,-8427.050478,12953.603985
87547.445847,-3627.009116,-5822.325785,12657.521608
87547.446177,-2442.679609,-1838.629195,12509.480420
87547.446506,-1184.329507,76.609550,12731.542202
87547.446836,0.000000,2221.676944,12287.418637
87547.447165,444.123565,4903.011187,10732.986159
87547.447495,370.102971,7584.345430,7328.038826
87547.447824,222.061783,8427.050478,5921.647536
87547.448154,518.144159,7201.297681,5699.585753
87547.448483,-740.205942,6128.763984,3627.009116
87547.448813,-1480.411884,5209.449386,3478.967927
87547.449142,-2886.803174,3140.991542,4811.338623
87547.449472,-3701.029710,0.000000,5255.462188
87547.449801,-3923.091493,-3064.381992,6513.812290
87547.450131,-4515.256246,-3983.696590,7994.224174
87547.450460,-4441.235652,-4443.353888,8586.388927
87547.450790,-2812.782580,-4673.182538,11177.109724
87547.451119,-370.102971,-3830.477490,13323.706956
87547.451449,1554.432478,-995.924147,13101.645173
87547.451778,4737.318029,1915.238745,12879.583391
87547.452108,6735.874072,3600.648841,13027.624579
87547.452437,6291.750507,4903.011187,10362.883188
87547.452767,7031.956449,5822.325785,7994.224174
87547.453096,7105.977043,5822.325785,7772.162391
87547.453426,5403.503377,5132.839837,7328.038826
87547.453755,3182.885551,3370.820191,7105.977043
87547.454085,1776.494261,229.828649,7254.018232
87547.454414,-1184.329507,-2911.162892,8142.265362
87547.454744,-4219.173869,-5745.716235,9770.718434
87547.455073,-5921.647536,-6665.030833,11103.089130
87547.455403,-5995.668130,-8197.221829,11547.212695
87547.455732,-6291.750507,-7507.735880,12509.480420
87547.456062,-5181.441594,-5286.058936,12805.562797
87547.456391,-3034.844362,-1378.971896,12657.521608
87547.456721,-740.205942,1685.410096,11399.171507
87547.457050,888.247130,4060.306139,9992.780217
87547.457380,888.247130,5975.544884,8438.347739
87547.457709,1924.535449,8197.221829,5477.523971
87547.458039,3478.967927,8120.612279,4885.359217
87547.458368,4737.318029,7277.907231,5181.441594
87547.458698,3034.844362,5286.058936,5255.462188
87547.459027,444.123565,3064.381992,4589.276840
87547.459357,-1184.329507,-459.657299,5107.421000
87547.459686,-2294.638420,-3447.429741,7772.162391
87547.460016,-3478.967927,-5745.716235,9622.677246
87547.460345,-4441.235652,-6128.763984,10807.006753
87547.460675,-4663.297435,-6665.030833,11547.212695
87547.461004,-2516.700203,-5975.544884,12953.603985
87547.461334,74.020594,-3753.867940,14434.015869
87547.461663,1702.473667,0.000000,14063.912898
87547.461993,2738.761985,3983.696590,12805.562797
87547.462323,4441.235652,4213.525239,10140.821405
87547.462652,6069.688724,3524.039291,8734.430116
87547.462982,5847.626942,4213.525239,8068.244768
87547.463311,4367.215058,4903.011187,7698.141797
87547.463641,3256.906145,3524.039291,8142.265362
87547.463970,2664.741391,-536.266849,8956.491898
87547.464300,0.000000,-3907.087040,9770.718434
87547.464629,-3330.926739,-5286.058936,10066.800811
87547.464959,-4959.379811,-6588.421283,11177.109724
87547.465288,-4219.173869,-7890.783629,12065.356855
87547.465618,-3330.926739,-6281.983084,13915.871710
87547.465947,-2368.659014,-1762.019645,13693.809927
87547.466277,-1480.411884,2298.286494,12435.459826
87547.466606,592.164754,4673.182538,10584.944971
87547.466936,1036.288319,6052.154434,9474.636058
87547.467265,962.267725,8503.660028,7254.018232
87547.467595,888.247130,9806.022374,4737.318029
87547.467924,1036.288319,9193.145976,3330.926739
87547.468254,222.061783,7048.078582,3330.926739
87547.468583,-2220.617826,5669.106685,2516.700203
87547.468913,-3627.009116,3370.820191,3256.906145
87547.469242,-4219.173869,76.609550,4293.194464
87547.469572,-4811.338623,-3064.381992,6291.750507
87547.469901,-5255.462188,-4290.134789,8438.347739
87547.470231,-4959.379811,-4136.915689,9770.718434
87547.470560,-3182.885551,-3600.648841,10658.965565
87547.470890,-592.164754,-3064.381992,13471.748144
87547.471219,1406.391290,-766.095498,14211.954086
87547.471549,3775.050304,2757.943793,13915.871710
87547.471878,5477.523971,4596.572988,12583.501014
87547.472208,6291.750507,4213.525239,10436.903782
87547.472537,5995.668130,4443.353888,8660.409521
87547.472867,6735.874072,5439.278036,7550.100608
87547.473197,6291.750507,5592.497135,7402.059420
87547.473526,4663.297435,3983.696590,7624.121203
87547.473856,2294.638420,-229.828649,8512.368333
87547.474185,-370.102971,-4060.306139,8956.491898
87547.474515,-2368.659014,-5515.887586,10214.842000
87547.474844,-3849.070898,-6741.640382,11843.295072
87547.475174,-4663.297435,-7277.907231,13101.645173
87547.475503,-4219.173869,-7048.078582,12731.542202
87547.475833,-2516.700203,-3907.087040,13027.624579
87547.476162,-1258.350101,153.219100,12287.418637
87547.476492,0.000000,2681.334243,11029.068536
87547.476821,888.247130,5132.839837,9548.656652
87547.477151,1924.535449,6281.983084,7254.018232
87547.477480,1628.453072,7660.954980,5033.400406
87547.477810,1184.329507,7277.907231,3627.009116
87547.478139,1776.494261,6128.763984,3923.091493
87547.478469,1184.329507,4826.401637,4663.297435
87547.478798,-1184.329507,1225.752797,5107.421000
87547.479128,-3552.988522,-1838.629195,5921.647536
87547.479457,-4293.194464,-4903.011187,8290.306550
87547.479787,-5403.503377,-7660.954980,9992.780217
87547.480116,-5551.544565,-8273.831378,11177.109724
87547.480446,-4737.318029,-6665.030833,12953.603985
87547.480775,-2738.761985,-4903.011187,14804.118840
87547.481105,518.144159,-2298.286494,14582.057057
87547.481434,3108.864956,536.266849,14656.077652
87547.481764,3256.906145,3370.820191,12805.562797
87547.482093,4071.132681,5056.230287,9252.574275
87547.482423,6809.894666,5209.449386,8216.285956
87547.482752,7846.182985,5592.497135,8882.471304
87547.483082,5329.482782,5209.449386,8290.306550
87547.483411,2368.659014,3140.991542,7031.956449
87547.483741,1332.370696,-766.095498,7772.162391
87547.484071,-444.123565,-4519.963438,9400.615463
87547.484400,-3775.050304,-6052.154434,11029.068536
87547.484730,-5921.647536,-7277.907231,11325.150913
87547.485059,-5699.585753,-7584.345430,11325.150913
87547.485389,-3330.926739,-6358.592633,12435.459826
87547.485718,-1924.535449,-2451.505594,13323.706956
87547.486048,-962.267725,3140.991542,11917.315666
87547.486377,592.164754,6818.249932,9992.780217
87547.486707,2368.659014,7431.126331,8216.285956
87547.487036,2812.782580,8427.050478,6069.688724
87547.487366,2146.597232,10495.508323,4441.235652
87547.487695,1628.453072,9882.631924,2442.679609
87547.488025,2146.597232,6665.030833,2664.741391
87547.488354,444.123565,3370.820191,4071.132681
87547.488684,-2442.679609,1532.190996,3923.091493
87547.489013,-3849.070898,-306.438199,5477.523971
87547.489343,-3849.070898,-3907.087040,7402.059420
87547.489672,-4441.235652,-6818.249932,10214.842000
87547.490002,-3849.070898,-6128.763984,11473.192101
87547.490331,-2368.659014,-3983.696590,12435.459826
87547.490661,222.061783,-1838.629195,14063.912898
87547.490990,2738.761985,-306.438199,14359.995275
87547.491320,3849.070898,2145.067394,14211.954086
87547.491649,5107.421000,5592.497135,11695.253884
87547.491979,5255.462188,6894.859482,9178.553681
87547.492308,5625.565159,5209.449386,8142.265362
87547.492638,5255.462188,4519.963438,7179.997637
87547.492967,3478.967927,3677.258390,6291.750507
87547.493297,1332.370696,1915.238745,7031.956449
87547.493626,-888.247130,-1762.019645,7402.059420
87547.493956,-2664.741391,-4903.011187,9622.677246
87547.494285,-4885.359217,-7124.688131,11251.130318
87547.494615,-5551.544565,-7584.345430,11621.233289
87547.494944,-4737.318029,-7584.345430,12953.603985
87547.495274,-3108.864956,-6052.154434,13767.830521
87547.495604,-2368.659014,-2451.505594,13323.706956
87547.495933,-370.102971,2451.505594,12213.398043
87547.496263,888.247130,4826.401637,11917.315666
87547.496592,1258.350101,6205.373534,9474.636058
87547.496922,740.205942,6818.249932,6809.894666
87547.497251,1332.370696,7431.126331,4959.379811
87547.497581,1036.288319,7431.126331,4293.194464
87547.497910,74.020594,5439.278036,3627.009116
87547.498240,-814.226536,2528.115143,4367.215058
87547.498569,-1850.514855,689.485948,4811.338623
87547.498899,-3849.070898,-1455.581446,5699.585753
87547.499228,-4145.153275,-3830.477490,8808.450710
87547.499558,-4145.153275,-6818.249932,10288.862594
87547.499887,-4071.132681,-7124.688131,11843.295072
87547.500217,-2738.761985,-6052.154434,13249.686362
87547.500546,-888.247130,-3447.429741,14730.098246
87547.500876,2146.597232,76.609550,14730.098246
87547.501205,5181.441594,1532.190996,14804.118840
87547.501535,5921.647536,4826.401637,12583.501014
87547.501864,5551.544565,6128.763984,9400.615463
87547.502194,6143.709319,6511.811733,7624.121203
87547.502523,7698.141797,5592.497135,7179.997637
87547.502853,6735.874072,4903.011187,6883.915261
87547.503182,2442.679609,3064.381992,6661.853478
87547.503512,-962.267725,-766.095498,6661.853478
87547.503841,-2294.638420,-4673.182538,8586.388927
87547.504171,-3775.050304,-7660.954980,11251.130318
87547.504500,-5921.647536,-8580.269578,11991.336260
87547.504830,-6291.750507,-7354.516781,12361.439231
87547.505159,-3997.112087,-5592.497135,12213.398043
87547.505489,-1332.370696,-1608.800546,13101.645173
87547.505818,740.205942,2987.772442,12361.439231
87547.506148,1036.288319,7507.735880,10658.965565
87547.506478,2072.576638,8963.317327,7698.141797
87547.506807,3849.070898,9269.755526,6217.729913
87547.507137,4145.153275,10112.460574,5181.441594
87547.507466,2072.576638,10112.460574,3478.967927
87547.507796,0.000000,7814.174080,1554.432478
87547.508125,-740.205942,3217.601092,2590.720797
87547.508455,-2664.741391,-842.705048,4663.297435
87547.508784,-5181.441594,-2681.334243,6143.709319
87547.509114,-7402.059420,-4596.572988,7698.141797
87547.509443,-6957.935855,-7431.126331,9474.636058
87547.509773,-5551.544565,-8963.317327,11325.150913
87547.510102,-3997.112087,-6741.640382,13101.645173
87547.510432,-1110.308913,-3140.991542,14137.933492
87547.510761,2146.597232,1302.362347,14063.912898
87547.511091,5033.400406,2834.553343,14137.933492
87547.511420,6365.771101,4443.353888,12213.398043
87547.511750,6365.771101,7354.516781,9178.553681
87547.512079,7031.956449,8350.440928,6883.915261
87547.512409,7550.100608,5132.839837,7254.018232
87547.512738,5107.421000,2987.772442,7031.956449
87547.513068,1406.391290,229.828649,6883.915261
87547.513397,-1480.411884,-1991.848295,8142.265362
87547.513727,-2738.761985,-6435.202183,10362.883188
87547.514056,-4811.338623,-8886.707777,12657.521608
87547.514386,-5921.647536,-8350.440928,12953.603985
87547.514715,-5847.626942,-7431.126331,12435.459826
87547.515045,-3775.050304,-5592.497135,13249.686362
87547.515374,-1628.453072,-2604.724693,13767.830521
87547.515704,148.041188,2757.943793,12361.439231
87547.516033,1480.411884,7354.516781,11251.130318
87547.516363,2072.576638,8656.879127,8956.491898
87547.516692,2368.659014,8427.050478,5477.523971
87547.517022,2812.782580,8273.831378,4293.194464
87547.517352,2072.576638,6971.469032,3923.091493
87547.517681,518.144159,5975.544884,4071.132681
87547.518011,-1258.350101,2681.334243,4367.215058
87547.518340,-2442.679609,-1378.971896,5921.647536
87547.518670,-3330.926739,-3294.210641,6883.915261
87547.518999,-4589.276840,-4903.011187,8364.327145
87547.519329,-4293.194464,-6588.421283,10510.924376
87547.519658,-2960.823768,-7507.735880,11621.233289
87547.519988,-2146.597232,-5286.058936,13101.645173
