#time,accel_x,accel_y,accel_z
1097.534022,1184.329507,4443.353888,7105.977043
1097.534348,296.082377,4673.182538,7698.141797
1097.534674,-222.061783,4136.915689,7698.141797
1097.535000,-296.082377,3753.867940,7920.203579
1097.535326,-444.123565,4903.011187,8142.265362
1097.535652,-444.123565,6818.249932,8364.327145
1097.535978,0.000000,5669.106685,8882.471304
1097.536304,-518.144159,4213.525239,9474.636058
1097.536630,-1776.494261,3907.087040,9918.759623
1097.536956,-2072.576638,4673.182538,9770.718434
1097.537282,-1036.288319,3907.087040,9770.718434
1097.537608,-1554.432478,3677.258390,10510.924376
1097.537934,-2220.617826,2987.772442,10584.944971
1097.538260,-1332.370696,3447.429741,10362.883188
1097.538586,-740.205942,3140.991542,9844.739029
1097.538912,0.000000,3064.381992,9844.739029
1097.539238,222.061783,3370.820191,9326.594869
1097.539564,1776.494261,3753.867940,8660.409521
1097.539890,2812.782580,3907.087040,8882.471304
1097.540216,3034.844362,3370.820191,9400.615463
1097.540542,2146.597232,3064.381992,9104.533087
1097.540868,2960.823768,2911.162892,8438.347739
1097.541194,4145.153275,2068.457845,9104.533087
1097.541520,3701.029710,1762.019645,9400.615463
1097.541846,2886.803174,1915.238745,7994.224174
1097.542172,3404.947333,1608.800546,8216.285956
1097.542498,4811.338623,1685.410096,8734.430116
1097.542824,4589.276840,1378.971896,8956.491898
1097.543150,4367.215058,2451.505594,9400.615463
1097.543476,4885.359217,2451.505594,9104.533087
1097.543802,5403.503377,1608.800546,9474.636058
1097.544128,5699.585753,1378.971896,9474.636058
1097.544454,4737.318029,766.095498,9622.677246
1097.544780,3997.112087,1991.848295,10214.842000
1097.545106,4441.235652,1072.533697,10807.006753
1097.545432,4811.338623,536.266849,11843.295072
1097.545758,4145.153275,1455.581446,11621.233289
1097.546084,3849.070898,2145.067394,10955.047942
1097.546410,4737.318029,2145.067394,10658.965565
1097.546736,5255.462188,2528.115143,10807.006753
1097.547062,5329.482782,3983.696590,10658.965565
1097.547388,4959.379811,5132.839837,10288.862594
1097.547714,5033.400406,5515.887586,8882.471304
1097.548040,6069.688724,5898.935335,8586.388927
1097.548366,5255.462188,5898.935335,8216.285956
1097.548692,3478.967927,7507.735880,7179.997637
1097.549018,1924.535449,7584.345430,5699.585753
1097.549344,1480.411884,5898.935335,6217.729913
1097.549670,-592.164754,5056.230287,6069.688724
1097.549996,-3108.864956,4596.572988,5921.647536
1097.550322,-4219.173869,4366.744339,5921.647536
1097.550648,-4663.297435,3140.991542,6587.832884
1097.550974,-4811.338623,2298.286494,7846.182985
1097.551300,-4885.359217,1991.848295,8068.244768
1097.551626,-5329.482782,2987.772442,7846.182985
1097.551952,-4293.194464,1838.629195,8882.471304
1097.552278,-2664.741391,766.095498,10807.006753
1097.552604,-3256.906145,766.095498,10955.047942
1097.552930,-3256.906145,1378.971896,11547.212695
1097.553256,-1110.308913,766.095498,12583.501014
1097.553582,518.144159,-919.314598,13471.748144
1097.553908,0.000000,-153.219100,12657.521608
1097.554234,592.164754,-383.047749,11621.233289
1097.554560,2442.679609,229.828649,11325.150913
1097.554886,4737.318029,842.705048,10584.944971
1097.555212,6291.750507,2757.943793,9696.697840
1097.555538,7402.059420,4443.353888,8142.265362
1097.555864,8808.450710,5362.668486,6957.935855
1097.556190,10436.903782,4979.620737,7476.080014
1097.556516,9696.697840,4749.792088,7402.059420
1097.556842,7624.121203,4596.572988,8142.265362
1097.557168,6883.915261,2987.772442,9104.533087
1097.557493,5107.421000,1072.533697,10732.986159
1097.557819,2220.617826,-1762.019645,11473.192101
1097.558145,0.000000,-2987.772442,10436.903782
1097.558471,0.000000,-3370.820191,11325.150913
1097.558796,1332.370696,-1455.581446,10436.903782
1097.559122,3330.926739,842.705048,9770.718434
1097.559448,4737.318029,3677.258390,7624.121203
1097.559773,6217.729913,4979.620737,5181.441594
1097.560099,7698.141797,7048.078582,4293.194464
1097.560425,7698.141797,8810.098227,4663.297435
1097.560750,5181.441594,8120.612279,5551.544565
1097.561076,2368.659014,6128.763984,7476.080014
1097.561402,1406.391290,1378.971896,9474.636058
1097.561728,-1480.411884,-919.314598,13027.624579
1097.562053,-3849.070898,-1915.238745,14952.160028
1097.562379,-4145.153275,-2145.067394,16062.468941
1097.562705,-2220.617826,-2451.505594,16802.674883
1097.563030,0.000000,-2451.505594,16802.674883
1097.563356,0.000000,1915.238745,14063.912898
1097.563682,814.226536,5362.668486,9770.718434
1097.564007,2516.700203,6818.249932,6143.709319
1097.564333,4441.235652,7201.297681,3923.091493
1097.564659,3478.967927,9576.193725,2738.761985
1097.564985,2738.761985,11568.042020,1998.556043
1097.565310,3182.885551,10495.508323,1702.473667
1097.565636,1850.514855,7201.297681,2812.782580
1097.565962,-1036.288319,5132.839837,3997.112087
1097.566287,-2886.803174,4213.525239,5107.421000
1097.566613,-4589.276840,2681.334243,6809.894666
1097.566939,-5995.668130,-689.485948,8660.409521
1097.567264,-6809.894666,-2757.943793,10140.821405
1097.567590,-5551.544565,-1608.800546,12509.480420
1097.567916,-4219.173869,-612.876398,13989.892304
1097.568242,-1554.432478,-2298.286494,14804.118840
1097.568567,-814.226536,-3677.258390,15396.283594
1097.568893,-1184.329507,-3140.991542,14211.954086
1097.569219,962.267725,-1225.752797,12509.480420
1097.569544,4071.132681,-229.828649,11177.109724
1097.569870,5625.565159,-229.828649,10807.006753
1097.570196,6587.832884,1685.410096,9252.574275
1097.570521,7550.100608,3677.258390,7920.203579
1097.570847,8808.450710,4749.792088,6957.935855
1097.571173,8290.306550,3983.696590,6587.832884
1097.571499,6069.688724,2987.772442,6513.812290
1097.571824,4811.338623,2145.067394,6809.894666
1097.572150,4071.132681,1072.533697,8734.430116
1097.572476,1480.411884,-842.705048,11917.315666
1097.572801,-1332.370696,-3217.601092,12287.418637
1097.573127,-1776.494261,-4596.572988,12435.459826
1097.573453,-1850.514855,-5745.716235,13545.768739
1097.573779,-2812.782580,-6435.202183,13693.809927
1097.574104,-1924.535449,-4749.792088,11991.336260
1097.574430,518.144159,-2604.724693,10881.027347
1097.574756,2294.638420,153.219100,8882.471304
1097.575081,4071.132681,2451.505594,5255.462188
1097.575407,6587.832884,5362.668486,3923.091493
1097.575733,7550.100608,6741.640382,2664.741391
1097.576058,5551.544565,7890.783629,1184.329507
1097.576384,4441.235652,7737.564530,740.205942
1097.576710,3478.967927,6971.469032,3552.988522
1097.577036,814.226536,5209.449386,7328.038826
1097.577361,-2960.823768,2528.115143,9696.697840
1097.577687,-7105.977043,-1762.019645,12657.521608
1097.578013,-10584.944971,-5362.668486,15914.427753
1097.578338,-12879.583391,-7584.345430,17764.942608
1097.578664,-12731.542202,-8810.098227,18209.066173
1097.578990,-10807.006753,-8886.707777,18579.169144
1097.579315,-9400.615463,-6281.983084,17468.860231
1097.579641,-5773.606348,-919.314598,12509.480420
1097.579967,0.000000,2911.162892,8142.265362
1097.580293,4663.297435,6205.373534,4515.256246
1097.580618,5551.544565,9193.145976,592.164754
1097.580944,7105.977043,12104.308868,-1998.556043
1097.581270,9770.718434,13789.718964,-814.226536
1097.581595,8438.347739,12563.966167,2664.741391
1097.581921,3478.967927,8120.612279,5329.482782
1097.582247,-1184.329507,2374.896044,7550.100608
1097.582572,-5329.482782,-3370.820191,11103.089130
1097.582898,-9326.594869,-7354.516781,14804.118840
1097.583224,-11843.295072,-10265.679673,16358.551318
1097.583550,-12139.377449,-11721.261119,17542.880825
1097.583875,-10510.924376,-11414.822920,16506.592507
1097.584201,-7402.059420,-8350.440928,14285.974681
1097.584527,-2368.659014,-2911.162892,11991.336260
1097.584852,3182.885551,2834.553343,7772.162391
1097.585178,8142.265362,6205.373534,3849.070898
1097.585504,12731.542202,7507.735880,666.185348
1097.585829,14211.954086,10648.727422,222.061783
1097.586155,14063.912898,12640.575717,1702.473667
1097.586481,12657.521608,10878.556072,5181.441594
1097.586807,9992.780217,4903.011187,8438.347739
1097.587132,4441.235652,-1302.362347,13619.789333
1097.587458,-2368.659014,-5592.497135,16506.592507
1097.587784,-5477.523971,-9193.145976,16432.571912
1097.588109,-7031.956449,-11721.261119,17320.819043
1097.588435,-7179.997637,-12870.404366,19245.354492
1097.588761,-7031.956449,-7737.564530,17468.860231
1097.589087,-3404.947333,-2298.286494,13545.768739
1097.589412,1110.308913,0.000000,8438.347739
1097.589738,4441.235652,3140.991542,4811.338623
1097.590064,6809.894666,8886.707777,444.123565
1097.590389,8808.450710,13942.938064,-2294.638420
1097.590715,8734.430116,13789.718964,-1924.535449
1097.591041,6735.874072,10189.070123,1184.329507
1097.591366,3627.009116,6818.249932,5551.544565
1097.591692,-518.144159,3677.258390,9474.636058
1097.592018,-7254.018232,-2068.457845,12213.398043
1097.592344,-9844.739029,-9346.365076,13915.871710
1097.592669,-10214.842000,-11721.261119,16136.489536
1097.592995,-10510.924376,-8656.879127,18283.086767
1097.593321,-9770.718434,-4903.011187,16580.613101
1097.593646,-6513.812290,-3524.039291,12509.480420
1097.593972,-2960.823768,-1685.410096,10288.862594
1097.594298,666.185348,3294.210641,6291.750507
1097.594623,4441.235652,9652.803275,2960.823768
1097.594949,5995.668130,11797.870669,2072.576638
1097.595275,3627.009116,8733.488677,1406.391290
1097.595601,2812.782580,6205.373534,2886.803174
1097.595926,3182.885551,4903.011187,7994.224174
1097.596252,-2146.597232,1915.238745,11547.212695
1097.596578,-7624.121203,-4060.306139,12139.377449
1097.596903,-6809.894666,-9806.022374,14285.974681
1097.597229,-5625.565159,-10955.165621,16506.592507
1097.597555,-6661.853478,-5822.325785,16358.551318
1097.597880,-4885.359217,-3830.477490,13249.686362
1097.598206,-1332.370696,-3064.381992,9770.718434
1097.598532,2146.597232,-1302.362347,7402.059420
1097.598858,5033.400406,3983.696590,5847.626942
1097.599183,7920.203579,8886.707777,3404.947333
1097.599509,8290.306550,9499.584175,2516.700203
1097.599835,7476.080014,6818.249932,3849.070898
1097.600160,7624.121203,4979.620737,6957.935855
1097.600486,5255.462188,3370.820191,9252.574275
1097.600812,518.144159,-1072.533697,12213.398043
1097.601137,-2146.597232,-6281.983084,14285.974681
1097.601463,-888.247130,-8273.831378,15544.324782
1097.601789,-370.102971,-6971.469032,17024.736666
1097.602115,-1480.411884,-3600.648841,15026.180623
1097.602440,-296.082377,-1991.848295,10288.862594
1097.602766,3108.864956,0.000000,7772.162391
1097.603092,5847.626942,3294.210641,5921.647536
1097.603417,5921.647536,7431.126331,3330.926739
1097.603743,5921.647536,9499.584175,1702.473667
1097.604069,6439.791695,8810.098227,4071.132681
1097.604395,4737.318029,6205.373534,6291.750507
1097.604720,1184.329507,4903.011187,8068.244768
1097.605046,-2812.782580,1455.581446,10732.986159
1097.605372,-7105.977043,-4060.306139,13471.748144
1097.605697,-8660.409521,-7967.393179,15100.201217
1097.606023,-8216.285956,-8656.879127,15840.407159
1097.606349,-8956.491898,-6205.373534,15766.386565
1097.606674,-8438.347739,-3140.991542,12657.521608
1097.607000,-3849.070898,-1225.752797,8882.471304
1097.607326,370.102971,2451.505594,5995.668130
1097.607652,2220.617826,7201.297681,3478.967927
1097.607977,3478.967927,10648.727422,-444.123565
1097.608303,6217.729913,11491.432470,-370.102971
1097.608629,6809.894666,10189.070123,3701.029710
1097.608954,2812.782580,9193.145976,6661.853478
1097.609280,-444.123565,6358.592633,8364.327145
1097.609606,-3552.988522,-612.876398,11399.171507
1097.609931,-7402.059420,-6894.859482,15322.262999
1097.610257,-10584.944971,-9729.412825,16580.613101
1097.610583,-10510.924376,-9039.926876,17394.839637
1097.610909,-9474.636058,-8044.002729,17764.942608
1097.611234,-6883.915261,-7124.688131,14656.077652
1097.611560,-2368.659014,-3447.429741,10214.842000
1097.611886,1554.432478,2374.896044,7254.018232
1097.612211,5329.482782,6894.859482,3404.947333
1097.612537,8734.430116,9116.536426,296.082377
1097.612863,10955.047942,8886.707777,-370.102971
1097.613188,9400.615463,9116.536426,1406.391290
1097.613514,6661.853478,8656.879127,4737.318029
1097.613840,4885.359217,3983.696590,9474.636058
1097.614166,444.123565,-3447.429741,14434.015869
1097.614491,-6661.853478,-8427.050478,17838.963202
1097.614817,-8068.244768,-12640.575717,17838.963202
1097.615143,-5625.565159,-13713.109414,17912.983796
1097.615468,-5107.421000,-10495.508323,19245.354492
1097.615794,-3404.947333,-5898.935335,16728.654289
1097.616120,814.226536,-766.095498,10214.842000
1097.616445,7476.080014,2298.286494,5921.647536
1097.616771,10510.924376,5898.935335,4071.132681
1097.617097,10807.006753,11338.213370,-1554.432478
1097.617423,11843.295072,14632.424012,-3627.009116
1097.617748,11917.315666,12487.356617,74.020594
1097.618074,9030.512492,8733.488677,4293.194464
1097.618400,2960.823768,5209.449386,8142.265362
1097.618725,-2146.597232,-1149.143247,11843.295072
1097.619051,-8660.409521,-6281.983084,14434.015869
1097.619377,-10584.944971,-11338.213370,15174.221811
1097.619702,-10658.965565,-11951.089769,17764.942608
1097.620028,-11325.150913,-8120.612279,18431.127956
1097.620354,-10214.842000,-4749.792088,14804.118840
1097.620680,-4885.359217,-3140.991542,11843.295072
1097.621005,0.000000,0.000000,7920.203579
1097.621331,2812.782580,6281.983084,4737.318029
1097.621657,5847.626942,12180.918418,1110.308913
1097.621982,8290.306550,12947.013916,148.041188
1097.622308,6513.812290,11414.822920,1702.473667
1097.622634,4811.338623,10035.851024,3552.988522
1097.622960,2886.803174,7354.516781,7254.018232
1097.623285,-1924.535449,1762.019645,11251.130318
1097.623611,-8364.327145,-4903.011187,15692.365970
1097.623937,-9696.697840,-9422.974625,17246.798449
1097.624262,-9326.594869,-10572.117872,17690.922014
1097.624588,-9178.553681,-9269.755526,18579.169144
1097.624914,-7179.997637,-5975.544884,16506.592507
1097.625239,-3182.885551,-1915.238745,10881.027347
1097.625565,1184.329507,1149.143247,7550.100608
1097.625891,5329.482782,5362.668486,4219.173869
1097.626217,7772.162391,9806.022374,-444.123565
1097.626542,8364.327145,12180.918418,-2590.720797
1097.626868,8290.306550,11491.432470,-444.123565
1097.627194,6883.915261,9193.145976,2738.761985
1097.627519,3330.926739,5592.497135,6809.894666
1097.627845,-444.123565,-1149.143247,11029.068536
1097.628171,-5329.482782,-7890.783629,14285.974681
1097.628496,-7031.956449,-11797.870669,16506.592507
1097.628822,-5625.565159,-11414.822920,19467.416275
1097.629148,-4515.256246,-8886.707777,20207.622217
1097.629474,-2516.700203,-6128.763984,16580.613101
1097.629799,1036.288319,-3983.696590,11769.274478
1097.630125,5625.565159,919.314598,7994.224174
1097.630451,8882.471304,6358.592633,4219.173869
1097.630776,10881.027347,10572.117872,1110.308913
1097.631102,11399.171507,11951.089769,1406.391290
1097.631428,9104.533087,10801.946522,3256.906145
1097.631753,6513.812290,7737.564530,4737.318029
1097.632079,3478.967927,4060.306139,8216.285956
1097.632405,-2442.679609,-1838.629195,12361.439231
1097.632731,-9178.553681,-6741.640382,14137.933492
1097.633056,-9252.574275,-10801.946522,15470.304188
1097.633382,-8216.285956,-11261.603821,18357.107362
1097.633708,-8586.388927,-7737.564530,17616.901420
1097.634033,-7328.038826,-3370.820191,13397.727550
1097.634359,-2812.782580,-383.047749,9030.512492
1097.634685,1258.350101,1915.238745,5995.668130
1097.635010,4441.235652,6741.640382,2294.638420
1097.635336,6513.812290,11031.775171,-444.123565
1097.635662,6439.791695,12717.185267,-1258.350101
1097.635988,4737.318029,11491.432470,2294.638420
1097.636313,3256.906145,7354.516781,5773.606348
1097.636639,370.102971,3217.601092,9326.594869
1097.636965,-5847.626942,-1608.800546,12509.480420
1097.637290,-10584.944971,-8044.002729,15692.365970
1097.637616,-10955.047942,-10495.508323,16802.674883
1097.637942,-9178.553681,-10035.851024,18505.148550
1097.638268,-9178.553681,-9039.926876,17172.777854
1097.638593,-7846.182985,-5822.325785,11843.295072
1097.638919,-2516.700203,-919.314598,8438.347739
1097.639245,3849.070898,4136.915689,7031.956449
1097.639570,6661.853478,8733.488677,2664.741391
1097.639896,7328.038826,10878.556072,-1702.473667
1097.640222,8142.265362,10725.336972,-444.123565
1097.640547,7920.203579,10189.070123,2664.741391
1097.640873,6069.688724,8273.831378,6883.915261
1097.641199,1554.432478,2068.457845,11103.089130
1097.641525,-5255.462188,-5132.839837,13989.892304
1097.641850,-8216.285956,-10955.165621,16506.592507
1097.642176,-6439.791695,-12640.575717,18801.230927
1097.642502,-6587.832884,-10189.070123,19837.519246
1097.642827,-6513.812290,-7890.783629,16950.716072
1097.643153,-1554.432478,-5669.106685,12139.377449
1097.643479,5033.400406,-689.485948,8660.409521
1097.643804,7994.224174,5898.935335,6143.709319
1097.644130,9326.594869,10955.165621,814.226536
1097.644456,11991.336260,12410.747068,-2590.720797
1097.644782,12065.356855,11031.775171,-444.123565
1097.645107,9252.574275,9959.241474,3627.009116
1097.645433,5625.565159,8503.660028,6957.935855
1097.645759,740.205942,2374.896044,10584.944971
1097.646084,-5033.400406,-7048.078582,14211.954086
1097.646410,-9104.533087,-12410.747068,16358.551318
1097.646736,-9400.615463,-11721.261119,18431.127956
1097.647061,-8734.430116,-8963.317327,19393.395680
1097.647387,-7698.141797,-7354.516781,16358.551318
1097.647713,-4145.153275,-5056.230287,11695.253884
1097.648039,666.185348,1685.410096,7920.203579
1097.648364,3849.070898,7967.393179,3775.050304
1097.648690,7254.018232,10725.336972,-1110.308913
1097.649016,8808.450710,10495.508323,-2664.741391
1097.649341,7476.080014,12257.527968,962.267725
1097.649667,5107.421000,12257.527968,3923.091493
1097.649993,3034.844362,7584.345430,7624.121203
1097.650318,-1480.411884,-995.924147,12287.418637
1097.650644,-9104.533087,-7737.564530,14285.974681
1097.650970,-11325.150913,-9116.536426,15174.221811
1097.651296,-9844.739029,-9882.631924,18061.024985
1097.651621,-9252.574275,-9499.584175,19615.457463
1097.651947,-8142.265362,-6971.469032,16432.571912
1097.652273,-4071.132681,-2604.724693,10436.903782
1097.652598,1332.370696,2987.772442,6661.853478
1097.652924,5477.523971,7354.516781,3997.112087
1097.653250,7698.141797,11261.603821,-518.144159
1097.653576,8068.244768,12257.527968,-3108.864956
1097.653901,7105.977043,11184.994271,-222.061783
1097.654227,5403.503377,9193.145976,3552.988522
1097.654553,1924.535449,5515.887586,7698.141797
1097.654878,-3034.844362,-1455.581446,11991.336260
1097.655204,-7994.224174,-7507.735880,15692.365970
1097.655530,-9696.697840,-12334.137518,16802.674883
1097.655855,-7476.080014,-12027.699319,20133.601622
1097.656181,-6809.894666,-9882.631924,20355.663405
1097.656507,-5107.421000,-6894.859482,15174.221811
1097.656833,444.123565,-3600.648841,10436.903782
1097.657158,6513.812290,2145.067394,8586.388927
1097.657484,8956.491898,8044.002729,4663.297435
1097.657810,10807.006753,12104.308868,222.061783
1097.658136,12435.459826,11184.994271,-814.226536
1097.658462,10584.944971,8886.707777,962.267725
1097.658788,6957.935855,8120.612279,4071.132681
1097.659114,4515.256246,5056.230287,8512.368333
1097.659440,-1776.494261,-1072.533697,12583.501014
1097.659766,-7994.224174,-8886.707777,14804.118840
1097.660092,-8660.409521,-12487.356617,16136.489536
1097.660418,-8586.388927,-10189.070123,17764.942608
1097.660744,-8290.306550,-7967.393179,17098.757260
1097.661070,-6069.688724,-5592.497135,13841.851115
1097.661396,-1702.473667,-2604.724693,9844.739029
1097.661721,1998.556043,2374.896044,7105.977043
1097.662047,6069.688724,7890.783629,3108.864956
1097.662373,9030.512492,10418.898773,-0.000000
1097.662699,8586.388927,11797.870669,-444.123565
1097.663025,6143.709319,10725.336972,1998.556043
1097.663351,5329.482782,9806.022374,5033.400406
1097.663677,2220.617826,5822.325785,8734.430116
1097.664003,-3849.070898,-1608.800546,11769.274478
1097.664329,-9474.636058,-7277.907231,14211.954086
1097.664655,-9770.718434,-10112.460574,16062.468941
1097.664981,-9474.636058,-9346.365076,19023.292709
1097.665307,-9178.553681,-8044.002729,18579.169144
1097.665633,-7994.224174,-6128.763984,14359.995275
1097.665959,-3404.947333,-2604.724693,9474.636058
1097.666285,1998.556043,2834.553343,7698.141797
1097.666611,4959.379811,8427.050478,3997.112087
1097.666937,7254.018232,10418.898773,-1332.370696
1097.667263,8882.471304,10648.727422,-1406.391290
1097.667589,7550.100608,10418.898773,1924.535449
1097.667915,4293.194464,10342.289223,4737.318029
1097.668241,2664.741391,5745.716235,8364.327145
1097.668567,-2516.700203,-2834.553343,12287.418637
1097.668893,-8512.368333,-9039.926876,14211.954086
1097.669219,-9474.636058,-10725.336972,15544.324782
1097.669545,-7402.059420,-9806.022374,18283.086767
1097.669871,-7402.059420,-8656.879127,17838.963202
1097.670197,-5255.462188,-6588.421283,13989.892304
1097.670523,0.000000,-2757.943793,9770.718434
1097.670848,4071.132681,3524.039291,6809.894666
1097.671174,7550.100608,8273.831378,2738.761985
1097.671500,10140.821405,10112.460574,-148.041188
1097.671826,10140.821405,10955.165621,-592.164754
1097.672152,8734.430116,10572.117872,2294.638420
1097.672478,7550.100608,8350.440928,6365.771101
1097.672804,4145.153275,3907.087040,10214.842000
1097.673130,-2738.761985,-2834.553343,13471.748144
1097.673456,-7402.059420,-9499.584175,15840.407159
1097.673782,-8142.265362,-11568.042020,17098.757260
1097.674108,-7994.224174,-11108.384721,18431.127956
1097.674434,-6809.894666,-9116.536426,17838.963202
1097.674760,-5255.462188,-5745.716235,13323.706956
1097.675086,-1184.329507,-766.095498,9030.512492
1097.675412,4145.153275,3677.258390,7031.956449
1097.675738,7328.038826,8197.221829,2664.741391
1097.676064,7179.997637,10418.898773,-1480.411884
1097.676390,7254.018232,10342.289223,-1628.453072
1097.676716,6809.894666,10572.117872,2664.741391
1097.677042,4811.338623,8963.317327,6735.874072
1097.677368,888.247130,3524.039291,10732.986159
1097.677694,-5329.482782,-4136.915689,13101.645173
1097.678020,-9326.594869,-9269.755526,14878.139434
1097.678346,-7920.203579,-11414.822920,16506.592507
1097.678672,-7550.100608,-9039.926876,18653.189738
1097.678998,-7550.100608,-5898.935335,16210.510130
1097.679324,-4737.318029,-3983.696590,11843.295072
1097.679650,814.226536,-459.657299,8364.327145
1097.679975,3552.988522,4519.963438,5181.441594
1097.680301,5033.400406,9422.974625,1554.432478
1097.680627,7402.059420,11644.651570,-888.247130
1097.680953,8142.265362,10265.679673,518.144159
1097.681279,6291.750507,9116.536426,3775.050304
1097.681605,2738.761985,7507.735880,6735.874072
1097.681931,-1776.494261,3294.210641,9992.780217
1097.682257,-6513.812290,-5209.449386,13027.624579
1097.682583,-8660.409521,-10495.508323,15692.365970
1097.682909,-9252.574275,-10801.946522,17690.922014
1097.683235,-9622.677246,-7890.783629,18505.148550
1097.683561,-7476.080014,-6588.421283,16284.530724
1097.683887,-2294.638420,-4903.011187,11621.233289
1097.684213,2220.617826,-459.657299,9030.512492
1097.684539,5329.482782,6435.202183,5699.585753
1097.684865,8808.450710,11031.775171,1628.453072
1097.685191,11843.295072,11491.432470,222.061783
1097.685517,11251.130318,9806.022374,2220.617826
1097.685843,8586.388927,10495.508323,3775.050304
1097.686169,5773.606348,8197.221829,6957.935855
1097.686495,2072.576638,1685.410096,11325.150913
1097.686821,-4885.359217,-6052.154434,14804.118840
1097.687147,-8586.388927,-10035.851024,16062.468941
1097.687473,-8512.368333,-10418.898773,16950.716072
1097.687799,-7698.141797,-9499.584175,18135.045579
1097.688125,-6661.853478,-7737.564530,16580.613101
1097.688451,-3627.009116,-3753.867940,11325.150913
1097.688777,1036.288319,1072.533697,7402.059420
1097.689102,5107.421000,5515.887586,4959.379811
1097.689428,7476.080014,9576.193725,962.267725
1097.689754,8142.265362,11338.213370,-740.205942
1097.690080,6809.894666,10648.727422,-0.000000
1097.690406,6069.688724,8656.879127,3256.906145
1097.690732,2516.700203,5132.839837,7846.182985
1097.691058,-2886.803174,-383.047749,11103.089130
1097.691384,-8586.388927,-6205.373534,13545.768739
1097.691710,-9844.739029,-10955.165621,15470.304188
1097.692036,-9178.553681,-11491.432470,17838.963202
1097.692362,-8216.285956,-9652.803275,18801.230927
1097.692688,-6883.915261,-6052.154434,15470.304188
1097.693014,-2368.659014,-2911.162892,10658.965565
1097.693340,2812.782580,1302.362347,8660.409521
1097.693666,5477.523971,6818.249932,5181.441594
1097.693992,7105.977043,10801.946522,296.082377
1097.694318,8586.388927,11414.822920,-1480.411884
1097.694644,7920.203579,9269.755526,1924.535449
1097.694970,5181.441594,9116.536426,5477.523971
1097.695296,2220.617826,5975.544884,8512.368333
1097.695622,-3182.885551,-919.314598,11843.295072
1097.695948,-8438.347739,-8503.660028,14211.954086
1097.696274,-9178.553681,-11797.870669,16136.489536
1097.696600,-8364.327145,-10265.679673,18061.024985
1097.696926,-8956.491898,-7507.735880,17764.942608
1097.697252,-7031.956449,-5822.325785,14730.098246
1097.697578,-1036.288319,-4060.306139,10658.965565
1097.697904,2812.782580,1455.581446,7698.141797
1097.698230,5107.421000,7737.564530,4145.153275
1097.698555,8290.306550,10572.117872,888.247130
1097.698881,9548.656652,10035.851024,-814.226536
1097.699207,8216.285956,7967.393179,2294.638420
1097.699533,5995.668130,8503.660028,4959.379811
1097.699859,2738.761985,5745.716235,8438.347739
1097.700185,-1332.370696,-1532.190996,12139.377449
1097.700511,-5625.565159,-7967.393179,15914.427753
1097.700837,-6735.874072,-10265.679673,16728.654289
1097.701163,-5477.523971,-9039.926876,18357.107362
1097.701489,-4737.318029,-7124.688131,18209.066173
1097.701815,-2960.823768,-4903.011187,13471.748144
1097.702141,814.226536,-612.876398,9474.636058
1097.702467,5329.482782,4213.525239,6809.894666
1097.702793,7476.080014,9193.145976,3256.906145
1097.703119,8068.244768,10955.165621,-814.226536
1097.703445,8142.265362,10725.336972,-888.247130
1097.703771,6439.791695,10572.117872,1258.350101
1097.704097,3701.029710,9652.803275,4367.215058
1097.704423,814.226536,4749.792088,8882.471304
1097.704749,-4293.194464,-2528.115143,12953.603985
1097.705075,-9252.574275,-8120.612279,14582.057057
1097.705401,-9622.677246,-10648.727422,15840.407159
1097.705727,-8586.388927,-9499.584175,18283.086767
1097.706053,-8216.285956,-6971.469032,17172.777854
1097.706379,-5181.441594,-4213.525239,12361.439231
1097.706705,-74.020594,-536.266849,9030.512492
1097.707031,3256.906145,4060.306139,6809.894666
1097.707357,4959.379811,9269.755526,2886.803174
1097.707682,8142.265362,11261.603821,-0.000000
1097.708008,8808.450710,10418.898773,1110.308913
1097.708334,5699.585753,8656.879127,3552.988522
1097.708660,3330.926739,7967.393179,7105.977043
1097.708986,1628.453072,3447.429741,10807.006753
1097.709312,-3701.029710,-4136.915689,14137.933492
1097.709638,-9252.574275,-9576.193725,15396.283594
1097.709964,-8586.388927,-11644.651570,16432.571912
1097.710290,-7402.059420,-9422.974625,17690.922014
1097.710616,-6587.832884,-6818.249932,16728.654289
1097.710942,-4663.297435,-4903.011187,11991.336260
1097.711268,-296.082377,-842.705048,7920.203579
1097.711594,4219.173869,3524.039291,4515.256246
1097.711920,6809.894666,7660.954980,1998.556043
1097.712246,7698.141797,9806.022374,-1184.329507
1097.712572,7254.018232,10342.289223,-0.000000
1097.712898,7402.059420,9116.536426,3701.029710
1097.713224,5329.482782,6818.249932,6217.729913
1097.713550,814.226536,1225.752797,9696.697840
1097.713876,-5033.400406,-5132.839837,13397.727550
1097.714202,-8068.244768,-9116.536426,15766.386565
1097.714528,-6365.771101,-10725.336972,17246.798449
1097.714854,-6069.688724,-9729.412825,18653.189738
1097.715180,-6513.812290,-7584.345430,15174.221811
1097.715506,-3478.967927,-3983.696590,10658.965565
1097.715832,2812.782580,842.705048,9326.594869
1097.716158,6217.729913,5975.544884,7698.141797
1097.716484,7031.956449,10189.070123,3034.844362
1097.716809,9030.512492,10648.727422,-444.123565
1097.717135,9474.636058,10035.851024,1258.350101
1097.717461,7254.018232,9499.584175,4885.359217
1097.717787,3775.050304,7584.345430,8512.368333
1097.718113,-592.164754,1991.848295,11621.233289
1097.718439,-6217.729913,-5592.497135,14582.057057
1097.718765,-8734.430116,-10878.556072,16284.530724
1097.719091,-9178.553681,-10648.727422,16580.613101
1097.719417,-9622.677246,-8273.831378,16284.530724
1097.719743,-8438.347739,-5975.544884,14730.098246
1097.720069,-3108.864956,-3753.867940,10732.986159
1097.720395,1628.453072,1378.971896,8660.409521
1097.720721,2812.782580,6894.859482,5255.462188
1097.721047,4737.318029,10189.070123,148.041188
1097.721373,9622.677246,10189.070123,-2442.679609
1097.721699,9474.636058,12027.699319,1924.535449
1097.722025,6661.853478,11491.432470,4737.318029
1097.722351,2146.597232,8656.879127,6069.688724
1097.722677,-814.226536,0.000000,10214.842000
1097.723003,-6809.894666,-7660.954980,14434.015869
1097.723329,-10658.965565,-9806.022374,14285.974681
1097.723655,-8586.388927,-8427.050478,16210.510130
1097.723981,-7254.018232,-8120.612279,19097.313304
1097.724307,-6291.750507,-7354.516781,16358.551318
1097.724633,-4219.173869,-4213.525239,11103.089130
1097.724959,1332.370696,1608.800546,7031.956449
1097.725285,4441.235652,6741.640382,5107.421000
1097.725611,7698.141797,9269.755526,1924.535449
1097.725936,9770.718434,9959.241474,518.144159
1097.726262,8142.265362,10725.336972,2146.597232
1097.726588,5551.544565,9806.022374,4589.276840
1097.726914,3775.050304,5822.325785,7624.121203
1097.727240,74.020594,-766.095498,10658.965565
1097.727566,-5403.503377,-6588.421283,15100.201217
1097.727892,-7920.203579,-9499.584175,16136.489536
1097.728218,-6883.915261,-10878.556072,16580.613101
1097.728544,-5773.606348,-9652.803275,18431.127956
1097.728870,-4811.338623,-6358.592633,15618.345376
1097.729196,-1110.308913,-1608.800546,10510.924376
1097.729522,3997.112087,1685.410096,8364.327145
1097.729848,6661.853478,4903.011187,6069.688724
1097.730174,7105.977043,9039.926876,1406.391290
1097.730500,8808.450710,10725.336972,-962.267725
1097.730826,8068.244768,10265.679673,1628.453072
1097.731152,5329.482782,7890.783629,4441.235652
1097.731478,2368.659014,4979.620737,8438.347739
1097.731804,-1554.432478,-766.095498,11547.212695
1097.732130,-7550.100608,-6665.030833,13619.789333
1097.732456,-9178.553681,-10189.070123,14952.160028
1097.732782,-7254.018232,-10035.851024,16728.654289
1097.733108,-7328.038826,-7814.174080,16432.571912
1097.733434,-6217.729913,-5286.058936,13101.645173
1097.733760,-2368.659014,-1915.238745,10658.965565
1097.734086,2146.597232,2145.067394,8142.265362
1097.734412,4367.215058,6971.469032,4663.297435
1097.734738,7698.141797,9039.926876,888.247130
1097.735064,8586.388927,9193.145976,-74.020594
1097.735389,5551.544565,9882.631924,2738.761985
1097.735715,3775.050304,8733.488677,4959.379811
1097.736041,1406.391290,5132.839837,8734.430116
1097.736367,-3330.926739,-2068.457845,11843.295072
1097.736693,-8216.285956,-7507.735880,14804.118840
1097.737019,-8438.347739,-9729.412825,15248.242405
1097.737345,-7698.141797,-8656.879127,17098.757260
1097.737671,-7476.080014,-6818.249932,17764.942608
1097.737997,-5181.441594,-5592.497135,13841.851115
1097.738323,-888.247130,-1838.629195,10066.800811
1097.738649,3404.947333,3294.210641,7105.977043
1097.738975,5551.544565,7584.345430,4589.276840
1097.739301,7698.141797,10189.070123,370.102971
1097.739627,9178.553681,9576.193725,-148.041188
1097.739953,7476.080014,9269.755526,2812.782580
1097.740279,4663.297435,8580.269578,5329.482782
1097.740605,1332.370696,5132.839837,9104.533087
1097.740931,-1628.453072,-1532.190996,12953.603985
1097.741257,-6291.750507,-7890.783629,15174.221811
1097.741583,-7031.956449,-10112.460574,15618.345376
1097.741909,-5773.606348,-8656.879127,17098.757260
1097.742235,-5477.523971,-6358.592633,16876.695478
1097.742561,-3849.070898,-4673.182538,12731.542202
1097.742887,962.267725,-1149.143247,9770.718434
1097.743213,4589.276840,3524.039291,7031.956449
1097.743539,6143.709319,7967.393179,3627.009116
1097.743865,7994.224174,9882.631924,-222.061783
1097.744191,9326.594869,9882.631924,740.205942
1097.744516,7328.038826,9806.022374,3701.029710
1097.744842,4663.297435,8733.488677,5699.585753
1097.745168,1998.556043,3830.477490,9178.553681
1097.745494,-2294.638420,-2911.162892,12213.398043
1097.745820,-7402.059420,-6818.249932,14434.015869
1097.746146,-7550.100608,-8580.269578,16210.510130
1097.746472,-6883.915261,-8503.660028,16876.695478
1097.746798,-7254.018232,-7201.297681,15840.407159
1097.747124,-5995.668130,-5439.278036,12435.459826
1097.747450,-2516.700203,-306.438199,9104.533087
1097.747776,1184.329507,4290.134789,5921.647536
1097.748102,4441.235652,7124.688131,4071.132681
1097.748428,6217.729913,8580.269578,148.041188
1097.748754,5773.606348,10112.460574,-0.000000
1097.749080,4959.379811,10035.851024,3478.967927
1097.749406,3775.050304,7890.783629,6365.771101
1097.749732,888.247130,2451.505594,9992.780217
1097.750058,-4811.338623,-3294.210641,13323.706956
1097.750384,-8438.347739,-7737.564530,15248.242405
1097.750710,-8068.244768,-10265.679673,16876.695478
1097.751036,-7179.997637,-10648.727422,18949.272115
1097.751362,-7254.018232,-8963.317327,16654.633695
1097.751688,-5329.482782,-5362.668486,12139.377449
1097.752014,666.185348,-2221.676944,9474.636058
1097.752340,3849.070898,2987.772442,7624.121203
1097.752666,5329.482782,7354.516781,3849.070898
1097.752992,6587.832884,8810.098227,222.061783
1097.753318,8290.306550,8886.707777,740.205942
1097.753643,7254.018232,7507.735880,3627.009116
1097.753969,4367.215058,6358.592633,7105.977043
1097.754295,148.041188,2911.162892,9474.636058
1097.754621,-5329.482782,-4673.182538,12287.418637
1097.754947,-7105.977043,-11031.775171,14285.974681
1097.755273,-6439.791695,-12027.699319,15396.283594
1097.755599,-7105.977043,-8197.221829,16802.674883
1097.755925,-6735.874072,-6281.983084,14434.015869
1097.756251,-2590.720797,-4903.011187,11473.192101
1097.756577,2590.720797,-1225.752797,9326.594869
1097.756903,4885.359217,4903.011187,6587.832884
1097.757229,7105.977043,9729.412825,2368.659014
1097.757555,10436.903782,9806.022374,-0.000000
1097.757881,10362.883188,9346.365076,2738.761985
1097.758207,7772.162391,9652.803275,5625.565159
1097.758533,4293.194464,8886.707777,8142.265362
1097.758859,1554.432478,2451.505594,10510.924376
1097.759185,-2812.782580,-5132.839837,14508.036463
1097.759511,-6809.894666,-8120.612279,15174.221811
1097.759836,-7698.141797,-7660.954980,16432.571912
1097.760162,-6735.874072,-6511.811733,17098.757260
1097.760488,-5699.585753,-5745.716235,15322.262999
1097.760814,-3108.864956,-3064.381992,11103.089130
1097.761140,296.082377,3370.820191,7698.141797
1097.761466,2960.823768,8273.831378,4515.256246
1097.761792,5773.606348,10112.460574,1776.494261
1097.762117,7105.977043,9499.584175,-74.020594
1097.762443,5773.606348,10265.679673,1776.494261
1097.762769,3034.844362,10878.556072,4441.235652
1097.763095,1406.391290,7201.297681,7328.038826
1097.763421,-2146.597232,76.609550,9622.677246
1097.763747,-7550.100608,-5439.278036,12731.542202
1097.764073,-8956.491898,-7890.783629,14656.077652
1097.764399,-8068.244768,-7201.297681,15766.386565
1097.764724,-7105.977043,-7277.907231,17246.798449
1097.765050,-5921.647536,-6818.249932,14508.036463
1097.765376,-2738.761985,-2528.115143,9326.594869
1097.765702,2146.597232,2911.162892,7476.080014
1097.766028,5699.585753,6971.469032,6513.812290
1097.766354,6735.874072,9116.536426,2516.700203
1097.766680,7994.224174,8886.707777,666.185348
1097.767005,7772.162391,8580.269578,3330.926739
1097.767331,5329.482782,8044.002729,5773.606348
1097.767657,2664.741391,5439.278036,7994.224174
1097.767983,-666.185348,-842.705048,11029.068536
1097.768309,-6291.750507,-7277.907231,14508.036463
1097.768635,-7920.203579,-11184.994271,15322.262999
1097.768961,-5847.626942,-10342.289223,16728.654289
1097.769287,-5847.626942,-7814.174080,17764.942608
1097.769612,-5477.523971,-7277.907231,14063.912898
1097.769938,-1184.329507,-3907.087040,10732.986159
1097.770264,4367.215058,689.485948,9548.656652
1097.770590,5551.544565,6128.763984,6069.688724
1097.770916,7031.956449,8503.660028,1258.350101
1097.771242,9992.780217,8044.002729,-0.000000
1097.771568,8438.347739,8044.002729,3108.864956
1097.771893,4959.379811,7584.345430,5773.606348
1097.772219,3034.844362,4749.792088,8142.265362
1097.772545,-962.267725,-1838.629195,11399.171507
1097.772871,-5773.606348,-6818.249932,14730.098246
1097.773197,-7179.997637,-9806.022374,15174.221811
1097.773523,-6883.915261,-9269.755526,15026.180623
1097.773849,-7476.080014,-8197.221829,16876.695478
1097.774175,-5847.626942,-6358.592633,14211.954086
1097.774500,-2072.576638,-1838.629195,10066.800811
1097.774826,1480.411884,2528.115143,7624.121203
1097.775152,3701.029710,6281.983084,4885.359217
1097.775478,5773.606348,8810.098227,-0.000000
1097.775804,7105.977043,10035.851024,-592.164754
1097.776130,6513.812290,10265.679673,2072.576638
1097.776456,4145.153275,9882.631924,4589.276840
1097.776781,1998.556043,6128.763984,7476.080014
1097.777107,-1184.329507,0.000000,11621.233289
1097.777433,-7402.059420,-4826.401637,14211.954086
1097.777759,-8660.409521,-7737.564530,14359.995275
1097.778085,-7698.141797,-8580.269578,16654.633695
1097.778411,-7772.162391,-8120.612279,17616.901420
1097.778737,-7476.080014,-5822.325785,15100.201217
1097.779063,-3330.926739,-2221.676944,11029.068536
1097.779388,518.144159,1838.629195,7994.224174
1097.779714,2886.803174,6205.373534,4811.338623
1097.780040,5773.606348,8886.707777,1258.350101
1097.780366,7254.018232,10572.117872,1258.350101
1097.780692,5995.668130,10878.556072,3478.967927
1097.781018,4071.132681,9422.974625,4441.235652
1097.781344,2516.700203,4903.011187,7624.121203
1097.781669,-1258.350101,-1302.362347,11177.109724
1097.781995,-4885.359217,-5822.325785,12953.603985
1097.782321,-5329.482782,-8044.002729,15914.427753
1097.782647,-5181.441594,-8886.707777,18505.148550
1097.782973,-5107.421000,-7660.954980,17616.901420
1097.783299,-2886.803174,-5515.887586,13693.809927
1097.783625,74.020594,-2145.067394,10436.903782
1097.783951,3182.885551,2528.115143,7254.018232
1097.784276,6439.791695,7124.688131,3849.070898
1097.784602,9252.574275,9806.022374,1702.473667
1097.784928,8290.306550,10265.679673,-0.000000
1097.785254,6143.709319,9882.631924,1850.514855
1097.785580,5403.503377,7814.174080,4663.297435
1097.785906,2960.823768,4290.134789,8216.285956
1097.786232,-2368.659014,-1149.143247,11991.336260
1097.786557,-7105.977043,-6971.469032,14211.954086
1097.786883,-7254.018232,-10725.336972,13989.892304
1097.787209,-6735.874072,-10955.165621,16432.571912
1097.787535,-7179.997637,-7967.393179,17468.860231
1097.787861,-5847.626942,-4060.306139,13841.851115
1097.788187,-1480.411884,-1685.410096,10214.842000
1097.788513,3775.050304,766.095498,9252.574275
1097.788839,5921.647536,6052.154434,4441.235652
1097.789164,6809.894666,10572.117872,-148.041188
1097.789490,7846.182985,10725.336972,370.102971
1097.789816,7105.977043,9806.022374,3404.947333
1097.790142,5477.523971,8273.831378,6291.750507
1097.790468,1850.514855,5056.230287,9622.677246
1097.790794,-3849.070898,-536.266849,11695.253884
1097.791120,-8142.265362,-7201.297681,12953.603985
1097.791445,-7402.059420,-10572.117872,15174.221811
1097.791771,-8216.285956,-9806.022374,17098.757260
1097.792097,-10066.800811,-6894.859482,16654.633695
1097.792423,-7328.038826,-5286.058936,12509.480420
1097.792749,-2368.659014,-3447.429741,9548.656652
1097.793075,666.185348,1225.752797,7031.956449
1097.793401,2664.741391,7737.564530,4293.194464
1097.793727,5625.565159,11031.775171,592.164754
1097.794052,7994.224174,9422.974625,1036.288319
1097.794378,6587.832884,7431.126331,3849.070898
1097.794704,3997.112087,7584.345430,5403.503377
1097.795030,814.226536,4749.792088,8734.430116
1097.795356,-2442.679609,-2911.162892,13175.665768
1097.795682,-6513.812290,-9193.145976,14952.160028
1097.796008,-7402.059420,-10572.117872,16506.592507
1097.796333,-7179.997637,-9576.193725,16876.695478
1097.796659,-5477.523971,-7660.954980,15988.448347
1097.796985,-2812.782580,-5898.935335,13101.645173
1097.797311,888.247130,-1378.971896,9844.739029
1097.797637,4145.153275,4903.011187,6365.771101
1097.797963,8586.388927,9652.803275,2960.823768
1097.798289,10881.027347,10035.851024,1258.350101
1097.798615,9622.677246,10648.727422,1110.308913
1097.798940,7624.121203,10955.165621,2220.617826
1097.799266,5921.647536,8733.488677,5477.523971
1097.799592,2294.638420,2987.772442,9104.533087
1097.799918,-3627.009116,-4136.915689,12657.521608
1097.800244,-7105.977043,-7737.564530,14211.954086
1097.800570,-7476.080014,-9652.803275,15766.386565
1097.800896,-6513.812290,-9269.755526,17394.839637
1097.801221,-6069.688724,-7354.516781,16950.716072
1097.801547,-4071.132681,-3600.648841,11917.315666
1097.801873,-444.123565,689.485948,9104.533087
1097.802199,4219.173869,4519.963438,6957.935855
1097.802525,7328.038826,8273.831378,3330.926739
1097.802851,8216.285956,11874.480219,-0.000000
1097.803177,8216.285956,12487.356617,1628.453072
1097.803503,7031.956449,10878.556072,4441.235652
1097.803828,3997.112087,7890.783629,7698.141797
1097.804154,148.041188,2451.505594,10214.842000
1097.804480,-4885.359217,-3447.429741,12213.398043
1097.804806,-8660.409521,-7507.735880,13027.624579
1097.805132,-7179.997637,-8580.269578,16284.530724
1097.805458,-6809.894666,-7660.954980,18431.127956
1097.805784,-8068.244768,-5592.497135,15248.242405
1097.806109,-5255.462188,-3830.477490,11251.130318
1097.806435,-888.247130,0.000000,9030.512492
1097.806761,1628.453072,4749.792088,6069.688724
1097.807087,4367.215058,8733.488677,2072.576638
1097.807413,6883.915261,9346.365076,370.102971
1097.807739,5403.503377,9193.145976,1332.370696
1097.808065,3256.906145,8580.269578,3182.885551
1097.808391,2738.761985,6128.763984,5699.585753
1097.808716,-962.267725,1762.019645,10140.821405
1097.809042,-6365.771101,-5056.230287,12805.562797
1097.809368,-7476.080014,-8733.488677,15396.283594
1097.809694,-6735.874072,-9729.412825,16580.613101
1097.810020,-7772.162391,-9729.412825,17616.901420
1097.810346,-5773.606348,-8120.612279,15692.365970
1097.810672,-1924.535449,-5056.230287,12435.459826
1097.810997,1036.288319,76.609550,9992.780217
1097.811323,4219.173869,3983.696590,6957.935855
1097.811649,7920.203579,7354.516781,3182.885551
1097.811975,8438.347739,8580.269578,444.123565
1097.812301,7698.141797,9269.755526,1776.494261
1097.812627,6217.729913,8503.660028,3923.091493
1097.812953,4145.153275,5286.058936,7328.038826
1097.813279,296.082377,-536.266849,11325.150913
1097.813604,-4219.173869,-6281.983084,14211.954086
1097.813930,-5995.668130,-9806.022374,15544.324782
1097.814256,-4959.379811,-9652.803275,17987.004391
1097.814582,-5107.421000,-8350.440928,18505.148550
1097.814908,-4515.256246,-6511.811733,14211.954086
1097.815234,-1554.432478,-3524.039291,10140.821405
1097.815560,2886.803174,995.924147,8290.306550
1097.815885,5181.441594,6588.421283,5477.523971
1097.816211,6957.935855,10265.679673,962.267725
1097.816537,8216.285956,9806.022374,-518.144159
1097.816863,6661.853478,9269.755526,1776.494261
1097.817189,4219.173869,8963.317327,3182.885551
1097.817515,2590.720797,6971.469032,6587.832884
1097.817841,-1406.391290,1378.971896,10658.965565
1097.818167,-6661.853478,-4826.401637,12953.603985
1097.818492,-8068.244768,-8733.488677,14211.954086
1097.818818,-7105.977043,-9269.755526,16432.571912
1097.819144,-7402.059420,-7048.078582,17838.963202
1097.819470,-5847.626942,-4060.306139,14656.077652
1097.819796,-1554.432478,-1685.410096,11399.171507
1097.820122,2516.700203,2221.676944,9252.574275
1097.820448,5181.441594,6894.859482,5551.544565
1097.820773,6883.915261,10801.946522,1702.473667
1097.821099,7550.100608,10725.336972,888.247130
1097.821425,5551.544565,11414.822920,2368.659014
1097.821751,3997.112087,9806.022374,5329.482782
1097.822077,1998.556043,6281.983084,8364.327145
1097.822403,-3108.864956,229.828649,10436.903782
1097.822729,-9474.636058,-6358.592633,13101.645173
1097.823055,-10807.006753,-10112.460574,14211.954086
1097.823380,-9400.615463,-10265.679673,16728.654289
1097.823706,-7920.203579,-9576.193725,16728.654289
1097.824032,-7031.956449,-6511.811733,14063.912898
1097.824358,-3849.070898,-2068.457845,10732.986159
1097.824684,1406.391290,1302.362347,8438.347739
1097.825010,5847.626942,4673.182538,4219.173869
1097.825336,8734.430116,8044.002729,1184.329507
1097.825661,9474.636058,10801.946522,814.226536
1097.825987,9178.553681,11797.870669,2516.700203
1097.826313,8290.306550,9039.926876,4737.318029
1097.826639,5773.606348,3983.696590,9622.677246
1097.826965,-1184.329507,-1378.971896,11991.336260
1097.827291,-5403.503377,-6511.811733,12805.562797
1097.827617,-4663.297435,-10878.556072,15174.221811
1097.827943,-5033.400406,-11568.042020,17912.983796
1097.828268,-7624.121203,-8350.440928,17468.860231
1097.828594,-5033.400406,-7048.078582,13249.686362
1097.828920,-518.144159,-4136.915689,9548.656652
1097.829246,2590.720797,76.609550,8068.244768
1097.829572,4737.318029,5975.544884,4441.235652
1097.829898,7772.162391,10342.289223,1036.288319
1097.830224,8956.491898,10342.289223,1850.514855
1097.830549,7550.100608,8197.221829,3701.029710
1097.830875,4293.194464,7584.345430,4737.318029
1097.831201,1702.473667,4366.744339,7698.141797
1097.831527,-2812.782580,-1915.238745,12213.398043
1097.831853,-7550.100608,-7890.783629,14730.098246
1097.832179,-8660.409521,-10648.727422,15766.386565
1097.832505,-8586.388927,-10035.851024,16728.654289
1097.832831,-8142.265362,-6971.469032,15766.386565
1097.833156,-5329.482782,-4979.620737,12657.521608
1097.833482,-1258.350101,-1378.971896,9918.759623
1097.833808,2516.700203,3907.087040,7179.997637
1097.834134,4959.379811,8810.098227,3775.050304
1097.834460,8364.327145,10955.165621,1406.391290
1097.834786,9474.636058,11184.994271,2516.700203
1097.835112,6883.915261,10495.508323,3256.906145
1097.835437,3701.029710,9422.974625,4663.297435
1097.835763,1036.288319,4673.182538,8882.471304
1097.836089,-3997.112087,-1915.238745,12435.459826
1097.836415,-9252.574275,-7048.078582,12953.603985
1097.836741,-9252.574275,-9729.412825,14582.057057
1097.837067,-9104.533087,-9576.193725,16876.695478
1097.837393,-9030.512492,-7124.688131,16358.551318
1097.837719,-6365.771101,-4903.011187,12805.562797
1097.838044,-2368.659014,-1378.971896,9548.656652
1097.838370,1258.350101,2681.334243,6957.935855
1097.838696,5329.482782,6741.640382,3552.988522
1097.839022,7624.121203,10265.679673,814.226536
1097.839348,7179.997637,10878.556072,1036.288319
1097.839674,6143.709319,9346.365076,2738.761985
1097.840000,5403.503377,7507.735880,6217.729913
1097.840325,1850.514855,3064.381992,9918.759623
1097.840651,-3182.885551,-2757.943793,12879.583391
1097.840977,-5995.668130,-7737.564530,13693.809927
1097.841303,-4663.297435,-10265.679673,15248.242405
1097.841629,-3997.112087,-9039.926876,18061.024985
1097.841955,-4441.235652,-5209.449386,16210.510130
1097.842281,-1406.391290,-2681.334243,11029.068536
1097.842607,3627.009116,-383.047749,9400.615463
1097.842932,5921.647536,3677.258390,7105.977043
1097.843258,6809.894666,9269.755526,2442.679609
1097.843584,8808.450710,11338.213370,518.144159
1097.843910,8512.368333,8886.707777,1924.535449
1097.844236,4959.379811,6665.030833,3478.967927
1097.844562,2960.823768,5515.887586,6957.935855
1097.844888,-444.123565,1915.238745,11103.089130
1097.845213,-6069.688724,-4903.011187,13323.706956
1097.845539,-8512.368333,-10725.336972,15544.324782
1097.845865,-6587.832884,-11797.870669,16876.695478
1097.846191,-7402.059420,-8120.612279,16802.674883
1097.846517,-6587.832884,-6281.983084,14508.036463
1097.846843,-2368.659014,-4136.915689,11769.274478
1097.847169,666.185348,-459.657299,9400.615463
1097.847495,2738.761985,4749.792088,6883.915261
1097.847820,6291.750507,8503.660028,2590.720797
1097.848146,7624.121203,9499.584175,-0.000000
1097.848472,6143.709319,7890.783629,2146.597232
1097.848798,4441.235652,8886.707777,4145.153275
1097.849124,2516.700203,7507.735880,7179.997637
1097.849450,-2220.617826,1225.752797,10807.006753
1097.849776,-7179.997637,-6052.154434,12953.603985
1097.850101,-7105.977043,-9269.755526,13471.748144
1097.850427,-6291.750507,-7660.954980,15766.386565
1097.850753,-6883.915261,-5975.544884,16654.633695
1097.851079,-5329.482782,-5286.058936,13323.706956
1097.851405,-1998.556043,-2757.943793,10066.800811
1097.851731,1628.453072,1378.971896,8290.306550
1097.852057,4071.132681,6128.763984,5403.503377
1097.852383,5625.565159,9729.412825,1628.453072
1097.852708,7550.100608,9193.145976,1036.288319
1097.853034,6069.688724,8503.660028,3404.947333
1097.853360,3478.967927,7967.393179,5551.544565
1097.853686,1184.329507,5592.497135,7920.203579
1097.854012,-1628.453072,-842.705048,12065.356855
1097.854338,-5847.626942,-5975.544884,14656.077652
1097.854664,-6513.812290,-8656.879127,14730.098246
1097.854989,-4885.359217,-8963.317327,17246.798449
1097.855315,-5403.503377,-6894.859482,17616.901420
1097.855641,-4219.173869,-5132.839837,13545.768739
1097.855967,666.185348,-1608.800546,9918.759623
1097.856293,3923.091493,2681.334243,8734.430116
1097.856619,5921.647536,6971.469032,5255.462188
1097.856945,8882.471304,9193.145976,740.205942
1097.857271,9992.780217,9499.584175,1184.329507
1097.857596,7994.224174,10035.851024,2960.823768
1097.857922,6735.874072,10112.460574,4885.359217
1097.858248,4663.297435,6511.811733,7994.224174
1097.858574,-1036.288319,-1072.533697,11103.089130
1097.858900,-7031.956449,-6205.373534,13027.624579
1097.859226,-7105.977043,-8503.660028,13693.809927
1097.859552,-7031.956449,-8886.707777,15766.386565
1097.859877,-8068.244768,-7890.783629,16210.510130
1097.860203,-6069.688724,-5592.497135,13027.624579
1097.860529,-2590.720797,-1378.971896,10066.800811
1097.860855,296.082377,2451.505594,7105.977043
1097.861181,3330.926739,5362.668486,4441.235652
1097.861506,5625.565159,8580.269578,1036.288319
1097.861832,5699.585753,10035.851024,518.144159
1097.862158,4959.379811,9806.022374,3627.009116
1097.862484,4219.173869,7660.954980,6365.771101
1097.862810,1332.370696,3370.820191,9548.656652
1097.863136,-3627.009116,-2145.067394,13101.645173
1097.863461,-8364.327145,-6818.249932,14878.139434
1097.863787,-7402.059420,-10801.946522,16284.530724
1097.864113,-7179.997637,-11184.994271,18209.066173
1097.864439,-8512.368333,-8580.269578,17320.819043
1097.864765,-6513.812290,-5745.716235,12435.459826
1097.865090,-296.082377,-1302.362347,9178.553681
1097.865416,2960.823768,2604.724693,8142.265362
1097.865742,4367.215058,7584.345430,3775.050304
1097.866068,6439.791695,9882.631924,-74.020594
1097.866394,7328.038826,9422.974625,666.185348
1097.866720,6439.791695,8503.660028,3330.926739
1097.867045,4367.215058,7201.297681,6439.791695
1097.867371,0.000000,2834.553343,9696.697840
1097.867697,-5107.421000,-4826.401637,12361.439231
1097.868023,-7105.977043,-10648.727422,14656.077652
1097.868349,-6661.853478,-12104.308868,15840.407159
1097.868674,-7031.956449,-8886.707777,16950.716072
1097.869000,-6587.832884,-6052.154434,15322.262999
1097.869326,-2368.659014,-4596.572988,12065.356855
1097.869652,2368.659014,-1991.848295,8512.368333
1097.869978,5329.482782,5056.230287,6439.791695
1097.870303,6587.832884,10265.679673,1924.535449
1097.870629,8956.491898,11031.775171,-444.123565
1097.870955,10066.800811,9269.755526,2590.720797
1097.871281,7179.997637,8810.098227,5921.647536
1097.871607,4145.153275,7277.907231,7179.997637
1097.871933,1554.432478,1762.019645,10807.006753
1097.872258,-2072.576638,-4979.620737,14582.057057
1097.872584,-5625.565159,-8503.660028,15766.386565
1097.872910,-6365.771101,-8350.440928,16654.633695
1097.873236,-5699.585753,-7814.174080,17764.942608
1097.873562,-5329.482782,-6205.373534,14952.160028
1097.873887,-2812.782580,-2604.724693,11843.295072
1097.874213,1184.329507,2681.334243,8438.347739
1097.874539,3552.988522,7354.516781,5625.565159
1097.874865,5625.565159,9422.974625,1924.535449
1097.875191,7179.997637,9269.755526,-0.000000
1097.875516,4737.318029,10342.289223,1924.535449
1097.875842,2738.761985,9882.631924,3775.050304
1097.876168,1702.473667,6894.859482,6587.832884
1097.876494,-1998.556043,383.047749,9474.636058
1097.876820,-7772.162391,-4749.792088,12583.501014
1097.877146,-9622.677246,-7354.516781,13249.686362
1097.877471,-7994.224174,-8427.050478,13841.851115
1097.877797,-7105.977043,-8656.879127,16580.613101
1097.878123,-6735.874072,-5745.716235,16062.468941
1097.878449,-3478.967927,-1225.752797,10584.944971
1097.878775,2590.720797,2145.067394,8956.491898
1097.879100,5477.523971,4673.182538,7550.100608
1097.879426,5773.606348,8120.612279,2886.803174
1097.879752,7476.080014,10495.508323,-0.000000
1097.880078,8290.306550,9806.022374,2590.720797
1097.880404,5699.585753,7660.954980,5625.565159
1097.880729,2220.617826,4596.572988,8068.244768
1097.881055,-1110.308913,383.047749,10732.986159
1097.881381,-6069.688724,-4443.353888,13175.665768
1097.881707,-7402.059420,-10112.460574,14508.036463
1097.882033,-6883.915261,-11951.089769,16284.530724
1097.882359,-7031.956449,-9193.145976,17024.736666
1097.882684,-6069.688724,-6358.592633,14582.057057
1097.883010,-1702.473667,-3753.867940,12065.356855
1097.883336,2812.782580,-612.876398,8882.471304
1097.883662,5107.421000,4826.401637,6365.771101
1097.883988,7550.100608,8963.317327,2516.700203
1097.884313,9918.759623,8656.879127,-0.000000
1097.884639,7624.121203,8886.707777,2590.720797
1097.884965,6957.935855,7201.297681,4367.215058
1097.885291,4663.297435,6665.030833,8068.244768
1097.885617,444.123565,1225.752797,10955.047942
1097.885942,-4515.256246,-5515.887586,14508.036463
1097.886268,-5847.626942,-9193.145976,14434.015869
1097.886594,-4959.379811,-9806.022374,15322.262999
1097.886920,-5921.647536,-7431.126331,17172.777854
1097.887246,-4737.318029,-4979.620737,15100.201217
1097.887572,-1924.535449,-2221.676944,11621.233289
1097.887897,2072.576638,766.095498,8808.450710
1097.888223,4145.153275,5209.449386,5699.585753
1097.888549,5181.441594,7967.393179,2294.638420
1097.888875,5551.544565,9652.803275,222.061783
1097.889201,5033.400406,9039.926876,2590.720797
1097.889526,3108.864956,7507.735880,5181.441594
1097.889852,518.144159,5669.106685,7624.121203
1097.890178,-2812.782580,1149.143247,10955.047942
1097.890504,-6883.915261,-4979.620737,12731.542202
1097.890830,-8438.347739,-7967.393179,13175.665768
1097.891156,-7846.182985,-7814.174080,15618.345376
1097.891481,-7476.080014,-6894.859482,16728.654289
1097.891807,-6957.935855,-4136.915689,13175.665768
1097.892133,-2960.823768,-1991.848295,10066.800811
1097.892459,592.164754,1762.019645,8216.285956
1097.892785,3775.050304,6894.859482,4663.297435
1097.893110,6217.729913,9806.022374,666.185348
1097.893436,8216.285956,10035.851024,814.226536
1097.893762,6069.688724,9959.241474,2886.803174
1097.894088,4145.153275,9652.803275,4737.318029
1097.894414,3034.844362,6052.154434,8364.327145
1097.894739,-962.267725,383.047749,11473.192101
1097.895065,-6143.709319,-5592.497135,13027.624579
1097.895391,-6587.832884,-9729.412825,14656.077652
1097.895717,-5477.523971,-8427.050478,17172.777854
1097.896043,-6957.935855,-7967.393179,17838.963202
1097.896369,-4811.338623,-6665.030833,14359.995275
1097.896694,-888.247130,-2987.772442,10807.006753
1097.897020,2590.720797,1685.410096,8734.430116
1097.897346,5699.585753,5975.544884,5551.544565
1097.897672,8438.347739,9729.412825,2294.638420
1097.897998,7846.182985,9116.536426,814.226536
1097.898323,6439.791695,8656.879127,3330.926739
1097.898649,6217.729913,7737.564530,5625.565159
1097.898975,4145.153275,4596.572988,9474.636058
1097.899301,-1110.308913,-1378.971896,12213.398043
1097.899627,-6957.935855,-7201.297681,13471.748144
1097.899952,-5477.523971,-11261.603821,13545.768739
1097.900278,-4293.194464,-10112.460574,15766.386565
1097.900604,-5625.565159,-6511.811733,16580.613101
1097.900930,-4589.276840,-3753.867940,12435.459826
1097.901256,-296.082377,-1302.362347,8956.491898
1097.901582,4145.153275,1685.410096,8068.244768
1097.901907,4959.379811,6435.202183,4959.379811
1097.902233,6365.771101,10342.289223,-0.000000
1097.902559,7179.997637,10648.727422,-0.000000
1097.902885,6587.832884,7890.783629,3627.009116
1097.903211,3775.050304,7124.688131,6957.935855
1097.903536,-296.082377,4903.011187,9696.697840
1097.903862,-4885.359217,-1608.800546,11843.295072
1097.904188,-7846.182985,-8120.612279,13249.686362
1097.904514,-7772.162391,-11261.603821,14582.057057
1097.904840,-7846.182985,-8656.879127,17098.757260
1097.905165,-8734.430116,-5286.058936,15766.386565
1097.905491,-5477.523971,-4596.572988,13545.768739
1097.905817,-888.247130,-3217.601092,10732.986159
1097.906143,1924.535449,2374.896044,7846.182985
1097.906469,3775.050304,8580.269578,4145.153275
1097.906795,6513.812290,9882.631924,1628.453072
1097.907120,7254.018232,8580.269578,1998.556043
1097.907446,5921.647536,7814.174080,4663.297435
1097.907772,3256.906145,7737.564530,5995.668130
1097.908098,0.000000,4596.572988,9030.512492
1097.908424,-3330.926739,-2834.553343,12657.521608
1097.908749,-6809.894666,-8273.831378,14508.036463
1097.909075,-7624.121203,-9269.755526,13915.871710
1097.909401,-7179.997637,-8810.098227,15840.407159
1097.909727,-5847.626942,-6665.030833,14804.118840
1097.910053,-2886.803174,-4213.525239,11473.192101
1097.910379,592.164754,0.000000,10066.800811
1097.910704,3108.864956,4749.792088,6809.894666
1097.911030,7105.977043,7814.174080,2368.659014
1097.911356,10288.862594,8427.050478,1480.411884
1097.911682,9252.574275,9269.755526,2590.720797
1097.912008,6809.894666,11108.384721,3552.988522
1097.912333,5995.668130,7814.174080,6883.915261
1097.912659,2960.823768,1915.238745,10732.986159
1097.912985,-2664.741391,-3753.867940,12953.603985
1097.913311,-5699.585753,-6665.030833,13471.748144
1097.913637,-5033.400406,-8656.879127,14730.098246
1097.913962,-4737.318029,-8733.488677,16802.674883
1097.914288,-4811.338623,-6052.154434,16802.674883
1097.914614,-2368.659014,-2528.115143,11621.233289
1097.914940,1258.350101,1072.533697,8364.327145
1097.915266,4663.297435,4060.306139,7994.224174
1097.915592,5403.503377,8733.488677,4219.173869
1097.915917,5921.647536,10495.508323,444.123565
1097.916243,5551.544565,8656.879127,2442.679609
1097.916569,3775.050304,6052.154434,5033.400406
1097.916895,1258.350101,5822.325785,7105.977043
1097.917221,-1924.535449,2604.724693,10658.965565
1097.917546,-6809.894666,-3600.648841,12879.583391
1097.917872,-8808.450710,-8503.660028,13323.706956
1097.918198,-6661.853478,-10725.336972,15100.201217
1097.918524,-6661.853478,-7124.688131,16136.489536
1097.918850,-6365.771101,-3064.381992,13101.645173
1097.919175,-1924.535449,-1915.238745,10214.842000
1097.919501,3108.864956,612.876398,9326.594869
1097.919827,3701.029710,5745.716235,6735.874072
1097.920153,4811.338623,10112.460574,2072.576638
1097.920479,6809.894666,9039.926876,-0.000000
1097.920805,6587.832884,6281.983084,2886.803174
1097.921130,3478.967927,6894.859482,5847.626942
1097.921456,1332.370696,6358.592633,8660.409521
1097.921782,-2368.659014,0.000000,10955.047942
1097.922108,-6217.729913,-7737.564530,13101.645173
1097.922434,-7105.977043,-9959.241474,14952.160028
1097.922759,-5773.606348,-7967.393179,14730.098246
1097.923085,-7179.997637,-6588.421283,14730.098246
1097.923411,-5699.585753,-6205.373534,13101.645173
1097.923737,-2220.617826,-3907.087040,10288.862594
1097.924063,518.144159,995.924147,7254.018232
1097.924388,2812.782580,5362.668486,5847.626942
1097.924714,5255.462188,6588.421283,3404.947333
1097.925040,5921.647536,6205.373534,2960.823768
1097.925366,5107.421000,5975.544884,4145.153275
1097.925692,4885.359217,5669.106685,6735.874072
1097.926018,2368.659014,4443.353888,9400.615463
1097.926343,-148.041188,-459.657299,12435.459826
1097.926669,-3849.070898,-4749.792088,14582.057057
1097.926995,-3404.947333,-7890.783629,13693.809927
1097.927321,-3108.864956,-7814.174080,15470.304188
1097.927647,-3775.050304,-5669.106685,15396.283594
1097.927972,-2442.679609,-3294.210641,12879.583391
1097.928298,2368.659014,-306.438199,10288.862594
1097.928624,4515.256246,2451.505594,9030.512492
1097.928950,4145.153275,5669.106685,5625.565159
1097.929276,5921.647536,7890.783629,1332.370696
1097.929602,7772.162391,8810.098227,1184.329507
1097.929927,5847.626942,7354.516781,3552.988522
1097.930253,2220.617826,7584.345430,5773.606348
1097.930579,962.267725,5056.230287,8586.388927
1097.930905,-2664.741391,229.828649,10955.047942
1097.931231,-7476.080014,-5056.230287,12435.459826
1097.931556,-8586.388927,-8886.707777,12657.521608
1097.931882,-7846.182985,-8810.098227,14137.933492
1097.932208,-8142.265362,-5439.278036,15026.180623
1097.932534,-5699.585753,-3753.867940,13471.748144
1097.932860,-1480.411884,-1225.752797,10436.903782
1097.933185,1776.494261,2681.334243,8290.306550
1097.933511,3404.947333,6818.249932,4959.379811
1097.933837,6143.709319,8886.707777,1332.370696
1097.934163,7698.141797,8886.707777,1480.411884
1097.934489,5921.647536,8886.707777,3701.029710
1097.934815,4219.173869,8963.317327,5995.668130
1097.935140,2812.782580,6052.154434,9474.636058
1097.935466,-1184.329507,0.000000,12361.439231
1097.935792,-5921.647536,-5669.106685,13693.809927
1097.936118,-7031.956449,-8733.488677,13693.809927
1097.936444,-5625.565159,-8580.269578,15988.448347
1097.936769,-5181.441594,-6435.202183,16580.613101
1097.937095,-4737.318029,-4213.525239,13619.789333
1097.937421,-1258.350101,-1225.752797,9400.615463
1097.937747,2738.761985,2604.724693,7846.182985
1097.938073,4663.297435,5975.544884,4885.359217
1097.938398,5477.523971,8120.612279,814.226536
1097.938724,5995.668130,8503.660028,1258.350101
1097.939050,5551.544565,7354.516781,4145.153275
1097.939376,3552.988522,6511.811733,6217.729913
1097.939702,740.205942,2451.505594,9326.594869
1097.940028,-3627.009116,-3677.258390,12435.459826
1097.940353,-6365.771101,-8733.488677,14211.954086
1097.940679,-4737.318029,-10572.117872,15914.427753
1097.941005,-4293.194464,-8656.879127,16802.674883
1097.941331,-5403.503377,-6358.592633,14878.139434
1097.941657,-1776.494261,-4060.306139,11251.130318
1097.941982,3775.050304,-536.266849,9770.718434
1097.942308,5551.544565,3524.039291,7920.203579
1097.942634,5625.565159,8120.612279,4219.173869
1097.942960,7550.100608,8886.707777,1406.391290
1097.943286,9030.512492,7354.516781,2146.597232
1097.943611,6143.709319,7814.174080,4959.379811
1097.943937,2516.700203,6894.859482,6513.812290
1097.944263,-814.226536,2987.772442,8882.471304
1097.944589,-3997.112087,-3907.087040,11843.295072
1097.944915,-6883.915261,-9116.536426,14211.954086
1097.945241,-8734.430116,-9116.536426,14063.912898
1097.945566,-8660.409521,-6818.249932,14508.036463
1097.945892,-7698.141797,-6052.154434,14285.974681
1097.946218,-3849.070898,-4443.353888,11177.109724
1097.946544,-370.102971,-306.438199,9548.656652
1097.946870,1776.494261,5362.668486,7846.182985
1097.947195,3849.070898,9039.926876,4663.297435
1097.947521,7105.977043,8503.660028,2294.638420
1097.947847,7105.977043,7814.174080,3923.091493
1097.948173,3404.947333,8044.002729,4959.379811
1097.948499,1332.370696,7737.564530,7476.080014
1097.948824,-222.061783,2298.286494,10955.047942
1097.949150,-4515.256246,-4443.353888,12879.583391
1097.949476,-9104.533087,-8120.612279,13323.706956
1097.949802,-7698.141797,-8503.660028,13545.768739
1097.950128,-6513.812290,-7354.516781,15174.221811
1097.950454,-6069.688724,-5669.106685,15174.221811
1097.950779,-2886.803174,-1685.410096,11325.150913
1097.951105,1332.370696,2298.286494,7550.100608
1097.951431,4441.235652,5362.668486,6143.709319
1097.951757,5921.647536,7584.345430,3330.926739
1097.952083,7254.018232,8886.707777,740.205942
1097.952408,7550.100608,8886.707777,2590.720797
1097.952734,5551.544565,8273.831378,6439.791695
1097.953060,2738.761985,5669.106685,8660.409521
1097.953386,-370.102971,383.047749,10658.965565
1097.953712,-4071.132681,-5439.278036,13101.645173
1097.954038,-6439.791695,-9269.755526,13767.830521
1097.954363,-5995.668130,-9116.536426,14359.995275
1097.954689,-4293.194464,-6588.421283,16432.571912
1097.955015,-3552.988522,-4903.011187,13397.727550
1097.955341,-814.226536,-1608.800546,9770.718434
1097.955667,3701.029710,1838.629195,8882.471304
1097.955992,5921.647536,6435.202183,6809.894666
1097.956318,5551.544565,9652.803275,2886.803174
1097.956644,7846.182985,8044.002729,1406.391290
1097.956970,7624.121203,6894.859482,4293.194464
1097.957296,4293.194464,6128.763984,6661.853478
1097.957621,1702.473667,5132.839837,8364.327145
1097.957947,-962.267725,306.438199,11547.212695
1097.958273,-5107.421000,-6128.763984,14211.954086
1097.958599,-7254.018232,-9422.974625,14211.954086
1097.958925,-6439.791695,-8427.050478,14730.098246
1097.959251,-6143.709319,-6128.763984,15100.201217
1097.959576,-3849.070898,-3907.087040,12435.459826
1097.959902,0.000000,-919.314598,10362.883188
1097.960228,2590.720797,3370.820191,8586.388927
1097.960554,2738.761985,6741.640382,5699.585753
1097.960880,4737.318029,7354.516781,1924.535449
1097.961205,6143.709319,6435.202183,1924.535449
1097.961531,4885.359217,7431.126331,3923.091493
1097.961857,2442.679609,7124.688131,6735.874072
1097.962183,0.000000,4749.792088,8512.368333
1097.962508,-3701.029710,-3064.381992,10732.986159
1097.962834,-7031.956449,-7277.907231,13989.892304
1097.963160,-7846.182985,-7967.393179,13841.851115
1097.963486,-7105.977043,-7124.688131,13841.851115
1097.963812,-4737.318029,-7048.078582,14804.118840
1097.964137,-3478.967927,-5056.230287,13915.871710
1097.964463,-1184.329507,919.314598,9400.615463
1097.964789,2368.659014,4136.915689,6957.935855
1097.965115,3849.070898,5362.668486,4515.256246
1097.965440,4885.359217,6741.640382,1998.556043
1097.965766,5995.668130,7967.393179,2220.617826
1097.966092,5847.626942,8273.831378,5181.441594
1097.966418,2368.659014,5669.106685,6957.935855
1097.966744,518.144159,1149.143247,9918.759623
1097.967069,-2442.679609,-3524.039291,13101.645173
1097.967395,-4885.359217,-6281.983084,14878.139434
1097.967721,-5033.400406,-8120.612279,15692.365970
1097.968047,-3849.070898,-8733.488677,16062.468941
1097.968372,-3034.844362,-7277.907231,14730.098246
1097.968698,-740.205942,-2298.286494,12361.439231
1097.969024,4145.153275,1915.238745,9770.718434
1097.969350,5699.585753,5056.230287,7328.038826
1097.969676,6217.729913,6971.469032,3701.029710
1097.970001,7846.182985,8120.612279,1776.494261
1097.970327,7624.121203,8886.707777,3404.947333
1097.970653,4885.359217,8197.221829,5995.668130
1097.970979,2812.782580,5132.839837,7254.018232
1097.971304,1258.350101,919.314598,9400.615463
1097.971630,-2960.823768,-3524.039291,12509.480420
1097.971956,-7179.997637,-5975.544884,14730.098246
1097.972282,-7624.121203,-8044.002729,14211.954086
1097.972607,-6217.729913,-8503.660028,14211.954086
1097.972933,-5033.400406,-6511.811733,13841.851115
1097.973259,-3404.947333,-1455.581446,10362.883188
1097.973585,370.102971,3524.039291,7402.059420
1097.973911,3108.864956,5439.278036,6365.771101
1097.974236,3701.029710,6894.859482,4811.338623
1097.974562,4959.379811,7967.393179,1258.350101
1097.974888,5699.585753,9346.365076,2664.741391
1097.975214,4959.379811,8120.612279,6069.688724
1097.975539,2368.659014,5362.668486,8290.306550
1097.975865,-888.247130,1608.800546,10214.842000
1097.976191,-4811.338623,-3524.039291,13915.871710
1097.976517,-8364.327145,-7048.078582,14063.912898
1097.976843,-7994.224174,-9269.755526,13619.789333
1097.977168,-6587.832884,-8580.269578,15544.324782
1097.977494,-6957.935855,-4903.011187,14508.036463
1097.977820,-5033.400406,-1762.019645,10955.047942
1097.978146,740.205942,612.876398,8660.409521
1097.978471,3182.885551,3677.258390,6513.812290
1097.978797,3256.906145,7431.126331,3034.844362
1097.979123,5329.482782,8810.098227,1036.288319
1097.979449,6513.812290,8273.831378,3404.947333
1097.979775,4293.194464,6588.421283,6365.771101
1097.980100,2294.638420,3830.477490,8290.306550
1097.980426,0.000000,842.705048,10436.903782
1097.980752,-4367.215058,-4213.525239,13027.624579
1097.981078,-6809.894666,-8810.098227,15026.180623
1097.981403,-5921.647536,-10112.460574,14285.974681
1097.981729,-5625.565159,-9499.584175,15248.242405
1097.982055,-4589.276840,-6128.763984,13915.871710
1097.982381,-1110.308913,-1915.238745,10807.006753
1097.982707,3849.070898,2298.286494,9178.553681
1097.983032,5329.482782,5056.230287,7179.997637
1097.983358,5699.585753,7354.516781,2886.803174
1097.983684,9178.553681,7507.735880,666.185348
1097.984010,9548.656652,8197.221829,4145.153275
1097.984335,6291.750507,8503.660028,6957.935855
1097.984661,2072.576638,5975.544884,7994.224174
1097.984987,370.102971,-459.657299,10436.903782
1097.985313,-3701.029710,-7048.078582,12953.603985
1097.985639,-8660.409521,-8580.269578,13471.748144
1097.985964,-7550.100608,-8350.440928,12731.542202
1097.986290,-4515.256246,-7507.735880,14952.160028
1097.986616,-4367.215058,-4903.011187,15174.221811
1097.986942,-1628.453072,-1915.238745,10807.006753
1097.987267,2072.576638,2911.162892,7179.997637
1097.987593,3997.112087,6511.811733,5551.544565
1097.987919,5551.544565,8197.221829,3775.050304
1097.988245,7254.018232,9422.974625,2072.576638
1097.988570,6513.812290,9729.412825,4071.132681
1097.988896,3182.885551,7814.174080,6883.915261
1097.989222,666.185348,3907.087040,7920.203579
1097.989548,-2368.659014,-536.266849,11325.150913
1097.989874,-6439.791695,-4136.915689,14359.995275
1097.990199,-8364.327145,-7201.297681,14211.954086
1097.990525,-6809.894666,-8656.879127,13915.871710
1097.990851,-6217.729913,-7584.345430,15988.448347
1097.991177,-5995.668130,-3983.696590,15100.201217
1097.991502,-2368.659014,-153.219100,9104.533087
1097.991828,2886.803174,1762.019645,8142.265362
1097.992154,5329.482782,5209.449386,6735.874072
1097.992480,5107.421000,9806.022374,3108.864956
1097.992806,6957.935855,11261.603821,518.144159
1097.993131,7550.100608,8503.660028,2886.803174
1097.993457,3849.070898,5822.325785,4885.359217
1097.993783,592.164754,4136.915689,6957.935855
1097.994109,-2072.576638,1072.533697,9844.739029
1097.994434,-7105.977043,-5056.230287,13915.871710
1097.994760,-9400.615463,-9652.803275,15100.201217
1097.995086,-7328.038826,-10725.336972,14878.139434
1097.995412,-6069.688724,-8963.317327,14285.974681
1097.995738,-5255.462188,-5286.058936,13101.645173
1097.996063,-296.082377,-2068.457845,10955.047942
1097.996389,4219.173869,2604.724693,9474.636058
1097.996715,5181.441594,6665.030833,7254.018232
1097.997041,7772.162391,7890.783629,3256.906145
1097.997366,9992.780217,8044.002729,1110.308913
1097.997692,8734.430116,8886.707777,3108.864956
1097.998018,6513.812290,7737.564530,5699.585753
1097.998344,3775.050304,4749.792088,8956.491898
1097.998670,518.144159,-459.657299,11843.295072
1097.998995,-3923.091493,-5669.106685,15026.180623
1097.999321,-5551.544565,-8580.269578,15100.201217
1097.999647,-5107.421000,-8656.879127,14137.933492
1097.999973,-4219.173869,-7201.297681,15396.283594
1098.000298,-2220.617826,-4903.011187,14063.912898
1098.000624,-740.205942,536.266849,10066.800811
1098.000950,2442.679609,3524.039291,7254.018232
1098.001276,3997.112087,6052.154434,5847.626942
1098.001602,4441.235652,6894.859482,1702.473667
1098.001927,4293.194464,8044.002729,518.144159
1098.002253,4219.173869,7660.954980,4145.153275
1098.002579,1110.308913,6665.030833,6587.832884
1098.002905,-2220.617826,3294.210641,8290.306550
1098.003230,-4515.256246,-2528.115143,11103.089130
1098.003556,-8364.327145,-6665.030833,12805.562797
1098.003882,-9104.533087,-8427.050478,13545.768739
1098.004208,-6809.894666,-7737.564530,15988.448347
1098.004534,-5625.565159,-6128.763984,16136.489536
1098.004859,-5255.462188,-4213.525239,13397.727550
1098.005185,-666.185348,-689.485948,9918.759623
1098.005511,3627.009116,2987.772442,7550.100608
1098.005837,4441.235652,7354.516781,4515.256246
1098.006162,5847.626942,9116.536426,2072.576638
1098.006488,7550.100608,9193.145976,2738.761985
1098.006814,5329.482782,8963.317327,4811.338623
1098.007140,2664.741391,7354.516781,5847.626942
1098.007465,740.205942,4290.134789,8364.327145
1098.007791,-3108.864956,-1455.581446,11399.171507
1098.008117,-7402.059420,-5745.716235,13693.809927
1098.008443,-7846.182985,-9269.755526,14285.974681
1098.008769,-7105.977043,-9729.412825,15692.365970
1098.009094,-7328.038826,-7507.735880,15692.365970
1098.009420,-4589.276840,-4903.011187,12509.480420
1098.009746,-148.041188,-1302.362347,9622.677246
1098.010072,2590.720797,1915.238745,6365.771101
1098.010397,5477.523971,6128.763984,5033.400406
1098.010723,7920.203579,9499.584175,2812.782580
1098.011049,8586.388927,9652.803275,1998.556043
1098.011375,7328.038826,8120.612279,5107.421000
1098.011701,6143.709319,5286.058936,7179.997637
1098.012026,3404.947333,2451.505594,9030.512492
1098.012352,0.000000,-1072.533697,12953.603985
1098.012678,-4441.235652,-5362.668486,14952.160028
1098.013004,-4737.318029,-8963.317327,14359.995275
1098.013329,-3330.926739,-9576.193725,15174.221811
1098.013655,-4441.235652,-7048.078582,15766.386565
1098.013981,-3627.009116,-3064.381992,11843.295072
1098.014307,1332.370696,766.095498,9104.533087
1098.014633,5773.606348,2757.943793,8808.450710
1098.014958,4737.318029,7967.393179,4737.318029
1098.015284,4959.379811,10418.898773,-0.000000
1098.015610,6661.853478,9346.365076,814.226536
1098.015936,5699.585753,7354.516781,3775.050304
1098.016261,2442.679609,6435.202183,6291.750507
1098.016587,-814.226536,4366.744339,8660.409521
1098.016913,-5699.585753,-1532.190996,11843.295072
1098.017239,-9252.574275,-7584.345430,13841.851115
1098.017565,-8586.388927,-10878.556072,14285.974681
1098.017890,-8808.450710,-9576.193725,14878.139434
1098.018216,-8586.388927,-6358.592633,14434.015869
1098.018542,-4959.379811,-3524.039291,12657.521608
1098.018868,444.123565,306.438199,11251.130318
1098.019193,2590.720797,4749.792088,8290.306550
1098.019519,3627.009116,7967.393179,4367.215058
1098.019845,6661.853478,9269.755526,814.226536
1098.020171,8364.327145,9116.536426,2072.576638
1098.020497,6439.791695,9499.584175,5921.647536
1098.020822,3330.926739,8273.831378,7698.141797
1098.021148,518.144159,3217.601092,9474.636058
1098.021474,-3108.864956,-4749.792088,12435.459826
1098.021800,-7105.977043,-8427.050478,13471.748144
1098.022125,-7846.182985,-8963.317327,13619.789333
1098.022451,-6587.832884,-8427.050478,15766.386565
1098.022777,-5995.668130,-7201.297681,15618.345376
1098.023103,-3256.906145,-5286.058936,11843.295072
1098.023429,666.185348,76.609550,9400.615463
1098.023754,3627.009116,4519.963438,5995.668130
1098.024080,5181.441594,7277.907231,2738.761985
1098.024406,8438.347739,7967.393179,1998.556043
1098.024732,8216.285956,8656.879127,3849.070898
1098.025057,5551.544565,8427.050478,5107.421000
1098.025383,4219.173869,5286.058936,6809.894666
1098.025709,1628.453072,76.609550,10140.821405
1098.026035,-2886.803174,-4673.182538,12435.459826
1098.026360,-5477.523971,-7354.516781,14137.933492
1098.026686,-4145.153275,-8580.269578,15840.407159
1098.027012,-3627.009116,-8427.050478,17098.757260
1098.027338,-2886.803174,-6435.202183,14656.077652
1098.027664,-222.061783,-2298.286494,10288.862594
1098.027989,3997.112087,2987.772442,8956.491898
1098.028315,6365.771101,6281.983084,8142.265362
1098.028641,7105.977043,8963.317327,4589.276840
1098.028967,7105.977043,8810.098227,962.267725
1098.029292,6365.771101,8120.612279,2368.659014
1098.029618,3478.967927,7660.954980,4367.215058
1098.029944,592.164754,6281.983084,6735.874072
1098.030270,-2664.741391,766.095498,10214.842000
1098.030596,-7624.121203,-4903.011187,13471.748144
1098.030921,-10658.965565,-8810.098227,14063.912898
1098.031247,-8142.265362,-9576.193725,13323.706956
1098.031573,-6365.771101,-7354.516781,15026.180623
1098.031899,-6513.812290,-3447.429741,14582.057057
1098.032224,-2590.720797,-995.924147,11251.130318
1098.032550,1554.432478,2145.067394,8808.450710
1098.032876,3182.885551,5132.839837,6957.935855
1098.033202,3256.906145,8044.002729,3034.844362
1098.033528,6513.812290,9882.631924,888.247130
1098.033853,5995.668130,9652.803275,4515.256246
1098.034179,2886.803174,7431.126331,7105.977043
1098.034505,148.041188,4290.134789,8068.244768
1098.034831,-2812.782580,-689.485948,9622.677246
1098.035156,-6513.812290,-5132.839837,12139.377449
1098.035482,-7846.182985,-7277.907231,13323.706956
1098.035808,-6069.688724,-7431.126331,13989.892304
1098.036134,-6439.791695,-7431.126331,15026.180623
1098.036460,-5255.462188,-6358.592633,14063.912898
1098.036785,-2368.659014,-2451.505594,10807.006753
1098.037111,1628.453072,2604.724693,8142.265362
1098.037437,4515.256246,4903.011187,6217.729913
1098.037763,6587.832884,6052.154434,4885.359217
1098.038088,7328.038826,8273.831378,2146.597232
1098.038414,7476.080014,8350.440928,3923.091493
1098.038740,5551.544565,6665.030833,5329.482782
1098.039066,2664.741391,4136.915689,7254.018232
1098.039392,518.144159,-306.438199,10288.862594
1098.039717,-3849.070898,-4213.525239,14508.036463
1098.040043,-6143.709319,-7277.907231,14063.912898
1098.040369,-4737.318029,-9806.022374,14359.995275
1098.040695,-3627.009116,-9652.803275,15174.221811
1098.041020,-3997.112087,-5056.230287,14582.057057
1098.041346,0.000000,-995.924147,11769.274478
1098.041672,4145.153275,1685.410096,9548.656652
1098.041998,5403.503377,3370.820191,7476.080014
1098.042323,6661.853478,6665.030833,3330.926739
1098.042649,9178.553681,10955.165621,962.267725
1098.042975,8364.327145,10342.289223,3256.906145
1098.043301,4367.215058,7201.297681,5329.482782
1098.043627,2220.617826,4596.572988,8142.265362
1098.043952,-592.164754,1838.629195,11029.068536
1098.044278,-6291.750507,-3600.648841,12213.398043
1098.044604,-8142.265362,-9039.926876,13619.789333
1098.044930,-7105.977043,-10495.508323,14211.954086
1098.045255,-7698.141797,-7354.516781,15544.324782
1098.045581,-6513.812290,-4366.744339,13619.789333
1098.045907,-2886.803174,-1685.410096,10214.842000
1098.046233,666.185348,1685.410096,8216.285956
1098.046559,3404.947333,5975.544884,5995.668130
1098.046884,4811.338623,9422.974625,2442.679609
1098.047210,6439.791695,11108.384721,1554.432478
1098.047536,4663.297435,9346.365076,3182.885551
1098.047862,3034.844362,7354.516781,5625.565159
1098.048187,1554.432478,5286.058936,8290.306550
1098.048513,-2368.659014,995.924147,11103.089130
1098.048839,-7328.038826,-4673.182538,13101.645173
1098.049165,-7402.059420,-9806.022374,13323.706956
1098.049491,-6069.688724,-9652.803275,15692.365970
1098.049816,-6291.750507,-6894.859482,16728.654289
1098.050142,-5551.544565,-4136.915689,13915.871710
1098.050468,-1258.350101,-1302.362347,9844.739029
1098.050794,3552.988522,1225.752797,8660.409521
1098.051119,5551.544565,6128.763984,6513.812290
1098.051445,6661.853478,9193.145976,2664.741391
1098.051771,7550.100608,9806.022374,1554.432478
1098.052097,6957.935855,7507.735880,3627.009116
1098.052423,4663.297435,6281.983084,6069.688724
1098.052748,1480.411884,4136.915689,8438.347739
1098.053074,-2294.638420,-1378.971896,11325.150913
1098.053400,-5625.565159,-7507.735880,13545.768739
1098.053726,-5477.523971,-10112.460574,14285.974681
1098.054051,-5477.523971,-9422.974625,15470.304188
1098.054377,-5773.606348,-7124.688131,15544.324782
1098.054703,-2886.803174,-5592.497135,13027.624579
1098.055029,2442.679609,-2757.943793,11325.150913
1098.055355,5329.482782,2757.943793,9252.574275
1098.055680,6957.935855,8273.831378,5921.647536
1098.056006,9104.533087,9039.926876,1850.514855
1098.056332,10584.944971,8197.221829,1924.535449
1098.056658,8068.244768,8120.612279,4737.318029
1098.056983,4885.359217,8580.269578,6661.853478
1098.057309,888.247130,5898.935335,8956.491898
1098.057635,-2516.700203,-2681.334243,11769.274478
1098.057961,-6661.853478,-8886.707777,12805.562797
1098.058287,-8512.368333,-10418.898773,12953.603985
1098.058612,-8956.491898,-8503.660028,14285.974681
1098.058938,-8882.471304,-6205.373534,15026.180623
1098.059264,-5921.647536,-5132.839837,12657.521608
1098.059590,-2516.700203,-1608.800546,10436.903782
1098.059915,0.000000,3753.867940,7402.059420
1098.060241,2294.638420,7890.783629,4145.153275
1098.060567,6069.688724,8886.707777,1332.370696
1098.060893,7105.977043,8886.707777,2960.823768
1098.061218,4367.215058,8886.707777,5255.462188
1098.061544,2146.597232,8197.221829,7476.080014
1098.061870,740.205942,3217.601092,9770.718434
1098.062196,-3923.091493,-3677.258390,11991.336260
1098.062522,-8290.306550,-7048.078582,12583.501014
1098.062847,-6217.729913,-8733.488677,13915.871710
1098.063173,-5699.585753,-6281.983084,16136.489536
1098.063499,-5329.482782,-5898.935335,15692.365970
1098.063825,-4367.215058,-4443.353888,11695.253884
1098.064151,0.000000,153.219100,8364.327145
1098.064476,3997.112087,4596.572988,7476.080014
1098.064802,6143.709319,7431.126331,4959.379811
1098.065128,6661.853478,9116.536426,1776.494261
1098.065454,5995.668130,8427.050478,2294.638420
1098.065779,5255.462188,6971.469032,4293.194464
1098.066105,3404.947333,5439.278036,5995.668130
1098.066431,370.102971,2145.067394,8808.450710
1098.066757,-3849.070898,-2604.724693,12213.398043
1098.067083,-6587.832884,-7048.078582,12953.603985
1098.067408,-4663.297435,-9806.022374,14137.933492
1098.067734,-3775.050304,-8886.707777,15914.427753
1098.068060,-4737.318029,-5898.935335,14582.057057
1098.068386,-1184.329507,-2221.676944,10881.027347
1098.068712,4071.132681,229.828649,10214.842000
1098.069037,5847.626942,3217.601092,9326.594869
1098.069363,5699.585753,8120.612279,5847.626942
1098.069689,8586.388927,9422.974625,1998.556043
1098.070015,9326.594869,8580.269578,3404.947333
1098.070340,5773.606348,7048.078582,5699.585753
1098.070666,2516.700203,6281.983084,7031.956449
1098.070992,222.061783,2681.334243,10288.862594
1098.071318,-4367.215058,-4290.134789,12657.521608
1098.071644,-7846.182985,-8733.488677,13989.892304
1098.071969,-6143.709319,-8427.050478,13989.892304
1098.072295,-5403.503377,-6128.763984,15026.180623
1098.072621,-5403.503377,-5362.668486,13989.892304
1098.072947,-2812.782580,-3370.820191,11917.315666
1098.073273,0.000000,689.485948,9474.636058
1098.073598,2886.803174,4903.011187,6809.894666
1098.073924,4737.318029,7277.907231,3552.988522
1098.074250,5625.565159,7967.393179,1628.453072
1098.074576,4589.276840,8503.660028,2960.823768
1098.074901,3182.885551,8273.831378,4663.297435
1098.075227,1036.288319,5592.497135,6957.935855
1098.075553,-2368.659014,76.609550,8882.471304
1098.075879,-6439.791695,-4366.744339,12583.501014
1098.076205,-8290.306550,-6588.421283,13693.809927
1098.076530,-7254.018232,-8350.440928,13545.768739
1098.076856,-6809.894666,-8656.879127,15544.324782
1098.077182,-5181.441594,-6741.640382,13471.748144
1098.077508,-2812.782580,-1302.362347,10732.986159
1098.077834,1628.453072,2911.162892,8586.388927
1098.078159,4515.256246,4749.792088,7179.997637
1098.078485,5551.544565,7124.688131,3701.029710
1098.078811,7328.038826,9576.193725,1480.411884
1098.079137,6809.894666,9039.926876,3701.029710
1098.079462,5033.400406,6894.859482,6735.874072
1098.079788,2590.720797,4519.963438,8956.491898
1098.080114,592.164754,-383.047749,11695.253884
1098.080440,-3034.844362,-4903.011187,14211.954086
1098.080766,-5477.523971,-7967.393179,14878.139434
1098.081091,-3775.050304,-9346.365076,15100.201217
1098.081417,-3404.947333,-7890.783629,15174.221811
1098.081743,-2960.823768,-4596.572988,14285.974681
1098.082069,518.144159,-995.924147,10436.903782
1098.082395,3849.070898,2681.334243,7994.224174
1098.082720,5181.441594,5439.278036,4959.379811
1098.083046,6291.750507,7737.564530,2146.597232
1098.083372,6439.791695,9729.412825,1110.308913
1098.083698,5329.482782,8427.050478,4219.173869
1098.084024,3330.926739,6052.154434,6291.750507
1098.084349,1628.453072,3447.429741,8808.450710
1098.084675,-2664.741391,-536.266849,10881.027347
1098.085001,-6291.750507,-5132.839837,12213.398043
1098.085327,-6069.688724,-8273.831378,13101.645173
1098.085652,-5477.523971,-7967.393179,14211.954086
1098.085978,-5403.503377,-5975.544884,14137.933492
1098.086304,-4367.215058,-2987.772442,12139.377449
1098.086630,-962.267725,306.438199,10214.842000
1098.086956,2072.576638,2604.724693,7550.100608
1098.087281,3404.947333,5745.716235,5107.421000
1098.087607,4441.235652,8580.269578,2886.803174
1098.087933,5255.462188,8963.317327,2886.803174
1098.088259,4367.215058,8580.269578,4589.276840
1098.088585,3404.947333,6052.154434,7179.997637
1098.088910,962.267725,3677.258390,9844.739029
1098.089236,-3923.091493,153.219100,11991.336260
1098.089562,-7772.162391,-5286.058936,13471.748144
1098.089888,-7476.080014,-9422.974625,13693.809927
1098.090213,-6661.853478,-9806.022374,14878.139434
1098.090539,-7772.162391,-6128.763984,15248.242405
1098.090865,-6291.750507,-3677.258390,11621.233289
1098.091191,-888.247130,-1225.752797,9474.636058
1098.091517,2664.741391,919.314598,9104.533087
1098.091842,2886.803174,6052.154434,6069.688724
1098.092168,4663.297435,9499.584175,2146.597232
1098.092494,7624.121203,8044.002729,2590.720797
1098.092820,6809.894666,6281.983084,4737.318029
1098.093146,3627.009116,6052.154434,6069.688724
1098.093471,222.061783,3753.867940,7994.224174
1098.093797,-2812.782580,-1608.800546,11621.233289
1098.094123,-5403.503377,-7890.783629,14359.995275
1098.094449,-5921.647536,-10801.946522,14359.995275
1098.094774,-5329.482782,-9269.755526,13915.871710
1098.095100,-4367.215058,-6665.030833,13915.871710
1098.095426,-740.205942,-3907.087040,12879.583391
1098.095752,3182.885551,306.438199,10510.924376
1098.096078,5477.523971,4826.401637,7920.203579
1098.096403,7105.977043,7431.126331,4589.276840
1098.096729,9474.636058,9346.365076,1628.453072
1098.097055,9474.636058,9116.536426,3034.844362
1098.097381,6735.874072,8273.831378,5329.482782
1098.097707,2368.659014,6588.421283,6439.791695
1098.098032,-370.102971,842.705048,9770.718434
1098.098358,-3923.091493,-4903.011187,13915.871710
1098.098684,-8068.244768,-8044.002729,13841.851115
1098.099010,-8586.388927,-9499.584175,14434.015869
1098.099335,-6291.750507,-9576.193725,15618.345376
1098.099661,-5551.544565,-6205.373534,14359.995275
1098.099987,-2516.700203,-2987.772442,11695.253884
1098.100313,740.205942,2221.676944,8734.430116
1098.100639,3404.947333,6128.763984,5995.668130
1098.100964,5255.462188,8656.879127,4071.132681
1098.101290,6291.750507,9269.755526,1480.411884
1098.101616,5847.626942,9959.241474,2294.638420
1098.101942,3330.926739,8044.002729,4885.359217
1098.102268,1776.494261,6588.421283,8290.306550
1098.102593,-1110.308913,2451.505594,10288.862594
1098.102919,-5033.400406,-2757.943793,12435.459826
1098.103245,-8290.306550,-6971.469032,12953.603985
1098.103571,-7031.956449,-8503.660028,13027.624579
1098.103896,-5477.523971,-6894.859482,14434.015869
1098.104222,-5551.544565,-4519.963438,14063.912898
1098.104548,-3478.967927,-995.924147,10955.047942
1098.104874,1258.350101,1455.581446,9696.697840
1098.105200,4293.194464,3677.258390,8290.306550
1098.105525,3849.070898,6741.640382,4219.173869
1098.105851,5329.482782,8886.707777,1998.556043
1098.106177,6661.853478,8580.269578,3182.885551
1098.106503,4293.194464,6818.249932,5033.400406
1098.106829,740.205942,4903.011187,6883.915261
1098.107154,-1776.494261,766.095498,9844.739029
1098.107480,-5995.668130,-3370.820191,12139.377449
1098.107806,-7476.080014,-8503.660028,13027.624579
1098.108132,-6439.791695,-10112.460574,14285.974681
1098.108457,-5477.523971,-8273.831378,14656.077652
1098.108783,-4145.153275,-5286.058936,13693.809927
1098.109109,-814.226536,-2451.505594,11251.130318
1098.109435,4441.235652,229.828649,9474.636058
1098.109761,5403.503377,4903.011187,8068.244768
1098.110086,8290.306550,8350.440928,4737.318029
1098.110412,10732.986159,9652.803275,3108.864956
1098.110738,9326.594869,7967.393179,4367.215058
1098.111064,6143.709319,6971.469032,5033.400406
1098.111390,3701.029710,6052.154434,6957.935855
1098.111715,888.247130,1608.800546,10214.842000
1098.112041,-4663.297435,-4443.353888,13397.727550
1098.112367,-7254.018232,-8120.612279,14137.933492
1098.112693,-6439.791695,-8580.269578,14211.954086
1098.113018,-5625.565159,-7048.078582,15248.242405
1098.113344,-4959.379811,-4903.011187,13915.871710
1098.113670,-2886.803174,-2834.553343,9474.636058
1098.113996,888.247130,1532.190996,8142.265362
1098.114322,3108.864956,4903.011187,7254.018232
1098.114647,3552.988522,8044.002729,3923.091493
1098.114973,5255.462188,8273.831378,1480.411884
1098.115299,5181.441594,7431.126331,3182.885551
1098.115625,2146.597232,7354.516781,5477.523971
1098.115951,0.000000,5669.106685,7846.182985
1098.116276,-1850.514855,459.657299,10510.924376
1098.116602,-5181.441594,-4903.011187,12879.583391
1098.116928,-7402.059420,-7431.126331,12657.521608
1098.117254,-5921.647536,-7890.783629,13693.809927
1098.117579,-5107.421000,-5669.106685,15692.365970
1098.117905,-4737.318029,-3753.867940,13989.892304
1098.118231,-1628.453072,-1991.848295,10436.903782
1098.118557,2146.597232,1532.190996,8734.430116
1098.118883,3034.844362,5439.278036,6513.812290
1098.119208,4367.215058,7584.345430,2664.741391
1098.119534,5995.668130,7048.078582,2146.597232
1098.119860,4293.194464,6511.811733,4885.359217
1098.120186,1998.556043,6741.640382,6069.688724
1098.120512,740.205942,4979.620737,9252.574275
1098.120837,-1850.514855,-919.314598,10658.965565
1098.121163,-6661.853478,-5898.935335,12509.480420
1098.121489,-8438.347739,-8656.879127,13027.624579
1098.121815,-5699.585753,-9039.926876,13619.789333
1098.122140,-4441.235652,-6818.249932,15692.365970
1098.122466,-2886.803174,-4903.011187,13915.871710
1098.122792,296.082377,-1532.190996,11177.109724
1098.123118,4219.173869,1225.752797,7624.121203
1098.123444,7254.018232,5286.058936,6069.688724
1098.123769,8512.368333,7967.393179,3627.009116
1098.124095,9474.636058,9729.412825,2220.617826
1098.124421,8142.265362,9806.022374,5107.421000
1098.124747,6217.729913,7124.688131,7402.059420
1098.125073,3478.967927,3907.087040,9030.512492
1098.125398,-962.267725,-1302.362347,11177.109724
1098.125724,-5847.626942,-5898.935335,13101.645173
1098.126050,-7105.977043,-8580.269578,12509.480420
1098.126376,-5477.523971,-9499.584175,14285.974681
1098.126701,-6291.750507,-7584.345430,15100.201217
1098.127027,-6365.771101,-4213.525239,11251.130318
1098.127353,-2442.679609,-536.266849,9178.553681
1098.127679,2812.782580,2757.943793,8142.265362
1098.128005,3775.050304,6358.592633,6365.771101
1098.128330,3701.029710,9193.145976,2072.576638
1098.128656,6957.935855,8656.879127,1924.535449
1098.128982,6439.791695,7660.954980,4589.276840
1098.129308,3182.885551,7048.078582,7698.141797
1098.129634,666.185348,4903.011187,9252.574275
1098.129959,-2294.638420,0.000000,11029.068536
1098.130285,-5033.400406,-5515.887586,13101.645173
1098.130611,-5773.606348,-8120.612279,13693.809927
1098.130937,-5329.482782,-6435.202183,13767.830521
1098.131262,-5403.503377,-3600.648841,13767.830521
1098.131588,-3552.988522,-2451.505594,11843.295072
1098.131914,222.061783,-306.438199,9770.718434
1098.132240,1702.473667,3677.258390,8216.285956
1098.132566,2664.741391,7660.954980,5329.482782
1098.132891,4737.318029,8810.098227,3478.967927
1098.133217,6143.709319,6588.421283,3997.112087
1098.133543,3552.988522,5515.887586,5847.626942
1098.133869,-296.082377,5669.106685,6809.894666
1098.134195,-2442.679609,2374.896044,9474.636058
1098.134520,-4293.194464,-4443.353888,12657.521608
1098.134846,-8216.285956,-8044.002729,13915.871710
1098.135172,-9104.533087,-9116.536426,12213.398043
1098.135498,-6661.853478,-8350.440928,12287.418637
1098.135823,-4515.256246,-6894.859482,13249.686362
1098.136149,-2368.659014,-3524.039291,12065.356855
1098.136475,962.267725,1225.752797,9474.636058
1098.136801,4219.173869,5132.839837,7179.997637
1098.137127,7179.997637,5822.325785,4959.379811
1098.137452,9104.533087,6818.249932,3330.926739
1098.137778,8956.491898,8273.831378,4145.153275
1098.138104,6661.853478,8656.879127,5921.647536
1098.138430,4737.318029,5592.497135,7698.141797
1098.138756,2146.597232,459.657299,10066.800811
1098.139081,-2516.700203,-4290.134789,11695.253884
1098.139407,-6735.874072,-5822.325785,12805.562797
1098.139733,-5921.647536,-8427.050478,12731.542202
1098.140059,-4367.215058,-8427.050478,14878.139434
1098.140384,-3330.926739,-6052.154434,14952.160028
1098.140710,-1924.535449,-1072.533697,11473.192101
1098.141036,1702.473667,2451.505594,8364.327145
1098.141362,5255.462188,3370.820191,7031.956449
1098.141688,5033.400406,6588.421283,4959.379811
1098.142013,5699.585753,9193.145976,3256.906145
1098.142339,6513.812290,9499.584175,4145.153275
1098.142665,4663.297435,6281.983084,6365.771101
1098.142991,962.267725,3677.258390,7624.121203
1098.143317,-2368.659014,1991.848295,9844.739029
1098.143642,-5255.462188,-1762.019645,11473.192101
1098.143968,-7772.162391,-6818.249932,12213.398043
1098.144294,-7476.080014,-9499.584175,13323.706956
1098.144620,-6439.791695,-7354.516781,14211.954086
1098.144945,-5699.585753,-2374.896044,13175.665768
1098.145271,-1554.432478,76.609550,11103.089130
1098.145597,2294.638420,1838.629195,9696.697840
1098.145923,2590.720797,5439.278036,6883.915261
1098.146249,4145.153275,8350.440928,3997.112087
1098.146574,7254.018232,8810.098227,2368.659014
1098.146900,5995.668130,7890.783629,4293.194464
1098.147226,2220.617826,6358.592633,5921.647536
1098.147552,666.185348,5286.058936,8438.347739
1098.147878,-1924.535449,1225.752797,10584.944971
1098.148203,-5847.626942,-5209.449386,12287.418637
1098.148529,-8364.327145,-8886.707777,12583.501014
1098.148855,-7105.977043,-8427.050478,12805.562797
1098.149181,-5921.647536,-5898.935335,14508.036463
1098.149506,-3627.009116,-5056.230287,14063.912898
1098.149832,-1924.535449,-3064.381992,11251.130318
1098.150158,370.102971,612.876398,8142.265362
1098.150484,3256.906145,4749.792088,6661.853478
1098.150810,5551.544565,6894.859482,4737.318029
1098.151135,5921.647536,6665.030833,3775.050304
1098.151461,5551.544565,6052.154434,3849.070898
1098.151787,3997.112087,5056.230287,6069.688724
1098.152113,1628.453072,3677.258390,8438.347739
1098.152439,-296.082377,-229.828649,11251.130318
1098.152764,-2516.700203,-4136.915689,13397.727550
1098.153090,-3923.091493,-7354.516781,12879.583391
1098.153416,-3552.988522,-8197.221829,12509.480420
1098.153742,-1924.535449,-6665.030833,14952.160028
1098.154067,-1332.370696,-3753.867940,13619.789333
1098.154393,1258.350101,-459.657299,11029.068536
1098.154719,4737.318029,2221.676944,9474.636058
1098.155045,6069.688724,4749.792088,7328.038826
1098.155371,6143.709319,7124.688131,4219.173869
1098.155696,7105.977043,7354.516781,2960.823768
1098.156022,5625.565159,7048.078582,5329.482782
1098.156348,2516.700203,6281.983084,7179.997637
1098.156674,592.164754,4213.525239,8660.409521
1098.157000,-1850.514855,76.609550,10510.924376
1098.157325,-6143.709319,-4290.134789,11325.150913
1098.157651,-8290.306550,-8427.050478,11473.192101
1098.157977,-6883.915261,-7660.954980,12361.439231
1098.158303,-6217.729913,-5669.106685,14137.933492
1098.158628,-5477.523971,-2987.772442,12805.562797
1098.158954,-2516.700203,-612.876398,9918.759623
1098.159280,666.185348,1991.848295,7846.182985
1098.159604,2664.741391,4903.011187,5403.503377
1098.159929,4071.132681,7737.564530,3182.885551
1098.160255,5921.647536,9116.536426,2812.782580
1098.160581,5477.523971,9039.926876,5255.462188
1098.160907,3256.906145,7660.954980,7772.162391
1098.161233,1480.411884,4749.792088,8438.347739
1098.161559,-2146.597232,689.485948,10584.944971
1098.161885,-6069.688724,-3830.477490,12065.356855
1098.162211,-6883.915261,-6818.249932,12583.501014
1098.162536,-5403.503377,-7660.954980,13619.789333
1098.162862,-4885.359217,-6511.811733,15322.262999
1098.163188,-4959.379811,-2987.772442,13249.686362
1098.163514,-1998.556043,76.609550,8956.491898
1098.163840,2738.761985,1608.800546,7772.162391
1098.164166,4071.132681,4213.525239,6809.894666
1098.164492,4219.173869,7584.345430,4515.256246
1098.164818,6143.709319,8656.879127,4145.153275
1098.165143,6735.874072,5745.716235,5181.441594
1098.165469,3627.009116,3677.258390,7772.162391
1098.165795,888.247130,3064.381992,9622.677246
1098.166121,-1776.494261,-229.828649,11695.253884
1098.166447,-3923.091493,-5745.716235,13471.748144
1098.166773,-4737.318029,-9269.755526,13841.851115
1098.167099,-4441.235652,-8503.660028,13471.748144
1098.167425,-4145.153275,-4979.620737,12657.521608
1098.167750,-1776.494261,-2987.772442,10214.842000
1098.168076,2368.659014,-995.924147,9844.739029
1098.168402,4737.318029,3064.381992,8882.471304
1098.168728,5181.441594,7507.735880,6217.729913
1098.169054,6735.874072,8350.440928,2664.741391
1098.169380,8216.285956,5669.106685,2368.659014
1098.169706,6513.812290,5439.278036,5255.462188
1098.170032,3330.926739,6818.249932,7994.224174
1098.170357,148.041188,4673.182538,9104.533087
1098.170683,-2738.761985,-2987.772442,11843.295072
1098.171009,-6143.709319,-8503.660028,13693.809927
1098.171335,-7476.080014,-8044.002729,12583.501014
1098.171661,-6439.791695,-5822.325785,13323.706956
1098.171987,-5773.606348,-5209.449386,13989.892304
1098.172313,-3701.029710,-4519.963438,12139.377449
1098.172639,-740.205942,0.000000,9918.759623
1098.172964,1406.391290,4596.572988,7772.162391
1098.173290,2220.617826,6818.249932,5699.585753
1098.173616,4441.235652,6205.373534,3997.112087
1098.173942,5625.565159,7201.297681,4811.338623
1098.174268,3701.029710,7507.735880,6365.771101
1098.174594,666.185348,6128.763984,7698.141797
1098.174920,-666.185348,1608.800546,10066.800811
1098.175246,-4737.318029,-3140.991542,11991.336260
1098.175571,-8290.306550,-6435.202183,11991.336260
1098.175897,-7179.997637,-7507.735880,11843.295072
1098.176223,-4737.318029,-6511.811733,13693.809927
1098.176549,-4441.235652,-4519.963438,14137.933492
1098.176875,-2590.720797,-995.924147,10214.842000
1098.177201,814.226536,2221.676944,7624.121203
1098.177527,3552.988522,4519.963438,7772.162391
1098.177853,4737.318029,6588.421283,5847.626942
1098.178178,5403.503377,7737.564530,2368.659014
1098.178504,5921.647536,6511.811733,3552.988522
1098.178830,4441.235652,5515.887586,6735.874072
1098.179156,1924.535449,4290.134789,8660.409521
1098.179482,-888.247130,766.095498,9770.718434
1098.179808,-4367.215058,-4136.915689,12213.398043
1098.180134,-6809.894666,-8120.612279,12805.562797
1098.180460,-5329.482782,-8580.269578,12213.398043
1098.180785,-2886.803174,-6052.154434,13471.748144
1098.181111,-1702.473667,-3907.087040,13619.789333
1098.181437,222.061783,-536.266849,10955.047942
1098.181763,5551.544565,2298.286494,10140.821405
1098.182089,7402.059420,5209.449386,8956.491898
1098.182415,6143.709319,7814.174080,5551.544565
1098.182741,8364.327145,7201.297681,2886.803174
1098.183067,9622.677246,7277.907231,5329.482782
1098.183392,6143.709319,7584.345430,8438.347739
1098.183718,2294.638420,5822.325785,8882.471304
1098.184044,-888.247130,229.828649,9400.615463
1098.184370,-4885.359217,-6128.763984,11547.212695
1098.184696,-7846.182985,-8656.879127,13545.768739
1098.185022,-7179.997637,-7201.297681,13027.624579
1098.185348,-6735.874072,-5822.325785,12731.542202
1098.185674,-5625.565159,-5362.668486,12657.521608
1098.185999,-2220.617826,-3753.867940,9918.759623
1098.186325,444.123565,2911.162892,7550.100608
1098.186651,2220.617826,7354.516781,6069.688724
1098.186977,3701.029710,7431.126331,3256.906145
1098.187303,5255.462188,5975.544884,1480.411884
1098.187629,5033.400406,7048.078582,4367.215058
1098.187955,3108.864956,8197.221829,7179.997637
1098.188281,814.226536,6205.373534,7476.080014
1098.188606,-1998.556043,-1072.533697,10214.842000
1098.188932,-4737.318029,-5592.497135,13693.809927
1098.189258,-6513.812290,-6971.469032,13767.830521
1098.189584,-5995.668130,-6818.249932,12435.459826
1098.189910,-4367.215058,-6358.592633,14804.118840
1098.190236,-3404.947333,-3753.867940,14434.015869
1098.190562,-1480.411884,76.609550,9992.780217
1098.190888,2442.679609,3294.210641,8142.265362
1098.191213,3775.050304,4290.134789,7105.977043
1098.191539,2442.679609,5822.325785,4219.173869
1098.191865,4663.297435,7124.688131,2368.659014
1098.192191,5255.462188,7431.126331,5329.482782
1098.192517,1554.432478,5439.278036,7476.080014
1098.192843,-1184.329507,1838.629195,8882.471304
1098.193169,-2220.617826,-1915.238745,10881.027347
1098.193495,-4737.318029,-5439.278036,12287.418637
1098.193820,-6069.688724,-7354.516781,13175.665768
1098.194146,-3923.091493,-7890.783629,13101.645173
1098.194472,-2590.720797,-6128.763984,12953.603985
1098.194798,-1480.411884,-3370.820191,12435.459826
1098.195124,1628.453072,0.000000,10066.800811
1098.195450,4589.276840,3447.429741,7920.203579
1098.195776,6143.709319,5898.935335,6143.709319
1098.196102,7031.956449,7660.954980,3923.091493
1098.196427,7920.203579,7124.688131,3775.050304
1098.196753,6735.874072,7277.907231,5551.544565
1098.197079,3997.112087,6128.763984,8364.327145
1098.197405,2072.576638,3983.696590,9770.718434
1098.197731,-666.185348,-995.924147,11325.150913
1098.198057,-4219.173869,-5898.935335,13323.706956
1098.198383,-5551.544565,-7890.783629,13915.871710
1098.198709,-4589.276840,-7048.078582,13767.830521
1098.199034,-3997.112087,-4673.182538,13767.830521
1098.199360,-3182.885551,-2757.943793,11843.295072
1098.199686,-592.164754,689.485948,8142.265362
1098.200012,2368.659014,3830.477490,6809.894666
1098.200338,2664.741391,6818.249932,6513.812290
1098.200664,2220.617826,7660.954980,3997.112087
1098.200990,4145.153275,6971.469032,2368.659014
1098.201316,3849.070898,6205.373534,5699.585753
1098.201641,0.000000,5745.716235,7328.038826
1098.201967,-2738.761985,3294.210641,7550.100608
1098.202293,-4367.215058,-1915.238745,10658.965565
1098.202619,-7254.018232,-6894.859482,13323.706956
1098.202945,-7698.141797,-8044.002729,12879.583391
1098.203271,-5107.421000,-6435.202183,13767.830521
1098.203597,-4515.256246,-4519.963438,14211.954086
1098.203923,-3849.070898,-2834.553343,11029.068536
1098.204248,1258.350101,-229.828649,8882.471304
1098.204574,5033.400406,3753.867940,8142.265362
1098.204900,4663.297435,7507.735880,6513.812290
1098.205226,5551.544565,8656.879127,4293.194464
1098.205552,7550.100608,7048.078582,4441.235652
1098.205878,5477.523971,5515.887586,6587.832884
1098.206204,1702.473667,4596.572988,9622.677246
1098.206530,-1776.494261,2374.896044,9030.512492
1098.206855,-4589.276840,-3677.258390,11325.150913
1098.207181,-6217.729913,-9346.365076,14285.974681
1098.207507,-7328.038826,-10495.508323,14211.954086
1098.207833,-7105.977043,-8120.612279,12879.583391
1098.208159,-5255.462188,-5975.544884,13619.789333
1098.208485,-1776.494261,-3600.648841,12065.356855
1098.208811,1998.556043,1072.533697,8142.265362
1098.209137,4589.276840,4903.011187,7105.977043
1098.209462,5921.647536,7354.516781,5033.400406
1098.209788,7994.224174,7660.954980,2368.659014
1098.210114,9622.677246,7354.516781,4071.132681
1098.210440,6957.935855,7507.735880,6661.853478
1098.210766,2886.803174,6205.373534,6957.935855
1098.211092,1184.329507,1532.190996,9400.615463
1098.211418,-1850.514855,-4596.572988,13101.645173
1098.211744,-6439.791695,-7124.688131,13027.624579
1098.212069,-6587.832884,-7507.735880,12213.398043
1098.212395,-4293.194464,-6818.249932,13619.789333
1098.212721,-3256.906145,-5056.230287,14285.974681
1098.213047,-2368.659014,-995.924147,11547.212695
1098.213373,888.247130,2987.772442,9252.574275
1098.213699,3849.070898,5286.058936,7105.977043
1098.214025,5181.441594,6665.030833,5403.503377
1098.214351,6217.729913,8273.831378,3034.844362
1098.214676,6365.771101,9576.193725,4441.235652
1098.215002,3775.050304,8733.488677,7105.977043
1098.215328,1258.350101,4673.182538,8808.450710
1098.215654,-1776.494261,842.705048,9326.594869
1098.215980,-5921.647536,-3064.381992,11917.315666
1098.216306,-9252.574275,-6281.983084,13545.768739
1098.216632,-8068.244768,-8044.002729,13027.624579
1098.216958,-6439.791695,-7890.783629,14137.933492
1098.217283,-6365.771101,-5132.839837,13767.830521
1098.217609,-3627.009116,-612.876398,9400.615463
1098.217935,1036.288319,2911.162892,7402.059420
1098.218261,4071.132681,4290.134789,7105.977043
1098.218587,3849.070898,7201.297681,4811.338623
1098.218913,5699.585753,8810.098227,2294.638420
1098.219239,7328.038826,8197.221829,3849.070898
1098.219565,4959.379811,6588.421283,6439.791695
1098.219890,1332.370696,4519.963438,7105.977043
1098.220216,-740.205942,306.438199,8734.430116
1098.220542,-3034.844362,-3370.820191,12583.501014
1098.220868,-5847.626942,-7048.078582,14211.954086
1098.221194,-5699.585753,-8963.317327,14211.954086
1098.221520,-4441.235652,-7660.954980,13619.789333
1098.221846,-2960.823768,-5362.668486,13101.645173
1098.222172,0.000000,-2145.067394,11843.295072
1098.222497,3256.906145,2374.896044,9030.512492
1098.222823,5551.544565,5209.449386,7698.141797
1098.223149,7031.956449,6205.373534,6069.688724
1098.223475,7994.224174,6665.030833,3108.864956
1098.223801,7105.977043,6588.421283,3775.050304
1098.224127,4367.215058,6128.763984,6365.771101
1098.224453,1850.514855,4903.011187,8660.409521
1098.224779,-740.205942,612.876398,10732.986159
1098.225104,-3701.029710,-5209.449386,12879.583391
1098.225430,-5995.668130,-8427.050478,13175.665768
1098.225756,-5921.647536,-7967.393179,12435.459826
1098.226082,-4367.215058,-6665.030833,13841.851115
1098.226408,-2664.741391,-4596.572988,14582.057057
1098.226734,-1554.432478,-1455.581446,11399.171507
1098.227060,2146.597232,2451.505594,8660.409521
1098.227386,4885.359217,4826.401637,7550.100608
1098.227711,5033.400406,6971.469032,5033.400406
1098.228037,5107.421000,7201.297681,2368.659014
1098.228363,5477.523971,7048.078582,4515.256246
1098.228689,2590.720797,6741.640382,7254.018232
1098.229015,-444.123565,4826.401637,7920.203579
1098.229341,-2072.576638,919.314598,9622.677246
1098.229667,-5551.544565,-4366.744339,11843.295072
1098.229993,-8216.285956,-6818.249932,11843.295072
1098.230318,-7550.100608,-7507.735880,12805.562797
1098.230644,-5995.668130,-6511.811733,13693.809927
1098.230970,-5477.523971,-4136.915689,12805.562797
1098.231296,-2960.823768,-919.314598,10066.800811
1098.231622,740.205942,2145.067394,8808.450710
1098.231948,2146.597232,4060.306139,5995.668130
1098.232274,3627.009116,6128.763984,3034.844362
1098.232600,5995.668130,7201.297681,3034.844362
1098.232925,5329.482782,8963.317327,5625.565159
1098.233251,2738.761985,8044.002729,6883.915261
1098.233577,1776.494261,4290.134789,9400.615463
1098.233903,-592.164754,-842.705048,10362.883188
1098.234229,-4219.173869,-4903.011187,12805.562797
1098.234555,-5995.668130,-6128.763984,14952.160028
1098.234881,-3997.112087,-8273.831378,14952.160028
1098.235207,-3997.112087,-7814.174080,15322.262999
1098.235532,-3330.926739,-6205.373534,13989.892304
1098.235858,-1924.535449,-1072.533697,11103.089130
1098.236184,2146.597232,1762.019645,7328.038826
1098.236510,5477.523971,4060.306139,7328.038826
1098.236836,7031.956449,6128.763984,5033.400406
1098.237162,6809.894666,7967.393179,1850.514855
1098.237488,6365.771101,8810.098227,3997.112087
1098.237814,5625.565159,7277.907231,7105.977043
1098.238139,2590.720797,4443.353888,8068.244768
1098.238465,-518.144159,-536.266849,9252.574275
1098.238791,-4367.215058,-4673.182538,12361.439231
1098.239117,-6809.894666,-7124.688131,12213.398043
1098.239443,-4145.153275,-9193.145976,12583.501014
1098.239769,-3923.091493,-6435.202183,15248.242405
1098.240095,-4367.215058,-3370.820191,12731.542202
1098.240421,-1480.411884,-459.657299,8438.347739
1098.240746,3849.070898,2221.676944,7846.182985
1098.241072,4663.297435,3983.696590,7179.997637
1098.241398,3849.070898,8886.707777,3034.844362
1098.241724,6143.709319,9806.022374,2664.741391
1098.242050,7328.038826,7814.174080,6069.688724
1098.242376,3404.947333,6128.763984,8068.244768
1098.242702,-444.123565,4596.572988,8660.409521
1098.243028,-3108.864956,0.000000,10881.027347
1098.243354,-5699.585753,-4826.401637,13397.727550
1098.243679,-6883.915261,-8197.221829,15544.324782
1098.244005,-6883.915261,-8503.660028,14434.015869
1098.244331,-6883.915261,-6205.373534,13323.706956
1098.244657,-5255.462188,-3983.696590,12435.459826
1098.244983,-1258.350101,-919.314598,10362.883188
1098.245309,1554.432478,4136.915689,8364.327145
1098.245635,3108.864956,6741.640382,6513.812290
1098.245961,4959.379811,7507.735880,3108.864956
1098.246286,6735.874072,7201.297681,2516.700203
1098.246612,4737.318029,7890.783629,5107.421000
1098.246938,1776.494261,7431.126331,6069.688724
1098.247264,0.000000,3677.258390,7846.182985
1098.247590,-3330.926739,-2604.724693,10732.986159
1098.247916,-7402.059420,-7124.688131,12583.501014
1098.248242,-7920.203579,-7737.564530,12213.398043
1098.248568,-6069.688724,-8733.488677,12435.459826
1098.248893,-4293.194464,-7814.174080,14137.933492
1098.249219,-2220.617826,-4749.792088,13545.768739
1098.249545,1110.308913,689.485948,11325.150913
1098.249871,4515.256246,4060.306139,8068.244768
1098.250197,7698.141797,5592.497135,6291.750507
1098.250523,9696.697840,7584.345430,3701.029710
1098.250849,9474.636058,9882.631924,2442.679609
1098.251175,7550.100608,10495.508323,4737.318029
1098.251500,5551.544565,6435.202183,7846.182985
1098.251826,1406.391290,1532.190996,9844.739029
1098.252152,-3701.029710,-2987.772442,11103.089130
1098.252478,-7105.977043,-6665.030833,12657.521608
1098.252804,-6957.935855,-9193.145976,12731.542202
1098.253130,-5403.503377,-10112.460574,14285.974681
1098.253456,-5033.400406,-7431.126331,15470.304188
1098.253782,-4219.173869,-2834.553343,13027.624579
1098.254107,0.000000,919.314598,9252.574275
1098.254433,5921.647536,2451.505594,7328.038826
1098.254759,6809.894666,5975.544884,5699.585753
1098.255085,5921.647536,10572.117872,3108.864956
1098.255411,7179.997637,11491.432470,3552.988522
1098.255737,6587.832884,7967.393179,6291.750507
1098.256063,2516.700203,4290.134789,7920.203579
1098.256389,-1406.391290,2221.676944,8438.347739
1098.256714,-4959.379811,-383.047749,9844.739029
1098.257040,-7402.059420,-5439.278036,11991.336260
1098.257366,-6957.935855,-8656.879127,14137.933492
1098.257692,-6439.791695,-7890.783629,14508.036463
1098.258018,-6957.935855,-4749.792088,12139.377449
1098.258344,-4737.318029,-2221.676944,10140.821405
1098.258670,148.041188,459.657299,9548.656652
1098.258996,2886.803174,4290.134789,8586.388927
1098.259321,3108.864956,7660.954980,5847.626942
1098.259647,4885.359217,8503.660028,3701.029710
1098.259973,4737.318029,7048.078582,2960.823768
1098.260299,2664.741391,6052.154434,4811.338623
1098.260625,740.205942,5822.325785,6883.915261
1098.260951,-2146.597232,2911.162892,9844.739029
1098.261277,-5551.544565,-2221.676944,11769.274478
1098.261603,-7402.059420,-8044.002729,13471.748144
1098.261928,-7254.018232,-9959.241474,12731.542202
1098.262254,-7031.956449,-7967.393179,12879.583391
1098.262580,-5403.503377,-5669.106685,13915.871710
1098.262906,-2516.700203,-4060.306139,12435.459826
1098.263232,592.164754,-612.876398,9844.739029
1098.263558,4589.276840,2911.162892,7772.162391
1098.263884,6291.750507,6052.154434,5551.544565
1098.264210,7920.203579,7890.783629,3404.947333
1098.264536,8808.450710,8273.831378,4219.173869
1098.264861,6809.894666,7431.126331,7105.977043
1098.265187,3997.112087,5822.325785,8068.244768
1098.265513,1850.514855,1762.019645,9178.553681
1098.265839,-1332.370696,-2987.772442,12139.377449
1098.266165,-4145.153275,-6665.030833,12731.542202
1098.266491,-4293.194464,-7890.783629,13323.706956
1098.266817,-2664.741391,-8120.612279,14804.118840
1098.267143,-3478.967927,-6741.640382,15100.201217
1098.267468,-2220.617826,-3370.820191,11473.192101
1098.267794,2072.576638,689.485948,9104.533087
1098.268120,4885.359217,4749.792088,8512.368333
1098.268446,5255.462188,6894.859482,4737.318029
1098.268772,7031.956449,8273.831378,3478.967927
1098.269098,6883.915261,8120.612279,4737.318029
1098.269424,3552.988522,8273.831378,5699.585753
1098.269750,1406.391290,5669.106685,7031.956449
1098.270076,-148.041188,1838.629195,9104.533087
1098.270401,-5107.421000,-2221.676944,10955.047942
1098.270727,-8142.265362,-5975.544884,12139.377449
1098.271053,-6365.771101,-8120.612279,13397.727550
1098.271379,-6439.791695,-7660.954980,13471.748144
1098.271705,-6735.874072,-4903.011187,13767.830521
1098.272031,-3701.029710,-1608.800546,11177.109724
1098.272357,296.082377,1838.629195,8364.327145
1098.272683,3256.906145,3983.696590,7402.059420
1098.273008,4885.359217,7890.783629,5181.441594
1098.273334,6069.688724,9882.631924,2368.659014
1098.273660,5329.482782,9806.022374,2812.782580
1098.273986,4441.235652,7201.297681,5625.565159
1098.274312,2294.638420,5362.668486,7772.162391
1098.274638,-1036.288319,2298.286494,9622.677246
1098.274964,-5329.482782,-2451.505594,11769.274478
1098.275290,-7179.997637,-7277.907231,13027.624579
1098.275616,-6735.874072,-9729.412825,13027.624579
1098.275941,-5921.647536,-7660.954980,15026.180623
1098.276267,-5995.668130,-4519.963438,14211.954086
1098.276593,-3849.070898,-2451.505594,10881.027347
1098.276919,1554.432478,-612.876398,9696.697840
1098.277245,4441.235652,2834.553343,8734.430116
1098.277571,4737.318029,6971.469032,5033.400406
1098.277897,6735.874072,8886.707777,3701.029710
1098.278223,7328.038826,7354.516781,4515.256246
1098.278548,5995.668130,5745.716235,6513.812290
1098.278874,2812.782580,4903.011187,7846.182985
1098.279200,-962.267725,995.924147,9770.718434
1098.279526,-4219.173869,-4903.011187,12065.356855
1098.279852,-4737.318029,-9806.022374,13397.727550
1098.280178,-3552.988522,-9729.412825,14804.118840
1098.280504,-4219.173869,-6358.592633,14211.954086
1098.280830,-2812.782580,-4903.011187,11843.295072
1098.281156,1554.432478,-2911.162892,10732.986159
1098.281481,4737.318029,1762.019645,9252.574275
1098.281807,6439.791695,6818.249932,7550.100608
1098.282133,7402.059420,8503.660028,3552.988522
1098.282459,9104.533087,7737.564530,2442.679609
1098.282785,7994.224174,8044.002729,5329.482782
1098.283111,3849.070898,8120.612279,7105.977043
1098.283437,-222.061783,5209.449386,7698.141797
1098.283763,-3256.906145,-1762.019645,10584.944971
1098.284088,-7105.977043,-7507.735880,13323.706956
1098.284414,-8956.491898,-9039.926876,12805.562797
1098.284740,-9474.636058,-7507.735880,13397.727550
1098.285066,-8808.450710,-7354.516781,13989.892304
1098.285392,-7105.977043,-5592.497135,12953.603985
1098.285718,-2886.803174,-1915.238745,10288.862594
1098.286044,444.123565,3677.258390,8734.430116
1098.286370,2812.782580,6435.202183,5625.565159
1098.286696,5773.606348,8120.612279,3701.029710
1098.287021,7624.121203,8963.317327,4219.173869
1098.287347,6291.750507,10035.851024,6587.832884
1098.287673,4071.132681,8656.879127,6883.915261
1098.287999,2812.782580,3907.087040,8660.409521
1098.288325,-1850.514855,-919.314598,10955.047942
1098.288651,-6661.853478,-3983.696590,11177.109724
1098.288977,-7476.080014,-5822.325785,12065.356855
1098.289303,-6587.832884,-8120.612279,14285.974681
1098.289628,-6587.832884,-7354.516781,15100.201217
1098.289954,-5773.606348,-3983.696590,11621.233289
1098.290280,-3182.885551,-153.219100,8438.347739
1098.290606,666.185348,2145.067394,7254.018232
1098.290932,3108.864956,4596.572988,6883.915261
1098.291258,4293.194464,7431.126331,3923.091493
1098.291584,5477.523971,8197.221829,2590.720797
1098.291910,5551.544565,6741.640382,5107.421000
1098.292236,3775.050304,5362.668486,7846.182985
1098.292561,592.164754,3370.820191,9252.574275
1098.292887,-1332.370696,-842.705048,11103.089130
1098.293213,-3775.050304,-5822.325785,12657.521608
1098.293539,-3701.029710,-8350.440928,12805.562797
1098.293865,-2368.659014,-7201.297681,14359.995275
1098.294191,-2072.576638,-4136.915689,14359.995275
1098.294517,-592.164754,-1915.238745,11991.336260
1098.294843,3182.885551,-919.314598,10362.883188
1098.295168,5107.421000,2145.067394,8660.409521
1098.295494,5551.544565,7048.078582,6217.729913
1098.295820,6957.935855,8733.488677,3997.112087
1098.296146,7846.182985,7354.516781,4367.215058
1098.296472,5033.400406,5132.839837,5995.668130
1098.296798,2072.576638,5132.839837,7031.956449
1098.297124,-592.164754,3064.381992,8808.450710
1098.297450,-4367.215058,-2451.505594,11103.089130
1098.297776,-7846.182985,-7431.126331,13027.624579
1098.298101,-7994.224174,-9576.193725,12731.542202
1098.298427,-4959.379811,-7890.783629,12435.459826
1098.298753,-4293.194464,-4213.525239,14359.995275
1098.299079,-2590.720797,-3140.991542,12879.583391
1098.299405,-296.082377,0.000000,9474.636058
1098.299731,3108.864956,3600.648841,8142.265362
1098.300057,4737.318029,5669.106685,7031.956449
1098.300383,5921.647536,7890.783629,3108.864956
1098.300708,6217.729913,8656.879127,3330.926739
1098.301034,4663.297435,7890.783629,6291.750507
1098.301360,1702.473667,7124.688131,7698.141797
1098.301686,-1628.453072,2528.115143,8364.327145
1098.302012,-3997.112087,-2834.553343,10288.862594
1098.302338,-7254.018232,-6205.373534,10955.047942
1098.302664,-7920.203579,-6741.640382,12139.377449
1098.302990,-6587.832884,-6894.859482,13693.809927
1098.303316,-5995.668130,-5439.278036,13101.645173
1098.303641,-5329.482782,-3830.477490,11177.109724
1098.303967,-962.267725,-766.095498,8438.347739
1098.304293,3404.947333,3524.039291,7698.141797
1098.304619,4663.297435,6741.640382,6957.935855
1098.304945,5921.647536,8886.707777,5181.441594
1098.305271,7105.977043,8810.098227,4663.297435
1098.305597,5625.565159,7201.297681,6735.874072
1098.305923,2220.617826,5362.668486,7920.203579
1098.306249,962.267725,2374.896044,9104.533087
1098.306574,-814.226536,-2757.943793,11991.336260
1098.306900,-4515.256246,-6741.640382,14508.036463
1098.307226,-4737.318029,-8120.612279,14656.077652
1098.307552,-3478.967927,-7048.078582,14582.057057
1098.307878,-2294.638420,-6128.763984,13915.871710
1098.308204,-1480.411884,-3370.820191,10955.047942
1098.308530,2146.597232,689.485948,8364.327145
1098.308856,6069.688724,5286.058936,7105.977043
1098.309181,7920.203579,7967.393179,5403.503377
1098.309507,7846.182985,8580.269578,3478.967927
1098.309833,6809.894666,8503.660028,3552.988522
1098.310159,5033.400406,8197.221829,5033.400406
1098.310485,3404.947333,5822.325785,7105.977043
1098.310811,0.000000,689.485948,9252.574275
1098.311137,-4959.379811,-3677.258390,11103.089130
1098.311463,-7476.080014,-7507.735880,12879.583391
1098.311789,-6513.812290,-8886.707777,13545.768739
1098.312114,-5847.626942,-7507.735880,14508.036463
1098.312440,-5995.668130,-5439.278036,13471.748144
1098.312766,-4145.153275,-2145.067394,9992.780217
1098.313092,1036.288319,1685.410096,8364.327145
1098.313418,4589.276840,4136.915689,7920.203579
1098.313744,4145.153275,7584.345430,5255.462188
1098.314070,4811.338623,10112.460574,1850.514855
1098.314396,5773.606348,8503.660028,3775.050304
1098.314721,4663.297435,6665.030833,6439.791695
1098.315047,814.226536,4826.401637,8956.491898
1098.315373,-2886.803174,1991.848295,11399.171507
1098.315699,-6957.935855,-3677.258390,12213.398043
1098.316025,-7624.121203,-8963.317327,12361.439231
1098.316351,-6291.750507,-10648.727422,14137.933492
1098.316677,-6883.915261,-6894.859482,15322.262999
1098.317003,-6735.874072,-3753.867940,13027.624579
1098.317329,-2294.638420,-2834.553343,11029.068536
1098.317654,2368.659014,-689.485948,9400.615463
1098.317980,3775.050304,4443.353888,7031.956449
1098.318306,4663.297435,9729.412825,3330.926739
1098.318632,6735.874072,9652.803275,1998.556043
1098.318958,6661.853478,6818.249932,4663.297435
1098.319284,4145.153275,5745.716235,6809.894666
1098.319610,444.123565,5592.497135,7254.018232
1098.319936,-2442.679609,153.219100,9252.574275
1098.320261,-5847.626942,-7124.688131,12213.398043
1098.320587,-7254.018232,-11184.994271,13175.665768
1098.320913,-7105.977043,-9882.631924,13471.748144
1098.321239,-6217.729913,-6588.421283,15026.180623
1098.321565,-3108.864956,-5975.544884,13767.830521
1098.321891,296.082377,-3064.381992,10362.883188
1098.322217,4663.297435,1225.752797,8216.285956
1098.322543,6809.894666,6281.983084,7254.018232
1098.322869,8290.306550,9499.584175,4737.318029
1098.323194,10214.842000,9116.536426,4663.297435
1098.323520,8734.430116,7890.783629,5921.647536
1098.323846,4959.379811,6665.030833,6661.853478
1098.324172,2590.720797,4673.182538,8216.285956
1098.324498,-222.061783,-842.705048,11251.130318
1098.324824,-4959.379811,-6588.421283,12731.542202
1098.325150,-7476.080014,-8886.707777,13915.871710
1098.325476,-5921.647536,-8120.612279,14582.057057
1098.325801,-5329.482782,-5745.716235,15174.221811
1098.326127,-4441.235652,-3907.087040,12287.418637
1098.326453,-1702.473667,-306.438199,7994.224174
1098.326779,2590.720797,3447.429741,6661.853478
