#time,accel_x,accel_y,accel_z
28670.246214,-148.041188,-689.485948,9474.636058
28670.246543,-740.205942,306.438199,9474.636058
28670.246872,0.000000,306.438199,9474.636058
28670.247201,518.144159,153.219100,9030.512492
28670.247530,740.205942,229.828649,9030.512492
28670.247859,444.123565,536.266849,9474.636058
28670.248187,0.000000,1455.581446,8438.347739
28670.248516,888.247130,995.924147,8216.285956
28670.248845,1776.494261,229.828649,8956.491898
28670.249174,518.144159,306.438199,8882.471304
28670.249503,-666.185348,1302.362347,8586.388927
28670.249832,592.164754,459.657299,9030.512492
28670.250160,0.000000,-383.047749,9326.594869
28670.250489,-1480.411884,0.000000,9178.553681
28670.250818,-1258.350101,306.438199,8808.450710
28670.251147,0.000000,-153.219100,8660.409521
28670.251476,-370.102971,0.000000,8956.491898
28670.251805,-370.102971,459.657299,9622.677246
28670.252134,-296.082377,1072.533697,9104.533087
28670.252462,814.226536,995.924147,8882.471304
28670.252791,2072.576638,612.876398,9178.553681
28670.253120,1554.432478,1072.533697,9696.697840
28670.253449,592.164754,2451.505594,8734.430116
28670.253778,2072.576638,1225.752797,8956.491898
28670.254107,2294.638420,383.047749,9696.697840
28670.254436,814.226536,1378.971896,9696.697840
28670.254764,962.267725,1685.410096,9178.553681
28670.255093,2220.617826,995.924147,9252.574275
28670.255422,2220.617826,1149.143247,9548.656652
28670.255751,1776.494261,2374.896044,9474.636058
28670.256080,2072.576638,3294.210641,9326.594869
28670.256409,2812.782580,2604.724693,8882.471304
28670.256738,3478.967927,2374.896044,9178.553681
28670.257066,2812.782580,2604.724693,9622.677246
28670.257395,2146.597232,3830.477490,8956.491898
28670.257724,3478.967927,2911.162892,8438.347739
28670.258053,3478.967927,2681.334243,9400.615463
28670.258382,2738.761985,3600.648841,9178.553681
28670.258711,1998.556043,3753.867940,8734.430116
28670.259040,3034.844362,3140.991542,8956.491898
28670.259368,2960.823768,3217.601092,9326.594869
28670.259697,2442.679609,3677.258390,9474.636058
28670.260026,2590.720797,4826.401637,9326.594869
28670.260355,3256.906145,4673.182538,8808.450710
28670.260684,3552.988522,4290.134789,9104.533087
28670.261013,2960.823768,4519.963438,9474.636058
28670.261342,1776.494261,4749.792088,9030.512492
28670.261670,2442.679609,4366.744339,8586.388927
28670.261999,2664.741391,3217.601092,8882.471304
28670.262328,1036.288319,3370.820191,8882.471304
28670.262657,-370.102971,3600.648841,8216.285956
28670.262986,1036.288319,2528.115143,9104.533087
28670.263315,1184.329507,2451.505594,9474.636058
28670.263643,592.164754,2528.115143,9918.759623
28670.263972,740.205942,2757.943793,9844.739029
28670.264301,1850.514855,2987.772442,9474.636058
28670.264630,3330.926739,2834.553343,9918.759623
28670.264959,3182.885551,2528.115143,11621.233289
28670.265288,2072.576638,3370.820191,10658.965565
28670.265617,2738.761985,2681.334243,10288.862594
28670.265945,3775.050304,1302.362347,10658.965565
28670.266274,2664.741391,1225.752797,11177.109724
28670.266603,1628.453072,2374.896044,10881.027347
28670.266932,2590.720797,2068.457845,10658.965565
28670.267261,3182.885551,1302.362347,9770.718434
28670.267590,2516.700203,1532.190996,9474.636058
28670.267919,2294.638420,2528.115143,8512.368333
28670.268247,2516.700203,3294.210641,7031.956449
28670.268576,3552.988522,3294.210641,7105.977043
28670.268905,2590.720797,2911.162892,7105.977043
28670.269234,1110.308913,3217.601092,6439.791695
28670.269563,814.226536,2834.553343,6809.894666
28670.269892,1258.350101,1225.752797,7698.141797
28670.270221,-518.144159,383.047749,8660.409521
28670.270549,-1776.494261,-76.609550,9474.636058
28670.270878,-1554.432478,-995.924147,11103.089130
28670.271207,-1258.350101,-1762.019645,12583.501014
28670.271536,-1554.432478,-2221.676944,13693.809927
28670.271865,-1258.350101,-1762.019645,13619.789333
28670.272194,74.020594,-1378.971896,12879.583391
28670.272523,1554.432478,-383.047749,12435.459826
28670.272851,2664.741391,306.438199,11843.295072
28670.273180,2886.803174,1532.190996,10066.800811
28670.273509,4515.256246,2681.334243,7920.203579
28670.273838,7105.977043,3983.696590,7105.977043
28670.274167,7624.121203,5822.325785,6809.894666
28670.274496,6439.791695,7507.735880,6291.750507
28670.274824,6957.935855,6741.640382,6587.832884
28670.275153,6439.791695,5056.230287,7328.038826
28670.275482,4589.276840,3907.087040,8660.409521
28670.275811,2664.741391,4060.306139,9622.677246
28670.276140,666.185348,2451.505594,10955.047942
28670.276469,-888.247130,459.657299,10510.924376
28670.276798,-296.082377,-1532.190996,11695.253884
28670.277126,-1110.308913,-153.219100,11103.089130
28670.277455,148.041188,2604.724693,9474.636058
28670.277784,3478.967927,4979.620737,7328.038826
28670.278113,5329.482782,5592.497135,5477.523971
28670.278442,5181.441594,8656.879127,3849.070898
28670.278771,6143.709319,9806.022374,3330.926739
28670.279100,5551.544565,9652.803275,4145.153275
28670.279428,3775.050304,7354.516781,5255.462188
28670.279757,1110.308913,4749.792088,7550.100608
28670.280086,-962.267725,2451.505594,9622.677246
28670.280415,-1184.329507,689.485948,11843.295072
28670.280744,-1924.535449,-1378.971896,15470.304188
28670.281073,-2072.576638,-1762.019645,15988.448347
28670.281402,-1850.514855,-1608.800546,14878.139434
28670.281730,370.102971,-995.924147,14285.974681
28670.282059,962.267725,919.314598,13101.645173
28670.282388,1776.494261,3064.381992,10066.800811
28670.282717,4071.132681,3907.087040,6291.750507
28670.283046,6069.688724,6052.154434,5921.647536
28670.283375,6439.791695,8656.879127,5625.565159
28670.283704,6957.935855,9959.241474,3923.091493
28670.284032,7476.080014,8044.002729,3330.926739
28670.284361,5403.503377,5975.544884,3849.070898
28670.284690,2368.659014,4596.572988,5551.544565
28670.285019,1184.329507,3677.258390,6735.874072
28670.285348,74.020594,689.485948,8364.327145
28670.285677,-2738.761985,-1915.238745,9474.636058
28670.286005,-3923.091493,-2987.772442,12065.356855
28670.286334,-3701.029710,-2221.676944,13323.706956
28670.286663,-2960.823768,-2451.505594,13989.892304
28670.286992,-2812.782580,-4673.182538,13397.727550
28670.287321,-2072.576638,-4903.011187,12213.398043
28670.287650,518.144159,-766.095498,12509.480420
28670.287979,4145.153275,2911.162892,10955.047942
28670.288307,6365.771101,2987.772442,8734.430116
28670.288636,7179.997637,3140.991542,7328.038826
28670.288965,6957.935855,5898.935335,6143.709319
28670.289294,7476.080014,7354.516781,5847.626942
28670.289623,8068.244768,5362.668486,6069.688724
28670.289952,7105.977043,3370.820191,7624.121203
28670.290281,2368.659014,4519.963438,8734.430116
28670.290609,592.164754,2298.286494,9400.615463
28670.290938,-444.123565,-1378.971896,11843.295072
28670.291267,-3330.926739,-3064.381992,15618.345376
28670.291596,-4885.359217,-3983.696590,14952.160028
28670.291925,-3923.091493,-5362.668486,13249.686362
28670.292254,-2368.659014,-4443.353888,14582.057057
28670.292583,-592.164754,-919.314598,13989.892304
28670.292911,1850.514855,3064.381992,9844.739029
28670.293240,5477.523971,4443.353888,6143.709319
28670.293569,8882.471304,7124.688131,2590.720797
28670.293898,11325.150913,12410.747068,1628.453072
28670.294227,11917.315666,15781.567259,1480.411884
28670.294556,10510.924376,12870.404366,1702.473667
28670.294885,5995.668130,9806.022374,3997.112087
28670.295213,1036.288319,5975.544884,7105.977043
28670.295542,-2368.659014,1991.848295,9844.739029
28670.295871,-6217.729913,-2451.505594,13397.727550
28670.296200,-8586.388927,-5132.839837,15618.345376
28670.296529,-8808.450710,-6588.421283,16580.613101
28670.296858,-7476.080014,-5975.544884,17172.777854
28670.297186,-3627.009116,-3370.820191,15248.242405
28670.297515,814.226536,689.485948,11399.171507
28670.297844,5551.544565,5975.544884,9844.739029
28670.298173,8216.285956,10725.336972,7105.977043
28670.298502,8586.388927,11108.384721,4071.132681
28670.298831,7179.997637,8503.660028,2442.679609
28670.299160,6439.791695,6358.592633,2960.823768
28670.299488,3478.967927,7201.297681,6957.935855
28670.299817,1998.556043,4903.011187,8882.471304
28670.300146,-962.267725,-229.828649,9622.677246
28670.300474,-3701.029710,-4519.963438,11325.150913
28670.300803,-4441.235652,-5286.058936,11769.274478
28670.301132,-3923.091493,-3294.210641,13101.645173
28670.301460,-3404.947333,-842.705048,13249.686362
28670.301789,-740.205942,-1378.971896,11251.130318
28670.302118,-962.267725,-1455.581446,9696.697840
28670.302446,-1110.308913,229.828649,8808.450710
28670.302775,518.144159,1532.190996,7772.162391
28670.303104,1184.329507,995.924147,8364.327145
28670.303432,888.247130,536.266849,6809.894666
28670.303761,2664.741391,-612.876398,6809.894666
28670.304090,4663.297435,229.828649,7994.224174
28670.304418,3404.947333,2451.505594,8586.388927
28670.304747,1554.432478,2145.067394,8512.368333
28670.305076,3182.885551,-1072.533697,8882.471304
28670.305404,3182.885551,-1838.629195,9918.759623
28670.305733,-592.164754,-1149.143247,11103.089130
28670.306062,-2590.720797,-2451.505594,11399.171507
28670.306390,-4441.235652,-4443.353888,10732.986159
28670.306719,-4663.297435,-5515.887586,11769.274478
28670.307048,-3849.070898,-5439.278036,11621.233289
28670.307376,-2664.741391,-4290.134789,11547.212695
28670.307705,-370.102971,-1685.410096,11769.274478
28670.308034,2294.638420,1608.800546,11621.233289
28670.308362,2664.741391,1991.848295,9474.636058
28670.308691,2664.741391,1991.848295,6587.832884
28670.309020,3182.885551,1762.019645,4367.215058
28670.309348,2442.679609,2987.772442,6439.791695
28670.309677,740.205942,4213.525239,7772.162391
28670.310006,-370.102971,2451.505594,7402.059420
28670.310334,-2738.761985,-1378.971896,6587.832884
28670.310663,-3775.050304,-3447.429741,6735.874072
28670.310992,-2960.823768,-1608.800546,7550.100608
28670.311320,-1850.514855,1608.800546,9770.718434
28670.311649,-2738.761985,2911.162892,10584.944971
28670.311978,-2960.823768,1149.143247,9844.739029
28670.312306,-1332.370696,-1149.143247,8586.388927
28670.312635,-962.267725,-689.485948,9548.656652
28670.312964,-3404.947333,2757.943793,11547.212695
28670.313292,-3478.967927,1455.581446,11695.253884
28670.313621,-370.102971,-1149.143247,9474.636058
28670.313950,1184.329507,-1915.238745,8882.471304
28670.314278,1110.308913,689.485948,8364.327145
28670.314607,2590.720797,4136.915689,8290.306550
28670.314936,4811.338623,5669.106685,8660.409521
28670.315264,5107.421000,4749.792088,7994.224174
28670.315593,3701.029710,2757.943793,6291.750507
28670.315922,2220.617826,2681.334243,6587.832884
28670.316250,1628.453072,3447.429741,7772.162391
28670.316579,-148.041188,2681.334243,11029.068536
28670.316908,-2516.700203,-2604.724693,10955.047942
28670.317236,-3552.988522,-4979.620737,10658.965565
28670.317565,-1110.308913,-3753.867940,11103.089130
28670.317894,222.061783,306.438199,12657.521608
28670.318222,0.000000,1302.362347,10584.944971
28670.318551,148.041188,0.000000,8290.306550
28670.318880,2294.638420,-153.219100,5921.647536
28670.319208,3627.009116,2528.115143,5773.606348
28670.319537,1998.556043,4673.182538,8068.244768
28670.319866,962.267725,3907.087040,8660.409521
28670.320194,1258.350101,229.828649,6883.915261
28670.320523,962.267725,-2451.505594,8142.265362
28670.320852,444.123565,-1455.581446,9474.636058
28670.321180,444.123565,919.314598,10288.862594
28670.321509,888.247130,612.876398,10955.047942
28670.321838,370.102971,-383.047749,11473.192101
28670.322166,-1332.370696,-2298.286494,10807.006753
28670.322495,-1258.350101,-1302.362347,10066.800811
28670.322824,-1406.391290,-612.876398,11325.150913
28670.323152,-2294.638420,-1149.143247,12361.439231
28670.323481,-2664.741391,-1455.581446,11991.336260
28670.323810,-444.123565,-2068.457845,9918.759623
28670.324138,1998.556043,-995.924147,9622.677246
28670.324467,2294.638420,919.314598,8956.491898
28670.324796,1776.494261,3907.087040,8586.388927
28670.325124,2294.638420,3524.039291,7105.977043
28670.325453,1924.535449,1991.848295,5921.647536
28670.325782,0.000000,1225.752797,5107.421000
28670.326110,-2590.720797,1225.752797,6957.935855
28670.326439,-5477.523971,1762.019645,8586.388927
28670.326768,-4663.297435,-1378.971896,10362.883188
28670.327096,-4515.256246,-4979.620737,10658.965565
28670.327425,-5033.400406,-5439.278036,10510.924376
28670.327754,-3627.009116,-2298.286494,11177.109724
28670.328082,-592.164754,1149.143247,11991.336260
28670.328411,1628.453072,2068.457845,12435.459826
28670.328740,888.247130,1608.800546,9474.636058
28670.329068,740.205942,-229.828649,7254.018232
28670.329397,2220.617826,1302.362347,7846.182985
28670.329726,2220.617826,3600.648841,10214.842000
28670.330054,1554.432478,2298.286494,9992.780217
28670.330383,1036.288319,-766.095498,9400.615463
28670.330712,2516.700203,-2834.553343,9030.512492
28670.331040,3182.885551,459.657299,10140.821405
28670.331369,3775.050304,1685.410096,10362.883188
28670.331698,2664.741391,2987.772442,11991.336260
28670.332026,592.164754,1838.629195,10881.027347
28670.332355,0.000000,-1149.143247,8068.244768
28670.332684,-666.185348,-1608.800546,9548.656652
28670.333012,-4145.153275,0.000000,11103.089130
28670.333341,-5255.462188,919.314598,9992.780217
28670.333670,-3552.988522,-2987.772442,8808.450710
28670.333998,-2072.576638,-5362.668486,9178.553681
28670.334327,-1554.432478,-995.924147,9326.594869
28670.334656,592.164754,3600.648841,8068.244768
28670.334984,3256.906145,4443.353888,8142.265362
28670.335313,2886.803174,2911.162892,6957.935855
28670.335642,2812.782580,2221.676944,6291.750507
28670.335970,4145.153275,3294.210641,6217.729913
28670.336299,2886.803174,4673.182538,9844.739029
28670.336628,1110.308913,2911.162892,11695.253884
28670.336956,0.000000,-383.047749,11029.068536
28670.337285,-666.185348,-3600.648841,9696.697840
28670.337614,888.247130,-3294.210641,11029.068536
28670.337942,1332.370696,229.828649,12287.418637
28670.338271,592.164754,3064.381992,11695.253884
28670.338600,-222.061783,2145.067394,10066.800811
28670.338928,0.000000,-766.095498,8142.265362
28670.339257,-222.061783,0.000000,7476.080014
28670.339586,-1332.370696,2834.553343,9252.574275
28670.339914,-2220.617826,3064.381992,9770.718434
28670.340243,-1924.535449,-612.876398,8216.285956
28670.340572,-1480.411884,-2681.334243,7328.038826
28670.340900,-888.247130,-1608.800546,7698.141797
28670.341229,0.000000,2298.286494,9252.574275
28670.341558,1702.473667,2987.772442,9326.594869
28670.341886,962.267725,2068.457845,8512.368333
28670.342215,-444.123565,76.609550,6957.935855
28670.342544,-666.185348,-842.705048,6513.812290
28670.342872,-814.226536,536.266849,9030.512492
28670.343201,-2812.782580,919.314598,10955.047942
28670.343530,-3256.906145,-1455.581446,10732.986159
28670.343858,-1406.391290,-4903.011187,9548.656652
28670.344187,888.247130,-3064.381992,9770.718434
28670.344516,1998.556043,1915.238745,10584.944971
28670.344844,2146.597232,3677.258390,10436.903782
28670.345173,2220.617826,1915.238745,7476.080014
28670.345502,2886.803174,-995.924147,6217.729913
28670.345830,1406.391290,689.485948,7846.182985
28670.346159,-666.185348,3600.648841,8438.347739
28670.346488,-1554.432478,1685.410096,9104.533087
28670.346816,-1480.411884,-3753.867940,9770.718434
28670.347145,-2072.576638,-4979.620737,10658.965565
28670.347474,-666.185348,-1838.629195,10955.047942
28670.347802,296.082377,1149.143247,10881.027347
28670.348131,1110.308913,1149.143247,9992.780217
28670.348460,2516.700203,459.657299,10510.924376
28670.348788,1850.514855,1762.019645,9252.574275
28670.349117,962.267725,3294.210641,7031.956449
28670.349446,1702.473667,1532.190996,7772.162391
28670.349774,-74.020594,689.485948,10140.821405
28670.350103,-1480.411884,995.924147,9918.759623
28670.350432,-1776.494261,-842.705048,8364.327145
28670.350760,-222.061783,-2681.334243,8290.306550
28670.351089,518.144159,-1378.971896,8142.265362
28670.351418,0.000000,4673.182538,8734.430116
28670.351746,444.123565,4443.353888,8438.347739
28670.352075,592.164754,2451.505594,6957.935855
28670.352404,370.102971,-306.438199,6883.915261
28670.352732,-1554.432478,1532.190996,9104.533087
28670.353061,-3330.926739,3217.601092,9622.677246
28670.353390,-3182.885551,842.705048,11029.068536
28670.353718,-2146.597232,-4060.306139,11251.130318
28670.354047,-1554.432478,-4596.572988,10436.903782
28670.354376,-666.185348,0.000000,10140.821405
28670.354704,1628.453072,3064.381992,10510.924376
28670.355033,2664.741391,3907.087040,10732.986159
28670.355362,2738.761985,2451.505594,9326.594869
28670.355690,2590.720797,2068.457845,8290.306550
28670.356019,1850.514855,2681.334243,7994.224174
28670.356348,888.247130,2757.943793,9474.636058
28670.356676,-296.082377,1378.971896,10436.903782
28670.357005,-2146.597232,-536.266849,10881.027347
28670.357334,-2368.659014,-2451.505594,9400.615463
28670.357662,-1110.308913,-2221.676944,8808.450710
28670.357991,518.144159,229.828649,8734.430116
28670.358320,-962.267725,4060.306139,10214.842000
28670.358648,-962.267725,3447.429741,9030.512492
28670.358977,-814.226536,383.047749,7254.018232
28670.359306,-1332.370696,-1072.533697,8216.285956
28670.359634,-1110.308913,612.876398,9326.594869
28670.359963,-296.082377,2298.286494,9252.574275
28670.360292,1258.350101,-459.657299,9548.656652
28670.360620,1776.494261,-1915.238745,10362.883188
28670.360949,1628.453072,-383.047749,9770.718434
28670.361278,3108.864956,2145.067394,10362.883188
28670.361606,4441.235652,2987.772442,9992.780217
28670.361935,1998.556043,2374.896044,8586.388927
28670.362264,666.185348,766.095498,7624.121203
28670.362592,888.247130,76.609550,9474.636058
28670.362921,-370.102971,919.314598,11325.150913
28670.363250,-2738.761985,-1302.362347,11547.212695
28670.363578,-3478.967927,-4060.306139,10584.944971
28670.363907,-2294.638420,-4290.134789,10584.944971
28670.364236,370.102971,-995.924147,11473.192101
28670.364564,1332.370696,1991.848295,12213.398043
28670.364893,740.205942,2298.286494,10214.842000
28670.365222,1480.411884,1149.143247,7402.059420
28670.365550,2812.782580,536.266849,5921.647536
28670.365879,2072.576638,2374.896044,6809.894666
28670.366208,-666.185348,4136.915689,9104.533087
28670.366536,-1110.308913,1915.238745,9696.697840
28670.366865,-370.102971,-1991.848295,8586.388927
28670.367194,-666.185348,-3524.039291,8290.306550
28670.367522,-1480.411884,-536.266849,8438.347739
28670.367851,0.000000,3294.210641,8882.471304
28670.368180,1924.535449,2987.772442,9622.677246
28670.368508,1480.411884,842.705048,9992.780217
28670.368837,-296.082377,536.266849,8142.265362
28670.369166,-444.123565,2298.286494,7994.224174
28670.369494,-888.247130,2145.067394,9770.718434
28670.369823,-2368.659014,766.095498,10436.903782
28670.370152,-2072.576638,-2374.896044,9770.718434
28670.370480,-1998.556043,-2451.505594,10066.800811
28670.370809,-962.267725,-1455.581446,9252.574275
28670.371138,296.082377,383.047749,9326.594869
28670.371466,444.123565,1608.800546,10732.986159
28670.371795,222.061783,2451.505594,9474.636058
28670.372124,1332.370696,1302.362347,7772.162391
28670.372452,1036.288319,0.000000,8438.347739
28670.372781,-1184.329507,1532.190996,9400.615463
28670.373110,-3034.844362,1072.533697,9104.533087
28670.373438,-1258.350101,-2068.457845,9030.512492
28670.373767,-1110.308913,-4366.744339,9474.636058
28670.374096,-2442.679609,-1915.238745,10214.842000
28670.374424,-518.144159,612.876398,9696.697840
28670.374753,962.267725,2068.457845,9400.615463
28670.375082,1184.329507,1225.752797,8586.388927
28670.375410,444.123565,689.485948,7105.977043
28670.375739,1110.308913,766.095498,6217.729913
28670.376068,592.164754,2298.286494,8438.347739
28670.376396,74.020594,1608.800546,10436.903782
28670.376725,-1406.391290,-612.876398,10214.842000
28670.377054,-740.205942,-2451.505594,8364.327145
28670.377382,1110.308913,-3140.991542,8364.327145
28670.377711,1776.494261,0.000000,9696.697840
28670.378040,1184.329507,3064.381992,10066.800811
28670.378368,2146.597232,2451.505594,9104.533087
28670.378697,1702.473667,689.485948,8734.430116
28670.379026,1480.411884,-1762.019645,7846.182985
28670.379354,444.123565,1225.752797,9326.594869
28670.379683,-222.061783,2145.067394,10955.047942
28670.380012,222.061783,306.438199,10732.986159
28670.380340,740.205942,-2604.724693,10510.924376
28670.380669,-518.144159,-2374.896044,10658.965565
28670.380998,0.000000,229.828649,8882.471304
28670.381326,1850.514855,2451.505594,9326.594869
28670.381655,1628.453072,2068.457845,9104.533087
28670.381984,-370.102971,2221.676944,7772.162391
28670.382312,-222.061783,1608.800546,6587.832884
28670.382641,-296.082377,1302.362347,6883.915261
28670.382970,-2368.659014,229.828649,7105.977043
28670.383298,-3997.112087,0.000000,9474.636058
28670.383627,-2886.803174,-689.485948,9844.739029
28670.383956,-1258.350101,-995.924147,9622.677246
28670.384284,666.185348,-2221.676944,10362.883188
28670.384613,518.144159,0.000000,10510.924376
28670.384942,0.000000,3600.648841,10436.903782
28670.385270,1998.556043,3600.648841,9104.533087
28670.385599,2590.720797,306.438199,7105.977043
28670.385928,370.102971,-1302.362347,7920.203579
28670.386256,-1184.329507,2374.896044,9844.739029
28670.386585,74.020594,3447.429741,10658.965565
28670.386914,0.000000,0.000000,10436.903782
28670.387242,-962.267725,-3907.087040,9770.718434
28670.387571,-740.205942,-1991.848295,9030.512492
28670.387900,1628.453072,2221.676944,8142.265362
28670.388228,2664.741391,4366.744339,11029.068536
28670.388557,74.020594,1991.848295,11177.109724
28670.388886,-1924.535449,-1072.533697,8068.244768
28670.389214,-888.247130,-2145.067394,7994.224174
28670.389543,-1702.473667,-689.485948,10955.047942
28670.389872,-3552.988522,-76.609550,10732.986159
28670.390200,-3552.988522,-1685.410096,10362.883188
28670.390529,-1480.411884,-3600.648841,9548.656652
28670.390858,-370.102971,-3064.381992,9178.553681
28670.391186,814.226536,229.828649,9918.759623
28670.391515,2664.741391,3370.820191,9178.553681
28670.391844,2960.823768,4136.915689,7550.100608
28670.392172,3034.844362,2068.457845,7328.038826
28670.392501,2590.720797,842.705048,8512.368333
28670.392830,296.082377,2681.334243,9030.512492
28670.393158,-666.185348,842.705048,10214.842000
28670.393487,0.000000,-2298.286494,10658.965565
28670.393816,-518.144159,-3294.210641,11029.068536
28670.394144,-296.082377,-1455.581446,10214.842000
28670.394473,740.205942,306.438199,10881.027347
28670.394802,518.144159,1225.752797,10436.903782
28670.395130,-370.102971,1915.238745,9326.594869
28670.395459,222.061783,919.314598,8364.327145
28670.395788,444.123565,1838.629195,7772.162391
28670.396116,222.061783,2451.505594,9252.574275
28670.396445,-1258.350101,1225.752797,10955.047942
28670.396774,-2960.823768,-1149.143247,9326.594869
28670.397102,-2812.782580,-3294.210641,9770.718434
28670.397431,0.000000,-3447.429741,8956.491898
28670.397760,1184.329507,1149.143247,9252.574275
28670.398088,370.102971,4290.134789,10436.903782
28670.398417,0.000000,1838.629195,9474.636058
28670.398746,-296.082377,-612.876398,7698.141797
28670.399074,0.000000,-306.438199,7105.977043
28670.399403,0.000000,459.657299,9030.512492
28670.399732,-1850.514855,1532.190996,10066.800811
28670.400060,0.000000,995.924147,10362.883188
28670.400389,2072.576638,-612.876398,11547.212695
28670.400718,962.267725,-1991.848295,9548.656652
28670.401046,1110.308913,383.047749,8216.285956
28670.401375,3701.029710,3677.258390,8290.306550
28670.401703,4441.235652,4903.011187,8956.491898
28670.402032,1924.535449,3753.867940,7105.977043
28670.402360,518.144159,153.219100,6735.874072
28670.402688,-888.247130,383.047749,7994.224174
28670.403017,-1702.473667,1225.752797,8734.430116
28670.403345,-1850.514855,-689.485948,10658.965565
28670.403673,-2590.720797,-3600.648841,10658.965565
28670.404002,-1480.411884,-2757.943793,10436.903782
28670.404330,1110.308913,-1608.800546,10214.842000
28670.404658,666.185348,2068.457845,11177.109724
28670.404987,-148.041188,2681.334243,9178.553681
28670.405315,1480.411884,842.705048,7476.080014
28670.405643,962.267725,-153.219100,7846.182985
28670.405971,-1924.535449,1762.019645,8808.450710
28670.406300,-2664.741391,1915.238745,8660.409521
28670.406628,-1628.453072,-1532.190996,8956.491898
28670.406956,-1036.288319,-2528.115143,9548.656652
28670.407285,-962.267725,-2221.676944,9918.759623
28670.407613,814.226536,766.095498,10066.800811
28670.407941,3182.885551,2221.676944,9474.636058
28670.408270,3997.112087,2604.724693,9252.574275
28670.408598,2812.782580,3217.601092,8364.327145
28670.408926,1702.473667,3600.648841,6661.853478
28670.409255,2664.741391,2145.067394,6957.935855
28670.409583,2146.597232,995.924147,8808.450710
28670.409911,-1406.391290,2068.457845,10955.047942
28670.410240,-2072.576638,536.266849,9770.718434
28670.410568,-444.123565,-3064.381992,8216.285956
28670.410896,0.000000,-3447.429741,8586.388927
28670.411224,-888.247130,995.924147,10955.047942
28670.411553,-740.205942,4290.134789,10140.821405
28670.411881,0.000000,2681.334243,9104.533087
28670.412209,74.020594,-1532.190996,7994.224174
28670.412538,-2516.700203,-1838.629195,8660.409521
28670.412866,-4441.235652,1225.752797,9326.594869
28670.413194,-2590.720797,1991.848295,9844.739029
28670.413523,-1998.556043,-2451.505594,11251.130318
28670.413851,-3404.947333,-4596.572988,9252.574275
28670.414179,-2072.576638,-2451.505594,8586.388927
28670.414508,444.123565,1532.190996,10066.800811
28670.414836,1480.411884,3677.258390,10584.944971
28670.415164,1554.432478,2145.067394,10288.862594
28670.415492,1332.370696,306.438199,8956.491898
28670.415821,1776.494261,1149.143247,7624.121203
28670.416149,1628.453072,2145.067394,9770.718434
28670.416477,296.082377,1762.019645,11103.089130
28670.416806,-1554.432478,0.000000,9844.739029
28670.417134,-962.267725,-3294.210641,8512.368333
28670.417462,814.226536,-2911.162892,9992.780217
28670.417791,148.041188,1608.800546,8956.491898
28670.418119,148.041188,3753.867940,8956.491898
28670.418447,148.041188,1072.533697,8068.244768
28670.418776,-370.102971,0.000000,8068.244768
28670.419104,-1332.370696,459.657299,8956.491898
28670.419432,-962.267725,919.314598,9400.615463
28670.419761,-1184.329507,766.095498,9622.677246
28670.420089,-814.226536,-1608.800546,10881.027347
28670.420417,0.000000,-2298.286494,10881.027347
28670.420745,666.185348,-1072.533697,9770.718434
28670.421074,2442.679609,612.876398,11029.068536
28670.421402,3701.029710,2374.896044,11695.253884
28670.421730,3330.926739,3907.087040,10066.800811
28670.422059,2146.597232,2757.943793,8956.491898
28670.422387,2442.679609,153.219100,8142.265362
28670.422715,814.226536,1608.800546,9548.656652
28670.423044,-222.061783,2451.505594,10140.821405
28670.423372,-814.226536,612.876398,10214.842000
28670.423700,-1480.411884,-1762.019645,9178.553681
28670.424029,444.123565,-1302.362347,8216.285956
28670.424357,1406.391290,2374.896044,8364.327145
28670.424685,222.061783,4060.306139,9104.533087
28670.425013,370.102971,4290.134789,8216.285956
28670.425342,888.247130,1455.581446,7254.018232
28670.425670,-444.123565,459.657299,7105.977043
28670.425998,-2072.576638,1149.143247,7994.224174
28670.426327,-3330.926739,1455.581446,10214.842000
28670.426655,-2442.679609,-229.828649,10881.027347
28670.426983,-1258.350101,-2834.553343,9696.697840
28670.427312,-148.041188,-2911.162892,10288.862594
28670.427640,962.267725,919.314598,10288.862594
28670.427968,2516.700203,3907.087040,9104.533087
28670.428297,2812.782580,4213.525239,10140.821405
28670.428625,1184.329507,2451.505594,9030.512492
28670.428953,814.226536,842.705048,7105.977043
28670.429281,0.000000,-383.047749,8660.409521
28670.429610,-1850.514855,536.266849,10436.903782
28670.429938,-3404.947333,-612.876398,10584.944971
28670.430266,-2738.761985,-3370.820191,10584.944971
28670.430595,-296.082377,-4596.572988,9326.594869
28670.430923,1406.391290,-1302.362347,9178.553681
28670.431251,1998.556043,4060.306139,10436.903782
28670.431580,2146.597232,5592.497135,9622.677246
28670.431908,3478.967927,2374.896044,6809.894666
28670.432236,3256.906145,-995.924147,6883.915261
28670.432565,74.020594,0.000000,7105.977043
28670.432893,-1850.514855,2528.115143,8956.491898
28670.433221,-518.144159,995.924147,11177.109724
28670.433550,-888.247130,-2987.772442,11177.109724
28670.433878,-3404.947333,-5898.935335,8364.327145
28670.434206,-1998.556043,-4060.306139,7031.956449
28670.434534,1036.288319,1532.190996,9104.533087
28670.434863,1110.308913,4213.525239,9326.594869
28670.435191,0.000000,1915.238745,8734.430116
28670.435519,-518.144159,-612.876398,7772.162391
28670.435848,0.000000,383.047749,7179.997637
28670.436176,-518.144159,919.314598,9474.636058
28670.436504,-2072.576638,76.609550,10436.903782
28670.436833,-2738.761985,-2374.896044,11325.150913
28670.437161,-444.123565,-3983.696590,11325.150913
28670.437489,1184.329507,-3140.991542,11251.130318
28670.437818,148.041188,76.609550,11473.192101
28670.438146,1406.391290,2451.505594,10362.883188
28670.438474,3182.885551,2911.162892,8586.388927
28670.438802,2812.782580,2298.286494,6957.935855
28670.439131,1702.473667,1302.362347,7254.018232
28670.439459,-592.164754,1762.019645,7476.080014
28670.439787,-2664.741391,1915.238745,8882.471304
28670.440116,-2294.638420,-689.485948,9400.615463
28670.440444,-1850.514855,-3907.087040,10510.924376
28670.440772,-2368.659014,-2374.896044,9030.512492
28670.441101,0.000000,766.095498,9696.697840
28670.441429,1110.308913,2068.457845,9474.636058
28670.441757,-222.061783,2145.067394,8290.306550
28670.442086,-592.164754,1149.143247,6883.915261
28670.442414,962.267725,766.095498,6735.874072
28670.442742,1184.329507,1991.848295,8882.471304
28670.443071,-518.144159,2681.334243,11843.295072
28670.443399,-444.123565,383.047749,12139.377449
28670.443727,1628.453072,-2757.943793,10140.821405
28670.444055,2738.761985,-2604.724693,10436.903782
28670.444384,1850.514855,919.314598,10436.903782
28670.444712,666.185348,4749.792088,10510.924376
28670.445040,1998.556043,3447.429741,9696.697840
28670.445369,1110.308913,0.000000,8882.471304
28670.445697,-1628.453072,-1915.238745,7031.956449
28670.446025,-3182.885551,612.876398,7846.182985
28670.446354,-2664.741391,1838.629195,9992.780217
28670.446682,-3034.844362,-612.876398,10807.006753
28670.447010,-2960.823768,-3907.087040,10214.842000
28670.447339,-1850.514855,-3217.601092,9622.677246
28670.447667,1258.350101,995.924147,9178.553681
28670.447995,3997.112087,4213.525239,9252.574275
28670.448323,3997.112087,4366.744339,10955.047942
28670.448652,2738.761985,3447.429741,9474.636058
28670.448980,2960.823768,1302.362347,6883.915261
28670.449308,2516.700203,919.314598,8660.409521
28670.449637,-296.082377,1915.238745,9992.780217
28670.449965,-1776.494261,995.924147,10436.903782
28670.450293,-444.123565,-1991.848295,9474.636058
28670.450622,1036.288319,-3907.087040,9918.759623
28670.450950,814.226536,-689.485948,10066.800811
28670.451278,148.041188,3064.381992,10584.944971
28670.451607,1184.329507,3907.087040,9252.574275
28670.451935,1406.391290,1685.410096,8586.388927
28670.452263,444.123565,-919.314598,8438.347739
28670.452592,-1628.453072,1072.533697,7698.141797
28670.452920,-2664.741391,1685.410096,9178.553681
28670.453248,-1702.473667,-1225.752797,10510.924376
28670.453576,-1998.556043,-3677.258390,10436.903782
28670.453905,-2146.597232,-3370.820191,9770.718434
28670.454233,-444.123565,459.657299,9622.677246
28670.454561,2368.659014,1838.629195,8438.347739
28670.454890,2590.720797,2757.943793,7920.203579
28670.455218,1258.350101,2451.505594,8956.491898
28670.455546,592.164754,2834.553343,7476.080014
28670.455875,814.226536,2451.505594,7550.100608
28670.456203,-370.102971,0.000000,9918.759623
28670.456531,-3775.050304,-2068.457845,11029.068536
28670.456860,-4367.215058,-1991.848295,10807.006753
28670.457188,-1406.391290,-3447.429741,10658.965565
28670.457516,-1036.288319,-3294.210641,11695.253884
28670.457844,-2072.576638,-1378.971896,9622.677246
28670.458173,74.020594,1685.410096,9400.615463
28670.458501,1554.432478,2298.286494,8808.450710
28670.458829,592.164754,1608.800546,6365.771101
28670.459158,74.020594,1072.533697,7031.956449
28670.459486,-444.123565,1685.410096,9474.636058
28670.459814,-296.082377,2374.896044,8586.388927
28670.460143,148.041188,-766.095498,8882.471304
28670.460471,0.000000,-3677.258390,8808.450710
28670.460799,0.000000,-1532.190996,7772.162391
28670.461128,1924.535449,2451.505594,9326.594869
28670.461456,3256.906145,2528.115143,10436.903782
28670.461784,740.205942,1302.362347,8956.491898
28670.462112,-222.061783,-1149.143247,8068.244768
28670.462441,814.226536,-536.266849,7846.182985
28670.462769,0.000000,1532.190996,9178.553681
28670.463097,-2294.638420,919.314598,11769.274478
28670.463426,-740.205942,-2451.505594,9178.553681
28670.463754,666.185348,-3524.039291,9104.533087
28670.464082,1406.391290,0.000000,10584.944971
28670.464411,1554.432478,3064.381992,9400.615463
28670.464739,2294.638420,3600.648841,8290.306550
28670.465067,3182.885551,2068.457845,8216.285956
28670.465396,1184.329507,1838.629195,7328.038826
28670.465724,-1332.370696,2221.676944,6809.894666
28670.466052,-1628.453072,1762.019645,7476.080014
28670.466381,-1628.453072,-229.828649,10510.924376
28670.466709,-2886.803174,-1762.019645,11843.295072
28670.467037,-2368.659014,-2757.943793,10214.842000
28670.467365,-296.082377,-2145.067394,9104.533087
28670.467694,962.267725,842.705048,9178.553681
28670.468022,2886.803174,3830.477490,9770.718434
28670.468350,2146.597232,4749.792088,9474.636058
28670.468679,1628.453072,2987.772442,8142.265362
28670.469007,1702.473667,1302.362347,7994.224174
28670.469335,74.020594,766.095498,9474.636058
28670.469664,-1332.370696,1762.019645,9326.594869
28670.469992,-1332.370696,689.485948,9104.533087
28670.470320,-1554.432478,-2604.724693,9844.739029
28670.470649,-962.267725,-2604.724693,9178.553681
28670.470977,-814.226536,306.438199,10362.883188
28670.471305,-962.267725,3064.381992,10362.883188
28670.471633,0.000000,1838.629195,8438.347739
28670.471962,1184.329507,76.609550,8660.409521
28670.472290,1110.308913,1302.362347,9696.697840
28670.472618,222.061783,1838.629195,10140.821405
28670.472947,-1110.308913,1302.362347,10288.862594
28670.473275,-592.164754,-2757.943793,10140.821405
28670.473603,-1480.411884,-3217.601092,9770.718434
28670.473932,-666.185348,-1302.362347,9548.656652
28670.474260,1258.350101,1455.581446,10214.842000
28670.474588,2960.823768,2374.896044,9918.759623
28670.474917,2220.617826,2221.676944,10807.006753
28670.475245,888.247130,2068.457845,8142.265362
28670.475573,0.000000,766.095498,6661.853478
28670.475902,-74.020594,-383.047749,8290.306550
28670.476230,-2146.597232,766.095498,11547.212695
28670.476558,-3330.926739,0.000000,11177.109724
28670.476886,-2442.679609,-2451.505594,10066.800811
28670.477215,-1406.391290,-5286.058936,9400.615463
28670.477543,-1480.411884,-1532.190996,10658.965565
28670.477871,-1110.308913,2068.457845,9918.759623
28670.478200,1110.308913,2451.505594,9400.615463
28670.478528,1702.473667,766.095498,8808.450710
28670.478856,1628.453072,536.266849,8068.244768
28670.479185,1184.329507,2221.676944,8586.388927
28670.479513,740.205942,1991.848295,8734.430116
28670.479841,0.000000,536.266849,8808.450710
28670.480170,-296.082377,-1455.581446,10288.862594
28670.480498,0.000000,-766.095498,9400.615463
28670.480826,814.226536,383.047749,8956.491898
28670.481154,1554.432478,536.266849,9548.656652
28670.481483,1258.350101,1455.581446,9474.636058
28670.481811,444.123565,1532.190996,8438.347739
28670.482139,1110.308913,0.000000,7920.203579
28670.482468,888.247130,0.000000,9548.656652
28670.482796,-444.123565,459.657299,11029.068536
28670.483124,-1554.432478,1149.143247,12287.418637
28670.483453,-962.267725,-1378.971896,9918.759623
28670.483781,296.082377,-3140.991542,9548.656652
28670.484109,1554.432478,0.000000,10362.883188
28670.484438,1628.453072,3907.087040,9252.574275
28670.484766,1184.329507,3907.087040,7920.203579
28670.485094,1332.370696,1302.362347,8068.244768
28670.485423,814.226536,1149.143247,7846.182985
28670.485751,148.041188,2374.896044,6957.935855
28670.486079,-814.226536,2451.505594,8512.368333
28670.486407,-2220.617826,766.095498,9104.533087
28670.486736,-3034.844362,-1685.410096,9030.512492
28670.487064,-1628.453072,-2451.505594,7402.059420
28670.487392,74.020594,-153.219100,8512.368333
28670.487721,1332.370696,2528.115143,9548.656652
28670.488049,2886.803174,4979.620737,9918.759623
28670.488377,1480.411884,4290.134789,9474.636058
28670.488706,296.082377,1378.971896,7254.018232
28670.489034,888.247130,153.219100,6365.771101
28670.489362,-370.102971,1302.362347,8512.368333
28670.489691,-1924.535449,2221.676944,9918.759623
28670.490019,-1998.556043,0.000000,10066.800811
28670.490347,-1184.329507,-4136.915689,10288.862594
28670.490675,-592.164754,-3600.648841,9474.636058
28670.491004,0.000000,842.705048,10214.842000
28670.491332,1850.514855,4519.963438,10881.027347
28670.491660,2516.700203,3907.087040,8290.306550
28670.491989,2220.617826,995.924147,8660.409521
28670.492317,518.144159,-536.266849,7698.141797
28670.492645,-1110.308913,1302.362347,8364.327145
28670.492974,-1258.350101,1532.190996,10140.821405
28670.493302,-1258.350101,-1302.362347,11621.233289
28670.493630,-592.164754,-3600.648841,10436.903782
28670.493959,74.020594,-2757.943793,9770.718434
28670.494287,1406.391290,-1149.143247,8882.471304
28670.494615,2220.617826,2681.334243,8882.471304
28670.494943,2220.617826,4290.134789,8364.327145
28670.495272,2220.617826,3140.991542,7402.059420
28670.495600,1406.391290,919.314598,6365.771101
28670.495928,0.000000,153.219100,7624.121203
28670.496257,-2368.659014,1225.752797,9770.718434
28670.496585,-3404.947333,76.609550,10066.800811
28670.496913,-2146.597232,-3524.039291,9622.677246
28670.497242,-814.226536,-5439.278036,9770.718434
28670.497570,-2146.597232,-1991.848295,10214.842000
28670.497898,-2294.638420,1685.410096,10214.842000
28670.498227,-592.164754,2068.457845,11251.130318
28670.498555,666.185348,-536.266849,9030.512492
28670.498883,-666.185348,-1302.362347,7698.141797
28670.499212,-296.082377,842.705048,9770.718434
28670.499540,0.000000,3753.867940,11251.130318
28670.499868,0.000000,995.924147,11251.130318
28670.500196,-222.061783,-3753.867940,11769.274478
28670.500525,0.000000,-3524.039291,9474.636058
28670.500853,444.123565,383.047749,9178.553681
28670.501181,2146.597232,2451.505594,9844.739029
28670.501509,888.247130,2221.676944,9252.574275
28670.501838,-1480.411884,1532.190996,8660.409521
28670.502166,-518.144159,153.219100,6809.894666
28670.502494,-740.205942,612.876398,7328.038826
28670.502822,-2442.679609,459.657299,9770.718434
28670.503151,-3404.947333,306.438199,10066.800811
28670.503479,-1702.473667,-1915.238745,9252.574275
28670.503807,1184.329507,-3064.381992,9030.512492
28670.504135,1628.453072,-383.047749,10066.800811
28670.504464,1110.308913,3600.648841,9844.739029
28670.504792,3404.947333,5515.887586,9770.718434
28670.505120,4589.276840,2451.505594,9474.636058
28670.505448,2664.741391,612.876398,9474.636058
28670.505777,1554.432478,1225.752797,7476.080014
28670.506105,740.205942,2681.334243,9844.739029
28670.506433,444.123565,919.314598,11029.068536
28670.506761,-962.267725,-1915.238745,11251.130318
28670.507090,-962.267725,-3294.210641,11029.068536
28670.507418,1184.329507,-1225.752797,8660.409521
28670.507746,2368.659014,3447.429741,8882.471304
28670.508074,2220.617826,4213.525239,10510.924376
28670.508403,-296.082377,3294.210641,8660.409521
28670.508731,-814.226536,229.828649,6291.750507
28670.509059,0.000000,-842.705048,7179.997637
28670.509387,-1628.453072,1762.019645,9030.512492
28670.509716,-3923.091493,2221.676944,9992.780217
28670.510044,-2516.700203,-1072.533697,9178.553681
28670.510372,-1258.350101,-4673.182538,8956.491898
28670.510700,-296.082377,-2528.115143,9474.636058
28670.511028,1480.411884,2451.505594,9400.615463
28670.511357,3108.864956,5822.325785,9622.677246
28670.511685,3552.988522,4213.525239,8290.306550
28670.512013,2812.782580,919.314598,7624.121203
28670.512341,888.247130,0.000000,7254.018232
28670.512670,-962.267725,3140.991542,8068.244768
28670.512998,-1332.370696,2068.457845,9696.697840
28670.513326,-1628.453072,-2145.067394,10140.821405
28670.513654,-2664.741391,-4060.306139,10881.027347
28670.513983,-2368.659014,-2681.334243,10140.821405
28670.514311,-1184.329507,-383.047749,9770.718434
28670.514639,0.000000,459.657299,9400.615463
28670.514967,-888.247130,1225.752797,9770.718434
28670.515296,-370.102971,1225.752797,7846.182985
28670.515624,1332.370696,995.924147,7402.059420
28670.515952,666.185348,612.876398,8586.388927
28670.516280,-2590.720797,459.657299,10362.883188
28670.516609,-2886.803174,-1149.143247,9252.574275
28670.516937,222.061783,-4826.401637,9548.656652
28670.517265,296.082377,-3294.210641,10658.965565
28670.517593,0.000000,-536.266849,9770.718434
28670.517922,518.144159,2451.505594,9030.512492
28670.518250,1184.329507,1685.410096,8068.244768
28670.518578,814.226536,306.438199,7254.018232
28670.518906,814.226536,-229.828649,7476.080014
28670.519235,666.185348,1685.410096,9178.553681
28670.519563,-518.144159,2221.676944,9400.615463
28670.519891,-518.144159,-689.485948,10955.047942
28670.520219,-296.082377,-2604.724693,10955.047942
28670.520548,0.000000,-2145.067394,10214.842000
28670.520876,1776.494261,76.609550,9104.533087
28670.521204,2146.597232,1225.752797,9918.759623
28670.521532,1480.411884,2451.505594,10807.006753
28670.521861,296.082377,1991.848295,8216.285956
28670.522189,0.000000,-383.047749,7179.997637
28670.522517,-1184.329507,-842.705048,8660.409521
28670.522845,-2368.659014,1685.410096,10436.903782
28670.523174,-1184.329507,1455.581446,10288.862594
28670.523502,-222.061783,-995.924147,9178.553681
28670.523830,-148.041188,-3447.429741,9844.739029
28670.524158,222.061783,536.266849,9326.594869
28670.524487,2442.679609,4596.572988,9252.574275
28670.524815,2960.823768,5439.278036,10510.924376
28670.525143,2072.576638,2604.724693,9622.677246
28670.525471,518.144159,459.657299,5699.585753
28670.525800,-740.205942,1149.143247,6439.791695
28670.526128,-1406.391290,2757.943793,9918.759623
28670.526456,-2220.617826,2068.457845,9770.718434
28670.526784,-1850.514855,-842.705048,10362.883188
28670.527113,-518.144159,-2374.896044,9918.759623
28670.527441,148.041188,0.000000,9030.512492
28670.527769,1776.494261,2834.553343,9992.780217
28670.528097,1850.514855,4443.353888,9474.636058
28670.528426,296.082377,2987.772442,8734.430116
28670.528754,962.267725,612.876398,8216.285956
28670.529082,1332.370696,153.219100,7846.182985
28670.529410,-1258.350101,1991.848295,10066.800811
28670.529739,-2886.803174,1762.019645,11029.068536
28670.530067,-1776.494261,-1532.190996,10288.862594
28670.530395,74.020594,-4290.134789,10066.800811
28670.530723,74.020594,-2298.286494,10436.903782
28670.531051,222.061783,2451.505594,10658.965565
28670.531380,1110.308913,4443.353888,9252.574275
28670.531708,1998.556043,1685.410096,7994.224174
28670.532036,1776.494261,-1608.800546,7328.038826
28670.532364,666.185348,459.657299,7550.100608
28670.532693,-370.102971,2834.553343,9844.739029
28670.533021,-1110.308913,1225.752797,10436.903782
28670.533349,-2294.638420,-3753.867940,10658.965565
28670.533677,-2146.597232,-4979.620737,9474.636058
28670.534006,222.061783,-2987.772442,9030.512492
28670.534334,1628.453072,383.047749,10140.821405
28670.534662,1776.494261,2911.162892,11843.295072
28670.534990,1628.453072,919.314598,10214.842000
28670.535319,2516.700203,-383.047749,7624.121203
28670.535647,4145.153275,0.000000,8068.244768
28670.535975,1850.514855,2834.553343,10288.862594
28670.536303,-814.226536,2987.772442,9992.780217
28670.536632,74.020594,-1532.190996,8364.327145
28670.536960,518.144159,-4519.963438,9252.574275
28670.537288,-222.061783,-2681.334243,9844.739029
28670.537616,-518.144159,1991.848295,8216.285956
28670.537945,-222.061783,3370.820191,9474.636058
28670.538273,-962.267725,1378.971896,9622.677246
28670.538601,-1998.556043,-536.266849,7624.121203
28670.538929,-2516.700203,-459.657299,7105.977043
28670.539258,-3182.885551,995.924147,7994.224174
28670.539586,-3404.947333,459.657299,8512.368333
28670.539914,-3404.947333,-383.047749,10658.965565
28670.540242,-2886.803174,-2068.457845,9622.677246
28670.540571,-1850.514855,-1532.190996,8808.450710
28670.540899,962.267725,306.438199,9252.574275
28670.541227,1776.494261,3294.210641,9474.636058
28670.541555,814.226536,5362.668486,9474.636058
28670.541884,2590.720797,2221.676944,7698.141797
28670.542212,2442.679609,536.266849,6661.853478
28670.542540,74.020594,1838.629195,9104.533087
28670.542868,-444.123565,2987.772442,9548.656652
28670.543197,0.000000,1225.752797,9474.636058
28670.543525,-148.041188,-1608.800546,9844.739029
28670.543853,740.205942,-1378.971896,9030.512492
28670.544181,518.144159,1072.533697,8882.471304
28670.544510,296.082377,3753.867940,8882.471304
28670.544838,1332.370696,2681.334243,8882.471304
28670.545166,518.144159,-306.438199,8438.347739
28670.545494,-518.144159,-536.266849,7698.141797
28670.545823,-1406.391290,919.314598,8882.471304
28670.546151,-2368.659014,306.438199,9474.636058
28670.546479,-1480.411884,-2221.676944,9770.718434
28670.546807,444.123565,-2911.162892,10658.965565
28670.547136,666.185348,-919.314598,11325.150913
28670.547464,2516.700203,1838.629195,9696.697840
28670.547792,4367.215058,1608.800546,9474.636058
28670.548120,2590.720797,1915.238745,10807.006753
28670.548449,1702.473667,2298.286494,8660.409521
28670.548777,2590.720797,1532.190996,7402.059420
28670.549105,1406.391290,995.924147,8808.450710
28670.549433,-1184.329507,536.266849,10140.821405
28670.549761,-2146.597232,-1149.143247,10066.800811
28670.550090,-1924.535449,-2681.334243,10362.883188
28670.550418,-1036.288319,-2681.334243,9178.553681
28670.550746,148.041188,0.000000,9252.574275
28670.551074,962.267725,2757.943793,9178.553681
28670.551403,1332.370696,3677.258390,8660.409521
28670.551731,1036.288319,2221.676944,9104.533087
28670.552059,444.123565,459.657299,8882.471304
28670.552387,-1628.453072,383.047749,7994.224174
28670.552716,-1702.473667,-612.876398,8808.450710
28670.553044,0.000000,-766.095498,10658.965565
28670.553372,-1628.453072,-842.705048,11029.068536
28670.553700,-2072.576638,-2221.676944,9918.759623
28670.554029,-592.164754,-2528.115143,9326.594869
28670.554357,148.041188,536.266849,10658.965565
28670.554685,740.205942,2757.943793,10732.986159
28670.555013,-222.061783,2757.943793,9844.739029
28670.555342,222.061783,842.705048,8438.347739
28670.555670,0.000000,0.000000,8068.244768
28670.555998,-518.144159,612.876398,9474.636058
28670.556326,-1480.411884,1225.752797,9400.615463
28670.556655,-1332.370696,0.000000,8586.388927
28670.556983,148.041188,-1302.362347,9622.677246
28670.557311,1110.308913,-229.828649,8660.409521
28670.557639,370.102971,2911.162892,8734.430116
28670.557968,518.144159,3447.429741,9548.656652
28670.558296,2294.638420,1991.848295,8068.244768
28670.558624,1998.556043,-229.828649,8068.244768
28670.558952,0.000000,536.266849,10140.821405
28670.559281,-296.082377,1838.629195,9326.594869
28670.559609,666.185348,153.219100,9474.636058
28670.559937,0.000000,-2374.896044,10955.047942
28670.560265,-1554.432478,-2451.505594,10510.924376
28670.560594,-296.082377,-919.314598,9104.533087
28670.560922,1406.391290,1532.190996,10140.821405
28670.561250,148.041188,1532.190996,9400.615463
28670.561578,-1924.535449,306.438199,7328.038826
28670.561907,-740.205942,-153.219100,6809.894666
28670.562235,-518.144159,919.314598,9326.594869
28670.562563,-1554.432478,1378.971896,9918.759623
28670.562891,-2294.638420,-383.047749,10732.986159
28670.563220,-2220.617826,-2681.334243,9474.636058
28670.563548,-518.144159,-2528.115143,8364.327145
28670.563876,1776.494261,-536.266849,9030.512492
28670.564204,2294.638420,2834.553343,9696.697840
28670.564533,2368.659014,4903.011187,8142.265362
28670.564861,3404.947333,3064.381992,8216.285956
28670.565189,2590.720797,1378.971896,8216.285956
28670.565517,2072.576638,1838.629195,7031.956449
28670.565846,370.102971,2757.943793,8808.450710
28670.566174,-1036.288319,995.924147,9770.718434
28670.566502,-1406.391290,-2068.457845,8882.471304
28670.566830,-1406.391290,-1838.629195,10140.821405
28670.567159,-888.247130,-1455.581446,9474.636058
28670.567487,0.000000,459.657299,8290.306550
28670.567815,518.144159,1608.800546,9992.780217
28670.568143,666.185348,1762.019645,9992.780217
28670.568472,-518.144159,766.095498,8438.347739
28670.568800,-518.144159,-1072.533697,8216.285956
28670.569128,-962.267725,0.000000,8364.327145
28670.569456,-2146.597232,229.828649,9474.636058
28670.569784,-1332.370696,0.000000,11177.109724
28670.570113,-222.061783,-2145.067394,10436.903782
28670.570441,1036.288319,-1991.848295,10214.842000
28670.570769,814.226536,383.047749,10584.944971
28670.571097,222.061783,3294.210641,9548.656652
28670.571426,2220.617826,1838.629195,8216.285956
28670.571754,2960.823768,1532.190996,8290.306550
28670.572082,888.247130,153.219100,9252.574275
28670.572410,-1776.494261,1762.019645,9326.594869
28670.572739,-370.102971,689.485948,8586.388927
28670.573067,148.041188,-1762.019645,9844.739029
28670.573395,-1110.308913,-3064.381992,9252.574275
28670.573723,-518.144159,-306.438199,7920.203579
28670.574052,1406.391290,1225.752797,8734.430116
28670.574380,1702.473667,2911.162892,10140.821405
28670.574708,1628.453072,2757.943793,9622.677246
28670.575036,1184.329507,1302.362347,8512.368333
28670.575365,592.164754,766.095498,7550.100608
28670.575693,518.144159,919.314598,9474.636058
28670.576021,-1184.329507,919.314598,11843.295072
28670.576349,-2146.597232,153.219100,11473.192101
28670.576678,-2072.576638,-2374.896044,10658.965565
28670.577006,0.000000,-3983.696590,10140.821405
28670.577334,0.000000,-995.924147,10066.800811
28670.577662,370.102971,3064.381992,10436.903782
28670.577991,1628.453072,4519.963438,10510.924376
28670.578319,1110.308913,1608.800546,8068.244768
28670.578647,-222.061783,766.095498,7550.100608
28670.578975,-814.226536,1838.629195,8512.368333
28670.579304,-962.267725,2145.067394,8216.285956
28670.579632,-370.102971,306.438199,9474.636058
28670.579960,-1628.453072,-1302.362347,10955.047942
28670.580288,-1776.494261,-1455.581446,9252.574275
28670.580617,370.102971,-612.876398,8068.244768
28670.580945,1258.350101,919.314598,10214.842000
28670.581273,0.000000,3217.601092,9696.697840
28670.581601,-962.267725,2681.334243,8142.265362
28670.581930,0.000000,-383.047749,7550.100608
28670.582258,-1184.329507,-1532.190996,8512.368333
28670.582586,-2960.823768,383.047749,9326.594869
28670.582914,-2072.576638,612.876398,11325.150913
28670.583243,-1480.411884,0.000000,9696.697840
28670.583571,-296.082377,-3064.381992,8956.491898
28670.583899,1332.370696,-1838.629195,9548.656652
28670.584227,888.247130,2604.724693,9696.697840
28670.584556,1036.288319,4519.963438,9770.718434
28670.584884,2146.597232,1149.143247,8586.388927
28670.585212,592.164754,-536.266849,9252.574275
28670.585540,-1110.308913,842.705048,8364.327145
28670.585869,-1332.370696,689.485948,9030.512492
28670.586197,-1184.329507,-1532.190996,9622.677246
28670.586525,-740.205942,-2911.162892,9770.718434
28670.586853,222.061783,-1225.752797,9770.718434
28670.587182,2294.638420,1225.752797,8882.471304
28670.587510,3108.864956,3064.381992,8290.306550
28670.587838,3404.947333,3064.381992,8586.388927
28670.588166,2146.597232,2451.505594,7772.162391
28670.588494,1184.329507,2374.896044,7179.997637
28670.588823,2220.617826,1455.581446,7846.182985
28670.589151,666.185348,-229.828649,8290.306550
28670.589479,-2664.741391,-306.438199,9770.718434
28670.589807,-3108.864956,-1685.410096,9696.697840
28670.590136,-1628.453072,-2451.505594,9622.677246
28670.590464,-962.267725,-2604.724693,9178.553681
28670.590792,148.041188,0.000000,9548.656652
28670.591120,888.247130,3753.867940,9104.533087
28670.591449,1702.473667,4290.134789,8808.450710
28670.591777,1776.494261,1685.410096,8808.450710
28670.592105,-666.185348,-459.657299,8956.491898
28670.592433,-1776.494261,1302.362347,9326.594869
28670.592762,-1110.308913,459.657299,9844.739029
28670.593090,-1702.473667,-1608.800546,11473.192101
28670.593418,-1998.556043,-3370.820191,11029.068536
28670.593746,-444.123565,-1915.238745,9992.780217
28670.594075,962.267725,229.828649,9400.615463
28670.594403,962.267725,3753.867940,8808.450710
28670.594731,2442.679609,3140.991542,9178.553681
28670.595059,2072.576638,2911.162892,7846.182985
28670.595388,1702.473667,2987.772442,7402.059420
28670.595716,666.185348,2298.286494,8734.430116
28670.596044,-1036.288319,1532.190996,9104.533087
28670.596372,-2886.803174,-383.047749,7846.182985
28670.596701,-1924.535449,-1685.410096,8956.491898
28670.597029,0.000000,-2604.724693,9992.780217
28670.597357,-1184.329507,766.095498,10140.821405
28670.597685,-444.123565,1838.629195,10140.821405
28670.598014,592.164754,383.047749,9030.512492
28670.598342,592.164754,306.438199,8438.347739
28670.598670,-296.082377,1149.143247,9918.759623
28670.598998,-444.123565,1225.752797,10510.924376
28670.599327,222.061783,0.000000,9992.780217
28670.599655,0.000000,-2221.676944,11399.171507
28670.599983,-518.144159,-1915.238745,11769.274478
28670.600311,148.041188,-459.657299,10066.800811
28670.600640,2146.597232,1072.533697,10066.800811
28670.600968,3478.967927,2451.505594,11325.150913
28670.601296,1406.391290,3140.991542,9474.636058
28670.601624,518.144159,2451.505594,7994.224174
28670.601953,814.226536,1302.362347,8068.244768
28670.602281,-962.267725,536.266849,7994.224174
28670.602609,-2812.782580,-306.438199,9548.656652
28670.602938,-4367.215058,-995.924147,10362.883188
28670.603266,-2812.782580,-1762.019645,8956.491898
28670.603594,0.000000,-1991.848295,8882.471304
28670.603923,962.267725,-995.924147,9326.594869
28670.604251,0.000000,3830.477490,8956.491898
28670.604579,1406.391290,4749.792088,7624.121203
28670.604908,2294.638420,2298.286494,7920.203579
28670.605236,148.041188,1072.533697,7550.100608
28670.605564,-1184.329507,1225.752797,7105.977043
28670.605893,-1628.453072,2068.457845,9178.553681
28670.606221,-1406.391290,-76.609550,10510.924376
28670.606549,-1998.556043,-2451.505594,11547.212695
28670.606878,-888.247130,-3830.477490,10881.027347
28670.607206,370.102971,-766.095498,10066.800811
28670.607534,2220.617826,2451.505594,9622.677246
28670.607863,3478.967927,2145.067394,10807.006753
28670.608191,2442.679609,2911.162892,9030.512492
28670.608519,2294.638420,2068.457845,8438.347739
28670.608848,2220.617826,689.485948,7994.224174
28670.609176,-518.144159,766.095498,9400.615463
28670.609504,-2220.617826,612.876398,9400.615463
28670.609833,-1554.432478,-1762.019645,9474.636058
28670.610161,-444.123565,-3983.696590,8364.327145
28670.610489,-962.267725,-2298.286494,8808.450710
28670.610818,-592.164754,1149.143247,9844.739029
28670.611146,74.020594,3294.210641,9844.739029
28670.611474,518.144159,2068.457845,7920.203579
28670.611803,148.041188,-1378.971896,7476.080014
28670.612131,-1184.329507,-842.705048,7624.121203
28670.612459,-1554.432478,1762.019645,7920.203579
28670.612788,-1184.329507,383.047749,9992.780217
28670.613116,-962.267725,-2987.772442,10066.800811
28670.613444,-444.123565,-3370.820191,9548.656652
28670.613773,1406.391290,-1072.533697,9326.594869
28670.614101,2812.782580,2298.286494,9622.677246
28670.614429,2664.741391,4060.306139,10436.903782
28670.614758,2886.803174,3294.210641,9696.697840
28670.615086,1924.535449,1685.410096,8142.265362
28670.615414,2294.638420,306.438199,7179.997637
28670.615743,888.247130,919.314598,9326.594869
28670.616071,-666.185348,1225.752797,10658.965565
28670.616399,-2294.638420,-536.266849,10732.986159
28670.616728,-1776.494261,-3677.258390,9696.697840
28670.617056,-222.061783,-3983.696590,9770.718434
28670.617384,-370.102971,229.828649,8956.491898
28670.617713,148.041188,3830.477490,8586.388927
28670.618041,888.247130,3140.991542,9770.718434
28670.618369,0.000000,612.876398,8364.327145
28670.618698,-296.082377,-229.828649,8290.306550
28670.619026,-1850.514855,1378.971896,9252.574275
28670.619354,-2516.700203,1532.190996,9696.697840
28670.619683,-1258.350101,-1072.533697,9548.656652
28670.620011,-1628.453072,-2528.115143,10214.842000
28670.620339,-1776.494261,-1608.800546,10288.862594
28670.620668,370.102971,995.924147,9252.574275
28670.620996,1776.494261,2604.724693,9622.677246
28670.621324,592.164754,3370.820191,9622.677246
28670.621653,222.061783,1455.581446,8290.306550
28670.621981,0.000000,536.266849,6883.915261
28670.622309,-444.123565,306.438199,8290.306550
28670.622638,-2368.659014,1915.238745,10807.006753
28670.622966,-2220.617826,306.438199,10658.965565
28670.623294,-1332.370696,-2987.772442,9400.615463
28670.623623,-592.164754,-3217.601092,9992.780217
28670.623951,-740.205942,919.314598,11621.233289
28670.624279,0.000000,2604.724693,10362.883188
28670.624608,1184.329507,1991.848295,9104.533087
28670.624936,2294.638420,536.266849,9400.615463
28670.625264,740.205942,842.705048,7846.182985
28670.625593,-1554.432478,1838.629195,7179.997637
28670.625921,-2442.679609,536.266849,8734.430116
28670.626249,-2072.576638,-1762.019645,10955.047942
28670.626578,-1702.473667,-3064.381992,10584.944971
28670.626906,-444.123565,-1455.581446,9992.780217
28670.627234,1924.535449,0.000000,9770.718434
28670.627563,3478.967927,1762.019645,9770.718434
28670.627891,4219.173869,2987.772442,10436.903782
28670.628219,3404.947333,3524.039291,9252.574275
28670.628548,2812.782580,2374.896044,8364.327145
28670.628876,2590.720797,1302.362347,7402.059420
28670.629204,592.164754,1149.143247,9844.739029
28670.629533,-1924.535449,229.828649,8882.471304
28670.629861,-1554.432478,-1915.238745,8882.471304
28670.630189,-148.041188,-2681.334243,9696.697840
28670.630518,1036.288319,-1149.143247,9696.697840
28670.630846,296.082377,2528.115143,9918.759623
28670.631174,962.267725,3524.039291,8956.491898
28670.631503,74.020594,1455.581446,7105.977043
28670.631831,444.123565,-766.095498,6883.915261
28670.632160,222.061783,536.266849,7772.162391
28670.632488,-1924.535449,3753.867940,9030.512492
28670.632816,-2368.659014,1378.971896,10066.800811
28670.633145,-1480.411884,-2528.115143,9474.636058
28670.633473,-1332.370696,-4596.572988,8882.471304
28670.633801,-148.041188,-1608.800546,9104.533087
28670.634130,1036.288319,3294.210641,10288.862594
28670.634458,2368.659014,4596.572988,10214.842000
28670.634786,2664.741391,2298.286494,9030.512492
28670.635115,888.247130,153.219100,7179.997637
28670.635443,222.061783,766.095498,7031.956449
28670.635771,148.041188,2221.676944,8734.430116
28670.636100,-962.267725,1915.238745,11621.233289
28670.636428,-1924.535449,-1838.629195,10140.821405
28670.636756,-740.205942,-3983.696590,9548.656652
28670.637085,-296.082377,-2451.505594,8882.471304
28670.637413,-814.226536,689.485948,8068.244768
28670.637741,-370.102971,2681.334243,8586.388927
28670.638070,666.185348,1378.971896,10214.842000
28670.638398,-148.041188,0.000000,9326.594869
28670.638726,-1332.370696,-919.314598,8660.409521
28670.639055,-2220.617826,383.047749,9474.636058
28670.639383,-2072.576638,536.266849,9474.636058
28670.639711,-1036.288319,-1378.971896,8808.450710
28670.640040,-518.144159,-2911.162892,9474.636058
28670.640368,0.000000,-995.924147,9770.718434
28670.640696,1628.453072,1915.238745,9474.636058
28670.641025,2516.700203,2757.943793,10510.924376
28670.641353,1110.308913,2298.286494,9400.615463
28670.641681,370.102971,459.657299,7846.182985
28670.642010,1184.329507,459.657299,7772.162391
28670.642338,444.123565,842.705048,8586.388927
28670.642666,-888.247130,1072.533697,10732.986159
28670.642995,-2590.720797,459.657299,11029.068536
28670.643323,-1036.288319,-2145.067394,8882.471304
28670.643651,740.205942,-2987.772442,9252.574275
28670.643980,444.123565,153.219100,10362.883188
28670.644308,0.000000,4213.525239,9548.656652
28670.644636,740.205942,3600.648841,8882.471304
28670.644965,1924.535449,229.828649,9400.615463
28670.645293,296.082377,-766.095498,8808.450710
28670.645621,-1850.514855,459.657299,8586.388927
28670.645950,-2146.597232,612.876398,10288.862594
28670.646278,-1554.432478,-1455.581446,10436.903782
28670.646606,-888.247130,-2374.896044,10881.027347
28670.646935,222.061783,-1149.143247,9844.739029
28670.647263,2072.576638,1762.019645,9104.533087
28670.647591,2738.761985,4903.011187,9548.656652
28670.647920,2664.741391,4136.915689,9770.718434
28670.648248,592.164754,2451.505594,9030.512492
28670.648576,296.082377,-306.438199,7402.059420
28670.648905,370.102971,-536.266849,9474.636058
28670.649233,-2146.597232,995.924147,10362.883188
28670.649561,-3034.844362,842.705048,10066.800811
28670.649890,-962.267725,-2451.505594,9104.533087
28670.650218,0.000000,-3753.867940,9252.574275
28670.650546,1110.308913,-229.828649,9326.594869
28670.650875,2738.761985,4673.182538,9992.780217
28670.651203,4071.132681,4136.915689,9474.636058
28670.651531,3923.091493,3370.820191,8068.244768
28670.651860,2368.659014,842.705048,8364.327145
28670.652188,-148.041188,2374.896044,8586.388927
28670.652516,-740.205942,2145.067394,8512.368333
28670.652845,-1406.391290,-1608.800546,9770.718434
28670.653173,-3182.885551,-3294.210641,10881.027347
28670.653501,-3256.906145,-2681.334243,9696.697840
28670.653830,-1480.411884,-689.485948,9030.512492
28670.654158,-962.267725,229.828649,9474.636058
28670.654486,-1702.473667,1072.533697,8586.388927
28670.654815,-814.226536,1302.362347,8586.388927
28670.655143,148.041188,1149.143247,8586.388927
28670.655471,1110.308913,995.924147,7624.121203
28670.655800,740.205942,612.876398,9992.780217
28670.656128,-296.082377,229.828649,9770.718434
28670.656456,-222.061783,612.876398,8660.409521
28670.656785,2146.597232,-1378.971896,9326.594869
28670.657113,2590.720797,-1149.143247,9992.780217
28670.657441,1184.329507,2451.505594,9400.615463
28670.657770,1258.350101,4060.306139,8956.491898
28670.658098,2294.638420,1225.752797,9104.533087
28670.658426,592.164754,-229.828649,7994.224174
28670.658755,-1258.350101,-459.657299,8586.388927
28670.659083,-3034.844362,459.657299,9252.574275
28670.659411,-2368.659014,153.219100,9622.677246
28670.659740,-1924.535449,-2145.067394,9992.780217
28670.660068,-2368.659014,-3140.991542,9104.533087
28670.660396,-1036.288319,-306.438199,7402.059420
28670.660725,1110.308913,2528.115143,7994.224174
28670.661053,1036.288319,3677.258390,10881.027347
28670.661381,0.000000,2374.896044,9252.574275
28670.661710,-370.102971,0.000000,8068.244768
28670.662038,592.164754,-1302.362347,7698.141797
28670.662366,-222.061783,766.095498,9178.553681
28670.662695,-888.247130,1225.752797,11029.068536
28670.663023,-518.144159,0.000000,10881.027347
28670.663351,-592.164754,-2298.286494,10066.800811
28670.663680,1184.329507,-2528.115143,10510.924376
28670.664008,2146.597232,1838.629195,10066.800811
28670.664336,1554.432478,5439.278036,9548.656652
28670.664665,1554.432478,4826.401637,8808.450710
28670.664993,1332.370696,153.219100,7550.100608
28670.665321,-1184.329507,-1532.190996,7550.100608
28670.665650,-3108.864956,459.657299,8512.368333
28670.665978,-3034.844362,1225.752797,9104.533087
28670.666306,-2516.700203,-1149.143247,10066.800811
28670.666635,-2146.597232,-3217.601092,10066.800811
28670.666963,-1924.535449,-2068.457845,9252.574275
28670.667291,0.000000,459.657299,8438.347739
28670.667620,2590.720797,2604.724693,10288.862594
28670.667948,1924.535449,3294.210641,10066.800811
28670.668276,592.164754,1991.848295,8808.450710
28670.668605,1850.514855,-536.266849,8438.347739
28670.668933,1036.288319,0.000000,10881.027347
28670.669261,-1184.329507,842.705048,11251.130318
28670.669590,-666.185348,-383.047749,9992.780217
28670.669918,1184.329507,-2757.943793,10214.842000
28670.670246,888.247130,-1532.190996,10955.047942
28670.670575,1480.411884,1302.362347,10066.800811
28670.670903,2590.720797,2681.334243,9844.739029
28670.671231,2294.638420,2451.505594,8586.388927
28670.671560,1998.556043,1762.019645,8364.327145
28670.671888,1702.473667,1685.410096,7105.977043
28670.672216,-296.082377,2451.505594,9030.512492
28670.672545,-2072.576638,842.705048,9474.636058
28670.672873,-2220.617826,-2834.553343,8290.306550
28670.673201,-2368.659014,-3600.648841,8438.347739
28670.673530,-1850.514855,-1685.410096,9844.739029
28670.673858,0.000000,459.657299,9770.718434
28670.674186,1554.432478,2145.067394,9992.780217
28670.674515,1036.288319,1455.581446,10066.800811
28670.674843,222.061783,1532.190996,8438.347739
28670.675171,1406.391290,1608.800546,6661.853478
28670.675500,1850.514855,1762.019645,7402.059420
28670.675828,74.020594,1762.019645,9696.697840
28670.676156,-962.267725,1149.143247,11177.109724
28670.676485,-444.123565,229.828649,10732.986159
28670.676813,1406.391290,-3370.820191,9770.718434
28670.677141,1184.329507,-2145.067394,10140.821405
28670.677470,592.164754,2451.505594,10510.924376
28670.677798,1554.432478,4519.963438,9622.677246
28670.678126,1850.514855,2145.067394,8586.388927
28670.678455,74.020594,-383.047749,7920.203579
28670.678783,-1850.514855,229.828649,7476.080014
28670.679111,-3627.009116,2298.286494,8142.265362
28670.679440,-2072.576638,995.924147,8290.306550
28670.679768,-1110.308913,-2298.286494,10140.821405
28670.680096,-2664.741391,-1991.848295,10658.965565
28670.680425,-1554.432478,0.000000,8438.347739
28670.680753,1628.453072,459.657299,7772.162391
28670.681081,592.164754,919.314598,9474.636058
28670.681410,74.020594,2068.457845,8586.388927
28670.681738,1332.370696,1762.019645,7105.977043
28670.682066,1702.473667,919.314598,8734.430116
28670.682395,-370.102971,689.485948,9844.739029
28670.682723,-1036.288319,-153.219100,9252.574275
28670.683051,-1184.329507,-1302.362347,8512.368333
28670.683380,0.000000,-1072.533697,9548.656652
28670.683708,1110.308913,-689.485948,10732.986159
28670.684036,888.247130,1225.752797,10658.965565
28670.684365,370.102971,1532.190996,9252.574275
28670.684693,-518.144159,306.438199,8956.491898
28670.685021,518.144159,-995.924147,8290.306550
28670.685350,-148.041188,306.438199,8956.491898
28670.685678,-1924.535449,689.485948,9474.636058
28670.686006,-2738.761985,-536.266849,11177.109724
28670.686335,-1628.453072,-2451.505594,11029.068536
28670.686663,-962.267725,-2604.724693,10214.842000
28670.686991,814.226536,-1225.752797,9400.615463
28670.687320,3256.906145,2221.676944,8734.430116
28670.687648,4071.132681,4519.963438,9622.677246
28670.687977,2368.659014,4903.011187,10807.006753
28670.688305,370.102971,2604.724693,8586.388927
28670.688633,74.020594,-1149.143247,7031.956449
28670.688962,-1480.411884,-1608.800546,8290.306550
28670.689290,-2812.782580,0.000000,10066.800811
28670.689618,-2812.782580,689.485948,10658.965565
28670.689947,-2368.659014,-2221.676944,10955.047942
28670.690275,-888.247130,-4366.744339,9474.636058
28670.690603,-222.061783,-1225.752797,8364.327145
28670.690932,814.226536,3677.258390,9696.697840
28670.691260,1998.556043,5745.716235,9252.574275
28670.691588,1850.514855,3217.601092,8956.491898
28670.691917,2072.576638,229.828649,9104.533087
28670.692245,-370.102971,1378.971896,8438.347739
28670.692573,-296.082377,612.876398,7994.224174
28670.692902,370.102971,229.828649,9474.636058
28670.693230,-814.226536,-919.314598,10436.903782
28670.693558,-1258.350101,-1072.533697,10066.800811
28670.693887,814.226536,-306.438199,9474.636058
28670.694215,1776.494261,2374.896044,10362.883188
28670.694543,962.267725,2374.896044,9622.677246
28670.694872,74.020594,2681.334243,7994.224174
28670.695200,1258.350101,919.314598,7179.997637
28670.695528,888.247130,153.219100,8808.450710
28670.695857,-1036.288319,919.314598,11029.068536
28670.696185,-2664.741391,306.438199,10214.842000
28670.696513,-2072.576638,-1302.362347,9400.615463
28670.696842,148.041188,-3447.429741,9400.615463
28670.697170,592.164754,-306.438199,10584.944971
28670.697498,148.041188,3447.429741,9770.718434
28670.697827,740.205942,2987.772442,8438.347739
28670.698155,1184.329507,0.000000,7402.059420
28670.698483,444.123565,-306.438199,8216.285956
28670.698812,-740.205942,1685.410096,7920.203579
28670.699140,-1406.391290,1991.848295,8068.244768
28670.699468,0.000000,0.000000,9400.615463
28670.699797,-666.185348,-2681.334243,9918.759623
28670.700125,-740.205942,-1762.019645,9030.512492
28670.700453,518.144159,459.657299,9030.512492
28670.700782,2146.597232,1685.410096,9844.739029
28670.701110,1776.494261,1378.971896,9918.759623
28670.701438,888.247130,76.609550,8216.285956
28670.701767,1628.453072,-536.266849,8142.265362
28670.702095,740.205942,1302.362347,9326.594869
28670.702423,-444.123565,1455.581446,9918.759623
28670.702752,-1184.329507,-689.485948,9696.697840
28670.703080,-1998.556043,-2757.943793,9474.636058
28670.703408,-222.061783,-2451.505594,8882.471304
28670.703737,1110.308913,-306.438199,9252.574275
28670.704065,740.205942,2911.162892,11177.109724
28670.704393,-592.164754,3830.477490,10214.842000
28670.704722,0.000000,0.000000,7846.182985
28670.705050,-296.082377,-2298.286494,7550.100608
28670.705379,-2368.659014,0.000000,8068.244768
28670.705707,-3478.967927,2298.286494,8512.368333
28670.706035,-2664.741391,766.095498,9178.553681
28670.706364,-1628.453072,-2911.162892,10732.986159
28670.706692,-2072.576638,-3600.648841,10584.944971
28670.707021,-814.226536,-766.095498,9252.574275
28670.707349,1184.329507,3064.381992,9178.553681
28670.707677,3256.906145,3830.477490,10140.821405
28670.708006,2442.679609,2834.553343,9178.553681
28670.708334,1036.288319,1991.848295,8216.285956
28670.708663,888.247130,995.924147,8290.306550
28670.708991,-1480.411884,612.876398,8438.347739
28670.709319,-2886.803174,-306.438199,9474.636058
28670.709648,-1850.514855,-1378.971896,9992.780217
28670.709976,-444.123565,-1532.190996,10214.842000
28670.710305,0.000000,-306.438199,9696.697840
28670.710633,0.000000,1149.143247,9844.739029
28670.710961,666.185348,2145.067394,10066.800811
28670.711290,1628.453072,1608.800546,9030.512492
28670.711618,2442.679609,153.219100,9030.512492
28670.711946,1924.535449,0.000000,10066.800811
28670.712275,-148.041188,2221.676944,10732.986159
28670.712603,444.123565,2145.067394,10214.842000
28670.712932,1332.370696,-1915.238745,9696.697840
28670.713260,1184.329507,-3524.039291,9178.553681
28670.713588,1776.494261,0.000000,9918.759623
28670.713917,2960.823768,4136.915689,11251.130318
28670.714245,3404.947333,3753.867940,10732.986159
28670.714574,1998.556043,1455.581446,10436.903782
28670.714902,-666.185348,306.438199,8142.265362
28670.715230,-1332.370696,1072.533697,6735.874072
28670.715559,-2146.597232,766.095498,7994.224174
28670.715887,-2072.576638,-306.438199,9770.718434
28670.716216,-3627.009116,-1838.629195,9918.759623
28670.716544,-3775.050304,-2221.676944,9474.636058
28670.716872,-296.082377,-1378.971896,8512.368333
28670.717201,1110.308913,153.219100,8068.244768
28670.717529,518.144159,3370.820191,8734.430116
28670.717858,1258.350101,3677.258390,9252.574275
28670.718186,1924.535449,2374.896044,8216.285956
28670.718514,1702.473667,1378.971896,8882.471304
28670.718843,444.123565,995.924147,9030.512492
28670.719171,-370.102971,1302.362347,9030.512492
28670.719500,-518.144159,1072.533697,9992.780217
28670.719828,-592.164754,-995.924147,11029.068536
28670.720156,-1406.391290,-2298.286494,10658.965565
28670.720485,-888.247130,-689.485948,9030.512492
28670.720813,148.041188,1455.581446,9474.636058
28670.721141,-518.144159,2221.676944,9474.636058
28670.721470,-1258.350101,1455.581446,8068.244768
28670.721798,-888.247130,0.000000,7402.059420
28670.722127,-1628.453072,459.657299,8660.409521
28670.722455,-2220.617826,919.314598,8512.368333
28670.722783,-1924.535449,689.485948,9992.780217
28670.723112,-370.102971,-995.924147,9326.594869
28670.723440,962.267725,-1838.629195,8660.409521
28670.723769,2442.679609,536.266849,9400.615463
28670.724097,2664.741391,4749.792088,10510.924376
28670.724425,2368.659014,4826.401637,9104.533087
28670.724754,3182.885551,842.705048,8216.285956
28670.725082,1258.350101,-919.314598,8586.388927
28670.725411,-1480.411884,995.924147,8290.306550
28670.725739,-2294.638420,306.438199,8216.285956
28670.726067,-2294.638420,-1762.019645,9326.594869
28670.726396,-3108.864956,-3064.381992,10732.986159
28670.726724,-2738.761985,-2221.676944,9178.553681
28670.727053,-444.123565,-612.876398,8142.265362
28670.727381,592.164754,383.047749,9400.615463
28670.727709,740.205942,2757.943793,11325.150913
28670.728038,1110.308913,2681.334243,10584.944971
28670.728366,1036.288319,-153.219100,8586.388927
28670.728695,74.020594,-2145.067394,9252.574275
28670.729023,0.000000,-842.705048,9992.780217
28670.729351,-518.144159,1225.752797,9548.656652
28670.729680,0.000000,-612.876398,10362.883188
28670.730008,518.144159,-3064.381992,10658.965565
28670.730336,962.267725,-1302.362347,9770.718434
28670.730665,1554.432478,3064.381992,9696.697840
28670.730993,1924.535449,5056.230287,8882.471304
28670.731322,888.247130,2298.286494,7772.162391
28670.731650,1776.494261,229.828649,7698.141797
28670.731978,518.144159,612.876398,8512.368333
28670.732307,-2146.597232,1455.581446,8956.491898
28670.732635,-2516.700203,0.000000,9474.636058
28670.732964,-1184.329507,-2145.067394,10288.862594
28670.733292,0.000000,-2145.067394,9622.677246
28670.733620,0.000000,0.000000,9252.574275
28670.733949,1258.350101,2604.724693,10288.862594
28670.734277,1628.453072,3600.648841,9918.759623
28670.734606,2146.597232,2298.286494,8734.430116
28670.734934,1480.411884,612.876398,8660.409521
28670.735262,296.082377,1915.238745,9400.615463
28670.735591,444.123565,2834.553343,10436.903782
28670.735919,-592.164754,1532.190996,11251.130318
28670.736248,-2516.700203,-1685.410096,10658.965565
28670.736576,-2368.659014,-2604.724693,9400.615463
28670.736904,444.123565,-1608.800546,8068.244768
28670.737233,222.061783,2757.943793,10140.821405
28670.737561,-370.102971,4290.134789,10436.903782
28670.737890,-592.164754,1378.971896,8956.491898
28670.738218,740.205942,-842.705048,7254.018232
28670.738546,74.020594,229.828649,8364.327145
28670.738875,-1036.288319,2221.676944,8808.450710
28670.739203,-148.041188,2451.505594,9474.636058
28670.739531,74.020594,-229.828649,9844.739029
28670.739860,592.164754,-2451.505594,10658.965565
28670.740188,1184.329507,-1455.581446,9178.553681
28670.740517,1628.453072,2221.676944,8364.327145
28670.740845,2812.782580,3600.648841,10214.842000
28670.741173,2072.576638,2374.896044,9992.780217
28670.741502,148.041188,766.095498,9252.574275
28670.741830,-666.185348,-1302.362347,7550.100608
28670.742159,-1406.391290,-1302.362347,7105.977043
28670.742487,-1998.556043,-536.266849,9326.594869
28670.742815,-2294.638420,153.219100,10584.944971
28670.743144,-666.185348,-1302.362347,9696.697840
28670.743472,888.247130,-2221.676944,9474.636058
28670.743801,1110.308913,-306.438199,8882.471304
28670.744129,296.082377,3983.696590,8660.409521
28670.744457,1702.473667,4136.915689,7920.203579
28670.744786,1480.411884,842.705048,8734.430116
28670.745114,-148.041188,-1608.800546,8438.347739
28670.745443,-2220.617826,-153.219100,10288.862594
28670.745771,-2368.659014,-459.657299,9844.739029
28670.746099,-2146.597232,-2757.943793,9992.780217
28670.746428,-1480.411884,-3294.210641,9992.780217
28670.746756,0.000000,-1149.143247,10584.944971
28670.747085,1628.453072,1072.533697,8956.491898
28670.747413,2072.576638,3294.210641,8808.450710
28670.747741,2072.576638,3217.601092,9252.574275
28670.748070,370.102971,2298.286494,8290.306550
28670.748398,-1184.329507,1302.362347,7846.182985
28670.748726,-444.123565,-612.876398,8734.430116
28670.749055,-1924.535449,76.609550,10066.800811
28670.749383,-2516.700203,-536.266849,9918.759623
28670.749712,-2812.782580,-995.924147,8956.491898
28670.750040,-962.267725,-3524.039291,7846.182985
28670.750368,0.000000,-1072.533697,9622.677246
28670.750697,1480.411884,2145.067394,11177.109724
28670.751025,2368.659014,4213.525239,10955.047942
28670.751354,2738.761985,2681.334243,9474.636058
28670.751682,2146.597232,1149.143247,9770.718434
28670.752010,888.247130,689.485948,8586.388927
28670.752339,-888.247130,0.000000,7105.977043
28670.752667,-1184.329507,-689.485948,10214.842000
28670.752996,-518.144159,-1225.752797,10955.047942
28670.753324,-814.226536,-536.266849,10140.821405
28670.753652,-370.102971,0.000000,9326.594869
28670.753981,148.041188,1072.533697,8882.471304
28670.754309,814.226536,1685.410096,8660.409521
28670.754638,1184.329507,1838.629195,8734.430116
28670.754966,296.082377,1532.190996,8882.471304
28670.755294,-518.144159,842.705048,8734.430116
28670.755623,592.164754,306.438199,9918.759623
28670.755951,0.000000,76.609550,10881.027347
28670.756280,-1850.514855,0.000000,10288.862594
28670.756608,1554.432478,-1225.752797,8364.327145
28670.756936,3775.050304,153.219100,9252.574275
28670.757265,2146.597232,3140.991542,10584.944971
28670.757593,592.164754,4213.525239,9474.636058
28670.757921,814.226536,1762.019645,8290.306550
28670.758250,740.205942,-459.657299,9104.533087
28670.758578,-296.082377,-689.485948,9622.677246
28670.758907,-1258.350101,1225.752797,10436.903782
28670.759235,-1628.453072,459.657299,10362.883188
28670.759563,-222.061783,-1838.629195,10140.821405
28670.759892,0.000000,-2757.943793,9844.739029
28670.760220,666.185348,-306.438199,8882.471304
28670.760549,1628.453072,4366.744339,9030.512492
28670.760877,2590.720797,5132.839837,9474.636058
28670.761205,2442.679609,2604.724693,9474.636058
28670.761534,0.000000,919.314598,7550.100608
28670.761862,-1628.453072,229.828649,6883.915261
28670.762191,-3108.864956,229.828649,7031.956449
28670.762519,-3256.906145,-919.314598,9252.574275
28670.762847,-3034.844362,-1838.629195,10881.027347
28670.763176,-3404.947333,-2451.505594,9474.636058
28670.763504,0.000000,-1072.533697,9474.636058
28670.763833,1332.370696,995.924147,9548.656652
28670.764161,962.267725,3753.867940,8808.450710
28670.764489,1924.535449,3447.429741,7105.977043
28670.764818,3108.864956,1991.848295,8364.327145
28670.765146,1406.391290,842.705048,9252.574275
28670.765474,-296.082377,1302.362347,8882.471304
28670.765803,0.000000,459.657299,9918.759623
28670.766131,-814.226536,-919.314598,11399.171507
28670.766460,-592.164754,-2451.505594,9548.656652
28670.766788,592.164754,-2604.724693,9400.615463
28670.767116,444.123565,459.657299,9400.615463
28670.767445,1332.370696,4290.134789,9474.636058
28670.767773,1924.535449,3830.477490,10510.924376
28670.768102,-296.082377,766.095498,9104.533087
28670.768430,-2220.617826,-1532.190996,7105.977043
28670.768758,-2886.803174,-2145.067394,7772.162391
28670.769087,-3182.885551,-612.876398,9696.697840
28670.769415,-4145.153275,-536.266849,10362.883188
28670.769744,-3923.091493,-3217.601092,9770.718434
28670.770072,-2220.617826,-3907.087040,8586.388927
28670.770400,666.185348,-766.095498,8586.388927
28670.770729,1850.514855,3753.867940,10436.903782
28670.771057,2664.741391,4596.572988,9548.656652
28670.771386,2072.576638,2681.334243,8882.471304
28670.771714,2738.761985,306.438199,8808.450710
28670.772042,1184.329507,1302.362347,9548.656652
28670.772371,-814.226536,995.924147,9104.533087
28670.772699,370.102971,-1532.190996,10584.944971
28670.773028,0.000000,-2681.334243,11325.150913
28670.773356,-592.164754,-1608.800546,11029.068536
28670.773684,740.205942,0.000000,9548.656652
28670.774013,1406.391290,1302.362347,9918.759623
28670.774341,222.061783,3753.867940,9770.718434
28670.774669,962.267725,2374.896044,7031.956449
28670.774998,1110.308913,842.705048,7402.059420
28670.775326,-370.102971,766.095498,8068.244768
28670.775655,-1184.329507,1838.629195,9696.697840
28670.775983,-1332.370696,-153.219100,10881.027347
28670.776311,-1924.535449,-2145.067394,9844.739029
28670.776640,-666.185348,-3140.991542,8216.285956
28670.776968,1628.453072,-229.828649,9622.677246
28670.777297,1480.411884,3907.087040,10362.883188
28670.777625,-148.041188,4290.134789,10214.842000
28670.777953,74.020594,689.485948,9030.512492
28670.778282,1110.308913,-1762.019645,7105.977043
28670.778610,592.164754,689.485948,7846.182985
28670.778939,-814.226536,3217.601092,10436.903782
28670.779267,-962.267725,2068.457845,9918.759623
28670.779595,-296.082377,-1762.019645,9400.615463
28670.779924,888.247130,-3294.210641,9474.636058
28670.780252,1406.391290,459.657299,8216.285956
28670.780581,1924.535449,4979.620737,8660.409521
28670.780909,3849.070898,4290.134789,9696.697840
28670.781237,2516.700203,2145.067394,9992.780217
28670.781566,592.164754,0.000000,9104.533087
28670.781894,0.000000,0.000000,7920.203579
28670.782223,74.020594,1225.752797,8956.491898
28670.782551,-666.185348,919.314598,9474.636058
28670.782879,-1184.329507,-1532.190996,10066.800811
28670.783208,-962.267725,-2298.286494,9178.553681
28670.783536,444.123565,-842.705048,8142.265362
28670.783864,1480.411884,1991.848295,10140.821405
28670.784193,222.061783,3524.039291,10140.821405
28670.784521,74.020594,3140.991542,9252.574275
28670.784850,962.267725,0.000000,8660.409521
28670.785178,-296.082377,-1762.019645,8290.306550
28670.785506,-3034.844362,-229.828649,7254.018232
28670.785835,-2664.741391,229.828649,8586.388927
28670.786163,-1850.514855,0.000000,10807.006753
28670.786492,-1406.391290,-1302.362347,10510.924376
28670.786820,0.000000,-842.705048,10362.883188
28670.787148,814.226536,689.485948,8068.244768
28670.787477,1036.288319,3524.039291,9030.512492
28670.787805,1776.494261,3753.867940,9770.718434
28670.788134,222.061783,2681.334243,9252.574275
28670.788462,-666.185348,306.438199,7402.059420
28670.788790,-1924.535449,-1838.629195,8364.327145
28670.789119,-2368.659014,-1608.800546,10140.821405
28670.789447,-4219.173869,-842.705048,10658.965565
28670.789776,-2812.782580,-2221.676944,10658.965565
28670.790104,370.102971,-3830.477490,9696.697840
28670.790432,0.000000,-1532.190996,10362.883188
28670.790761,370.102971,2604.724693,10658.965565
28670.791089,2590.720797,3524.039291,9548.656652
28670.791418,2442.679609,1991.848295,8956.491898
28670.791746,1258.350101,0.000000,9622.677246
28670.792074,444.123565,76.609550,9104.533087
28670.792403,-2146.597232,1838.629195,10140.821405
28670.792731,-2442.679609,-383.047749,7772.162391
28670.793059,-1406.391290,-3830.477490,8290.306550
28670.793388,-1406.391290,-3524.039291,8512.368333
28670.793716,-444.123565,2145.067394,9326.594869
28670.794045,962.267725,2834.553343,9844.739029
28670.794373,518.144159,0.000000,9474.636058
28670.794701,814.226536,-229.828649,8882.471304
28670.795030,1776.494261,1532.190996,7994.224174
28670.795358,2738.761985,3294.210641,7920.203579
28670.795687,2960.823768,1149.143247,9104.533087
28670.796015,2220.617826,76.609550,11769.274478
28670.796343,888.247130,919.314598,10732.986159
28670.796672,2368.659014,153.219100,8808.450710
28670.797000,3627.009116,-229.828649,9770.718434
28670.797329,2738.761985,3447.429741,11029.068536
28670.797657,1776.494261,5592.497135,10881.027347
28670.797985,962.267725,2068.457845,9622.677246
28670.798314,-592.164754,-2221.676944,8586.388927
28670.798642,-2590.720797,-1378.971896,7772.162391
28670.798971,-3330.926739,1149.143247,8956.491898
28670.799299,-2738.761985,0.000000,9696.697840
28670.799627,-1998.556043,-536.266849,9474.636058
28670.799956,-1628.453072,-2604.724693,9474.636058
28670.800284,-814.226536,229.828649,8290.306550
28670.800613,222.061783,3524.039291,7846.182985
28670.800941,1776.494261,3907.087040,9178.553681
28670.801269,1998.556043,3294.210641,9548.656652
28670.801598,740.205942,1685.410096,8364.327145
28670.801926,-296.082377,1072.533697,7698.141797
28670.802254,-1332.370696,-536.266849,8512.368333
28670.802583,-2294.638420,0.000000,9252.574275
28670.802911,-1480.411884,-995.924147,9992.780217
28670.803239,-740.205942,-2221.676944,9178.553681
28670.803568,-370.102971,-536.266849,9252.574275
28670.803896,444.123565,2451.505594,9844.739029
28670.804224,962.267725,3217.601092,9326.594869
28670.804553,-370.102971,1762.019645,7846.182985
28670.804881,740.205942,-1302.362347,7476.080014
28670.805209,518.144159,-766.095498,8660.409521
28670.805538,-1924.535449,1378.971896,10436.903782
28670.805866,-1776.494261,-612.876398,9178.553681
28670.806194,-888.247130,-4290.134789,10214.842000
28670.806523,148.041188,-4213.525239,10510.924376
28670.806851,1480.411884,383.047749,9918.759623
28670.807179,2220.617826,2528.115143,10436.903782
28670.807508,1998.556043,2451.505594,10214.842000
28670.807836,2442.679609,842.705048,9178.553681
28670.808164,1036.288319,-689.485948,8438.347739
28670.808492,0.000000,229.828649,7179.997637
28670.808821,-296.082377,1225.752797,8438.347739
28670.809149,-1110.308913,153.219100,9918.759623
28670.809477,-1850.514855,-1915.238745,9696.697840
28670.809806,-2368.659014,-2757.943793,7994.224174
28670.810134,-1184.329507,-1915.238745,8068.244768
28670.810462,222.061783,1302.362347,8882.471304
28670.810791,370.102971,4290.134789,10214.842000
28670.811119,592.164754,2298.286494,9770.718434
28670.811447,148.041188,-306.438199,7920.203579
28670.811776,296.082377,-919.314598,8956.491898
28670.812104,-888.247130,995.924147,10732.986159
28670.812432,-888.247130,1838.629195,10362.883188
28670.812761,-740.205942,-612.876398,10658.965565
28670.813089,0.000000,-2987.772442,10658.965565
28670.813417,-592.164754,-1378.971896,9548.656652
28670.813746,-592.164754,2757.943793,9030.512492
28670.814074,888.247130,3447.429741,9770.718434
28670.814402,1110.308913,2145.067394,8956.491898
28670.814731,518.144159,919.314598,8290.306550
28670.815059,-148.041188,1072.533697,9474.636058
28670.815387,-1776.494261,2528.115143,9252.574275
28670.815715,-1850.514855,229.828649,10140.821405
28670.816044,-592.164754,-1762.019645,9252.574275
28670.816372,-1110.308913,-2221.676944,8364.327145
28670.816700,0.000000,0.000000,8216.285956
28670.817029,1184.329507,2374.896044,9474.636058
28670.817357,1406.391290,3064.381992,10732.986159
28670.817685,814.226536,1685.410096,9622.677246
28670.818014,1628.453072,612.876398,7920.203579
28670.818342,2072.576638,1072.533697,7624.121203
28670.818670,1258.350101,2145.067394,8808.450710
28670.818999,-888.247130,1838.629195,10140.821405
28670.819327,-1406.391290,-766.095498,9696.697840
28670.819655,0.000000,-3600.648841,9252.574275
28670.819984,1406.391290,-1302.362347,9474.636058
28670.820312,1258.350101,2987.772442,9474.636058
28670.820640,2220.617826,3830.477490,8734.430116
28670.820969,2664.741391,1915.238745,10066.800811
28670.821297,1036.288319,153.219100,10214.842000
28670.821625,518.144159,0.000000,7698.141797
28670.821954,296.082377,0.000000,7550.100608
28670.822282,-518.144159,612.876398,8660.409521
28670.822610,-1776.494261,0.000000,10362.883188
28670.822938,-962.267725,-1225.752797,12139.377449
28670.823267,0.000000,-2451.505594,9400.615463
28670.823595,1406.391290,-1072.533697,9178.553681
28670.823923,2368.659014,1991.848295,9696.697840
28670.824252,1184.329507,5362.668486,10140.821405
28670.824580,962.267725,4596.572988,8956.491898
28670.824908,962.267725,-995.924147,7402.059420
28670.825237,148.041188,-2834.553343,7846.182985
28670.825565,-2664.741391,1455.581446,8956.491898
28670.825893,-2738.761985,2374.896044,8068.244768
28670.826222,-2442.679609,-842.705048,8586.388927
28670.826550,-1998.556043,-3447.429741,9548.656652
28670.826878,-1628.453072,-1302.362347,9474.636058
28670.827207,-1628.453072,2145.067394,8438.347739
28670.827535,1110.308913,2451.505594,8660.409521
28670.827863,2812.782580,1378.971896,9474.636058
28670.828192,1258.350101,1302.362347,10140.821405
28670.828520,666.185348,689.485948,9252.574275
28670.828848,1480.411884,-842.705048,9474.636058
28670.829177,296.082377,-153.219100,12287.418637
28670.829505,-1776.494261,-536.266849,11103.089130
28670.829833,-1406.391290,-1915.238745,8734.430116
28670.830161,-888.247130,-2374.896044,9474.636058
28670.830490,-814.226536,76.609550,10436.903782
28670.830818,-444.123565,2145.067394,9252.574275
28670.831146,-2146.597232,1302.362347,8142.265362
28670.831475,-1776.494261,0.000000,8142.265362
28670.831803,-1554.432478,306.438199,8586.388927
28670.832131,-2072.576638,0.000000,9548.656652
28670.832460,-2516.700203,-919.314598,8734.430116
28670.832788,-2516.700203,-2068.457845,9474.636058
28670.833116,0.000000,-1762.019645,9844.739029
28670.833445,1998.556043,1072.533697,9326.594869
28670.833773,3108.864956,2374.896044,9548.656652
28670.834101,2812.782580,3370.820191,9474.636058
28670.834430,3256.906145,2604.724693,8216.285956
28670.834758,3034.844362,2451.505594,8882.471304
28670.835086,1998.556043,2987.772442,9992.780217
28670.835415,444.123565,2298.286494,9178.553681
28670.835743,296.082377,0.000000,8734.430116
28670.836071,296.082377,-2374.896044,9548.656652
28670.836400,-1110.308913,306.438199,9844.739029
28670.836728,0.000000,612.876398,9622.677246
28670.837056,2220.617826,76.609550,9474.636058
28670.837384,1480.411884,1455.581446,11177.109724
28670.837713,-148.041188,3447.429741,10807.006753
28670.838041,888.247130,2451.505594,8216.285956
28670.838369,1258.350101,0.000000,7920.203579
28670.838698,-592.164754,612.876398,7920.203579
28670.839026,-1480.411884,1072.533697,8734.430116
28670.839354,-1184.329507,995.924147,9696.697840
28670.839683,-592.164754,-383.047749,9844.739029
28670.840011,-740.205942,-1225.752797,9844.739029
28670.840339,-1554.432478,383.047749,8882.471304
28670.840668,148.041188,2145.067394,7920.203579
28670.840996,1184.329507,1608.800546,8882.471304
28670.841324,-444.123565,383.047749,9474.636058
28670.841653,-1628.453072,-919.314598,8290.306550
28670.841981,-2146.597232,-766.095498,8882.471304
28670.842309,-1702.473667,-1149.143247,9400.615463
28670.842638,-1850.514855,-1378.971896,9252.574275
28670.842966,-444.123565,-2374.896044,9918.759623
28670.843294,1036.288319,-383.047749,9622.677246
28670.843623,2886.803174,2451.505594,9474.636058
28670.843951,3182.885551,2451.505594,10140.821405
28670.844279,2368.659014,2834.553343,8956.491898
28670.844608,1554.432478,1915.238745,7994.224174
28670.844936,1924.535449,-612.876398,8068.244768
28670.845264,-518.144159,-1685.410096,9178.553681
28670.845592,-2886.803174,-383.047749,10066.800811
28670.845921,-1850.514855,-1608.800546,9770.718434
28670.846249,-1258.350101,-3907.087040,9178.553681
28670.846577,-1258.350101,-2834.553343,10140.821405
28670.846906,0.000000,612.876398,9770.718434
28670.847234,888.247130,3140.991542,8364.327145
28670.847562,2368.659014,2451.505594,8956.491898
28670.847891,1628.453072,1915.238745,9252.574275
28670.848219,518.144159,1685.410096,8142.265362
28670.848547,-1258.350101,842.705048,7328.038826
28670.848876,-1702.473667,0.000000,8438.347739
28670.849204,-1998.556043,-842.705048,10732.986159
28670.849532,-1998.556043,-1608.800546,9622.677246
28670.849861,-1258.350101,-1915.238745,9104.533087
28670.850189,222.061783,-1072.533697,9326.594869
28670.850517,1110.308913,2298.286494,10362.883188
28670.850846,1850.514855,4596.572988,10066.800811
28670.851174,1998.556043,3447.429741,9474.636058
28670.851502,1332.370696,1455.581446,8142.265362
28670.851831,1628.453072,1072.533697,8364.327145
28670.852159,0.000000,1378.971896,9770.718434
28670.852487,-2072.576638,1149.143247,10140.821405
28670.852815,-1924.535449,-995.924147,10436.903782
28670.853144,0.000000,-2528.115143,10584.944971
28670.853472,-296.082377,-306.438199,10214.842000
28670.853800,-888.247130,2451.505594,9400.615463
28670.854129,0.000000,2528.115143,9696.697840
28670.854457,0.000000,1608.800546,8660.409521
28670.854785,-888.247130,153.219100,8290.306550
28670.855114,-1998.556043,-229.828649,8808.450710
28670.855442,-2664.741391,995.924147,9104.533087
28670.855770,-2220.617826,919.314598,9844.739029
28670.856099,-1850.514855,-1685.410096,10288.862594
28670.856427,-1480.411884,-3217.601092,9030.512492
28670.856755,0.000000,-1149.143247,7698.141797
28670.857084,2220.617826,2681.334243,8586.388927
28670.857412,2294.638420,3524.039291,10066.800811
28670.857740,1110.308913,2145.067394,9104.533087
28670.858069,1776.494261,689.485948,8586.388927
28670.858397,2220.617826,536.266849,9474.636058
28670.858725,1924.535449,689.485948,9030.512492
28670.859054,1702.473667,459.657299,9178.553681
28670.859382,1258.350101,0.000000,9622.677246
28670.859710,1702.473667,0.000000,8808.450710
28670.860038,2886.803174,536.266849,9178.553681
28670.860367,2368.659014,2221.676944,9400.615463
28670.860695,1258.350101,3677.258390,8364.327145
28670.861023,1184.329507,1915.238745,8142.265362
28670.861352,-518.144159,229.828649,10658.965565
28670.861680,-2368.659014,-1072.533697,8586.388927
28670.862008,-3775.050304,-1762.019645,8068.244768
28670.862337,-2812.782580,-4060.306139,8956.491898
28670.862665,-3108.864956,-2604.724693,10436.903782
28670.862993,-2368.659014,-459.657299,11325.150913
28670.863322,-1332.370696,-383.047749,10066.800811
28670.863650,1628.453072,-229.828649,9326.594869
28670.863978,2516.700203,2298.286494,10066.800811
28670.864307,1406.391290,6052.154434,10066.800811
28670.864635,1554.432478,3370.820191,7105.977043
28670.864963,1554.432478,-1302.362347,7105.977043
28670.865292,-370.102971,-2068.457845,10066.800811
28670.865620,-1850.514855,766.095498,9474.636058
28670.865948,-1554.432478,383.047749,9030.512492
28670.866277,-1184.329507,-2604.724693,9696.697840
28670.866605,-1110.308913,-2528.115143,9252.574275
28670.866933,-222.061783,0.000000,8438.347739
28670.867261,962.267725,1991.848295,9252.574275
28670.867590,1406.391290,2451.505594,9326.594869
28670.867918,1998.556043,1991.848295,9104.533087
28670.868246,1628.453072,383.047749,9992.780217
28670.868575,-1258.350101,1685.410096,9178.553681
28670.868903,-1628.453072,0.000000,8956.491898
28670.869231,-666.185348,-1915.238745,8660.409521
28670.869560,-1776.494261,-1302.362347,9622.677246
28670.869888,-1332.370696,459.657299,9178.553681
28670.870216,-740.205942,842.705048,9844.739029
28670.870545,0.000000,1072.533697,10658.965565
28670.870873,-1702.473667,1149.143247,10362.883188
28670.871201,-1998.556043,842.705048,9400.615463
28670.871530,-1258.350101,383.047749,8734.430116
28670.871858,-444.123565,76.609550,8808.450710
28670.872186,-1036.288319,1149.143247,9622.677246
28670.872515,-1480.411884,995.924147,8882.471304
28670.872843,-444.123565,-383.047749,9326.594869
28670.873171,1702.473667,0.000000,9474.636058
28670.873500,2442.679609,2374.896044,9770.718434
28670.873828,2886.803174,3753.867940,9252.574275
28670.874156,2590.720797,3600.648841,9326.594869
28670.874484,2886.803174,2834.553343,9548.656652
28670.874813,2072.576638,1302.362347,8734.430116
28670.875141,296.082377,0.000000,8882.471304
28670.875469,-592.164754,0.000000,9104.533087
28670.875798,-1110.308913,0.000000,9844.739029
28670.876126,-518.144159,-612.876398,10807.006753
28670.876454,-1702.473667,-919.314598,10214.842000
28670.876783,-1258.350101,-842.705048,7994.224174
28670.877111,444.123565,1378.971896,7994.224174
28670.877439,518.144159,2221.676944,8808.450710
28670.877768,-814.226536,2374.896044,8808.450710
28670.878096,-740.205942,-229.828649,8364.327145
28670.878424,-1036.288319,-1608.800546,9178.553681
28670.878753,-1850.514855,-1378.971896,9770.718434
28670.879081,-1258.350101,76.609550,9326.594869
28670.879409,0.000000,229.828649,9474.636058
28670.879738,1850.514855,-842.705048,10066.800811
28670.880066,1998.556043,0.000000,9992.780217
28670.880394,3034.844362,2604.724693,10214.842000
28670.880723,2738.761985,2911.162892,9474.636058
28670.881051,2368.659014,1378.971896,8956.491898
28670.881379,1850.514855,229.828649,8364.327145
28670.881708,-444.123565,995.924147,8586.388927
28670.882036,-1628.453072,842.705048,7994.224174
28670.882364,-1776.494261,-1072.533697,8364.327145
28670.882692,-2368.659014,-2451.505594,8586.388927
28670.883021,-2960.823768,-2145.067394,9178.553681
28670.883349,-1480.411884,-612.876398,7994.224174
28670.883677,74.020594,1149.143247,8882.471304
28670.884006,1036.288319,1762.019645,10584.944971
28670.884334,-518.144159,2145.067394,9622.677246
28670.884662,-370.102971,76.609550,8882.471304
28670.884991,1480.411884,-1302.362347,9178.553681
28670.885319,666.185348,536.266849,10066.800811
28670.885647,0.000000,1149.143247,9326.594869
28670.885976,0.000000,306.438199,8808.450710
28670.886304,1036.288319,-842.705048,9548.656652
28670.886632,1998.556043,1072.533697,11029.068536
28670.886961,2590.720797,3064.381992,10214.842000
28670.887289,1850.514855,3447.429741,9474.636058
28670.887617,1258.350101,2528.115143,9474.636058
28670.887946,1480.411884,1072.533697,8660.409521
28670.888274,0.000000,-229.828649,9104.533087
28670.888602,-2664.741391,-306.438199,7698.141797
28670.888931,-2812.782580,-153.219100,9178.553681
28670.889259,-1184.329507,-153.219100,10658.965565
28670.889587,-1332.370696,-536.266849,9696.697840
28670.889915,-1776.494261,-1302.362347,7624.121203
28670.890244,-518.144159,-153.219100,8068.244768
28670.890572,888.247130,3140.991542,10214.842000
28670.890900,2072.576638,5362.668486,10066.800811
28670.891229,1480.411884,1915.238745,8586.388927
28670.891557,0.000000,-1685.410096,7328.038826
28670.891885,-1258.350101,-383.047749,9770.718434
28670.892214,-962.267725,2298.286494,10955.047942
28670.892542,-1628.453072,842.705048,10584.944971
28670.892870,-2294.638420,-2987.772442,8808.450710
28670.893199,-1554.432478,-3907.087040,9030.512492
28670.893527,-1184.329507,995.924147,9474.636058
28670.893855,-1332.370696,3370.820191,10362.883188
28670.894184,-1702.473667,612.876398,10140.821405
28670.894512,-1332.370696,-3217.601092,8512.368333
28670.894840,-1480.411884,-2374.896044,8068.244768
28670.895169,-1776.494261,1225.752797,8808.450710
28670.895497,-1332.370696,1762.019645,8734.430116
28670.895825,-666.185348,229.828649,8438.347739
28670.896154,1110.308913,-1991.848295,10288.862594
28670.896482,1554.432478,-459.657299,9918.759623
28670.896810,3256.906145,1685.410096,8586.388927
28670.897138,5033.400406,2451.505594,10436.903782
28670.897467,4293.194464,1685.410096,10955.047942
28670.897795,2960.823768,1455.581446,10066.800811
28670.898123,4737.318029,-919.314598,9474.636058
28670.898452,2960.823768,-766.095498,10881.027347
28670.898780,-222.061783,-229.828649,10066.800811
28670.899108,-1924.535449,-766.095498,8586.388927
28670.899437,-1924.535449,-1302.362347,9474.636058
28670.899765,-888.247130,-1378.971896,8216.285956
28670.900093,592.164754,-612.876398,7846.182985
28670.900422,-1776.494261,1838.629195,8142.265362
28670.900750,-2294.638420,3370.820191,8364.327145
28670.901078,-1036.288319,1762.019645,7772.162391
28670.901407,-666.185348,-1915.238745,7920.203579
28670.901735,-2368.659014,-1608.800546,7624.121203
28670.902063,-3923.091493,1225.752797,8882.471304
28670.902392,-1924.535449,766.095498,9474.636058
28670.902720,-518.144159,0.000000,9548.656652
28670.903048,222.061783,-1302.362347,9474.636058
28670.903377,1480.411884,1225.752797,8956.491898
28670.903705,3701.029710,5898.935335,10807.006753
28670.904033,3997.112087,6205.373534,12287.418637
28670.904361,2664.741391,3600.648841,10362.883188
28670.904690,1184.329507,0.000000,6735.874072
28670.905018,814.226536,1225.752797,7476.080014
28670.905346,-148.041188,2604.724693,8808.450710
28670.905675,-1184.329507,3064.381992,11177.109724
28670.906003,-1554.432478,306.438199,10288.862594
28670.906331,-888.247130,-2987.772442,9104.533087
28670.906660,222.061783,-995.924147,8290.306550
28670.906988,518.144159,4213.525239,9030.512492
28670.907316,1480.411884,6818.249932,10214.842000
28670.907644,1184.329507,3983.696590,8956.491898
28670.907973,1406.391290,0.000000,8142.265362
28670.908301,-592.164754,-766.095498,8438.347739
28670.908629,-3404.947333,919.314598,8438.347739
28670.908958,-3404.947333,383.047749,9178.553681
28670.909286,-2664.741391,-2068.457845,9918.759623
28670.909614,-2516.700203,-2987.772442,10732.986159
28670.909943,-1628.453072,-2451.505594,9326.594869
28670.910271,74.020594,-1149.143247,8882.471304
28670.910599,444.123565,1378.971896,9918.759623
28670.910927,296.082377,1915.238745,9918.759623
28670.911256,1702.473667,306.438199,10362.883188
28670.911584,2294.638420,-306.438199,9696.697840
28670.911912,2220.617826,0.000000,10214.842000
28670.912241,1258.350101,229.828649,10510.924376
28670.912569,444.123565,0.000000,10066.800811
28670.912897,2146.597232,-536.266849,8882.471304
28670.913226,4071.132681,-1532.190996,8956.491898
28670.913554,3182.885551,612.876398,9474.636058
28670.913882,1036.288319,3677.258390,10288.862594
28670.914210,592.164754,2911.162892,10288.862594
28670.914539,592.164754,-459.657299,9622.677246
28670.914867,-1184.329507,-3294.210641,8512.368333
28670.915195,-3182.885551,-2374.896044,7920.203579
28670.915524,-4071.132681,842.705048,8512.368333
28670.915852,-3627.009116,-842.705048,8882.471304
28670.916180,-3552.988522,-2681.334243,9918.759623
28670.916508,-3923.091493,-3370.820191,9104.533087
28670.916837,-1776.494261,536.266849,8660.409521
28670.917165,0.000000,1991.848295,8956.491898
28670.917493,-666.185348,1838.629195,9992.780217
28670.917822,-1850.514855,919.314598,8882.471304
28670.918150,-1332.370696,0.000000,6143.709319
28670.918478,-666.185348,-383.047749,6957.935855
28670.918807,-518.144159,-459.657299,8364.327145
28670.919135,-518.144159,1149.143247,9770.718434
28670.919463,296.082377,1532.190996,9918.759623
28670.919791,2590.720797,153.219100,9400.615463
28670.920120,4071.132681,689.485948,10436.903782
28670.920448,2812.782580,4596.572988,9548.656652
28670.920776,3182.885551,4519.963438,7846.182985
28670.921105,3182.885551,1225.752797,7624.121203
28670.921433,1110.308913,-919.314598,10140.821405
28670.921761,-1406.391290,536.266849,9918.759623
28670.922090,-1702.473667,153.219100,8882.471304
28670.922418,-1850.514855,-1762.019645,8882.471304
28670.922746,-2960.823768,-2681.334243,8734.430116
28670.923074,-2072.576638,-306.438199,9770.718434
28670.923403,370.102971,1915.238745,8290.306550
28670.923731,592.164754,1762.019645,8956.491898
28670.924059,1110.308913,-689.485948,8586.388927
28670.924388,1998.556043,383.047749,9104.533087
28670.924716,370.102971,3217.601092,10362.883188
28670.925044,296.082377,1532.190996,10362.883188
28670.925373,74.020594,-2298.286494,9326.594869
28670.925701,-444.123565,-3830.477490,10288.862594
28670.926029,-222.061783,-995.924147,10362.883188
28670.926357,962.267725,306.438199,9252.574275
28670.926686,2072.576638,383.047749,10807.006753
28670.927014,2960.823768,1378.971896,10732.986159
28670.927342,1702.473667,3983.696590,10955.047942
28670.927671,2590.720797,2604.724693,10584.944971
28670.927999,2072.576638,995.924147,8660.409521
28670.928327,74.020594,1072.533697,9178.553681
28670.928656,-1332.370696,1302.362347,8364.327145
28670.928984,-1332.370696,0.000000,7846.182985
28670.929312,-962.267725,-1608.800546,9104.533087
28670.929640,-2294.638420,-995.924147,9696.697840
28670.929969,-1628.453072,1685.410096,9696.697840
28670.930297,-666.185348,2834.553343,10436.903782
28670.930625,1036.288319,2604.724693,8808.450710
28670.930954,888.247130,1225.752797,8438.347739
28670.931282,-666.185348,1532.190996,7920.203579
28670.931610,-592.164754,2757.943793,7105.977043
28670.931939,0.000000,1915.238745,8956.491898
28670.932267,-1110.308913,1302.362347,10955.047942
28670.932595,-2516.700203,842.705048,10362.883188
28670.932923,-3330.926739,536.266849,9178.553681
28670.933252,-222.061783,0.000000,8586.388927
28670.933580,888.247130,2451.505594,9030.512492
28670.933908,-666.185348,5515.887586,10584.944971
28670.934237,-148.041188,3370.820191,8068.244768
28670.934565,-814.226536,919.314598,7920.203579
28670.934893,-1924.535449,-1072.533697,9548.656652
28670.935222,-2738.761985,0.000000,8660.409521
28670.935550,-1924.535449,1455.581446,7402.059420
28670.935878,444.123565,306.438199,7920.203579
28670.936206,2590.720797,0.000000,8660.409521
28670.936535,3108.864956,919.314598,9326.594869
28670.936863,3182.885551,3524.039291,9252.574275
28670.937191,4737.318029,3294.210641,10066.800811
28670.937520,4293.194464,1685.410096,10807.006753
28670.937848,3256.906145,919.314598,10436.903782
28670.938176,1776.494261,-229.828649,9918.759623
28670.938505,-370.102971,-1762.019645,9178.553681
28670.938833,-1850.514855,-3600.648841,8660.409521
28670.939161,-3256.906145,-2911.162892,10436.903782
28670.939489,-3182.885551,-2834.553343,9030.512492
28670.939818,-1850.514855,-2757.943793,8808.450710
28670.940146,-1036.288319,-3447.429741,9474.636058
28670.940474,-2664.741391,-612.876398,10362.883188
28670.940803,-2442.679609,1225.752797,8586.388927
28670.941131,-148.041188,-1378.971896,9696.697840
28670.941459,-740.205942,-3524.039291,9030.512492
28670.941788,-2294.638420,-3524.039291,8364.327145
28670.942116,-1702.473667,-2068.457845,9178.553681
28670.942444,0.000000,-1455.581446,10140.821405
28670.942772,1406.391290,-1991.848295,10584.944971
28670.943101,3330.926739,-1762.019645,11103.089130
28670.943429,4663.297435,1149.143247,10881.027347
28670.943757,4515.256246,5286.058936,9548.656652
28670.944086,4737.318029,3064.381992,9252.574275
28670.944414,3256.906145,842.705048,9474.636058
28670.944742,888.247130,383.047749,8734.430116
28670.945070,-370.102971,995.924147,9548.656652
28670.945399,-1702.473667,0.000000,10214.842000
28670.945727,-3701.029710,-1838.629195,9252.574275
28670.946055,-4219.173869,-3447.429741,8068.244768
28670.946384,-4219.173869,-1838.629195,8882.471304
28670.946712,-2294.638420,1532.190996,9252.574275
28670.947040,-962.267725,2987.772442,10140.821405
28670.947369,-1554.432478,1685.410096,9696.697840
28670.947697,-1628.453072,1302.362347,7624.121203
28670.948025,0.000000,1455.581446,7624.121203
28670.948353,-296.082377,2528.115143,9474.636058
28670.948682,-444.123565,3370.820191,9622.677246
28670.949010,370.102971,1072.533697,9326.594869
28670.949338,1258.350101,-612.876398,9474.636058
28670.949667,1702.473667,689.485948,9030.512492
28670.949995,2368.659014,4136.915689,8734.430116
28670.950323,4219.173869,4749.792088,9918.759623
28670.950652,4737.318029,4979.620737,9548.656652
28670.950980,4367.215058,3753.867940,9252.574275
28670.951308,2886.803174,3064.381992,9252.574275
28670.951636,1480.411884,2451.505594,7846.182985
28670.951965,74.020594,1455.581446,7476.080014
28670.952293,148.041188,76.609550,9252.574275
28670.952621,-888.247130,0.000000,10658.965565
28670.952950,-814.226536,383.047749,8438.347739
28670.953278,296.082377,-842.705048,7698.141797
28670.953606,0.000000,459.657299,8364.327145
28670.953935,-1184.329507,2757.943793,9474.636058
28670.954263,-592.164754,2451.505594,8956.491898
28670.954591,1036.288319,-1455.581446,7624.121203
28670.954919,-1110.308913,-3217.601092,8068.244768
28670.955248,-2960.823768,-1302.362347,8882.471304
28670.955576,-3330.926739,0.000000,9400.615463
28670.955904,-1554.432478,-3064.381992,9474.636058
28670.956233,-666.185348,-5286.058936,11695.253884
28670.956561,-1554.432478,-3217.601092,12139.377449
28670.956889,-518.144159,1302.362347,10658.965565
28670.957218,1480.411884,1991.848295,10658.965565
28670.957546,518.144159,-1455.581446,10732.986159
28670.957874,-1110.308913,-2145.067394,9178.553681
28670.958202,-962.267725,-1149.143247,8364.327145
28670.958531,-1850.514855,0.000000,9326.594869
28670.958859,-3182.885551,-919.314598,10066.800811
28670.959187,-3775.050304,-2451.505594,9548.656652
28670.959516,-3330.926739,-2145.067394,9030.512492
28670.959844,-518.144159,-1072.533697,7994.224174
28670.960172,1776.494261,842.705048,9548.656652
28670.960501,1110.308913,2451.505594,9992.780217
28670.960829,888.247130,2911.162892,8512.368333
28670.961157,2220.617826,1225.752797,8438.347739
28670.961485,1258.350101,689.485948,9030.512492
28670.961814,666.185348,1838.629195,8216.285956
28670.962142,1036.288319,2221.676944,8216.285956
28670.962470,1036.288319,612.876398,8660.409521
28670.962799,1406.391290,-306.438199,9548.656652
28670.963127,1998.556043,1302.362347,11177.109724
28670.963455,1406.391290,3753.867940,12213.398043
28670.963784,2294.638420,4596.572988,9326.594869
28670.964112,2886.803174,3370.820191,8660.409521
28670.964440,1702.473667,3753.867940,10140.821405
28670.964768,-1406.391290,3830.477490,9474.636058
28670.965097,-2886.803174,1302.362347,8142.265362
28670.965425,-3330.926739,-2068.457845,10362.883188
28670.965753,-4515.256246,-2451.505594,10807.006753
28670.966082,-4145.153275,-919.314598,8882.471304
28670.966410,-814.226536,76.609550,8734.430116
28670.966738,2590.720797,1455.581446,9918.759623
28670.967067,3256.906145,4673.182538,11325.150913
28670.967395,5551.544565,5669.106685,10362.883188
28670.967723,7624.121203,5056.230287,7328.038826
28670.968051,7772.162391,3524.039291,6735.874072
28670.968380,5773.606348,5669.106685,8808.450710
28670.968708,2368.659014,6435.202183,9104.533087
28670.969036,1332.370696,3217.601092,10955.047942
28670.969365,888.247130,-1685.410096,9770.718434
28670.969693,-962.267725,-4060.306139,8216.285956
28670.970021,-2368.659014,-1838.629195,7105.977043
28670.970349,-2368.659014,2451.505594,9474.636058
28670.970678,-2368.659014,2681.334243,11103.089130
28670.971006,-3478.967927,-1915.238745,10362.883188
28670.971334,-4515.256246,-4903.011187,8142.265362
28670.971663,-5773.606348,-3294.210641,7105.977043
28670.971991,-5329.482782,383.047749,7105.977043
28670.972319,-2072.576638,-536.266849,8216.285956
28670.972648,-1776.494261,-2681.334243,9400.615463
28670.972976,-1480.411884,-2987.772442,9844.739029
28670.973304,148.041188,-1302.362347,8660.409521
28670.973632,2368.659014,995.924147,9474.636058
28670.973961,962.267725,1378.971896,10732.986159
28670.974289,1110.308913,-153.219100,9844.739029
28670.974617,3034.844362,-2451.505594,10214.842000
28670.974946,3256.906145,-1225.752797,10214.842000
28670.975274,1406.391290,1378.971896,10510.924376
28670.975602,-296.082377,459.657299,9104.533087
28670.975931,0.000000,-1685.410096,7624.121203
28670.976259,962.267725,-2298.286494,8290.306550
28670.976587,0.000000,-383.047749,9474.636058
28670.976915,-2072.576638,1608.800546,8956.491898
28670.977244,-2220.617826,612.876398,8734.430116
28670.977572,-2516.700203,-1762.019645,9474.636058
28670.977900,-3552.988522,-3294.210641,9178.553681
28670.978229,-4293.194464,-3983.696590,8290.306550
28670.978557,-4811.338623,-3064.381992,9844.739029
28670.978885,-3775.050304,-2068.457845,10881.027347
28670.979214,-2368.659014,-1838.629195,11843.295072
28670.979542,-1332.370696,-919.314598,10658.965565
28670.979870,2812.782580,459.657299,8068.244768
28670.980198,4663.297435,3447.429741,8142.265362
28670.980527,5033.400406,3983.696590,9844.739029
28670.980855,3775.050304,5132.839837,9622.677246
28670.981183,3701.029710,3064.381992,9548.656652
28670.981512,3849.070898,383.047749,9474.636058
28670.981840,1924.535449,-1072.533697,8586.388927
28670.982168,-518.144159,-229.828649,9326.594869
28670.982497,-370.102971,1149.143247,9992.780217
28670.982825,1184.329507,689.485948,10066.800811
28670.983153,1628.453072,-995.924147,9400.615463
28670.983481,1406.391290,0.000000,8956.491898
28670.983810,1184.329507,4213.525239,8438.347739
28670.984138,1406.391290,5439.278036,9252.574275
28670.984466,814.226536,1608.800546,10732.986159
28670.984795,-1554.432478,-536.266849,8734.430116
28670.985123,-2960.823768,-612.876398,8660.409521
28670.985451,-2664.741391,-459.657299,9252.574275
28670.985780,-4145.153275,-766.095498,9326.594869
28670.986108,-4663.297435,-2451.505594,8660.409521
28670.986436,-2590.720797,-2374.896044,9252.574275
28670.986764,-1184.329507,76.609550,8734.430116
28670.987093,-666.185348,1991.848295,8808.450710
28670.987421,-444.123565,2221.676944,10214.842000
28670.987749,-1406.391290,1915.238745,9696.697840
28670.988078,-592.164754,459.657299,8216.285956
28670.988406,296.082377,-1685.410096,8068.244768
28670.988734,-1554.432478,-1072.533697,8956.491898
28670.989063,-1332.370696,0.000000,9252.574275
28670.989391,0.000000,-536.266849,10362.883188
28670.989719,-148.041188,-1149.143247,9992.780217
28670.990047,-1554.432478,76.609550,8956.491898
28670.990376,0.000000,1378.971896,7920.203579
28670.990704,2072.576638,2068.457845,8290.306550
28670.991032,592.164754,1608.800546,9030.512492
28670.991361,-3034.844362,-306.438199,9400.615463
28670.991689,-4441.235652,-2528.115143,7402.059420
28670.992017,-2738.761985,-3294.210641,8364.327145
28670.992346,-2960.823768,-3064.381992,10510.924376
28670.992674,-4737.318029,-3447.429741,9252.574275
28670.993002,-4589.276840,-2987.772442,8586.388927
28670.993330,-1332.370696,-3447.429741,8142.265362
28670.993659,-518.144159,-1532.190996,7846.182985
28670.993987,-888.247130,229.828649,8808.450710
28670.994315,0.000000,1455.581446,9770.718434
28670.994644,370.102971,842.705048,9696.697840
28670.994972,-1628.453072,-2757.943793,9696.697840
28670.995300,-3404.947333,-6358.592633,8660.409521
28670.995628,-4959.379811,-4826.401637,9844.739029
28670.995957,-4515.256246,-2145.067394,11547.212695
28670.996285,-3552.988522,-3600.648841,11769.274478
28670.996613,-5329.482782,-6588.421283,11991.336260
28670.996942,-6365.771101,-5745.716235,9992.780217
28670.997270,-3034.844362,-2451.505594,9326.594869
28670.997598,-814.226536,0.000000,11029.068536
28670.997927,-296.082377,1149.143247,10732.986159
28670.998255,222.061783,766.095498,8808.450710
28670.998583,0.000000,229.828649,7476.080014
28670.998911,-1184.329507,306.438199,7328.038826
28670.999240,-2294.638420,-2068.457845,7105.977043
28670.999568,-3182.885551,-3064.381992,8512.368333
28670.999896,-2442.679609,-2221.676944,9104.533087
28671.000225,-370.102971,-1378.971896,9992.780217
28671.000553,-370.102971,-1762.019645,9770.718434
28671.000881,-1258.350101,-1225.752797,9178.553681
28671.001210,-814.226536,0.000000,9548.656652
28671.001538,888.247130,842.705048,10214.842000
28671.001866,1332.370696,1532.190996,10807.006753
28671.002194,-370.102971,1532.190996,9548.656652
28671.002523,-1924.535449,919.314598,7402.059420
28671.002851,-2960.823768,-459.657299,5847.626942
28671.003179,-3849.070898,-1838.629195,8660.409521
28671.003508,-6439.791695,-1455.581446,10140.821405
28671.003836,-7476.080014,-4673.182538,9030.512492
28671.004164,-7031.956449,-7660.954980,9696.697840
28671.004493,-6735.874072,-6665.030833,12213.398043
28671.004821,-6069.688724,-2834.553343,12731.542202
28671.005149,-1924.535449,-2374.896044,11103.089130
28671.005477,1628.453072,-2911.162892,10584.944971
28671.005806,2590.720797,76.609550,10807.006753
28671.006134,2368.659014,4673.182538,8586.388927
28671.006462,4293.194464,4596.572988,5329.482782
28671.006791,4071.132681,2068.457845,3849.070898
28671.007119,2072.576638,2068.457845,4885.359217
28671.007447,1184.329507,2757.943793,6883.915261
28671.007776,-148.041188,2221.676944,8142.265362
28671.008104,-1332.370696,-3370.820191,8956.491898
28671.008432,-3849.070898,-7048.078582,12139.377449
28671.008761,-6439.791695,-6435.202183,13767.830521
28671.009089,-6587.832884,-6052.154434,12361.439231
28671.009417,-5625.565159,-8656.879127,11621.233289
28671.009745,-5995.668130,-9116.536426,11177.109724
28671.010074,-6069.688724,-3753.867940,10288.862594
28671.010402,-3775.050304,1532.190996,8660.409521
28671.010730,-1184.329507,1685.410096,7105.977043
28671.011059,-1258.350101,612.876398,6809.894666
28671.011387,-1776.494261,1762.019645,7920.203579
28671.011715,-1702.473667,3447.429741,7328.038826
28671.012044,-2812.782580,1608.800546,6143.709319
28671.012372,-4441.235652,-4596.572988,7254.018232
28671.012700,-6957.935855,-7048.078582,9252.574275
28671.013029,-6883.915261,-6358.592633,10881.027347
28671.013357,-4811.338623,-6128.763984,12805.562797
28671.013685,-3330.926739,-7737.564530,12731.542202
28671.014013,-1406.391290,-7048.078582,11177.109724
28671.014342,3478.967927,-2451.505594,11029.068536
28671.014670,7476.080014,3064.381992,11399.171507
28671.014998,7994.224174,5439.278036,10510.924376
28671.015327,7920.203579,4596.572988,9400.615463
28671.015655,7550.100608,4290.134789,8364.327145
28671.015983,5551.544565,5592.497135,7920.203579
28671.016312,1924.535449,4749.792088,8290.306550
28671.016640,-2220.617826,459.657299,9696.697840
28671.016968,-7476.080014,-3677.258390,9474.636058
28671.017296,-10584.944971,-5362.668486,9548.656652
28671.017625,-13027.624579,-7354.516781,8734.430116
28671.017953,-15100.201217,-8580.269578,7476.080014
28671.018281,-15026.180623,-8197.221829,7328.038826
28671.018610,-11547.212695,-6205.373534,7624.121203
28671.018938,-8290.306550,-3753.867940,8512.368333
28671.019266,-5477.523971,-1915.238745,9178.553681
28671.019595,-2072.576638,-1072.533697,8438.347739
28671.019923,1924.535449,76.609550,8438.347739
28671.020251,5477.523971,2221.676944,10436.903782
28671.020580,7031.956449,3753.867940,11325.150913
28671.020908,7476.080014,3524.039291,10807.006753
28671.021236,7105.977043,1915.238745,10288.862594
28671.021564,6735.874072,2298.286494,11547.212695
28671.021893,3849.070898,2298.286494,11917.315666
28671.022221,296.082377,1149.143247,10732.986159
28671.022549,-2220.617826,-2298.286494,8956.491898
28671.022878,-4071.132681,-4903.011187,9104.533087
28671.023206,-5995.668130,-4749.792088,9030.512492
28671.023534,-8290.306550,-3753.867940,8290.306550
28671.023863,-8956.491898,-4136.915689,7105.977043
28671.024191,-7624.121203,-5515.887586,7698.141797
28671.024519,-6661.853478,-4979.620737,8734.430116
28671.024848,-5551.544565,-2911.162892,8956.491898
28671.025176,-3849.070898,-2298.286494,8438.347739
28671.025504,-1480.411884,-2451.505594,9400.615463
28671.025832,148.041188,-1762.019645,9992.780217
28671.026161,1332.370696,0.000000,9474.636058
28671.026489,3034.844362,459.657299,8956.491898
28671.026817,3775.050304,919.314598,8956.491898
28671.027146,3478.967927,1455.581446,8882.471304
28671.027474,3108.864956,2298.286494,8956.491898
28671.027802,2146.597232,2451.505594,8364.327145
28671.028131,740.205942,459.657299,7254.018232
28671.028459,-1332.370696,-1378.971896,8290.306550
28671.028787,-4293.194464,-1532.190996,9178.553681
28671.029116,-6143.709319,-2528.115143,9252.574275
28671.029444,-7328.038826,-4903.011187,9104.533087
28671.029772,-7698.141797,-6665.030833,9844.739029
28671.030100,-8438.347739,-5132.839837,9474.636058
28671.030429,-7624.121203,-4366.744339,9548.656652
28671.030757,-5995.668130,-3447.429741,9400.615463
28671.031085,-4959.379811,-2528.115143,9474.636058
28671.031414,-2738.761985,-919.314598,10066.800811
28671.031742,-1406.391290,1149.143247,10436.903782
28671.032070,-518.144159,1608.800546,9474.636058
28671.032399,0.000000,-153.219100,9178.553681
28671.032727,-666.185348,-1991.848295,9622.677246
28671.033055,-1554.432478,-1149.143247,10140.821405
28671.033383,-1110.308913,-1302.362347,11325.150913
28671.033712,-814.226536,-2374.896044,11621.233289
28671.034040,-666.185348,-3753.867940,10214.842000
28671.034368,-888.247130,-3753.867940,9474.636058
28671.034697,-148.041188,-1685.410096,9696.697840
28671.035025,888.247130,612.876398,9400.615463
28671.035353,888.247130,-153.219100,9400.615463
28671.035682,962.267725,0.000000,8586.388927
28671.036010,2146.597232,1455.581446,8438.347739
28671.036338,2072.576638,2451.505594,7920.203579
28671.036667,1332.370696,1378.971896,7698.141797
28671.036995,-296.082377,-536.266849,7402.059420
28671.037323,-296.082377,-612.876398,7624.121203
28671.037651,-222.061783,-995.924147,8882.471304
28671.037980,-2146.597232,-1532.190996,9474.636058
28671.038308,-3701.029710,-2987.772442,9474.636058
28671.038636,-2664.741391,-3447.429741,9696.697840
28671.038965,-1702.473667,-2451.505594,11103.089130
28671.039293,-1554.432478,-842.705048,10955.047942
28671.039621,-1110.308913,-766.095498,9918.759623
28671.039950,74.020594,-842.705048,10436.903782
28671.040278,666.185348,689.485948,9992.780217
28671.040606,0.000000,2068.457845,9548.656652
28671.040935,-1332.370696,1915.238745,8956.491898
28671.041263,-2960.823768,995.924147,7846.182985
28671.041591,-3775.050304,-612.876398,7698.141797
28671.041919,-5477.523971,-1685.410096,8882.471304
28671.042248,-8290.306550,-2604.724693,8290.306550
28671.042576,-9474.636058,-4749.792088,8068.244768
28671.042904,-9178.553681,-6281.983084,9252.574275
28671.043233,-8660.409521,-5669.106685,9770.718434
28671.043561,-8808.450710,-4826.401637,9252.574275
28671.043889,-7402.059420,-3983.696590,8290.306550
28671.044218,-5477.523971,-3907.087040,7846.182985
28671.044546,-3849.070898,-2987.772442,8586.388927
28671.044874,-3849.070898,-1302.362347,8808.450710
28671.045203,-3775.050304,-1532.190996,7846.182985
28671.045531,-2516.700203,-3370.820191,8068.244768
28671.045859,-2516.700203,-3983.696590,8660.409521
28671.046187,-2960.823768,-3524.039291,9992.780217
28671.046516,-3108.864956,-4749.792088,9400.615463
