#time,accel_x,accel_y,accel_z
87339.444871,-444.123565,306.438199,8882.471304
87339.445200,-148.041188,459.657299,8808.450710
87339.445530,518.144159,919.314598,8586.388927
87339.445859,814.226536,995.924147,8956.491898
87339.446189,-370.102971,612.876398,8808.450710
87339.446518,-962.267725,229.828649,7772.162391
87339.446847,74.020594,0.000000,8956.491898
87339.447177,-370.102971,-536.266849,9474.636058
87339.447506,-1554.432478,229.828649,8882.471304
87339.447835,-1480.411884,-612.876398,8734.430116
87339.448165,-888.247130,0.000000,9400.615463
87339.448494,-222.061783,229.828649,9474.636058
87339.448823,-740.205942,306.438199,9400.615463
87339.449153,-148.041188,842.705048,9178.553681
87339.449482,1036.288319,1149.143247,8734.430116
87339.449811,2368.659014,306.438199,9696.697840
87339.450141,1184.329507,842.705048,9622.677246
87339.450470,518.144159,1225.752797,8660.409521
87339.450799,1332.370696,1072.533697,9400.615463
87339.451129,1110.308913,919.314598,9474.636058
87339.451458,222.061783,459.657299,9326.594869
87339.451788,-296.082377,229.828649,8808.450710
87339.452117,0.000000,612.876398,8956.491898
87339.452446,74.020594,766.095498,9252.574275
87339.452776,148.041188,459.657299,9844.739029
87339.453105,222.061783,1072.533697,9622.677246
87339.453434,444.123565,1685.410096,8734.430116
87339.453764,1110.308913,1302.362347,9474.636058
87339.454093,666.185348,1685.410096,10362.883188
87339.454422,-518.144159,1532.190996,9252.574275
87339.454752,444.123565,1455.581446,9622.677246
87339.455081,1184.329507,919.314598,9992.780217
87339.455410,592.164754,536.266849,9844.739029
87339.455740,962.267725,1149.143247,9548.656652
87339.456069,1332.370696,2145.067394,9548.656652
87339.456398,2146.597232,2145.067394,9696.697840
87339.456728,2368.659014,1915.238745,9844.739029
87339.457057,2516.700203,2834.553343,10214.842000
87339.457386,2886.803174,3370.820191,9178.553681
87339.457716,4367.215058,3294.210641,9474.636058
87339.458045,4367.215058,2911.162892,10288.862594
87339.458375,2812.782580,3217.601092,8808.450710
87339.458704,3182.885551,4519.963438,8364.327145
87339.459033,4071.132681,3447.429741,9252.574275
87339.459363,2812.782580,3064.381992,8734.430116
87339.459692,1850.514855,3907.087040,8438.347739
87339.460021,2294.638420,3830.477490,8586.388927
87339.460351,2442.679609,3907.087040,8142.265362
87339.460680,2294.638420,3447.429741,8660.409521
87339.461009,2442.679609,3600.648841,8882.471304
87339.461339,2368.659014,4213.525239,8290.306550
87339.461668,3627.009116,4519.963438,8956.491898
87339.461997,4367.215058,4136.915689,9844.739029
87339.462327,3182.885551,4366.744339,9474.636058
87339.462656,2664.741391,4979.620737,8660.409521
87339.462985,4441.235652,3830.477490,10288.862594
87339.463315,3627.009116,3447.429741,9474.636058
87339.463644,2516.700203,4290.134789,9104.533087
87339.463973,2960.823768,4290.134789,8808.450710
87339.464303,3404.947333,4519.963438,8956.491898
87339.464632,2886.803174,4290.134789,8364.327145
87339.464962,2738.761985,4136.915689,8216.285956
87339.465291,2442.679609,5439.278036,7254.018232
87339.465620,2294.638420,4903.011187,7402.059420
87339.465950,2220.617826,3907.087040,8438.347739
87339.466279,0.000000,2528.115143,8216.285956
87339.466608,-2072.576638,2374.896044,7550.100608
87339.466938,-1628.453072,1302.362347,8216.285956
87339.467267,-2072.576638,459.657299,9178.553681
87339.467596,-3256.906145,383.047749,8586.388927
87339.467926,-3182.885551,-306.438199,8364.327145
87339.468255,-2220.617826,76.609550,9252.574275
87339.468584,-1332.370696,383.047749,9622.677246
87339.468914,-592.164754,153.219100,9918.759623
87339.469243,-444.123565,383.047749,9992.780217
87339.469572,222.061783,229.828649,10288.862594
87339.469902,1258.350101,76.609550,11769.274478
87339.470231,1406.391290,-1225.752797,12361.439231
87339.470560,1036.288319,-1378.971896,12287.418637
87339.470890,1628.453072,-1915.238745,11917.315666
87339.471219,2368.659014,-1991.848295,11399.171507
87339.471549,2886.803174,-995.924147,10362.883188
87339.471878,3849.070898,0.000000,9104.533087
87339.472207,5625.565159,2374.896044,8438.347739
87339.472537,7846.182985,3983.696590,7772.162391
87339.472866,8586.388927,4903.011187,8068.244768
87339.473195,8586.388927,5898.935335,8068.244768
87339.473525,8734.430116,5286.058936,8068.244768
87339.473854,8364.327145,4136.915689,9548.656652
87339.474183,6809.894666,2911.162892,11473.192101
87339.474513,3849.070898,689.485948,11843.295072
87339.474842,1702.473667,536.266849,11621.233289
87339.475171,888.247130,-1532.190996,12583.501014
87339.475501,-1776.494261,-995.924147,11621.233289
87339.475830,-2220.617826,-306.438199,9178.553681
87339.476159,-222.061783,2068.457845,7402.059420
87339.476489,2294.638420,5439.278036,6069.688724
87339.476818,2664.741391,7507.735880,4589.276840
87339.477147,3404.947333,9499.584175,3923.091493
87339.477477,3478.967927,10035.851024,3923.091493
87339.477806,3849.070898,9422.974625,5921.647536
87339.478136,1628.453072,7660.954980,8808.450710
87339.478465,-1480.411884,4826.401637,9104.533087
87339.478794,-3552.988522,1149.143247,10288.862594
87339.479124,-3034.844362,-1915.238745,12509.480420
87339.479453,-3330.926739,-1225.752797,13989.892304
87339.479782,-2590.720797,766.095498,14359.995275
87339.480112,518.144159,2068.457845,15026.180623
87339.480441,3552.988522,3294.210641,13767.830521
87339.480770,5255.462188,5362.668486,10807.006753
87339.481100,5921.647536,7354.516781,7402.059420
87339.481429,6365.771101,8273.831378,4959.379811
87339.481758,7624.121203,8656.879127,4441.235652
87339.482088,7698.141797,9499.584175,5773.606348
87339.482417,4811.338623,9422.974625,5625.565159
87339.482746,2812.782580,7354.516781,4959.379811
87339.483076,1702.473667,3907.087040,5403.503377
87339.483405,-1184.329507,1532.190996,6291.750507
87339.483734,-4441.235652,919.314598,6735.874072
87339.484064,-5181.441594,-229.828649,7550.100608
87339.484393,-4737.318029,-2374.896044,9326.594869
87339.484723,-4219.173869,-3294.210641,10584.944971
87339.485052,-3034.844362,-2374.896044,11621.233289
87339.485381,-740.205942,-1149.143247,11843.295072
87339.485711,2442.679609,-1072.533697,12213.398043
87339.486040,4441.235652,-919.314598,14211.954086
87339.486369,4737.318029,-383.047749,12879.583391
87339.486699,6143.709319,229.828649,10658.965565
87339.487028,8142.265362,1302.362347,10510.924376
87339.487357,8882.471304,2681.334243,9770.718434
87339.487687,8364.327145,4826.401637,7698.141797
87339.488016,7846.182985,5209.449386,6439.791695
87339.488345,6513.812290,3907.087040,5255.462188
87339.488675,4959.379811,2681.334243,5181.441594
87339.489004,3256.906145,3217.601092,8068.244768
87339.489333,2368.659014,3907.087040,9548.656652
87339.489663,962.267725,2374.896044,10362.883188
87339.489992,-962.267725,-1762.019645,11547.212695
87339.490321,-3182.885551,-3370.820191,11917.315666
87339.490651,-5477.523971,-3294.210641,12657.521608
87339.490980,-4071.132681,-3983.696590,13249.686362
87339.491310,-1998.556043,-3983.696590,13027.624579
87339.491639,-1184.329507,-1149.143247,12213.398043
87339.491968,1480.411884,2451.505594,10362.883188
87339.492298,3997.112087,5286.058936,6883.915261
87339.492627,5699.585753,6358.592633,3627.009116
87339.492956,7920.203579,8273.831378,3404.947333
87339.493286,9548.656652,12027.699319,4663.297435
87339.493615,9548.656652,13559.890315,4959.379811
87339.493944,7328.038826,11338.213370,7105.977043
87339.494274,2664.741391,7277.907231,9844.739029
87339.494603,-2886.803174,2068.457845,10732.986159
87339.494932,-6661.853478,-1762.019645,11473.192101
87339.495262,-7476.080014,-4290.134789,14656.077652
87339.495591,-9844.739029,-4749.792088,16728.654289
87339.495920,-9622.677246,-4443.353888,15914.427753
87339.496250,-5551.544565,-3753.867940,13915.871710
87339.496579,-592.164754,-995.924147,11325.150913
87339.496908,3775.050304,5669.106685,8290.306550
87339.497238,9178.553681,10648.727422,5921.647536
87339.497567,14211.954086,14709.033562,4071.132681
87339.497897,13989.892304,15321.909960,2960.823768
87339.498226,10732.986159,12104.308868,2812.782580
87339.498555,7550.100608,9193.145976,3701.029710
87339.498885,5477.523971,6665.030833,7254.018232
87339.499214,1036.288319,4060.306139,11843.295072
87339.499543,-3923.091493,-919.314598,10658.965565
87339.499873,-5699.585753,-6205.373534,10436.903782
87339.500202,-6217.729913,-7507.735880,11695.253884
87339.500531,-4515.256246,-4213.525239,11695.253884
87339.500860,-1554.432478,919.314598,12435.459826
87339.501189,1554.432478,2604.724693,11473.192101
87339.501519,3404.947333,1685.410096,8660.409521
87339.501848,4737.318029,2834.553343,6883.915261
87339.502177,6439.791695,4826.401637,7105.977043
87339.502506,7402.059420,5975.544884,6809.894666
87339.502835,7846.182985,5286.058936,8586.388927
87339.503165,9104.533087,2987.772442,7994.224174
87339.503494,8734.430116,3600.648841,9918.759623
87339.503823,6883.915261,5439.278036,9474.636058
87339.504152,4441.235652,3294.210641,9178.553681
87339.504481,962.267725,0.000000,7254.018232
87339.504810,-222.061783,-2757.943793,8660.409521
87339.505140,-2516.700203,-1302.362347,10140.821405
87339.505469,-4515.256246,0.000000,10288.862594
87339.505798,-5403.503377,-2757.943793,9400.615463
87339.506127,-3627.009116,-5898.935335,8290.306550
87339.506456,-2368.659014,-2145.067394,9918.759623
87339.506786,-1332.370696,2451.505594,12287.418637
87339.507115,296.082377,2681.334243,11029.068536
87339.507444,1406.391290,-689.485948,8290.306550
87339.507773,888.247130,-1762.019645,7476.080014
87339.508102,1036.288319,2451.505594,7328.038826
87339.508431,1924.535449,6205.373534,8808.450710
87339.508761,3034.844362,2757.943793,8364.327145
87339.509090,2590.720797,-1149.143247,8956.491898
87339.509419,888.247130,612.876398,9918.759623
87339.509748,1332.370696,3370.820191,9400.615463
87339.510077,222.061783,4213.525239,11473.192101
87339.510406,-1110.308913,-1378.971896,11325.150913
87339.510736,-4219.173869,-3600.648841,9770.718434
87339.511065,-4959.379811,-1991.848295,10584.944971
87339.511394,-4293.194464,-995.924147,11251.130318
87339.511723,-4515.256246,-383.047749,9918.759623
87339.512052,-2368.659014,-2221.676944,8808.450710
87339.512382,-1554.432478,0.000000,8808.450710
87339.512711,-1702.473667,3677.258390,7328.038826
87339.513040,-1332.370696,4213.525239,8660.409521
87339.513369,148.041188,1149.143247,6513.812290
87339.513698,74.020594,0.000000,7328.038826
87339.514027,-814.226536,2068.457845,9918.759623
87339.514357,-1184.329507,3217.601092,9770.718434
87339.514686,666.185348,0.000000,10214.842000
87339.515015,1924.535449,-4060.306139,10658.965565
87339.515344,-666.185348,-1149.143247,11177.109724
87339.515673,444.123565,2068.457845,10658.965565
87339.516002,2072.576638,2451.505594,12287.418637
87339.516332,1850.514855,-1685.410096,10584.944971
87339.516661,1406.391290,-2451.505594,10658.965565
87339.516990,518.144159,842.705048,8956.491898
87339.517319,1332.370696,3600.648841,9548.656652
87339.517648,4515.256246,1378.971896,9030.512492
87339.517978,6217.729913,0.000000,9474.636058
87339.518307,4885.359217,3217.601092,9696.697840
87339.518636,3108.864956,6052.154434,9400.615463
87339.518965,3627.009116,3830.477490,7254.018232
87339.519294,4071.132681,-612.876398,8216.285956
87339.519623,370.102971,-1225.752797,8882.471304
87339.519953,-2368.659014,1915.238745,6513.812290
87339.520282,-1850.514855,1991.848295,7254.018232
87339.520611,0.000000,-1991.848295,8512.368333
87339.520940,-1036.288319,-2145.067394,9696.697840
87339.521269,-2738.761985,1608.800546,9474.636058
87339.521598,-2664.741391,2604.724693,9548.656652
87339.521928,-1258.350101,-1915.238745,9030.512492
87339.522257,-1406.391290,-4136.915689,10436.903782
87339.522586,-1850.514855,-2221.676944,9622.677246
87339.522915,-2516.700203,2987.772442,9474.636058
87339.523244,592.164754,1915.238745,8438.347739
87339.523574,2368.659014,-689.485948,8882.471304
87339.523903,1480.411884,612.876398,9178.553681
87339.524232,592.164754,4519.963438,8512.368333
87339.524561,1702.473667,5669.106685,7994.224174
87339.524890,1924.535449,689.485948,7846.182985
87339.525219,-666.185348,-2681.334243,8734.430116
87339.525549,-3256.906145,1149.143247,8660.409521
87339.525878,-2368.659014,2451.505594,8512.368333
87339.526207,-1332.370696,-1455.581446,9104.533087
87339.526536,-2368.659014,-3830.477490,11251.130318
87339.526865,-2960.823768,0.000000,11769.274478
87339.527195,-2146.597232,3217.601092,10584.944971
87339.527524,-592.164754,-1532.190996,7846.182985
87339.527853,-2960.823768,-4979.620737,8512.368333
87339.528182,-3775.050304,-1762.019645,9622.677246
87339.528511,-1258.350101,3907.087040,8956.491898
87339.528840,1554.432478,3294.210641,6809.894666
87339.529170,1776.494261,-2221.676944,8216.285956
87339.529499,74.020594,536.266849,9104.533087
87339.529828,3108.864956,5822.325785,6883.915261
87339.530157,3849.070898,5745.716235,9030.512492
87339.530486,888.247130,-1455.581446,7994.224174
87339.530815,-4219.173869,-3294.210641,9770.718434
87339.531145,-2812.782580,-766.095498,9474.636058
87339.531474,-1628.453072,-689.485948,12583.501014
87339.531803,-3627.009116,-4903.011187,11251.130318
87339.532132,-3775.050304,-6665.030833,11399.171507
87339.532461,-1850.514855,-2374.896044,11177.109724
87339.532791,666.185348,1455.581446,11843.295072
87339.533120,814.226536,766.095498,10658.965565
87339.533449,1258.350101,-1685.410096,9770.718434
87339.533778,2072.576638,229.828649,8586.388927
87339.534107,4071.132681,3140.991542,8660.409521
87339.534436,4219.173869,4060.306139,8956.491898
87339.534766,4737.318029,842.705048,7698.141797
87339.535095,4293.194464,459.657299,9326.594869
87339.535424,5403.503377,2451.505594,9770.718434
87339.535753,3256.906145,4979.620737,11917.315666
87339.536082,444.123565,153.219100,8808.450710
87339.536411,-1480.411884,-3753.867940,8438.347739
87339.536741,-1776.494261,-3983.696590,9992.780217
87339.537070,-2220.617826,76.609550,10510.924376
87339.537399,-1850.514855,1149.143247,9918.759623
87339.537728,0.000000,-1455.581446,9104.533087
87339.538057,-296.082377,-459.657299,8734.430116
87339.538387,444.123565,3064.381992,9548.656652
87339.538716,814.226536,4979.620737,9622.677246
87339.539045,74.020594,2374.896044,6365.771101
87339.539374,-1036.288319,-766.095498,7105.977043
87339.539703,-1332.370696,0.000000,7105.977043
87339.540032,-2072.576638,3294.210641,8364.327145
87339.540362,-666.185348,2911.162892,7550.100608
87339.540691,0.000000,612.876398,9474.636058
87339.541020,666.185348,766.095498,8734.430116
87339.541349,-370.102971,2911.162892,10955.047942
87339.541678,-962.267725,2068.457845,8216.285956
87339.542007,-1924.535449,-689.485948,8438.347739
87339.542337,-2368.659014,-1915.238745,9992.780217
87339.542666,-2146.597232,306.438199,10140.821405
87339.542995,-1258.350101,2528.115143,9326.594869
87339.543324,222.061783,306.438199,9178.553681
87339.543653,0.000000,0.000000,10214.842000
87339.543983,0.000000,1991.848295,8586.388927
87339.544312,592.164754,2834.553343,7920.203579
87339.544641,-222.061783,766.095498,7031.956449
87339.544970,-1850.514855,0.000000,8290.306550
87339.545299,-1924.535449,1225.752797,8364.327145
87339.545628,-666.185348,2221.676944,9326.594869
87339.545958,148.041188,-229.828649,8438.347739
87339.546287,518.144159,-1915.238745,9622.677246
87339.546616,370.102971,-229.828649,9992.780217
87339.546945,-740.205942,2068.457845,10362.883188
87339.547274,962.267725,-1149.143247,9252.574275
87339.547604,740.205942,-2834.553343,9548.656652
87339.547933,-1110.308913,-1532.190996,9622.677246
87339.548262,-2294.638420,76.609550,8734.430116
87339.548591,296.082377,0.000000,8808.450710
87339.548920,3182.885551,-2604.724693,9104.533087
87339.549249,1554.432478,306.438199,11029.068536
87339.549579,2294.638420,3753.867940,9400.615463
87339.549908,3256.906145,2221.676944,8364.327145
87339.550237,2072.576638,-1072.533697,7846.182985
87339.550566,-1554.432478,-2604.724693,11029.068536
87339.550895,-2590.720797,-229.828649,9918.759623
87339.551224,-1036.288319,995.924147,10732.986159
87339.551554,222.061783,-3140.991542,10807.006753
87339.551883,-296.082377,-4060.306139,11695.253884
87339.552212,-1332.370696,-229.828649,10288.862594
87339.552541,1110.308913,2374.896044,10658.965565
87339.552870,1776.494261,995.924147,9400.615463
87339.553200,1110.308913,-1762.019645,9918.759623
87339.553529,-666.185348,536.266849,9474.636058
87339.553858,0.000000,3907.087040,8364.327145
87339.554187,1776.494261,2681.334243,9030.512492
87339.554516,2886.803174,-1072.533697,9252.574275
87339.554845,1036.288319,1455.581446,9770.718434
87339.555175,518.144159,4596.572988,8956.491898
87339.555504,1480.411884,4290.134789,9400.615463
87339.555833,518.144159,-459.657299,7698.141797
87339.556162,-2516.700203,-1838.629195,7920.203579
87339.556491,-3182.885551,842.705048,7105.977043
87339.556820,-2442.679609,4903.011187,9474.636058
87339.557150,-2368.659014,1532.190996,8882.471304
87339.557479,-1554.432478,-2221.676944,8068.244768
87339.557808,-1480.411884,-229.828649,8734.430116
87339.558137,-444.123565,3907.087040,10288.862594
87339.558466,962.267725,4443.353888,11177.109724
87339.558796,666.185348,0.000000,9918.759623
87339.559125,-1332.370696,-2911.162892,10140.821405
87339.559454,-1480.411884,-766.095498,8216.285956
87339.559783,740.205942,2451.505594,9548.656652
87339.560112,2294.638420,1302.362347,9770.718434
87339.560441,1702.473667,0.000000,10436.903782
87339.560771,1184.329507,1838.629195,10510.924376
87339.561100,1036.288319,4290.134789,8660.409521
87339.561429,1554.432478,2451.505594,6439.791695
87339.561758,740.205942,-1378.971896,6883.915261
87339.562087,-222.061783,153.219100,8142.265362
87339.562416,296.082377,3370.820191,8956.491898
87339.562746,-518.144159,2681.334243,9622.677246
87339.563075,-1258.350101,-2374.896044,7476.080014
87339.563404,-1184.329507,-2528.115143,9474.636058
87339.563733,-1702.473667,766.095498,9178.553681
87339.564062,-1480.411884,1915.238745,10362.883188
87339.564392,-1036.288319,-1838.629195,8660.409521
87339.564721,-814.226536,-4903.011187,8734.430116
87339.565050,-1554.432478,-459.657299,9326.594869
87339.565379,-518.144159,3753.867940,8734.430116
87339.565708,0.000000,2145.067394,7179.997637
87339.566037,2368.659014,-1762.019645,7328.038826
87339.566367,1406.391290,0.000000,9326.594869
87339.566696,592.164754,3983.696590,9696.697840
87339.567025,0.000000,2757.943793,8882.471304
87339.567354,-444.123565,-2604.724693,9770.718434
87339.567683,-1554.432478,-4290.134789,11177.109724
87339.568013,-2960.823768,-1762.019645,10362.883188
87339.568342,-1036.288319,229.828649,11177.109724
87339.568671,370.102971,-1685.410096,11177.109724
87339.569000,296.082377,-1838.629195,11547.212695
87339.569329,518.144159,536.266849,9104.533087
87339.569658,1184.329507,4060.306139,9474.636058
87339.569988,888.247130,2757.943793,8142.265362
87339.570317,888.247130,689.485948,8808.450710
87339.570646,148.041188,229.828649,8586.388927
87339.570975,-592.164754,1608.800546,8734.430116
87339.571304,-962.267725,995.924147,8364.327145
87339.571633,0.000000,-1378.971896,9252.574275
87339.571963,-74.020594,-1685.410096,9622.677246
87339.572292,-1110.308913,1455.581446,10807.006753
87339.572621,-444.123565,2451.505594,10362.883188
87339.572950,370.102971,-766.095498,9030.512492
87339.573279,-1036.288319,-2221.676944,8734.430116
87339.573609,-740.205942,0.000000,9696.697840
87339.573938,0.000000,3753.867940,9400.615463
87339.574267,3182.885551,1915.238745,8882.471304
87339.574596,2664.741391,689.485948,11251.130318
87339.574925,2146.597232,2834.553343,10658.965565
87339.575254,1258.350101,4749.792088,8956.491898
87339.575584,3182.885551,1685.410096,7846.182985
87339.575913,1110.308913,-1378.971896,9474.636058
87339.576242,-2146.597232,383.047749,10362.883188
87339.576571,-1924.535449,2911.162892,9918.759623
87339.576900,-666.185348,919.314598,8882.471304
87339.577229,-888.247130,-2911.162892,8882.471304
87339.577559,-1332.370696,-1149.143247,9770.718434
87339.577888,0.000000,3677.258390,9030.512492
87339.578217,1702.473667,4903.011187,8808.450710
87339.578546,888.247130,0.000000,9474.636058
87339.578875,-2146.597232,-1532.190996,9252.574275
87339.579205,-2960.823768,919.314598,6661.853478
87339.579534,148.041188,2451.505594,8068.244768
87339.579863,1258.350101,842.705048,9918.759623
87339.580192,74.020594,-383.047749,9696.697840
87339.580521,666.185348,536.266849,8882.471304
87339.580850,1776.494261,3064.381992,7698.141797
87339.581180,1110.308913,1991.848295,8586.388927
87339.581509,518.144159,0.000000,8438.347739
87339.581838,370.102971,0.000000,8216.285956
87339.582167,-296.082377,2068.457845,9474.636058
87339.582496,222.061783,2068.457845,10362.883188
87339.582825,814.226536,-383.047749,9104.533087
87339.583155,-962.267725,-995.924147,8956.491898
87339.583484,-1258.350101,0.000000,9400.615463
87339.583813,-1776.494261,1378.971896,9992.780217
87339.584142,-1258.350101,-1072.533697,8216.285956
87339.584471,-3034.844362,-3447.429741,9474.636058
87339.584801,-4367.215058,-2528.115143,9474.636058
87339.585130,-3627.009116,0.000000,10140.821405
87339.585459,-1332.370696,-306.438199,9918.759623
87339.585788,-888.247130,-3064.381992,9622.677246
87339.586117,-1406.391290,-1838.629195,9030.512492
87339.586446,0.000000,1532.190996,9770.718434
87339.586776,1924.535449,2374.896044,9178.553681
87339.587105,1850.514855,76.609550,8734.430116
87339.587434,0.000000,-689.485948,9918.759623
87339.587763,740.205942,689.485948,9030.512492
87339.588092,1184.329507,1455.581446,8142.265362
87339.588421,2516.700203,-766.095498,9178.553681
87339.588751,2738.761985,-766.095498,10881.027347
87339.589080,2368.659014,2145.067394,10140.821405
87339.589409,2886.803174,3983.696590,10881.027347
87339.589738,2960.823768,229.828649,9622.677246
87339.590067,666.185348,-1225.752797,10362.883188
87339.590397,-222.061783,-306.438199,9918.759623
87339.590726,-148.041188,1149.143247,9918.759623
87339.591055,-592.164754,229.828649,9326.594869
87339.591384,-296.082377,-1762.019645,8586.388927
87339.591713,-962.267725,612.876398,10140.821405
87339.592042,-148.041188,3217.601092,9622.677246
87339.592372,-1036.288319,2451.505594,8364.327145
87339.592701,-666.185348,-995.924147,7624.121203
87339.593030,-1332.370696,-1302.362347,9474.636058
87339.593359,-962.267725,1302.362347,8808.450710
87339.593688,-148.041188,3524.039291,11029.068536
87339.594018,370.102971,919.314598,9548.656652
87339.594347,666.185348,0.000000,10214.842000
87339.594676,1258.350101,1225.752797,11547.212695
87339.595005,1184.329507,5209.449386,10066.800811
87339.595334,1036.288319,2604.724693,8438.347739
87339.595663,1332.370696,-1991.848295,8364.327145
87339.595993,-888.247130,0.000000,8956.491898
87339.596322,-1850.514855,4903.011187,8956.491898
87339.596651,592.164754,4366.744339,9104.533087
87339.596980,2220.617826,229.828649,8142.265362
87339.597309,2072.576638,-919.314598,8068.244768
87339.597638,666.185348,4519.963438,8660.409521
87339.597968,888.247130,6281.983084,8068.244768
87339.598297,1776.494261,1302.362347,7476.080014
87339.598626,-518.144159,-1685.410096,9918.759623
87339.598955,-2960.823768,536.266849,9030.512492
87339.599284,-3775.050304,3447.429741,7476.080014
87339.599614,-222.061783,-153.219100,8438.347739
87339.599943,-1110.308913,-3907.087040,9992.780217
87339.600272,-2886.803174,-1455.581446,9918.759623
87339.600601,-2590.720797,2451.505594,9548.656652
87339.600930,-1480.411884,536.266849,9104.533087
87339.601259,-1554.432478,-4060.306139,9030.512492
87339.601589,-1850.514855,-3140.991542,10658.965565
87339.601918,-1850.514855,1685.410096,8956.491898
87339.602247,296.082377,2604.724693,8364.327145
87339.602576,2220.617826,-1762.019645,8068.244768
87339.602906,592.164754,-1455.581446,9696.697840
87339.603235,-370.102971,1991.848295,8364.327145
87339.603564,444.123565,2681.334243,9030.512492
87339.603894,370.102971,-2451.505594,9030.512492
87339.604223,-1998.556043,-6511.811733,9918.759623
87339.604552,-2738.761985,-3294.210641,10362.883188
87339.604882,-1184.329507,383.047749,10436.903782
87339.605211,148.041188,-612.876398,10436.903782
87339.605540,1406.391290,-4136.915689,9030.512492
87339.605870,1776.494261,-1532.190996,9548.656652
87339.606199,2960.823768,3140.991542,9252.574275
87339.606529,4367.215058,4903.011187,10288.862594
87339.606858,2590.720797,0.000000,9326.594869
87339.607187,-1110.308913,-2298.286494,9104.533087
87339.607517,-2368.659014,-153.219100,8512.368333
87339.607846,-296.082377,995.924147,8068.244768
87339.608175,74.020594,-1225.752797,7698.141797
87339.608505,-2294.638420,-2068.457845,10510.924376
87339.608834,-1850.514855,612.876398,10214.842000
87339.609163,0.000000,3600.648841,8808.450710
87339.609493,1036.288319,1072.533697,10140.821405
87339.609822,-2146.597232,-2451.505594,10658.965565
87339.610151,-1628.453072,0.000000,8660.409521
87339.610481,1628.453072,2911.162892,8512.368333
87339.610810,2368.659014,2528.115143,12287.418637
87339.611139,518.144159,612.876398,9622.677246
87339.611469,1332.370696,1991.848295,9474.636058
87339.611798,4589.276840,4136.915689,9474.636058
87339.612128,1924.535449,5209.449386,11399.171507
87339.612457,0.000000,1685.410096,8956.491898
87339.612786,-518.144159,383.047749,9030.512492
87339.613116,-740.205942,842.705048,8364.327145
87339.613445,-2368.659014,1762.019645,9104.533087
87339.613774,-1554.432478,1532.190996,8068.244768
87339.614104,296.082377,2145.067394,8956.491898
87339.614433,814.226536,3447.429741,10140.821405
87339.614762,962.267725,4136.915689,9992.780217
87339.615092,-148.041188,3064.381992,6661.853478
87339.615421,-370.102971,612.876398,7105.977043
87339.615750,-1258.350101,536.266849,8882.471304
87339.616080,-1258.350101,1838.629195,9178.553681
87339.616409,-1110.308913,1225.752797,9104.533087
87339.616738,370.102971,-536.266849,9992.780217
87339.617068,444.123565,306.438199,11695.253884
87339.617397,888.247130,1762.019645,9178.553681
87339.617727,592.164754,1685.410096,9252.574275
87339.618056,0.000000,-612.876398,7624.121203
87339.618385,-1554.432478,-1149.143247,8882.471304
87339.618715,-1332.370696,76.609550,9178.553681
87339.619044,-1628.453072,1302.362347,8734.430116
87339.619373,-1776.494261,-459.657299,7772.162391
87339.619703,-370.102971,-2604.724693,8808.450710
87339.620032,-370.102971,-459.657299,9992.780217
87339.620361,-1628.453072,1762.019645,9474.636058
87339.620691,-962.267725,-842.705048,8734.430116
87339.621020,-1184.329507,-4213.525239,8660.409521
87339.621349,-1924.535449,-3524.039291,9326.594869
87339.621679,-2072.576638,76.609550,10807.006753
87339.622008,-518.144159,459.657299,9252.574275
87339.622337,2960.823768,-2221.676944,8956.491898
87339.622667,3108.864956,-2145.067394,9474.636058
87339.622996,2368.659014,2221.676944,9696.697840
87339.623326,2146.597232,4826.401637,8734.430116
87339.623655,4293.194464,0.000000,7772.162391
87339.623984,1998.556043,-2834.553343,9622.677246
87339.624314,-962.267725,-1532.190996,9770.718434
87339.624643,-3108.864956,1608.800546,8882.471304
87339.624972,-1110.308913,0.000000,9178.553681
87339.625302,-518.144159,-4903.011187,9474.636058
87339.625631,-1332.370696,-3217.601092,9696.697840
87339.625960,-962.267725,2604.724693,9030.512492
87339.626290,370.102971,3370.820191,9252.574275
87339.626619,888.247130,-766.095498,9252.574275
87339.626948,-2220.617826,-2451.505594,9918.759623
87339.627278,-3701.029710,76.609550,8364.327145
87339.627607,-1480.411884,2451.505594,9252.574275
87339.627936,1036.288319,-229.828649,9474.636058
87339.628266,666.185348,-2068.457845,10066.800811
87339.628595,370.102971,1225.752797,10362.883188
87339.628924,1406.391290,5439.278036,9770.718434
87339.629254,1110.308913,3677.258390,8808.450710
87339.629583,222.061783,-1532.190996,9622.677246
87339.629913,-962.267725,-842.705048,10140.821405
87339.630242,-1258.350101,3140.991542,9622.677246
87339.630571,740.205942,2987.772442,9622.677246
87339.630901,2072.576638,229.828649,10288.862594
87339.631230,1702.473667,689.485948,9548.656652
87339.631559,2072.576638,4290.134789,9992.780217
87339.631889,2886.803174,5745.716235,10140.821405
87339.632218,2368.659014,1762.019645,9400.615463
87339.632547,0.000000,-612.876398,8512.368333
87339.632877,-1110.308913,995.924147,7994.224174
87339.633206,-1332.370696,4366.744339,8216.285956
87339.633535,0.000000,2451.505594,8438.347739
87339.633865,-370.102971,459.657299,9696.697840
87339.634194,0.000000,1685.410096,9548.656652
87339.634523,74.020594,4519.963438,8660.409521
87339.634853,-740.205942,2451.505594,8512.368333
87339.635182,-2368.659014,-2068.457845,8216.285956
87339.635512,-2590.720797,-2068.457845,9252.574275
87339.635841,-1924.535449,1302.362347,9844.739029
87339.636170,-888.247130,2221.676944,10955.047942
87339.636500,740.205942,-229.828649,8956.491898
87339.636829,1258.350101,-995.924147,9104.533087
87339.637158,1258.350101,1072.533697,8660.409521
87339.637488,1554.432478,5132.839837,10288.862594
87339.637817,2664.741391,2298.286494,7402.059420
87339.638146,1110.308913,-995.924147,9474.636058
87339.638476,-1554.432478,-1149.143247,8290.306550
87339.638805,-592.164754,536.266849,8512.368333
87339.639134,0.000000,1378.971896,8956.491898
87339.639464,0.000000,-2374.896044,9918.759623
87339.639793,-1480.411884,-1762.019645,10436.903782
87339.640122,0.000000,0.000000,7698.141797
87339.640452,-814.226536,612.876398,8290.306550
87339.640781,-1628.453072,-1838.629195,9474.636058
87339.641111,-2812.782580,-2757.943793,9622.677246
87339.641440,-2442.679609,-1455.581446,8808.450710
87339.641769,-1702.473667,-766.095498,9326.594869
87339.642099,-1258.350101,-1991.848295,7698.141797
87339.642428,370.102971,-1378.971896,8882.471304
87339.642757,2220.617826,995.924147,10362.883188
87339.643087,3182.885551,2911.162892,10955.047942
87339.643416,2664.741391,995.924147,8660.409521
87339.643745,1924.535449,-1838.629195,8364.327145
87339.644075,592.164754,-766.095498,8734.430116
87339.644404,-518.144159,1685.410096,8290.306550
87339.644733,-370.102971,766.095498,7846.182985
87339.645063,-444.123565,-1685.410096,9326.594869
87339.645392,222.061783,-1149.143247,9770.718434
87339.645721,0.000000,2451.505594,10362.883188
87339.646051,-740.205942,2528.115143,9918.759623
87339.646380,-2220.617826,-1608.800546,8956.491898
87339.646710,-2442.679609,-3983.696590,10658.965565
87339.647039,-2516.700203,-995.924147,11251.130318
87339.647368,-2442.679609,1225.752797,9622.677246
87339.647698,-518.144159,0.000000,9104.533087
87339.648027,740.205942,-995.924147,10584.944971
87339.648356,1110.308913,1378.971896,9548.656652
87339.648686,1628.453072,4290.134789,9400.615463
87339.649015,2738.761985,3447.429741,9474.636058
87339.649344,2664.741391,-689.485948,8290.306550
87339.649674,1184.329507,1378.971896,9548.656652
87339.650003,888.247130,3907.087040,9548.656652
87339.650332,518.144159,4290.134789,8586.388927
87339.650662,2442.679609,-459.657299,7994.224174
87339.650991,1998.556043,-383.047749,10288.862594
87339.651320,444.123565,4596.572988,10362.883188
87339.651650,444.123565,6588.421283,10436.903782
87339.651979,1036.288319,1378.971896,9030.512492
87339.652309,-666.185348,-3677.258390,7846.182985
87339.652638,-3627.009116,-1685.410096,7920.203579
87339.652967,-3256.906145,3217.601092,9770.718434
87339.653297,-222.061783,3370.820191,9548.656652
87339.653626,74.020594,76.609550,9696.697840
87339.653955,-222.061783,229.828649,8956.491898
87339.654285,-296.082377,2987.772442,7550.100608
87339.654614,666.185348,4903.011187,8586.388927
87339.654943,1036.288319,612.876398,9992.780217
87339.655273,-1776.494261,-1915.238745,10066.800811
87339.655602,-2738.761985,-995.924147,8364.327145
87339.655931,-2146.597232,995.924147,10140.821405
87339.656261,0.000000,-1532.190996,8512.368333
87339.656590,-1776.494261,-1685.410096,10066.800811
87339.656919,0.000000,-1532.190996,10288.862594
87339.657249,814.226536,1762.019645,10807.006753
87339.657578,1110.308913,229.828649,7624.121203
87339.657908,148.041188,-2451.505594,9030.512492
87339.658237,-888.247130,-536.266849,9622.677246
87339.658566,740.205942,1302.362347,8142.265362
87339.658896,2368.659014,1838.629195,8956.491898
87339.659225,3182.885551,-1991.848295,7031.956449
87339.659554,370.102971,-1149.143247,8734.430116
87339.659884,962.267725,1838.629195,9104.533087
87339.660213,1406.391290,2298.286494,10066.800811
87339.660542,-518.144159,-1991.848295,8438.347739
87339.660872,-2590.720797,-4290.134789,8142.265362
87339.661201,-1628.453072,-2374.896044,9104.533087
87339.661530,-1628.453072,306.438199,8808.450710
87339.661860,-1036.288319,-766.095498,9474.636058
87339.662189,74.020594,-2145.067394,10214.842000
87339.662518,1110.308913,76.609550,9400.615463
87339.662848,2072.576638,3677.258390,9918.759623
87339.663177,1924.535449,1915.238745,8364.327145
87339.663507,444.123565,-766.095498,7772.162391
87339.663836,-296.082377,-2221.676944,9474.636058
87339.664165,74.020594,1072.533697,10436.903782
87339.664495,-370.102971,2681.334243,9844.739029
87339.664824,-666.185348,-383.047749,9178.553681
87339.665153,222.061783,-2145.067394,10362.883188
87339.665483,1184.329507,2298.286494,10288.862594
87339.665812,148.041188,4443.353888,10807.006753
87339.666141,1110.308913,2834.553343,9992.780217
87339.666471,296.082377,-306.438199,9326.594869
87339.666800,-1332.370696,153.219100,9918.759623
87339.667129,-1110.308913,2987.772442,9104.533087
87339.667459,296.082377,3830.477490,7698.141797
87339.667788,1406.391290,1455.581446,9400.615463
87339.668117,1332.370696,995.924147,9770.718434
87339.668447,814.226536,4136.915689,8956.491898
87339.668776,740.205942,4443.353888,9400.615463
87339.669106,888.247130,1685.410096,9548.656652
87339.669435,518.144159,153.219100,9474.636058
87339.669764,148.041188,1455.581446,9104.533087
87339.670094,-1776.494261,3983.696590,9474.636058
87339.670423,-1702.473667,1225.752797,7846.182985
87339.670752,-592.164754,-919.314598,8956.491898
87339.671082,-370.102971,612.876398,9474.636058
87339.671411,-2368.659014,3983.696590,10584.944971
87339.671740,-2072.576638,1838.629195,8438.347739
87339.672070,-1554.432478,-2604.724693,10066.800811
87339.672399,-4737.318029,-2911.162892,9400.615463
87339.672728,-5255.462188,-459.657299,9326.594869
87339.673058,-2368.659014,229.828649,7846.182985
87339.673387,592.164754,-1302.362347,9178.553681
87339.673716,0.000000,-383.047749,10955.047942
87339.674046,814.226536,2604.724693,9918.759623
87339.674375,1258.350101,2834.553343,8216.285956
87339.674705,2442.679609,-3140.991542,7846.182985
87339.675034,888.247130,-3217.601092,10288.862594
87339.675363,-148.041188,-229.828649,9844.739029
87339.675693,74.020594,2374.896044,10140.821405
87339.676022,1776.494261,-2221.676944,8438.347739
87339.676351,1850.514855,-4443.353888,9474.636058
87339.676681,666.185348,-1072.533697,8882.471304
87339.677010,2072.576638,3753.867940,9030.512492
87339.677339,3256.906145,995.924147,8438.347739
87339.677669,1480.411884,-2911.162892,9474.636058
87339.677998,-1184.329507,-2528.115143,9104.533087
87339.678327,-1776.494261,1072.533697,7920.203579
87339.678657,962.267725,995.924147,7772.162391
87339.678986,888.247130,-2911.162892,9030.512492
87339.679315,-888.247130,-2451.505594,9548.656652
87339.679645,-592.164754,1685.410096,9474.636058
87339.679974,148.041188,2834.553343,9770.718434
87339.680303,370.102971,-2145.067394,8290.306550
87339.680633,-2072.576638,-3830.477490,8808.450710
87339.680962,-2516.700203,-536.266849,9104.533087
87339.681292,-1554.432478,1762.019645,9400.615463
87339.681621,-370.102971,612.876398,9178.553681
87339.681950,518.144159,-2221.676944,10214.842000
87339.682280,370.102971,1072.533697,11251.130318
87339.682609,1628.453072,5132.839837,9844.739029
87339.682938,2886.803174,4366.744339,10140.821405
87339.683268,1776.494261,-1149.143247,9326.594869
87339.683597,-1480.411884,-1378.971896,9178.553681
87339.683926,-592.164754,2221.676944,7920.203579
87339.684256,888.247130,4290.134789,9104.533087
87339.684585,518.144159,1532.190996,8660.409521
87339.684914,-222.061783,76.609550,9770.718434
87339.685244,0.000000,2834.553343,9252.574275
87339.685573,0.000000,5439.278036,10140.821405
87339.685902,-296.082377,2604.724693,9252.574275
87339.686232,-1998.556043,-1302.362347,9252.574275
87339.686561,-2146.597232,-689.485948,6809.894666
87339.686891,-1406.391290,3294.210641,8364.327145
87339.687220,-962.267725,4519.963438,10955.047942
87339.687549,-1184.329507,459.657299,9548.656652
87339.687879,-1628.453072,0.000000,8956.491898
87339.688208,-444.123565,1072.533697,9252.574275
87339.688537,-1110.308913,3217.601092,10140.821405
87339.688867,-1036.288319,1225.752797,9252.574275
87339.689196,-2220.617826,-1608.800546,9992.780217
87339.689525,-2368.659014,-2221.676944,8438.347739
87339.689855,-888.247130,0.000000,8956.491898
87339.690184,296.082377,1915.238745,9992.780217
87339.690513,2146.597232,1072.533697,10214.842000
87339.690843,2146.597232,1838.629195,9992.780217
87339.691172,2812.782580,1685.410096,10658.965565
87339.691501,2146.597232,0.000000,8586.388927
87339.691831,814.226536,-1762.019645,7698.141797
87339.692160,1036.288319,-1225.752797,10436.903782
87339.692490,962.267725,0.000000,11769.274478
87339.692819,0.000000,229.828649,11029.068536
87339.693148,1184.329507,-3370.820191,8660.409521
87339.693478,962.267725,-1915.238745,8438.347739
87339.693807,1554.432478,459.657299,8142.265362
87339.694136,1702.473667,2757.943793,9400.615463
87339.694466,1480.411884,612.876398,8438.347739
87339.694795,592.164754,-1915.238745,9474.636058
87339.695124,-740.205942,-1225.752797,9400.615463
87339.695454,-1110.308913,153.219100,8586.388927
87339.695783,-296.082377,-766.095498,6661.853478
87339.696112,74.020594,-2604.724693,9622.677246
87339.696442,518.144159,-1225.752797,10955.047942
87339.696771,-518.144159,2145.067394,9696.697840
87339.697100,74.020594,306.438199,7550.100608
87339.697430,-296.082377,-2221.676944,8068.244768
87339.697759,-1480.411884,-1225.752797,9622.677246
87339.698089,-1628.453072,1685.410096,9178.553681
87339.698418,-888.247130,1685.410096,9474.636058
87339.698747,296.082377,-2451.505594,8068.244768
87339.699077,370.102971,-1991.848295,9252.574275
87339.699406,1036.288319,3294.210641,9030.512492
87339.699735,740.205942,5132.839837,10140.821405
87339.700065,1406.391290,153.219100,8734.430116
87339.700394,222.061783,-2911.162892,11029.068536
87339.700723,-2072.576638,-842.705048,9178.553681
87339.701053,-2590.720797,2757.943793,8882.471304
87339.701382,-1332.370696,995.924147,8290.306550
87339.701711,0.000000,-1838.629195,9474.636058
87339.702040,0.000000,383.047749,10214.842000
87339.702370,0.000000,5056.230287,10066.800811
87339.702699,222.061783,4519.963438,7920.203579
87339.703028,370.102971,153.219100,9400.615463
87339.703357,-1850.514855,-1608.800546,10066.800811
87339.703686,-2368.659014,1532.190996,7772.162391
87339.704016,-962.267725,3064.381992,9622.677246
87339.704345,592.164754,229.828649,10288.862594
87339.704674,0.000000,-306.438199,9770.718434
87339.705003,-444.123565,1991.848295,8068.244768
87339.705333,-296.082377,4673.182538,9770.718434
87339.705662,370.102971,1838.629195,8438.347739
87339.705991,148.041188,-1072.533697,8956.491898
87339.706320,-1924.535449,0.000000,9918.759623
87339.706649,-1850.514855,2451.505594,9622.677246
87339.706979,-444.123565,1302.362347,8882.471304
87339.707308,1480.411884,-1302.362347,11103.089130
87339.707637,592.164754,-536.266849,10066.800811
87339.707966,1110.308913,3294.210641,10436.903782
87339.708296,2590.720797,3677.258390,10584.944971
87339.708625,2442.679609,-689.485948,9030.512492
87339.708954,-592.164754,-1608.800546,9474.636058
87339.709283,-1332.370696,459.657299,9252.574275
87339.709612,-592.164754,3217.601092,8882.471304
87339.709942,370.102971,-536.266849,8808.450710
87339.710271,-592.164754,-2604.724693,10510.924376
87339.710600,0.000000,-306.438199,8882.471304
87339.710929,666.185348,2757.943793,9252.574275
87339.711259,1036.288319,1608.800546,9178.553681
87339.711588,444.123565,-1915.238745,9178.553681
87339.711917,-1702.473667,-1991.848295,9252.574275
87339.712246,-296.082377,306.438199,8882.471304
87339.712575,740.205942,766.095498,9178.553681
87339.712905,1332.370696,-1225.752797,8586.388927
87339.713234,1036.288319,-842.705048,9844.739029
87339.713563,1924.535449,2681.334243,9696.697840
87339.713892,2220.617826,3294.210641,10658.965565
87339.714222,1480.411884,-766.095498,8438.347739
87339.714551,0.000000,-2374.896044,8882.471304
87339.714880,74.020594,229.828649,8660.409521
87339.715209,666.185348,2298.286494,9104.533087
87339.715538,-222.061783,153.219100,7624.121203
87339.715868,-1258.350101,-2145.067394,7698.141797
87339.716197,-1480.411884,306.438199,8734.430116
87339.716526,518.144159,3370.820191,9770.718434
87339.716855,-666.185348,2374.896044,9104.533087
87339.717185,-2072.576638,-3140.991542,6809.894666
87339.717514,-3701.029710,-3140.991542,9474.636058
87339.717843,-2960.823768,-306.438199,9474.636058
87339.718172,-2146.597232,1762.019645,10732.986159
87339.718501,-1110.308913,-2145.067394,9474.636058
87339.718831,0.000000,-2757.943793,10214.842000
87339.719160,2072.576638,1685.410096,10732.986159
87339.719489,2442.679609,5056.230287,11695.253884
87339.719818,1332.370696,2145.067394,8808.450710
87339.720148,1036.288319,-1915.238745,8290.306550
87339.720477,1554.432478,-1532.190996,7550.100608
87339.720806,1110.308913,4519.963438,9400.615463
87339.721135,444.123565,4749.792088,9548.656652
87339.721464,666.185348,-229.828649,10362.883188
87339.721794,1036.288319,-1608.800546,10140.821405
87339.722123,296.082377,766.095498,10955.047942
87339.722452,-1480.411884,4290.134789,9918.759623
87339.722781,-1184.329507,1378.971896,8364.327145
87339.723111,-1702.473667,-1685.410096,9326.594869
87339.723440,-3256.906145,-1608.800546,9252.574275
87339.723769,-3627.009116,2298.286494,8438.347739
87339.724098,-1258.350101,2451.505594,7624.121203
87339.724427,592.164754,76.609550,9844.739029
87339.724757,-148.041188,1072.533697,8956.491898
87339.725086,-1184.329507,3370.820191,8364.327145
87339.725415,962.267725,2528.115143,7846.182985
87339.725744,1480.411884,-766.095498,8512.368333
87339.726074,-444.123565,-689.485948,10584.944971
87339.726403,-962.267725,2681.334243,11917.315666
87339.726732,814.226536,2987.772442,9770.718434
87339.727061,2738.761985,-1302.362347,9622.677246
87339.727391,1924.535449,-2145.067394,10881.027347
87339.727720,1998.556043,1685.410096,10436.903782
87339.728049,1332.370696,4979.620737,9992.780217
87339.728378,2664.741391,-306.438199,9104.533087
87339.728707,-666.185348,-3370.820191,9622.677246
87339.729037,-2738.761985,-766.095498,8586.388927
87339.729366,-1554.432478,3064.381992,9696.697840
87339.729695,592.164754,995.924147,9474.636058
87339.730024,592.164754,-3524.039291,8882.471304
87339.730354,0.000000,-1915.238745,10140.821405
87339.730683,518.144159,3064.381992,9918.759623
87339.731012,1184.329507,3600.648841,7846.182985
87339.731341,1036.288319,-2221.676944,6661.853478
87339.731670,-1036.288319,-3217.601092,9474.636058
87339.732000,-518.144159,1072.533697,9030.512492
87339.732329,1480.411884,3983.696590,8956.491898
87339.732658,3108.864956,-1378.971896,9030.512492
87339.732987,518.144159,-3447.429741,10140.821405
87339.733317,-222.061783,842.705048,9474.636058
87339.733646,1702.473667,4136.915689,8956.491898
87339.733975,2146.597232,919.314598,7994.224174
87339.734304,-962.267725,-3447.429741,9252.574275
87339.734633,-2442.679609,-1455.581446,8512.368333
87339.734963,-1850.514855,2451.505594,7476.080014
87339.735292,-222.061783,919.314598,9474.636058
87339.735621,-814.226536,-2604.724693,10066.800811
87339.735950,-2072.576638,229.828649,10214.842000
87339.736280,0.000000,1608.800546,8882.471304
87339.736609,592.164754,2298.286494,9918.759623
87339.736938,-1776.494261,-1072.533697,8216.285956
87339.737267,-3404.947333,-1915.238745,9252.574275
87339.737596,-1406.391290,0.000000,8364.327145
87339.737926,-444.123565,2681.334243,11843.295072
87339.738255,-666.185348,1455.581446,11473.192101
87339.738584,1110.308913,-842.705048,9326.594869
87339.738913,1628.453072,1532.190996,8660.409521
87339.739243,2368.659014,3983.696590,10288.862594
87339.739572,814.226536,4290.134789,9252.574275
87339.739901,148.041188,1991.848295,7105.977043
87339.740230,74.020594,76.609550,8290.306550
87339.740559,74.020594,1991.848295,8808.450710
87339.740889,74.020594,3447.429741,8512.368333
87339.741218,-74.020594,2145.067394,7624.121203
87339.741547,296.082377,766.095498,8512.368333
87339.741876,-444.123565,1915.238745,7994.224174
87339.742206,-1702.473667,3753.867940,8438.347739
87339.742535,-1554.432478,1149.143247,7550.100608
87339.742864,-3034.844362,-1608.800546,9104.533087
87339.743193,-2590.720797,-1532.190996,10140.821405
87339.743522,-2072.576638,689.485948,11547.212695
87339.743852,0.000000,0.000000,10436.903782
87339.744181,222.061783,-1915.238745,10807.006753
87339.744510,1184.329507,-1991.848295,11029.068536
87339.744839,1258.350101,1072.533697,10658.965565
87339.745169,1702.473667,2834.553343,10288.862594
87339.745498,1702.473667,-536.266849,10214.842000
87339.745827,222.061783,-1225.752797,10066.800811
87339.746156,-592.164754,-306.438199,10362.883188
87339.746485,-148.041188,1149.143247,10510.924376
87339.746815,1110.308913,-842.705048,8956.491898
87339.747144,1332.370696,-2221.676944,9252.574275
87339.747473,1702.473667,-153.219100,10066.800811
87339.747802,814.226536,2374.896044,10658.965565
87339.748132,148.041188,1072.533697,8290.306550
87339.748461,-296.082377,-2298.286494,7920.203579
87339.748790,-1554.432478,-2604.724693,8142.265362
87339.749119,-1776.494261,153.219100,8734.430116
87339.749448,-444.123565,1302.362347,8290.306550
87339.749778,962.267725,-842.705048,8216.285956
87339.750107,888.247130,-1532.190996,8734.430116
87339.750436,592.164754,1762.019645,9326.594869
87339.750765,1628.453072,3830.477490,8290.306550
87339.751095,1480.411884,2451.505594,8438.347739
87339.751424,-148.041188,-1072.533697,9326.594869
87339.751753,-1998.556043,-612.876398,8364.327145
87339.752082,-1480.411884,1762.019645,6883.915261
87339.752411,1628.453072,612.876398,7624.121203
87339.752741,666.185348,-459.657299,9770.718434
87339.753070,-888.247130,1072.533697,10510.924376
87339.753399,-1110.308913,2987.772442,10362.883188
87339.753728,222.061783,536.266849,8068.244768
87339.754058,-740.205942,-3600.648841,8586.388927
87339.754387,-1406.391290,-919.314598,8586.388927
87339.754716,-592.164754,3370.820191,9400.615463
87339.755045,1184.329507,3753.867940,10658.965565
87339.755374,2812.782580,229.828649,9844.739029
87339.755704,1628.453072,1072.533697,10584.944971
87339.756033,1110.308913,4290.134789,8882.471304
87339.756362,1628.453072,4826.401637,9474.636058
87339.756691,1850.514855,-536.266849,7846.182985
87339.757021,-2072.576638,-2374.896044,9252.574275
87339.757350,-4071.132681,-459.657299,9030.512492
87339.757679,-2442.679609,2451.505594,9252.574275
87339.758008,-814.226536,383.047749,8438.347739
87339.758337,-592.164754,-2221.676944,9844.739029
87339.758667,-1036.288319,536.266849,8808.450710
87339.758996,0.000000,4903.011187,9474.636058
87339.759325,2220.617826,1685.410096,9474.636058
87339.759654,0.000000,-1225.752797,8216.285956
87339.759984,-3034.844362,-1532.190996,8660.409521
87339.760313,-2664.741391,766.095498,8734.430116
87339.760642,-1480.411884,1378.971896,10436.903782
87339.760971,-1110.308913,-2757.943793,10436.903782
87339.761300,-1776.494261,-2987.772442,11547.212695
87339.761630,-740.205942,0.000000,10807.006753
87339.761959,-444.123565,1378.971896,10510.924376
87339.762288,148.041188,-1532.190996,9992.780217
87339.762617,-444.123565,-2834.553343,10584.944971
87339.762947,-1110.308913,-459.657299,10214.842000
87339.763276,148.041188,2681.334243,10066.800811
87339.763605,1628.453072,1608.800546,9844.739029
87339.763934,1258.350101,-1072.533697,8882.471304
87339.764263,1480.411884,0.000000,9326.594869
87339.764593,2294.638420,3217.601092,9622.677246
87339.764922,2368.659014,3217.601092,9844.739029
87339.765251,1406.391290,-459.657299,8512.368333
87339.765580,296.082377,-2221.676944,9178.553681
87339.765910,-592.164754,-459.657299,8438.347739
87339.766239,1554.432478,2298.286494,8956.491898
87339.766568,3108.864956,919.314598,9178.553681
87339.766897,2146.597232,229.828649,9178.553681
87339.767226,2442.679609,2374.896044,8142.265362
87339.767556,2516.700203,5669.106685,9326.594869
87339.767885,2220.617826,3064.381992,7105.977043
87339.768214,-666.185348,-919.314598,6439.791695
87339.768543,-1554.432478,-766.095498,7179.997637
87339.768873,-1776.494261,1762.019645,8808.450710
87339.769202,-2294.638420,1608.800546,9030.512492
87339.769531,-2368.659014,-2528.115143,8438.347739
87339.769860,-2146.597232,-2528.115143,10140.821405
87339.770189,-296.082377,1838.629195,9770.718434
87339.770519,-74.020594,3753.867940,11029.068536
87339.770848,0.000000,0.000000,9178.553681
87339.771177,-296.082377,-2451.505594,9178.553681
87339.771506,-666.185348,-536.266849,9622.677246
87339.771836,0.000000,3140.991542,9770.718434
87339.772165,2220.617826,1991.848295,7624.121203
87339.772494,2886.803174,-229.828649,10214.842000
87339.772823,1776.494261,1225.752797,11695.253884
87339.773152,2072.576638,4136.915689,10436.903782
87339.773482,2590.720797,3370.820191,9178.553681
87339.773811,1332.370696,-2145.067394,7994.224174
87339.774140,-1702.473667,-1762.019645,9104.533087
87339.774469,-2072.576638,1608.800546,8512.368333
87339.774799,-1924.535449,2911.162892,10362.883188
87339.775128,-2664.741391,-1532.190996,9252.574275
87339.775457,-2442.679609,-2604.724693,10066.800811
87339.775786,-2368.659014,919.314598,9474.636058
87339.776115,-2738.761985,1838.629195,7772.162391
87339.776445,-3330.926739,-1072.533697,7105.977043
87339.776774,-3701.029710,-3370.820191,9622.677246
87339.777103,-4589.276840,-995.924147,8660.409521
87339.777432,-3404.947333,2298.286494,7476.080014
87339.777762,-1480.411884,76.609550,7624.121203
87339.778091,-1110.308913,-2221.676944,8956.491898
87339.778420,666.185348,-612.876398,10140.821405
87339.778749,1998.556043,3524.039291,11547.212695
87339.779078,2738.761985,2987.772442,10658.965565
87339.779408,2886.803174,-1762.019645,8734.430116
87339.779737,2294.638420,-1991.848295,9770.718434
87339.780066,1036.288319,995.924147,9400.615463
87339.780395,592.164754,2911.162892,10658.965565
87339.780725,2664.741391,-842.705048,10955.047942
87339.781054,2886.803174,-1991.848295,11769.274478
87339.781383,1924.535449,536.266849,9474.636058
87339.781712,1110.308913,4060.306139,9548.656652
87339.782041,1406.391290,1302.362347,8882.471304
87339.782371,518.144159,-2834.553343,10066.800811
87339.782700,-2664.741391,-1838.629195,9474.636058
87339.783029,-2516.700203,153.219100,8216.285956
87339.783358,-740.205942,536.266849,8438.347739
87339.783688,-444.123565,-995.924147,10510.924376
87339.784017,-592.164754,-459.657299,11103.089130
87339.784346,-962.267725,1532.190996,9474.636058
87339.784675,222.061783,1838.629195,10066.800811
87339.785004,1036.288319,-612.876398,8438.347739
87339.785334,-444.123565,-229.828649,7402.059420
87339.785663,-888.247130,919.314598,7179.997637
87339.785992,-296.082377,2528.115143,8660.409521
87339.786321,2442.679609,1838.629195,8512.368333
87339.786651,2738.761985,1455.581446,10066.800811
87339.786980,2442.679609,2911.162892,9326.594869
87339.787309,2960.823768,4443.353888,7772.162391
87339.787638,2812.782580,3370.820191,8808.450710
87339.787967,1924.535449,-229.828649,8586.388927
87339.788297,-888.247130,766.095498,9030.512492
87339.788626,-1110.308913,2451.505594,9178.553681
87339.788955,-1258.350101,1685.410096,10510.924376
87339.789284,-2368.659014,-919.314598,8808.450710
87339.789614,-2738.761985,-1378.971896,9252.574275
87339.789943,-1776.494261,766.095498,9104.533087
87339.790272,-1332.370696,2451.505594,8956.491898
87339.790601,-1332.370696,842.705048,7920.203579
87339.790930,-1998.556043,383.047749,7846.182985
87339.791260,-2072.576638,1455.581446,7105.977043
87339.791589,-1110.308913,3140.991542,9104.533087
87339.791918,370.102971,1991.848295,9548.656652
87339.792247,814.226536,689.485948,9474.636058
87339.792577,1036.288319,766.095498,9622.677246
87339.792906,2072.576638,1762.019645,9844.739029
87339.793235,2368.659014,1149.143247,9030.512492
87339.793564,1110.308913,459.657299,8512.368333
87339.793893,296.082377,-153.219100,9992.780217
87339.794223,-148.041188,1762.019645,9770.718434
87339.794552,-592.164754,2068.457845,9770.718434
87339.794881,740.205942,-1072.533697,7846.182985
87339.795210,74.020594,-1225.752797,7624.121203
87339.795540,666.185348,306.438199,8586.388927
87339.795869,148.041188,2451.505594,11399.171507
87339.796198,-666.185348,1225.752797,8956.491898
87339.796527,-2368.659014,-3370.820191,9104.533087
87339.796856,-3404.947333,-4673.182538,8956.491898
87339.797186,-3627.009116,-1991.848295,9400.615463
87339.797515,-2960.823768,-995.924147,9918.759623
87339.797844,-666.185348,-3600.648841,10955.047942
87339.798173,0.000000,-3753.867940,12435.459826
87339.798503,592.164754,-1225.752797,11991.336260
87339.798832,2220.617826,1149.143247,11621.233289
87339.799161,3108.864956,-536.266849,10214.842000
87339.799490,1924.535449,-2145.067394,11843.295072
87339.799819,666.185348,-1072.533697,10658.965565
87339.800149,-370.102971,1149.143247,9326.594869
87339.800478,814.226536,-842.705048,8956.491898
87339.800807,592.164754,-1915.238745,11177.109724
87339.801136,0.000000,459.657299,9252.574275
87339.801466,370.102971,2221.676944,9474.636058
87339.801795,0.000000,1225.752797,9400.615463
87339.802124,-740.205942,-2145.067394,7772.162391
87339.802453,-2294.638420,-1072.533697,8290.306550
87339.802782,-1702.473667,1838.629195,7105.977043
87339.803112,0.000000,2834.553343,7550.100608
87339.803441,2590.720797,2298.286494,7105.977043
87339.803770,3627.009116,2834.553343,8364.327145
87339.804099,2960.823768,5515.887586,7698.141797
87339.804428,3404.947333,6511.811733,7476.080014
87339.804757,3552.988522,3294.210641,5921.647536
87339.805086,2220.617826,536.266849,6883.915261
87339.805416,-444.123565,2451.505594,8068.244768
87339.805745,-592.164754,4443.353888,9474.636058
87339.806074,-296.082377,1991.848295,9992.780217
87339.806403,-518.144159,-1455.581446,10066.800811
87339.806732,-1332.370696,229.828649,11177.109724
87339.807061,-740.205942,3447.429741,10214.842000
87339.807390,148.041188,2451.505594,9474.636058
87339.807720,-962.267725,0.000000,9178.553681
87339.808049,-2812.782580,-306.438199,9474.636058
87339.808378,-3478.967927,1915.238745,7994.224174
87339.808707,-2368.659014,2834.553343,9400.615463
87339.809036,-962.267725,766.095498,9992.780217
87339.809365,-1184.329507,-383.047749,10436.903782
87339.809694,-814.226536,76.609550,9474.636058
87339.810024,-592.164754,1225.752797,10955.047942
87339.810353,-518.144159,459.657299,10066.800811
87339.810682,518.144159,-306.438199,9992.780217
87339.811011,370.102971,76.609550,9104.533087
87339.811340,740.205942,2145.067394,7476.080014
87339.811669,1924.535449,2987.772442,7772.162391
87339.811998,4071.132681,1149.143247,7994.224174
87339.812328,2072.576638,1838.629195,8882.471304
87339.812657,1480.411884,2604.724693,9326.594869
87339.812986,2146.597232,1455.581446,8808.450710
87339.813315,666.185348,-1225.752797,6513.812290
87339.813644,-2886.803174,-2528.115143,8734.430116
87339.813973,-4293.194464,-1762.019645,8216.285956
87339.814302,-3330.926739,-612.876398,9030.512492
87339.814632,-3034.844362,-3064.381992,10436.903782
87339.814961,-3701.029710,-4673.182538,11177.109724
87339.815290,-4071.132681,-2451.505594,10288.862594
87339.815619,-3478.967927,-995.924147,11325.150913
87339.815948,-2368.659014,-2604.724693,11029.068536
87339.816277,-3182.885551,-5745.716235,10732.986159
87339.816606,-2664.741391,-4826.401637,10066.800811
87339.816936,0.000000,-1762.019645,11029.068536
87339.817265,1110.308913,383.047749,12139.377449
87339.817594,2886.803174,-919.314598,11473.192101
87339.817923,4737.318029,-689.485948,10658.965565
87339.818252,5995.668130,1608.800546,9548.656652
87339.818581,6365.771101,4290.134789,9918.759623
87339.818910,6143.709319,1915.238745,8068.244768
87339.819240,4293.194464,1302.362347,8882.471304
87339.819569,3034.844362,1378.971896,8734.430116
87339.819898,2886.803174,2911.162892,10362.883188
87339.820227,1406.391290,2298.286494,8882.471304
87339.820556,-444.123565,-842.705048,8142.265362
87339.820885,-1258.350101,-536.266849,8660.409521
87339.821214,-1184.329507,1149.143247,8808.450710
87339.821544,-2664.741391,1762.019645,7402.059420
87339.821873,-3256.906145,-153.219100,6587.832884
87339.822202,-4959.379811,0.000000,7105.977043
87339.822531,-5033.400406,1149.143247,6291.750507
87339.822860,-3775.050304,2528.115143,7698.141797
87339.823189,-2294.638420,1455.581446,7105.977043
87339.823518,-296.082377,689.485948,8808.450710
87339.823848,740.205942,2298.286494,9696.697840
87339.824177,148.041188,4519.963438,11399.171507
87339.824506,1184.329507,2451.505594,9844.739029
87339.824835,1702.473667,-383.047749,10288.862594
87339.825164,1258.350101,-536.266849,9918.759623
87339.825493,666.185348,2757.943793,10288.862594
87339.825822,2146.597232,4136.915689,9992.780217
87339.826152,3997.112087,1532.190996,10955.047942
87339.826481,2960.823768,1685.410096,11843.295072
87339.826810,2072.576638,3983.696590,10510.924376
87339.827139,1480.411884,5362.668486,9252.574275
87339.827468,814.226536,1532.190996,7328.038826
87339.827797,-1702.473667,-766.095498,9844.739029
87339.828126,-4219.173869,-383.047749,8808.450710
87339.828456,-4885.359217,919.314598,8068.244768
87339.828785,-4071.132681,-306.438199,7920.203579
87339.829114,-3404.947333,-2145.067394,9030.512492
87339.829443,-4441.235652,536.266849,9474.636058
87339.829772,-3775.050304,2604.724693,7402.059420
87339.830101,-1702.473667,0.000000,6365.771101
87339.830430,-666.185348,-2451.505594,6957.935855
87339.830759,-666.185348,153.219100,8438.347739
87339.831089,370.102971,4213.525239,8216.285956
87339.831418,3330.926739,3294.210641,8438.347739
87339.831747,6143.709319,-689.485948,9474.636058
87339.832076,7254.018232,-229.828649,12361.439231
87339.832405,4737.318029,4366.744339,11769.274478
87339.832734,4589.276840,4443.353888,10436.903782
87339.833063,4589.276840,-2221.676944,9622.677246
87339.833393,666.185348,-4903.011187,10881.027347
87339.833722,-1554.432478,-1915.238745,9474.636058
87339.834051,-1258.350101,1225.752797,10140.821405
87339.834380,592.164754,-1838.629195,9178.553681
87339.834709,-296.082377,-4290.134789,11473.192101
87339.835038,-1924.535449,-1762.019645,11621.233289
87339.835367,-2442.679609,2451.505594,10066.800811
87339.835697,-1036.288319,0.000000,9104.533087
87339.836026,-1776.494261,-5669.106685,9770.718434
87339.836355,-3923.091493,-3983.696590,9770.718434
87339.836684,-3256.906145,689.485948,9400.615463
87339.837013,-444.123565,2451.505594,9992.780217
87339.837342,0.000000,-3447.429741,9400.615463
87339.837671,-1332.370696,-2604.724693,10066.800811
87339.838001,666.185348,1838.629195,8586.388927
87339.838330,1776.494261,5439.278036,9992.780217
87339.838659,2664.741391,919.314598,7328.038826
87339.838988,1110.308913,-1838.629195,8142.265362
87339.839317,0.000000,766.095498,6439.791695
87339.839646,444.123565,5439.278036,8142.265362
87339.839975,1998.556043,4136.915689,9104.533087
87339.840305,1850.514855,-383.047749,9252.574275
87339.840634,-814.226536,766.095498,9622.677246
87339.840963,-814.226536,3524.039291,8512.368333
87339.841292,-740.205942,2757.943793,8068.244768
87339.841621,-2664.741391,-2451.505594,7254.018232
87339.841950,-5403.503377,-3600.648841,8142.265362
87339.842279,-5477.523971,76.609550,8734.430116
87339.842609,-4219.173869,2604.724693,9992.780217
87339.842938,-2442.679609,-383.047749,10066.800811
87339.843267,-2146.597232,-2374.896044,9770.718434
87339.843596,-1184.329507,766.095498,9104.533087
87339.843925,1332.370696,3983.696590,9844.739029
87339.844254,1850.514855,2145.067394,9252.574275
87339.844583,1184.329507,-459.657299,9104.533087
87339.844913,962.267725,612.876398,9178.553681
87339.845242,1406.391290,4136.915689,9326.594869
87339.845571,1776.494261,4749.792088,10066.800811
87339.845900,3478.967927,-689.485948,8290.306550
87339.846229,3404.947333,-383.047749,9474.636058
87339.846558,3404.947333,3217.601092,10584.944971
87339.846887,2664.741391,6435.202183,10436.903782
87339.847217,3256.906145,2145.067394,8512.368333
87339.847546,1702.473667,-1302.362347,7994.224174
87339.847875,1184.329507,766.095498,7772.162391
87339.848204,370.102971,4903.011187,8956.491898
87339.848533,518.144159,3294.210641,8216.285956
87339.848862,148.041188,-306.438199,9252.574275
87339.849191,518.144159,-1455.581446,8660.409521
87339.849521,-814.226536,2068.457845,8438.347739
87339.849850,-1406.391290,1915.238745,7772.162391
87339.850179,-2146.597232,-2604.724693,9326.594869
87339.850508,-4219.173869,-3140.991542,11177.109724
87339.850837,-3627.009116,-1532.190996,10214.842000
87339.851166,-2590.720797,-459.657299,11325.150913
87339.851495,-1184.329507,-3370.820191,9918.759623
87339.851825,-962.267725,-2757.943793,12657.521608
87339.852154,0.000000,0.000000,12657.521608
87339.852483,2220.617826,1225.752797,10362.883188
87339.852812,1628.453072,-612.876398,8290.306550
87339.853141,1554.432478,-1991.848295,10066.800811
87339.853470,296.082377,689.485948,9474.636058
87339.853799,592.164754,3294.210641,8734.430116
87339.854129,1702.473667,-306.438199,9474.636058
87339.854458,1554.432478,-2604.724693,10288.862594
87339.854787,1776.494261,-536.266849,9918.759623
87339.855116,1184.329507,3140.991542,9918.759623
87339.855445,518.144159,1149.143247,8438.347739
87339.855774,-444.123565,-4213.525239,7846.182985
87339.856103,-1628.453072,-3294.210641,10214.842000
87339.856432,-2220.617826,1378.971896,8808.450710
87339.856762,-2590.720797,2604.724693,8364.327145
87339.857091,-1258.350101,-2528.115143,7105.977043
87339.857420,-2146.597232,-3447.429741,8290.306550
87339.857749,-2812.782580,459.657299,7920.203579
87339.858078,-2738.761985,4136.915689,8956.491898
87339.858407,-1184.329507,689.485948,9104.533087
87339.858736,-2368.659014,-3677.258390,9178.553681
87339.859066,-3701.029710,-2145.067394,9548.656652
87339.859395,-2812.782580,1991.848295,8808.450710
87339.859724,666.185348,1915.238745,8586.388927
87339.860053,3330.926739,-1762.019645,9548.656652
87339.860382,2368.659014,459.657299,11325.150913
87339.860711,2516.700203,5822.325785,11251.130318
87339.861040,4663.297435,7124.688131,11029.068536
87339.861370,5921.647536,766.095498,8364.327145
87339.861699,2294.638420,-1072.533697,8068.244768
87339.862028,1924.535449,1915.238745,8290.306550
87339.862357,3997.112087,5745.716235,9770.718434
87339.862686,5107.421000,3217.601092,10066.800811
87339.863015,2812.782580,-842.705048,10214.842000
87339.863344,1406.391290,1838.629195,9548.656652
87339.863674,1258.350101,7277.907231,9844.739029
87339.864003,1110.308913,4290.134789,7994.224174
87339.864332,-1702.473667,-1762.019645,6957.935855
87339.864661,-4811.338623,-3064.381992,7624.121203
87339.864990,-5181.441594,689.485948,6883.915261
87339.865319,-4737.318029,2757.943793,8216.285956
87339.865648,-4145.153275,-1608.800546,7772.162391
87339.865978,-4293.194464,-1915.238745,9104.533087
87339.866307,-2442.679609,1072.533697,8882.471304
87339.866636,-1184.329507,4136.915689,9992.780217
87339.866965,518.144159,1302.362347,8438.347739
87339.867294,-518.144159,-1532.190996,8660.409521
87339.867623,-740.205942,-306.438199,8290.306550
87339.867952,1258.350101,2298.286494,8956.491898
87339.868282,1776.494261,2604.724693,11695.253884
87339.868611,1998.556043,76.609550,12287.418637
87339.868940,1998.556043,306.438199,12065.356855
87339.869269,2442.679609,995.924147,10732.986159
87339.869598,1554.432478,229.828649,9622.677246
87339.869927,-222.061783,-2374.896044,7402.059420
87339.870256,-888.247130,-2221.676944,9252.574275
87339.870586,-1554.432478,459.657299,9992.780217
87339.870915,-1480.411884,2145.067394,10881.027347
87339.871244,0.000000,-919.314598,9030.512492
87339.871573,518.144159,-2987.772442,8882.471304
87339.871902,-592.164754,536.266849,10288.862594
87339.872231,-1036.288319,2987.772442,11325.150913
87339.872560,962.267725,-459.657299,7105.977043
87339.872890,-370.102971,-4366.744339,7254.018232
87339.873219,-2368.659014,-3447.429741,8956.491898
87339.873548,-2812.782580,1991.848295,9622.677246
87339.873877,0.000000,1685.410096,9474.636058
87339.874206,814.226536,-2987.772442,10732.986159
87339.874535,-148.041188,-3983.696590,10362.883188
87339.874864,518.144159,1225.752797,9178.553681
87339.875194,1258.350101,3600.648841,9474.636058
87339.875523,1406.391290,-1532.190996,8142.265362
87339.875852,444.123565,-3370.820191,9474.636058
87339.876181,1036.288319,-612.876398,9622.677246
87339.876510,1480.411884,4673.182538,9474.636058
87339.876839,2294.638420,2068.457845,8290.306550
87339.877168,1776.494261,-1532.190996,9474.636058
87339.877498,1554.432478,153.219100,9918.759623
87339.877827,1480.411884,3983.696590,9030.512492
87339.878156,1480.411884,2681.334243,9326.594869
87339.878485,222.061783,-2374.896044,9326.594869
87339.878814,-1702.473667,-995.924147,9548.656652
87339.879143,-592.164754,2681.334243,10066.800811
87339.879472,296.082377,3677.258390,9474.636058
87339.879802,1036.288319,383.047749,7698.141797
87339.880131,1110.308913,76.609550,9622.677246
87339.880460,666.185348,3753.867940,8882.471304
87339.880789,-1406.391290,5439.278036,8734.430116
87339.881118,-370.102971,1072.533697,7179.997637
87339.881447,-1924.535449,-1225.752797,9474.636058
87339.881776,-3849.070898,1302.362347,7920.203579
87339.882105,-4367.215058,3677.258390,7328.038826
87339.882435,-2590.720797,689.485948,6439.791695
87339.882764,-2146.597232,-1915.238745,9030.512492
87339.883093,-2368.659014,919.314598,8734.430116
87339.883422,-1776.494261,4903.011187,9326.594869
87339.883751,-1480.411884,2834.553343,9104.533087
87339.884080,-1332.370696,-1762.019645,9400.615463
87339.884409,-740.205942,-1149.143247,9400.615463
87339.884739,0.000000,2528.115143,8586.388927
87339.885068,1406.391290,1608.800546,8956.491898
87339.885397,2294.638420,-306.438199,8660.409521
87339.885726,1924.535449,383.047749,10436.903782
87339.886055,2294.638420,2834.553343,10362.883188
87339.886384,1998.556043,4213.525239,10436.903782
87339.886713,1998.556043,229.828649,9178.553681
87339.887043,0.000000,-2298.286494,11473.192101
87339.887372,-1332.370696,-1991.848295,9474.636058
87339.887701,-592.164754,-612.876398,9474.636058
87339.888030,740.205942,-842.705048,9696.697840
87339.888359,1184.329507,-1991.848295,11621.233289
87339.888688,888.247130,0.000000,11103.089130
87339.889017,962.267725,1608.800546,10066.800811
87339.889347,1184.329507,229.828649,10140.821405
87339.889676,148.041188,-2911.162892,8216.285956
87339.890005,-296.082377,-2374.896044,8512.368333
87339.890334,888.247130,-306.438199,8142.265362
87339.890663,148.041188,842.705048,9844.739029
87339.890992,888.247130,-919.314598,9992.780217
87339.891321,2368.659014,-1378.971896,10807.006753
87339.891651,2146.597232,1378.971896,10362.883188
87339.891980,1850.514855,3447.429741,9548.656652
87339.892309,1776.494261,842.705048,8660.409521
87339.892638,148.041188,-2374.896044,8290.306550
87339.892967,-2294.638420,-1991.848295,7846.182985
87339.893296,-2590.720797,229.828649,8364.327145
87339.893625,-962.267725,919.314598,9178.553681
87339.893955,-370.102971,-612.876398,8660.409521
87339.894284,-296.082377,-383.047749,9844.739029
87339.894613,-592.164754,1302.362347,9992.780217
87339.894942,-222.061783,2528.115143,10066.800811
87339.895271,1258.350101,-536.266849,9326.594869
87339.895600,-740.205942,-1302.362347,9548.656652
87339.895929,-1998.556043,0.000000,7105.977043
87339.896259,-1480.411884,3064.381992,9918.759623
87339.896588,296.082377,2604.724693,10658.965565
87339.896917,370.102971,1072.533697,9400.615463
87339.897246,0.000000,612.876398,9326.594869
87339.897575,518.144159,2145.067394,9474.636058
87339.897904,-666.185348,3753.867940,9252.574275
87339.898233,-1036.288319,919.314598,7698.141797
87339.898563,-2960.823768,-383.047749,8438.347739
87339.898892,-3182.885551,-383.047749,7698.141797
87339.899221,-1998.556043,2834.553343,8808.450710
87339.899550,-444.123565,2528.115143,7846.182985
87339.899879,-296.082377,1762.019645,9030.512492
87339.900208,888.247130,2528.115143,9178.553681
87339.900537,1776.494261,4213.525239,9030.512492
87339.900867,74.020594,2528.115143,6069.688724
87339.901196,-1406.391290,-306.438199,7476.080014
87339.901525,-1702.473667,0.000000,9474.636058
87339.901854,-1924.535449,2145.067394,10658.965565
87339.902183,-444.123565,0.000000,9252.574275
87339.902512,740.205942,-2298.286494,9770.718434
87339.902841,1406.391290,0.000000,11769.274478
87339.903171,1036.288319,3524.039291,11917.315666
87339.903500,2146.597232,3600.648841,9548.656652
87339.903829,1924.535449,-1072.533697,7994.224174
87339.904158,1332.370696,-1302.362347,9178.553681
87339.904487,888.247130,2145.067394,8660.409521
87339.904816,148.041188,4060.306139,8512.368333
87339.905145,74.020594,-459.657299,9326.594869
87339.905474,518.144159,-3447.429741,10436.903782
87339.905804,-148.041188,-612.876398,9918.759623
87339.906133,222.061783,1762.019645,9104.533087
87339.906462,0.000000,-459.657299,9992.780217
87339.906791,-666.185348,-3524.039291,10584.944971
87339.907120,-1110.308913,-2911.162892,9844.739029
87339.907449,-148.041188,0.000000,9474.636058
87339.907778,1184.329507,842.705048,9844.739029
87339.908107,2442.679609,-689.485948,9030.512492
87339.908436,3034.844362,995.924147,11029.068536
87339.908765,2294.638420,2757.943793,10658.965565
87339.909095,1184.329507,2145.067394,8512.368333
87339.909424,1554.432478,-2145.067394,7105.977043
87339.909753,-518.144159,-2374.896044,8956.491898
87339.910082,-2590.720797,76.609550,8438.347739
87339.910411,-2664.741391,2145.067394,9400.615463
87339.910740,-1850.514855,-1838.629195,9474.636058
87339.911069,-1406.391290,-3830.477490,8956.491898
87339.911398,-740.205942,0.000000,10362.883188
87339.911727,-296.082377,3140.991542,9474.636058
87339.912056,1110.308913,2221.676944,9178.553681
87339.912386,296.082377,-1608.800546,8290.306550
87339.912715,-518.144159,-2221.676944,8956.491898
87339.913044,-1480.411884,2221.676944,8290.306550
87339.913373,1036.288319,2834.553343,9400.615463
87339.913702,1850.514855,76.609550,10288.862594
87339.914031,370.102971,383.047749,10584.944971
87339.914360,0.000000,2145.067394,9178.553681
87339.914689,592.164754,2757.943793,9326.594869
87339.915018,814.226536,-1378.971896,8438.347739
87339.915347,-2146.597232,-2298.286494,10436.903782
87339.915677,-3330.926739,306.438199,9400.615463
87339.916006,-2220.617826,1838.629195,8586.388927
87339.916335,-296.082377,459.657299,8956.491898
87339.916664,0.000000,-1685.410096,9548.656652
87339.916993,-888.247130,3294.210641,9474.636058
87339.917322,592.164754,5669.106685,8290.306550
87339.917651,1628.453072,2834.553343,8512.368333
87339.917980,814.226536,-1532.190996,6217.729913
87339.918309,-1406.391290,0.000000,7846.182985
87339.918638,-1332.370696,3600.648841,9252.574275
87339.918968,-962.267725,3830.477490,9548.656652
87339.919297,-370.102971,-842.705048,9030.512492
87339.919626,0.000000,-2911.162892,9178.553681
87339.919955,0.000000,1532.190996,8660.409521
87339.920284,148.041188,5745.716235,11325.150913
87339.920613,1184.329507,1838.629195,10584.944971
87339.920942,-1628.453072,-2911.162892,9252.574275
87339.921271,-2146.597232,-3524.039291,7328.038826
87339.921600,-1036.288319,612.876398,8438.347739
87339.921929,148.041188,2757.943793,9622.677246
87339.922259,296.082377,536.266849,10955.047942
87339.922588,1480.411884,0.000000,11547.212695
87339.922917,1776.494261,919.314598,10584.944971
87339.923246,1110.308913,1072.533697,8956.491898
87339.923575,2072.576638,-689.485948,8290.306550
87339.923904,1702.473667,-689.485948,10658.965565
87339.924233,1036.288319,612.876398,10362.883188
87339.924562,1332.370696,2451.505594,11029.068536
87339.924891,2072.576638,-1072.533697,8068.244768
87339.925220,1480.411884,-2068.457845,8660.409521
87339.925550,1998.556043,1149.143247,10214.842000
87339.925879,2146.597232,4443.353888,11177.109724
87339.926208,1110.308913,1532.190996,9178.553681
87339.926537,-592.164754,-3447.429741,7920.203579
87339.926866,-2220.617826,-2451.505594,8142.265362
87339.927195,-2442.679609,1378.971896,7476.080014
87339.927524,-1480.411884,2374.896044,8364.327145
87339.927853,0.000000,-1915.238745,8734.430116
87339.928182,592.164754,-2374.896044,11547.212695
87339.928511,0.000000,2298.286494,11251.130318
87339.928841,1184.329507,2757.943793,9696.697840
87339.929170,444.123565,-1685.410096,8068.244768
87339.929499,-1184.329507,-4366.744339,9030.512492
87339.929828,-2442.679609,-919.314598,10214.842000
87339.930157,-2664.741391,3217.601092,10807.006753
87339.930486,-296.082377,-229.828649,7624.121203
87339.930815,74.020594,-3830.477490,8882.471304
87339.931144,222.061783,-842.705048,8364.327145
87339.931473,444.123565,5439.278036,9474.636058
87339.931802,888.247130,5362.668486,9400.615463
87339.932131,1184.329507,-1991.848295,9104.533087
87339.932461,-740.205942,-2528.115143,9548.656652
87339.932790,-592.164754,1915.238745,7328.038826
87339.933119,0.000000,4673.182538,7772.162391
87339.933448,2220.617826,76.609550,7698.141797
87339.933777,444.123565,-1149.143247,11843.295072
87339.934106,-222.061783,1225.752797,10436.903782
87339.934435,-444.123565,4826.401637,8660.409521
87339.934764,-296.082377,842.705048,7328.038826
87339.935093,-1332.370696,-2757.943793,7920.203579
87339.935422,-3256.906145,-1455.581446,8438.347739
87339.935752,-2664.741391,1991.848295,9178.553681
87339.936081,-666.185348,1608.800546,9326.594869
87339.936410,666.185348,-1302.362347,9326.594869
87339.936739,0.000000,306.438199,9548.656652
87339.937068,-1036.288319,4903.011187,8438.347739
87339.937397,-518.144159,4443.353888,8660.409521
87339.937726,74.020594,-2298.286494,7254.018232
87339.938055,-2590.720797,-3983.696590,9474.636058
87339.938384,-4071.132681,153.219100,8216.285956
87339.938713,-2960.823768,2757.943793,9400.615463
87339.939043,-518.144159,-1378.971896,8734.430116
87339.939372,296.082377,-3907.087040,11177.109724
87339.939701,962.267725,536.266849,11177.109724
87339.940030,2146.597232,6052.154434,10584.944971
87339.940359,3997.112087,3524.039291,9400.615463
87339.940688,4219.173869,-2681.334243,9696.697840
87339.941017,1554.432478,-995.924147,9104.533087
87339.941346,1628.453072,3447.429741,9252.574275
87339.941675,3330.926739,3447.429741,10584.944971
87339.942004,2960.823768,-1991.848295,10140.821405
87339.942334,-296.082377,-2451.505594,10658.965565
87339.942663,1036.288319,383.047749,9844.739029
87339.942992,888.247130,3677.258390,10436.903782
87339.943321,444.123565,-1455.581446,8882.471304
87339.943650,-2368.659014,-4290.134789,9844.739029
87339.943979,-2442.679609,-1838.629195,6883.915261
87339.944308,-1258.350101,2451.505594,8364.327145
87339.944637,74.020594,1378.971896,9474.636058
87339.944966,-1110.308913,-1532.190996,8438.347739
87339.945295,-740.205942,-229.828649,9474.636058
87339.945625,1110.308913,2451.505594,11251.130318
87339.945954,1332.370696,1915.238745,10140.821405
87339.946283,0.000000,-1991.848295,8882.471304
87339.946612,-1332.370696,-2834.553343,8512.368333
87339.946941,-740.205942,612.876398,9548.656652
87339.947270,1924.535449,3753.867940,9918.759623
87339.947599,1776.494261,2374.896044,11399.171507
87339.947928,1258.350101,-229.828649,9030.512492
87339.948257,592.164754,306.438199,7624.121203
87339.948586,740.205942,2757.943793,9696.697840
87339.948916,592.164754,689.485948,7994.224174
87339.949245,-962.267725,-612.876398,8808.450710
87339.949574,-1998.556043,-766.095498,9104.533087
87339.949903,-2664.741391,1378.971896,9326.594869
87339.950232,-2146.597232,842.705048,7846.182985
87339.950561,-888.247130,-612.876398,9474.636058
87339.950890,296.082377,612.876398,10140.821405
87339.951219,666.185348,3064.381992,8882.471304
87339.951548,0.000000,2757.943793,7772.162391
87339.951877,-962.267725,229.828649,7698.141797
87339.952207,-1850.514855,76.609550,8956.491898
87339.952536,0.000000,1302.362347,8956.491898
87339.952865,148.041188,2374.896044,10436.903782
87339.953194,370.102971,536.266849,9252.574275
87339.953523,-222.061783,76.609550,10732.986159
87339.953852,1110.308913,2298.286494,10066.800811
87339.954181,962.267725,2451.505594,9696.697840
87339.954510,-296.082377,995.924147,7698.141797
87339.954839,222.061783,-536.266849,8142.265362
87339.955168,-296.082377,1762.019645,8586.388927
87339.955498,-1480.411884,2604.724693,8438.347739
87339.955827,-1332.370696,1072.533697,8290.306550
87339.956156,0.000000,-1072.533697,8438.347739
87339.956485,740.205942,995.924147,10140.821405
87339.956814,-296.082377,3370.820191,10955.047942
87339.957143,-888.247130,1762.019645,9474.636058
87339.957472,0.000000,-3447.429741,7920.203579
87339.957801,-962.267725,-3830.477490,9474.636058
87339.958130,-1554.432478,536.266849,8734.430116
87339.958459,-2072.576638,2834.553343,10214.842000
87339.958789,370.102971,-306.438199,8808.450710
87339.959118,888.247130,-2221.676944,10214.842000
87339.959447,1406.391290,0.000000,10658.965565
87339.959776,1628.453072,3753.867940,10362.883188
87339.960105,3330.926739,2451.505594,8734.430116
87339.960434,4737.318029,-2451.505594,9622.677246
87339.960763,1110.308913,-995.924147,11843.295072
87339.961092,1480.411884,1991.848295,10436.903782
87339.961421,3404.947333,2298.286494,10584.944971
87339.961750,3849.070898,-2528.115143,11177.109724
87339.962080,592.164754,-3217.601092,10807.006753
87339.962409,-666.185348,1532.190996,9474.636058
87339.962738,740.205942,2987.772442,9326.594869
87339.963067,444.123565,-919.314598,7105.977043
87339.963396,-2442.679609,-3524.039291,7476.080014
87339.963725,-3923.091493,-1225.752797,7698.141797
87339.964054,-4219.173869,2834.553343,7846.182985
87339.964383,-2368.659014,0.000000,7920.203579
87339.964712,-1776.494261,-4443.353888,9844.739029
87339.965041,-2146.597232,-1762.019645,9178.553681
87339.965371,-1776.494261,3217.601092,8586.388927
87339.965700,666.185348,2528.115143,8290.306550
87339.966029,592.164754,-2145.067394,8660.409521
87339.966358,-1258.350101,-2528.115143,9474.636058
87339.966687,-1480.411884,1532.190996,8290.306550
87339.967016,740.205942,3983.696590,8808.450710
87339.967345,1850.514855,536.266849,9178.553681
87339.967674,2072.576638,-153.219100,10732.986159
87339.968003,2812.782580,2987.772442,10658.965565
87339.968332,3108.864956,5439.278036,10066.800811
87339.968661,3923.091493,1762.019645,9030.512492
87339.968991,1406.391290,-842.705048,9474.636058
87339.969320,-1036.288319,1302.362347,8512.368333
87339.969649,-1628.453072,5056.230287,8438.347739
87339.969978,-1406.391290,3064.381992,8438.347739
87339.970307,-2738.761985,-2374.896044,8142.265362
87339.970636,-2812.782580,-1455.581446,8956.491898
87339.970965,-2146.597232,2374.896044,9030.512492
87339.971294,-2738.761985,3217.601092,10288.862594
87339.971623,-2590.720797,-1991.848295,9030.512492
87339.971952,-3108.864956,-3524.039291,10214.842000
87339.972282,-1924.535449,-1608.800546,7105.977043
87339.972611,-962.267725,2451.505594,7920.203579
87339.972940,888.247130,1455.581446,8512.368333
87339.973269,666.185348,612.876398,10288.862594
87339.973598,1332.370696,2604.724693,9548.656652
87339.973927,2368.659014,3524.039291,10288.862594
87339.974256,962.267725,1762.019645,9252.574275
87339.974585,592.164754,-1302.362347,8364.327145
87339.974914,0.000000,-1762.019645,8438.347739
87339.975243,-666.185348,459.657299,8882.471304
87339.975573,-814.226536,1915.238745,10510.924376
87339.975902,962.267725,153.219100,9548.656652
87339.976231,2146.597232,842.705048,9104.533087
87339.976560,3034.844362,2298.286494,10066.800811
87339.976889,2146.597232,3983.696590,11325.150913
87339.977218,1702.473667,995.924147,9474.636058
87339.977547,1258.350101,-2068.457845,9178.553681
87339.977876,222.061783,-2145.067394,10066.800811
87339.978205,0.000000,1149.143247,9844.739029
87339.978534,592.164754,995.924147,9104.533087
87339.978864,1776.494261,-153.219100,11029.068536
87339.979193,2072.576638,0.000000,12139.377449
87339.979522,74.020594,2374.896044,11399.171507
87339.979851,-814.226536,1149.143247,9474.636058
87339.980180,-1406.391290,-2298.286494,7105.977043
87339.980509,-2516.700203,-2987.772442,8956.491898
87339.980838,-2516.700203,-459.657299,9252.574275
87339.981167,-2812.782580,1455.581446,9474.636058
87339.981496,-1184.329507,-1608.800546,7772.162391
87339.981825,-814.226536,-2757.943793,9030.512492
87339.982155,-888.247130,0.000000,8660.409521
87339.982484,-148.041188,3524.039291,8808.450710
87339.982813,1110.308913,1608.800546,8068.244768
87339.983142,1480.411884,-1608.800546,8142.265362
87339.983471,74.020594,-766.095498,7179.997637
87339.983800,740.205942,2068.457845,7994.224174
87339.984129,2146.597232,3677.258390,9252.574275
87339.984458,3404.947333,689.485948,10362.883188
87339.984787,3627.009116,0.000000,11325.150913
87339.985116,1924.535449,2451.505594,9992.780217
87339.985446,1184.329507,3600.648841,8956.491898
87339.985775,1332.370696,0.000000,8586.388927
87339.986104,-1332.370696,-2834.553343,9918.759623
87339.986433,-3701.029710,-2451.505594,9252.574275
87339.986762,-4145.153275,229.828649,9400.615463
87339.987091,-2294.638420,-383.047749,9844.739029
87339.987420,-2368.659014,-1532.190996,10807.006753
87339.987749,-2072.576638,383.047749,9400.615463
87339.988078,-1776.494261,2834.553343,7994.224174
87339.988407,-592.164754,1149.143247,6661.853478
87339.988737,0.000000,-536.266849,8216.285956
87339.989066,-2146.597232,1455.581446,10584.944971
87339.989395,-2368.659014,3294.210641,8586.388927
87339.989724,-1184.329507,2068.457845,7920.203579
87339.990053,592.164754,-2068.457845,8364.327145
87339.990382,74.020594,-2221.676944,8660.409521
87339.990711,-296.082377,3447.429741,8438.347739
87339.991040,666.185348,4290.134789,9844.739029
87339.991369,1110.308913,0.000000,8660.409521
87339.991698,-444.123565,-1225.752797,9474.636058
87339.992028,-1110.308913,306.438199,7698.141797
87339.992357,-1406.391290,3217.601092,8438.347739
87339.992686,1036.288319,-383.047749,8808.450710
87339.993015,1554.432478,-2451.505594,11251.130318
87339.993344,370.102971,842.705048,10214.842000
87339.993673,370.102971,2987.772442,9474.636058
87339.994002,1554.432478,1455.581446,9992.780217
87339.994331,888.247130,-2298.286494,9918.759623
87339.994660,-1110.308913,-1608.800546,10732.986159
87339.994989,148.041188,0.000000,10658.965565
87339.995319,444.123565,1532.190996,11843.295072
87339.995648,1628.453072,-995.924147,10658.965565
87339.995977,1850.514855,-1072.533697,10510.924376
87339.996306,2664.741391,1838.629195,10066.800811
87339.996635,2812.782580,3217.601092,9918.759623
87339.996964,2516.700203,1762.019645,10362.883188
87339.997293,1332.370696,-1455.581446,8808.450710
87339.997622,-888.247130,-1378.971896,8438.347739
87339.997951,-1850.514855,1532.190996,9474.636058
87339.998280,444.123565,1532.190996,9474.636058
87339.998610,962.267725,-1455.581446,7402.059420
87339.998939,666.185348,-1302.362347,8660.409521
87339.999268,-296.082377,2221.676944,8512.368333
87339.999597,0.000000,3753.867940,7772.162391
87339.999926,740.205942,1149.143247,7254.018232
87340.000255,-666.185348,0.000000,8512.368333
87340.000584,-1184.329507,842.705048,8068.244768
87340.000913,-666.185348,3294.210641,9992.780217
87340.001242,222.061783,536.266849,9548.656652
87340.001571,-296.082377,-1608.800546,10214.842000
87340.001900,-296.082377,229.828649,10658.965565
87340.002230,0.000000,2451.505594,10288.862594
87340.002559,0.000000,1302.362347,8290.306550
87340.002888,-1184.329507,-1225.752797,9326.594869
87340.003217,-1924.535449,-919.314598,8956.491898
87340.003546,-666.185348,2757.943793,8882.471304
87340.003875,814.226536,3600.648841,9178.553681
87340.004204,740.205942,919.314598,9104.533087
87340.004533,1258.350101,919.314598,9104.533087
87340.004862,1924.535449,2911.162892,9474.636058
87340.005192,1184.329507,4443.353888,10510.924376
87340.005521,888.247130,536.266849,8808.450710
87340.005850,-666.185348,-2068.457845,9030.512492
87340.006179,-1924.535449,-1378.971896,9030.512492
87340.006508,-3182.885551,2374.896044,8882.471304
87340.006837,-2146.597232,229.828649,8216.285956
87340.007166,-370.102971,-2834.553343,9104.533087
87340.007495,-1258.350101,-383.047749,10066.800811
87340.007825,-2146.597232,2987.772442,9844.739029
87340.008154,-1406.391290,2221.676944,7328.038826
87340.008483,-1628.453072,-1915.238745,6661.853478
87340.008812,-3034.844362,-2834.553343,8586.388927
87340.009141,-3923.091493,1608.800546,7994.224174
87340.009470,-2590.720797,2451.505594,6957.935855
87340.009799,-1258.350101,-2757.943793,9104.533087
87340.010128,-888.247130,-4443.353888,11621.233289
87340.010457,-370.102971,-536.266849,11177.109724
87340.010787,-962.267725,3600.648841,11103.089130
87340.011116,2960.823768,-2068.457845,9400.615463
87340.011445,1924.535449,-2987.772442,11325.150913
87340.011774,2368.659014,0.000000,10066.800811
87340.012103,2812.782580,3677.258390,10140.821405
87340.012432,4441.235652,2681.334243,9252.574275
87340.012761,6143.709319,-1762.019645,11547.212695
87340.013090,3627.009116,1149.143247,12287.418637
87340.013420,3034.844362,3983.696590,10214.842000
87340.013749,2368.659014,2911.162892,10584.944971
87340.014078,1480.411884,-3447.429741,8734.430116
87340.014407,-1258.350101,-5209.449386,8734.430116
87340.014736,-2886.803174,-1378.971896,9252.574275
87340.015065,-2960.823768,2834.553343,10955.047942
87340.015394,-2738.761985,-919.314598,9030.512492
87340.015723,-1998.556043,-4673.182538,8512.368333
87340.016052,-1628.453072,-1532.190996,7698.141797
87340.016382,-1998.556043,3677.258390,8142.265362
87340.016711,444.123565,4136.915689,7402.059420
87340.017040,1850.514855,229.828649,9474.636058
87340.017369,-814.226536,-1149.143247,7846.182985
87340.017698,-2368.659014,1455.581446,7698.141797
87340.018027,-814.226536,2451.505594,9104.533087
87340.018356,1628.453072,229.828649,10140.821405
87340.018685,1110.308913,-1225.752797,11695.253884
87340.019015,1850.514855,995.924147,10584.944971
87340.019344,2590.720797,3983.696590,8956.491898
87340.019673,3923.091493,2221.676944,7772.162391
87340.020002,1776.494261,1532.190996,9992.780217
87340.020331,814.226536,2911.162892,7994.224174
87340.020660,2146.597232,4903.011187,8068.244768
87340.020989,3404.947333,2911.162892,8734.430116
87340.021318,444.123565,919.314598,9696.697840
87340.021647,-2146.597232,1991.848295,9918.759623
87340.021977,-1850.514855,3140.991542,11029.068536
87340.022306,-2146.597232,-383.047749,9400.615463
87340.022635,-4515.256246,-4060.306139,8290.306550
87340.022964,-6143.709319,-2451.505594,7994.224174
87340.023293,-5921.647536,919.314598,9104.533087
87340.023622,-4589.276840,1915.238745,9030.512492
87340.023951,-2960.823768,-1378.971896,7772.162391
87340.024280,-2146.597232,-766.095498,8068.244768
87340.024609,-444.123565,2374.896044,7772.162391
87340.024939,1332.370696,4749.792088,9178.553681
87340.025268,2072.576638,2221.676944,8660.409521
87340.025597,0.000000,-689.485948,8660.409521
87340.025926,222.061783,536.266849,7772.162391
87340.026255,1702.473667,3677.258390,8734.430116
87340.026584,1998.556043,2068.457845,8734.430116
87340.026913,1036.288319,-1532.190996,10955.047942
87340.027242,1332.370696,-689.485948,11621.233289
87340.027572,1850.514855,2145.067394,10658.965565
87340.027901,888.247130,2221.676944,10807.006753
87340.028230,-666.185348,-1532.190996,10362.883188
87340.028559,-962.267725,-2451.505594,8216.285956
87340.028888,518.144159,-383.047749,9030.512492
87340.029217,444.123565,1915.238745,11251.130318
87340.029546,148.041188,689.485948,9622.677246
87340.029875,1628.453072,-612.876398,9474.636058
87340.030204,1554.432478,-383.047749,10362.883188
87340.030534,-814.226536,1608.800546,10140.821405
87340.030863,-370.102971,153.219100,8290.306550
87340.031192,1628.453072,-2145.067394,8512.368333
87340.031521,1110.308913,-2604.724693,9474.636058
87340.031850,-296.082377,612.876398,10214.842000
87340.032179,592.164754,2068.457845,9474.636058
87340.032508,2220.617826,229.828649,9104.533087
87340.032837,2220.617826,-766.095498,10807.006753
87340.033167,1776.494261,689.485948,10658.965565
87340.033496,1702.473667,3753.867940,9400.615463
87340.033825,1776.494261,229.828649,7402.059420
87340.034154,-592.164754,-2451.505594,8882.471304
87340.034483,-2516.700203,-1762.019645,7402.059420
87340.034812,-2960.823768,1762.019645,7698.141797
87340.035141,-1480.411884,612.876398,8438.347739
87340.035470,-1036.288319,-1532.190996,10510.924376
87340.035799,-962.267725,-383.047749,10436.903782
87340.036129,-962.267725,2145.067394,9622.677246
87340.036458,0.000000,306.438199,7698.141797
87340.036787,-666.185348,-2221.676944,8882.471304
87340.037116,-1258.350101,-1838.629195,11029.068536
87340.037445,-962.267725,1685.410096,9548.656652
87340.037774,0.000000,2221.676944,8882.471304
87340.038103,2220.617826,-689.485948,9104.533087
87340.038432,3182.885551,536.266849,10881.027347
87340.038762,3108.864956,3907.087040,10510.924376
87340.039091,3256.906145,4519.963438,9474.636058
87340.039420,2220.617826,153.219100,9030.512492
87340.039749,-148.041188,-689.485948,9770.718434
87340.040078,-2590.720797,1378.971896,7846.182985
87340.040407,-3182.885551,1378.971896,6661.853478
87340.040736,-2442.679609,-612.876398,8364.327145
87340.041065,-1554.432478,-1838.629195,9030.512492
87340.041394,-3108.864956,1762.019645,9918.759623
87340.041724,-3552.988522,2681.334243,7179.997637
87340.042053,-2960.823768,459.657299,6587.832884
87340.042382,-3034.844362,-2604.724693,6513.812290
87340.042711,-3997.112087,-306.438199,8586.388927
87340.043040,-3627.009116,1378.971896,8956.491898
87340.043369,-2368.659014,1302.362347,8068.244768
87340.043698,-740.205942,-1149.143247,9918.759623
87340.044027,1850.514855,-536.266849,10658.965565
87340.044357,2812.782580,3294.210641,10288.862594
87340.044686,3552.988522,4136.915689,10066.800811
87340.045015,4293.194464,995.924147,10584.944971
87340.045344,2590.720797,-766.095498,9844.739029
87340.045673,1480.411884,-153.219100,9104.533087
87340.046002,1036.288319,2068.457845,10066.800811
87340.046331,3775.050304,229.828649,10955.047942
87340.046660,3701.029710,-1149.143247,11399.171507
87340.046989,3923.091493,383.047749,10807.006753
87340.047319,2886.803174,3140.991542,9770.718434
87340.047648,2368.659014,3907.087040,8734.430116
87340.047977,1998.556043,-995.924147,6513.812290
87340.048306,-1554.432478,-766.095498,8068.244768
87340.048635,-2516.700203,0.000000,8216.285956
87340.048964,-1480.411884,153.219100,10214.842000
87340.049293,-1406.391290,-2987.772442,11251.130318
87340.049622,-4293.194464,-4290.134789,12213.398043
87340.049952,-3701.029710,-2834.553343,10436.903782
87340.050281,-1554.432478,-995.924147,10955.047942
87340.050610,-1406.391290,-2451.505594,10436.903782
87340.050939,-1998.556043,-3447.429741,8586.388927
87340.051268,-1628.453072,-612.876398,8808.450710
87340.051597,-592.164754,2528.115143,8438.347739
87340.051926,0.000000,2451.505594,7994.224174
87340.052255,1184.329507,689.485948,7550.100608
87340.052584,1184.329507,1762.019645,9696.697840
87340.052914,1628.453072,3983.696590,9178.553681
87340.053243,2664.741391,2987.772442,10214.842000
87340.053572,1628.453072,-1225.752797,8364.327145
87340.053901,-1036.288319,-1685.410096,8364.327145
87340.054230,-1110.308913,1532.190996,8808.450710
87340.054559,518.144159,5056.230287,10362.883188
87340.054888,740.205942,2374.896044,8290.306550
87340.055217,740.205942,-1378.971896,7920.203579
87340.055547,1036.288319,1838.629195,10510.924376
87340.055876,2220.617826,7124.688131,10510.924376
87340.056205,3034.844362,4903.011187,8512.368333
87340.056534,888.247130,-383.047749,7179.997637
87340.056863,-1628.453072,-612.876398,7624.121203
87340.057192,-1628.453072,4979.620737,8290.306550
87340.057521,-296.082377,5286.058936,9622.677246
87340.057850,-666.185348,-153.219100,9178.553681
87340.058179,-1850.514855,-2451.505594,10288.862594
87340.058509,-2442.679609,1302.362347,10436.903782
87340.058838,-2368.659014,4903.011187,10214.842000
87340.059167,-2294.638420,153.219100,8068.244768
87340.059496,-2590.720797,-4749.792088,6957.935855
87340.059825,-2442.679609,-2528.115143,7105.977043
87340.060154,-1702.473667,3907.087040,7994.224174
87340.060483,296.082377,4903.011187,9770.718434
87340.060812,2072.576638,1455.581446,10362.883188
87340.061142,2812.782580,536.266849,9918.759623
87340.061471,3034.844362,2911.162892,10066.800811
87340.061800,4071.132681,3447.429741,7105.977043
87340.062129,3034.844362,383.047749,9400.615463
87340.062458,1850.514855,-2604.724693,11103.089130
87340.062787,74.020594,-842.705048,10436.903782
87340.063116,-666.185348,2451.505594,9770.718434
87340.063445,666.185348,-689.485948,8586.388927
87340.063774,-222.061783,-2451.505594,10214.842000
87340.064104,296.082377,-383.047749,12139.377449
87340.064433,-370.102971,1685.410096,10955.047942
87340.064762,-444.123565,-995.924147,8438.347739
87340.065091,-1036.288319,-5209.449386,8586.388927
87340.065420,-3478.967927,-3217.601092,9548.656652
87340.065749,-3997.112087,229.828649,8956.491898
87340.066078,-3034.844362,-229.828649,9918.759623
87340.066407,-666.185348,-4290.134789,11103.089130
87340.066737,-370.102971,-4213.525239,10584.944971
87340.067066,-148.041188,-689.485948,8438.347739
87340.067395,74.020594,919.314598,9030.512492
87340.067724,444.123565,-995.924147,10214.842000
87340.068053,592.164754,-2681.334243,9474.636058
87340.068382,1776.494261,-1991.848295,9178.553681
87340.068711,2072.576638,1838.629195,8586.388927
87340.069040,2220.617826,1225.752797,8586.388927
87340.069369,3034.844362,-153.219100,9992.780217
87340.069699,2368.659014,76.609550,10214.842000
87340.070028,0.000000,1991.848295,9474.636058
87340.070357,1258.350101,0.000000,8438.347739
87340.070686,1406.391290,-2911.162892,8142.265362
87340.071015,-1628.453072,-2604.724693,8438.347739
87340.071344,-2072.576638,-1072.533697,8808.450710
87340.071673,-888.247130,0.000000,10066.800811
87340.072002,0.000000,-1991.848295,9474.636058
87340.072332,-1258.350101,-2374.896044,9770.718434
87340.072661,-1406.391290,919.314598,10362.883188
87340.072990,-370.102971,3753.867940,12139.377449
87340.073319,0.000000,995.924147,9992.780217
87340.073648,-2146.597232,-1915.238745,9326.594869
87340.073977,-3552.988522,-1072.533697,8512.368333
87340.074306,-2886.803174,2681.334243,8882.471304
87340.074635,-1332.370696,3064.381992,8586.388927
87340.074964,-1776.494261,0.000000,8512.368333
87340.075294,-3034.844362,689.485948,8364.327145
87340.075623,-962.267725,3907.087040,9104.533087
87340.075952,370.102971,4979.620737,8290.306550
87340.076281,222.061783,1455.581446,7179.997637
87340.076610,-1628.453072,0.000000,7624.121203
87340.076939,-962.267725,3294.210641,7772.162391
87340.077268,2442.679609,6358.592633,9104.533087
87340.077597,3330.926739,2834.553343,8142.265362
87340.077927,814.226536,995.924147,7698.141797
87340.078256,1776.494261,3983.696590,9548.656652
87340.078585,2812.782580,7354.516781,10584.944971
87340.078914,2072.576638,4673.182538,8956.491898
87340.079243,-962.267725,-766.095498,7624.121203
87340.079572,-2738.761985,-383.047749,7328.038826
87340.079901,-4219.173869,4673.182538,10807.006753
87340.080230,-6143.709319,4366.744339,12731.542202
87340.080559,-7402.059420,-3677.258390,9178.553681
87340.080889,-8364.327145,-7814.174080,8882.471304
87340.081218,-6439.791695,-4903.011187,10214.842000
87340.081547,-6661.853478,2451.505594,12953.603985
87340.081876,-5699.585753,1991.848295,10955.047942
87340.082205,-4219.173869,-5898.935335,8586.388927
87340.082534,-3330.926739,-6665.030833,7105.977043
87340.082863,-1924.535449,-995.924147,7031.956449
87340.083192,-444.123565,4290.134789,9030.512492
87340.083522,3256.906145,229.828649,8142.265362
87340.083851,5033.400406,-3753.867940,9104.533087
87340.084180,4811.338623,-536.266849,10881.027347
87340.084509,5329.482782,3830.477490,10436.903782
87340.084838,6069.688724,2145.067394,9844.739029
87340.085167,4663.297435,-4596.572988,10214.842000
87340.085496,962.267725,-6818.249932,10362.883188
87340.085825,-1480.411884,-3524.039291,10214.842000
87340.086154,-1998.556043,-2834.553343,10955.047942
87340.086484,-2812.782580,-8197.221829,10658.965565
87340.086813,-5477.523971,-10418.898773,9474.636058
87340.087142,-7328.038826,-6588.421283,9770.718434
87340.087471,-5699.585753,-3064.381992,9770.718434
87340.087800,-4737.318029,-4903.011187,9326.594869
87340.088129,-6217.729913,-9422.974625,8438.347739
87340.088458,-7254.018232,-7967.393179,8660.409521
87340.088787,-7105.977043,-3524.039291,8660.409521
87340.089117,-4737.318029,-3370.820191,10732.986159
87340.089446,-4071.132681,-7507.735880,11177.109724
87340.089775,-3849.070898,-8350.440928,10510.924376
87340.090104,-4071.132681,-3983.696590,10658.965565
87340.090433,222.061783,-2298.286494,9622.677246
87340.090762,1924.535449,-2911.162892,9548.656652
87340.091091,1998.556043,-2528.115143,8068.244768
87340.091420,2812.782580,1455.581446,8142.265362
87340.091749,2442.679609,4443.353888,8438.347739
87340.092079,1628.453072,2451.505594,9326.594869
87340.092408,-518.144159,-1225.752797,8364.327145
87340.092737,-1850.514855,-2528.115143,7179.997637
87340.093066,-3478.967927,0.000000,8364.327145
87340.093395,-3478.967927,153.219100,9326.594869
87340.093724,-4515.256246,-1838.629195,9474.636058
87340.094053,-6217.729913,-3140.991542,8882.471304
87340.094382,-5625.565159,-995.924147,6809.894666
87340.094712,-3701.029710,2451.505594,7698.141797
87340.095041,-3034.844362,3983.696590,9030.512492
87340.095370,-3552.988522,3294.210641,9104.533087
87340.095699,-3256.906145,1838.629195,8808.450710
87340.096028,-4145.153275,306.438199,7994.224174
87340.096357,-3923.091493,-1302.362347,7994.224174
87340.096686,-3330.926739,-1225.752797,9992.780217
87340.097015,-2294.638420,76.609550,11769.274478
87340.097344,-814.226536,1149.143247,11473.192101
87340.097674,-222.061783,306.438199,9770.718434
87340.098003,-444.123565,459.657299,7772.162391
87340.098332,1776.494261,3447.429741,7476.080014
87340.098661,3478.967927,5515.887586,8364.327145
87340.098990,3478.967927,5592.497135,8882.471304
87340.099319,1184.329507,3830.477490,8956.491898
87340.099648,296.082377,919.314598,8364.327145
87340.099977,0.000000,-612.876398,9474.636058
87340.100307,-1924.535449,-1991.848295,11251.130318
87340.100636,-4737.318029,-4060.306139,12065.356855
87340.100965,-4885.359217,-6818.249932,10955.047942
87340.101294,-4145.153275,-7584.345430,11769.274478
87340.101623,-4515.256246,-6052.154434,12435.459826
87340.101952,-4811.338623,-3140.991542,10584.944971
87340.102281,-2812.782580,-1762.019645,8882.471304
87340.102610,0.000000,-1608.800546,10066.800811
87340.102939,-666.185348,-459.657299,9400.615463
87340.103269,-1406.391290,306.438199,7402.059420
87340.103598,-1258.350101,-383.047749,6365.771101
87340.103927,-1406.391290,-1838.629195,6217.729913
87340.104256,-2590.720797,-2757.943793,7772.162391
87340.104585,-3108.864956,-2834.553343,9400.615463
87340.104914,-4515.256246,-3907.087040,9178.553681
87340.105243,-5181.441594,-7354.516781,10881.027347
87340.105572,-5403.503377,-9116.536426,11325.150913
87340.105902,-4441.235652,-8810.098227,9696.697840
87340.106231,-2886.803174,-6665.030833,9030.512492
87340.106560,-592.164754,-3830.477490,9844.739029
87340.106889,370.102971,-995.924147,10658.965565
87340.107218,1702.473667,1838.629195,9474.636058
87340.107547,2960.823768,2604.724693,8216.285956
87340.107877,2220.617826,2068.457845,7476.080014
87340.108206,296.082377,995.924147,6365.771101
87340.108535,-2146.597232,0.000000,7402.059420
87340.108864,-5033.400406,-1762.019645,9104.533087
87340.109193,-7994.224174,-5439.278036,8660.409521
87340.109522,-10955.047942,-7507.735880,8364.327145
87340.109852,-10066.800811,-9422.974625,8512.368333
87340.110181,-9030.512492,-7890.783629,10140.821405
87340.110510,-7031.956449,-6205.373534,11251.130318
87340.110839,-2664.741391,-4903.011187,12805.562797
87340.111168,-296.082377,-1685.410096,11843.295072
87340.111497,3182.885551,536.266849,10510.924376
87340.111827,5477.523971,2757.943793,9992.780217
87340.112156,5847.626942,4519.963438,9918.759623
87340.112485,5847.626942,4749.792088,10807.006753
87340.112814,4515.256246,4596.572988,11325.150913
87340.113143,2812.782580,3907.087040,9770.718434
87340.113472,370.102971,2604.724693,8438.347739
87340.113802,-2960.823768,766.095498,7846.182985
87340.114131,-6365.771101,-536.266849,7105.977043
87340.114460,-8290.306550,-2374.896044,7920.203579
87340.114789,-9770.718434,-4443.353888,7772.162391
87340.115118,-10881.027347,-6128.763984,7254.018232
87340.115447,-10732.986159,-5286.058936,6809.894666
87340.115777,-7846.182985,-4213.525239,8142.265362
87340.116106,-4959.379811,-2834.553343,9770.718434
87340.116435,-2812.782580,-2834.553343,11177.109724
87340.116764,0.000000,-1378.971896,11251.130318
87340.117093,3478.967927,842.705048,10955.047942
87340.117422,6365.771101,3524.039291,11621.233289
87340.117752,6365.771101,5362.668486,11769.274478
87340.118081,5477.523971,5898.935335,10214.842000
87340.118410,5403.503377,4443.353888,9622.677246
87340.118739,3552.988522,2911.162892,10436.903782
87340.119068,962.267725,2068.457845,9992.780217
87340.119397,-3034.844362,0.000000,8586.388927
87340.119727,-5847.626942,-2757.943793,8512.368333
87340.120056,-7031.956449,-5056.230287,8734.430116
87340.120385,-7105.977043,-5898.935335,9622.677246
87340.120714,-7105.977043,-5362.668486,9178.553681
87340.121043,-6069.688724,-4903.011187,8216.285956
87340.121372,-4071.132681,-3907.087040,8216.285956
87340.121702,-1184.329507,-1762.019645,9178.553681
87340.122031,740.205942,1455.581446,8734.430116
87340.122360,1924.535449,2987.772442,7846.182985
87340.122689,2960.823768,2451.505594,7105.977043
87340.123018,3478.967927,2911.162892,7105.977043
87340.123347,2442.679609,3370.820191,7254.018232
87340.123677,0.000000,1762.019645,7772.162391
87340.124006,-2960.823768,-612.876398,8142.265362
87340.124335,-5699.585753,-3524.039291,9030.512492
87340.124664,-7846.182985,-5975.544884,9696.697840
87340.124993,-9474.636058,-6588.421283,9400.615463
87340.125322,-10288.862594,-8197.221829,9622.677246
87340.125652,-9844.739029,-9806.022374,10066.800811
87340.125981,-8512.368333,-8886.707777,10881.027347
87340.126310,-6587.832884,-6818.249932,11473.192101
87340.126639,-3404.947333,-4826.401637,11325.150913
87340.126968,-592.164754,-3370.820191,11547.212695
87340.127297,1406.391290,-1225.752797,11621.233289
87340.127627,2368.659014,1072.533697,11917.315666
87340.127956,3552.988522,2298.286494,10732.986159
87340.128285,3256.906145,-306.438199,9030.512492
87340.128614,2590.720797,-1455.581446,8068.244768
87340.128943,1184.329507,-1532.190996,8216.285956
87340.129272,-740.205942,229.828649,9474.636058
87340.129602,-1850.514855,-842.705048,9770.718434
87340.129931,-2812.782580,-3140.991542,8956.491898
87340.130260,-4515.256246,-5745.716235,7994.224174
87340.130589,-6143.709319,-4443.353888,7994.224174
87340.130918,-4515.256246,-2451.505594,8290.306550
87340.131247,-3404.947333,-2604.724693,8586.388927
87340.131577,-3034.844362,-3600.648841,8290.306550
87340.131906,-1554.432478,-2681.334243,8586.388927
87340.132235,-592.164754,76.609550,8364.327145
87340.132564,-444.123565,2528.115143,7328.038826
87340.132893,1554.432478,1302.362347,7402.059420
87340.133222,3849.070898,1072.533697,8438.347739
87340.133552,3552.988522,3600.648841,9474.636058
87340.133881,1480.411884,4673.182538,9770.718434
87340.134210,1184.329507,2374.896044,10584.944971
87340.134539,1554.432478,-995.924147,11547.212695
87340.134868,666.185348,153.219100,12213.398043
87340.135197,-592.164754,2221.676944,12583.501014
87340.135527,-1702.473667,1762.019645,11991.336260
87340.135856,-2072.576638,-1149.143247,11325.150913
87340.136185,-3108.864956,-1685.410096,11177.109724
87340.136514,-4293.194464,919.314598,10362.883188
87340.136843,-4663.297435,3600.648841,9548.656652
87340.137172,-4441.235652,2834.553343,8142.265362
87340.137502,-3775.050304,306.438199,8068.244768
87340.137831,-5403.503377,1149.143247,6883.915261
87340.138160,-7031.956449,2145.067394,5403.503377
87340.138489,-7179.997637,1378.971896,4811.338623
87340.138818,-5773.606348,-1072.533697,5107.421000
87340.139147,-6143.709319,-1072.533697,6439.791695
87340.139477,-5921.647536,0.000000,7179.997637
87340.139806,-5255.462188,-919.314598,7031.956449
87340.140135,-2738.761985,-3447.429741,7920.203579
87340.140464,0.000000,-4136.915689,9400.615463
87340.140793,1184.329507,-1149.143247,9622.677246
87340.141122,2368.659014,76.609550,10658.965565
87340.141452,4145.153275,-1378.971896,11473.192101
87340.141781,3997.112087,-2451.505594,11695.253884
87340.142110,3182.885551,-2068.457845,11473.192101
87340.142439,1628.453072,-1455.581446,10732.986159
87340.142768,-148.041188,-3064.381992,10732.986159
87340.143097,-3256.906145,-6588.421283,11029.068536
87340.143427,-6957.935855,-8044.002729,10881.027347
87340.143756,-8956.491898,-8503.660028,9548.656652
87340.144085,-9622.677246,-8886.707777,9548.656652
87340.144414,-9918.759623,-10418.898773,9844.739029
87340.144743,-10214.842000,-10495.508323,9548.656652
87340.145072,-9770.718434,-8580.269578,8882.471304
87340.145402,-8216.285956,-7660.954980,7994.224174
87340.145731,-5625.565159,-8197.221829,8068.244768
87340.146060,-3182.885551,-7354.516781,8586.388927
87340.146389,-1480.411884,-4443.353888,8068.244768
87340.146718,1258.350101,-3217.601092,9474.636058
87340.147047,3330.926739,-3140.991542,10658.965565
87340.147377,3775.050304,-2834.553343,10955.047942
87340.147706,4515.256246,-1915.238745,10436.903782
87340.148035,4811.338623,-842.705048,10362.883188
87340.148364,4885.359217,-995.924147,10510.924376
87340.148693,3997.112087,-1608.800546,11769.274478
87340.149022,3034.844362,-536.266849,11843.295072
87340.149352,2072.576638,229.828649,10732.986159
87340.149681,518.144159,0.000000,10362.883188
87340.150010,-814.226536,459.657299,9770.718434
87340.150339,-2812.782580,459.657299,8438.347739
87340.150668,-4293.194464,459.657299,8882.471304
87340.150997,-5255.462188,306.438199,8660.409521
87340.151327,-6143.709319,-306.438199,8290.306550
87340.151656,-7105.977043,0.000000,7624.121203
87340.151985,-6661.853478,459.657299,8068.244768
87340.152314,-6735.874072,229.828649,8290.306550
87340.152643,-6069.688724,612.876398,8290.306550
87340.152972,-4811.338623,842.705048,8512.368333
87340.153302,-3108.864956,2298.286494,8142.265362
87340.153631,-296.082377,4060.306139,8956.491898
87340.153960,888.247130,5822.325785,9178.553681
87340.154289,1406.391290,6128.763984,7624.121203
87340.154618,2960.823768,6588.421283,6661.853478
87340.154947,4071.132681,6665.030833,7476.080014
87340.155277,2738.761985,7584.345430,8216.285956
87340.155606,370.102971,7737.564530,7846.182985
87340.155935,-1480.411884,3524.039291,7624.121203
87340.156264,-3478.967927,-536.266849,7920.203579
87340.156593,-6439.791695,-2374.896044,8734.430116
87340.156922,-7624.121203,-2451.505594,9918.759623
87340.157252,-7698.141797,-3370.820191,9918.759623
87340.157581,-6365.771101,-5592.497135,10658.965565
87340.157910,-4663.297435,-5669.106685,11769.274478
87340.158239,-2886.803174,-2987.772442,11621.233289
87340.158568,-1406.391290,-383.047749,10584.944971
87340.158897,888.247130,-612.876398,10436.903782
87340.159227,1702.473667,-1762.019645,10214.842000
87340.159556,296.082377,-459.657299,9178.553681
87340.159885,-370.102971,-536.266849,8290.306550
87340.160214,-1850.514855,-2528.115143,7476.080014
87340.160543,-2516.700203,-4903.011187,7846.182985
87340.160872,-3404.947333,-5209.449386,9252.574275
87340.161202,-5181.441594,-4213.525239,8882.471304
87340.161531,-5329.482782,-5822.325785,7550.100608
87340.161860,-4663.297435,-8810.098227,6957.935855
87340.162189,-4885.359217,-8810.098227,7920.203579
87340.162518,-4071.132681,-6741.640382,8660.409521
87340.162847,-814.226536,-4673.182538,9252.574275
87340.163177,2220.617826,-5822.325785,10807.006753
87340.163506,2738.761985,-5592.497135,12139.377449
87340.163835,3478.967927,-3064.381992,12509.480420
87340.164164,5181.441594,-2221.676944,12509.480420
87340.164493,4885.359217,-2834.553343,12953.603985
87340.164822,2886.803174,-3830.477490,14211.954086
87340.165152,1406.391290,-2528.115143,13027.624579
87340.165481,592.164754,-459.657299,10807.006753
87340.165810,-2368.659014,-995.924147,10955.047942
87340.166139,-6587.832884,-3140.991542,9992.780217
87340.166468,-8438.347739,-3677.258390,6883.915261
87340.166797,-9252.574275,-2987.772442,6217.729913
87340.167127,-10436.903782,-3830.477490,6957.935855
87340.167456,-11991.336260,-4519.963438,7031.956449
87340.167785,-10955.047942,-3983.696590,6661.853478
87340.168114,-8882.471304,-3907.087040,6883.915261
87340.168443,-7772.162391,-4213.525239,8068.244768
87340.168772,-5773.606348,-3600.648841,8882.471304
87340.169102,-1998.556043,-1225.752797,9918.759623
87340.169431,1998.556043,1838.629195,10881.027347
87340.169760,5773.606348,4060.306139,10214.842000
87340.170089,6365.771101,6741.640382,10584.944971
87340.170418,6661.853478,8963.317327,9252.574275
87340.170747,7994.224174,8810.098227,6883.915261
87340.171077,8142.265362,8427.050478,7624.121203
87340.171406,2368.659014,7048.078582,9622.677246
87340.171735,-3404.947333,5822.325785,9474.636058
87340.172064,-7031.956449,1225.752797,8956.491898
87340.172393,-9696.697840,-6588.421283,8290.306550
87340.172722,-14359.995275,-11338.213370,8660.409521
87340.173052,-15174.221811,-8963.317327,8142.265362
87340.173381,-12879.583391,-5898.935335,10214.842000
87340.173710,-9622.677246,-6128.763984,10584.944971
87340.174039,-6513.812290,-5439.278036,10807.006753
87340.174368,-2442.679609,-612.876398,9178.553681
87340.174697,4145.153275,4366.744339,7328.038826
87340.175027,8364.327145,7660.954980,9252.574275
87340.175356,9548.656652,9116.536426,10436.903782
87340.175685,8956.491898,8197.221829,9474.636058
87340.176014,7624.121203,4519.963438,8364.327145
87340.176343,3478.967927,612.876398,8438.347739
87340.176672,-962.267725,-2834.553343,7994.224174
87340.177002,-3256.906145,-4060.306139,9474.636058
87340.177331,-3923.091493,-4826.401637,10140.821405
87340.177660,-5329.482782,-7124.688131,9548.656652
87340.177989,-6439.791695,-8656.879127,8660.409521
87340.178318,-4737.318029,-7354.516781,6957.935855
87340.178647,-2146.597232,-3140.991542,6143.709319
87340.178977,370.102971,229.828649,8734.430116
87340.179306,1850.514855,1378.971896,10214.842000
87340.179635,2368.659014,229.828649,8956.491898
87340.179964,3256.906145,-1915.238745,8586.388927
87340.180293,2220.617826,-1915.238745,9548.656652
87340.180622,74.020594,-306.438199,11177.109724
87340.180952,-370.102971,0.000000,13249.686362
87340.181281,-222.061783,-2681.334243,13249.686362
87340.181610,-2812.782580,-4826.401637,11325.150913
87340.181939,-7031.956449,-6128.763984,10510.924376
87340.182268,-7254.018232,-5056.230287,9252.574275
87340.182597,-6883.915261,-5132.839837,9326.594869
87340.182927,-8956.491898,-6205.373534,10140.821405
87340.183256,-9844.739029,-6741.640382,9326.594869
87340.183585,-7402.059420,-5745.716235,7476.080014
87340.183914,-4293.194464,-4519.963438,8438.347739
87340.184243,-888.247130,-2987.772442,9844.739029
87340.184572,1406.391290,153.219100,10881.027347
87340.184902,1628.453072,3370.820191,10214.842000
87340.185231,2368.659014,2221.676944,9474.636058
87340.185560,4367.215058,1149.143247,7624.121203
87340.185889,3256.906145,1991.848295,8290.306550
87340.186218,148.041188,4290.134789,8882.471304
87340.186547,0.000000,3907.087040,9030.512492
87340.186877,814.226536,-229.828649,8438.347739
87340.187206,-444.123565,-2604.724693,8364.327145
87340.187535,-3108.864956,-1685.410096,8438.347739
87340.187864,-5773.606348,1455.581446,10510.924376
87340.188193,-3923.091493,-612.876398,9992.780217
87340.188522,-2516.700203,-4596.572988,9400.615463
87340.188852,-4071.132681,-5056.230287,8808.450710
87340.189181,-4737.318029,-766.095498,8290.306550
87340.189510,-2368.659014,4749.792088,8586.388927
87340.189839,1776.494261,2757.943793,9770.718434
87340.190168,2960.823768,612.876398,10288.862594
87340.190497,2442.679609,3370.820191,9104.533087
87340.190827,1554.432478,8656.879127,10362.883188
87340.191156,3404.947333,6358.592633,9918.759623
87340.191485,2220.617826,229.828649,8364.327145
87340.191814,-518.144159,-1838.629195,5477.523971
87340.192143,-3701.029710,2374.896044,7402.059420
87340.192472,-1480.411884,4979.620737,9400.615463
87340.192802,1258.350101,1302.362347,9770.718434
87340.193131,1332.370696,-2374.896044,11029.068536
87340.193460,1628.453072,76.609550,9252.574275
87340.193789,3256.906145,6741.640382,9178.553681
87340.194118,6883.915261,5056.230287,8364.327145
87340.194447,6069.688724,1455.581446,9400.615463
87340.194777,3404.947333,2068.457845,7772.162391
87340.195106,4589.276840,6128.763984,8216.285956
87340.195435,5329.482782,7277.907231,8586.388927
87340.195764,4737.318029,3524.039291,9104.533087
87340.196093,1998.556043,1378.971896,10362.883188
87340.196422,-444.123565,3907.087040,10140.821405
87340.196752,-2072.576638,2604.724693,8660.409521
87340.197081,-2960.823768,-3064.381992,8586.388927
87340.197410,-4811.338623,-5362.668486,9474.636058
87340.197739,-5847.626942,-2298.286494,9696.697840
87340.198068,-4737.318029,0.000000,10066.800811
87340.198397,-2960.823768,-3140.991542,9326.594869
87340.198727,-2368.659014,-5056.230287,10510.924376
87340.199056,-296.082377,-2681.334243,9696.697840
87340.199385,1554.432478,2451.505594,10881.027347
87340.199714,2516.700203,1991.848295,9696.697840
87340.200043,3182.885551,-1685.410096,9178.553681
87340.200372,2516.700203,-842.705048,9400.615463
87340.200702,74.020594,3753.867940,9770.718434
87340.201031,962.267725,3140.991542,8068.244768
87340.201360,2220.617826,-842.705048,8956.491898
87340.201689,1406.391290,-2221.676944,10436.903782
87340.202018,-1924.535449,1532.190996,10362.883188
87340.202347,-2368.659014,1608.800546,9178.553681
87340.202677,-3627.009116,-4596.572988,8290.306550
87340.203006,-7328.038826,-8656.879127,9030.512492
87340.203335,-6143.709319,-5515.887586,7994.224174
87340.203664,-4071.132681,0.000000,10584.944971
87340.203993,-2516.700203,-1532.190996,9622.677246
87340.204322,-962.267725,-4903.011187,10140.821405
87340.204652,962.267725,-3217.601092,10584.944971
87340.204982,2146.597232,3753.867940,11177.109724
87340.205312,2960.823768,5515.887586,9548.656652
87340.205641,4145.153275,1072.533697,8808.450710
87340.205970,3034.844362,-1072.533697,8734.430116
87340.206299,740.205942,1685.410096,7328.038826
87340.206628,-518.144159,4443.353888,7772.162391
87340.206958,592.164754,1762.019645,9030.512492
87340.207287,222.061783,-1532.190996,11177.109724
87340.207616,-2590.720797,-1149.143247,10732.986159
87340.207945,-4515.256246,689.485948,9918.759623
87340.208274,-3478.967927,-2221.676944,7624.121203
87340.208604,-2442.679609,-5132.839837,7772.162391
87340.208933,-2072.576638,-3600.648841,7698.141797
87340.209262,-1480.411884,2681.334243,8734.430116
87340.209591,0.000000,5515.887586,10510.924376
87340.209920,3256.906145,2681.334243,10288.862594
87340.210250,3627.009116,1532.190996,10066.800811
87340.210579,2960.823768,3983.696590,9326.594869
87340.210908,2146.597232,5592.497135,8290.306550
87340.211237,3404.947333,2604.724693,7402.059420
87340.211566,2590.720797,-1608.800546,8734.430116
87340.211896,-1406.391290,383.047749,10066.800811
87340.212225,-2812.782580,4290.134789,10288.862594
87340.212554,-1702.473667,2834.553343,9474.636058
87340.212883,370.102971,-2681.334243,9400.615463
87340.213212,148.041188,-2451.505594,9992.780217
87340.213542,-296.082377,3677.258390,9992.780217
87340.213871,1036.288319,5592.497135,7846.182985
87340.214200,2442.679609,1302.362347,7476.080014
87340.214529,2442.679609,-689.485948,6587.832884
87340.214858,444.123565,5669.106685,7698.141797
87340.215187,2072.576638,9346.365076,7698.141797
87340.215517,2886.803174,4903.011187,8808.450710
87340.215846,1554.432478,-612.876398,9548.656652
87340.216175,0.000000,-459.657299,10214.842000
87340.216504,74.020594,3447.429741,9326.594869
87340.216833,0.000000,1532.190996,9474.636058
87340.217163,-2368.659014,-2451.505594,11325.150913
87340.217492,-2664.741391,-3370.820191,10584.944971
87340.217821,-1554.432478,1225.752797,8512.368333
87340.218150,1628.453072,2374.896044,8290.306550
87340.218479,1480.411884,1532.190996,11843.295072
87340.218809,1554.432478,1149.143247,10881.027347
87340.219138,2072.576638,2987.772442,9918.759623
87340.219467,2590.720797,2145.067394,9770.718434
87340.219796,148.041188,-842.705048,9548.656652
87340.220125,-1258.350101,-1838.629195,8438.347739
87340.220455,-1332.370696,-536.266849,8438.347739
87340.220784,-2294.638420,842.705048,9548.656652
87340.221113,-1776.494261,-612.876398,10658.965565
87340.221442,296.082377,-766.095498,11621.233289
87340.221771,296.082377,153.219100,9252.574275
87340.222101,-1554.432478,536.266849,9252.574275
87340.222430,-1924.535449,-1225.752797,7920.203579
87340.222759,-1554.432478,-2528.115143,7624.121203
87340.223088,-2072.576638,-2757.943793,8142.265362
87340.223417,-3182.885551,-536.266849,8808.450710
87340.223747,-2664.741391,-383.047749,7105.977043
87340.224076,-1628.453072,-1149.143247,8068.244768
87340.224405,-518.144159,-2451.505594,10288.862594
87340.224734,0.000000,-766.095498,10732.986159
87340.225063,222.061783,766.095498,9696.697840
87340.225393,1110.308913,-1302.362347,8660.409521
87340.225722,1184.329507,-2528.115143,9326.594869
87340.226051,1332.370696,0.000000,9992.780217
87340.226380,1480.411884,3907.087040,10732.986159
87340.226709,2146.597232,2298.286494,9474.636058
87340.227039,2294.638420,-536.266849,9844.739029
87340.227368,1480.411884,-459.657299,9844.739029
87340.227697,-296.082377,2298.286494,9844.739029
87340.228026,-1702.473667,612.876398,7920.203579
87340.228355,-2442.679609,-3753.867940,8290.306550
87340.228685,-2738.761985,-5592.497135,8660.409521
87340.229014,-3552.988522,-689.485948,9770.718434
87340.229343,-1480.411884,1838.629195,9696.697840
87340.229672,518.144159,536.266849,10140.821405
87340.230001,2072.576638,-1302.362347,9844.739029
87340.230330,3997.112087,1225.752797,9770.718434
87340.230660,5403.503377,5975.544884,9104.533087
87340.230989,4663.297435,6511.811733,7920.203579
87340.231318,3775.050304,2987.772442,7994.224174
87340.231647,3552.988522,1838.629195,7476.080014
87340.231976,1924.535449,3753.867940,8142.265362
87340.232306,1332.370696,4673.182538,8660.409521
87340.232635,2368.659014,3370.820191,10140.821405
87340.232964,1406.391290,229.828649,10807.006753
87340.233293,-888.247130,995.924147,11399.171507
87340.233622,-2590.720797,2068.457845,9696.697840
87340.233952,-2516.700203,842.705048,7624.121203
87340.234281,-2072.576638,-1991.848295,7402.059420
87340.234610,-2368.659014,-919.314598,8882.471304
87340.234939,-1998.556043,3907.087040,9400.615463
87340.235268,518.144159,5439.278036,9918.759623
87340.235598,2146.597232,1302.362347,9474.636058
87340.235927,962.267725,0.000000,10436.903782
87340.236256,0.000000,3600.648841,11991.336260
87340.236585,740.205942,4519.963438,10362.883188
87340.236914,740.205942,0.000000,8290.306550
87340.237244,-814.226536,-3447.429741,8216.285956
87340.237573,-3108.864956,-306.438199,10214.842000
87340.237902,-1258.350101,3600.648841,9474.636058
87340.238231,592.164754,2298.286494,11547.212695
87340.238560,-888.247130,-2451.505594,11843.295072
87340.238890,-2886.803174,-2145.067394,10732.986159
87340.239219,-1480.411884,919.314598,7624.121203
87340.239548,518.144159,-842.705048,6069.688724
87340.239877,-1702.473667,-3370.820191,6735.874072
87340.240206,-3775.050304,-2145.067394,8068.244768
87340.240536,-2220.617826,3140.991542,9252.574275
87340.240865,0.000000,3064.381992,8660.409521
87340.241194,74.020594,-1455.581446,8068.244768
87340.241523,-222.061783,-2987.772442,8068.244768
87340.241852,222.061783,1149.143247,7846.182985
87340.242182,962.267725,3370.820191,7698.141797
87340.242511,148.041188,-612.876398,10436.903782
87340.242840,-1554.432478,-4136.915689,10140.821405
87340.243169,-2368.659014,-1685.410096,9104.533087
87340.243498,0.000000,229.828649,8956.491898
87340.243828,962.267725,-1378.971896,11547.212695
87340.244157,-814.226536,-3294.210641,12361.439231
87340.244486,-296.082377,-2834.553343,10881.027347
