#time,accel_x,accel_y,accel_z
1128.632743,666.185348,842.705048,9400.615463
1128.633069,740.205942,612.876398,9474.636058
1128.633395,-296.082377,1149.143247,8808.450710
1128.633721,74.020594,1302.362347,9178.553681
1128.634047,148.041188,383.047749,9770.718434
1128.634373,-296.082377,229.828649,9178.553681
1128.634699,-592.164754,153.219100,9178.553681
1128.635025,296.082377,919.314598,9548.656652
1128.635351,740.205942,995.924147,9474.636058
1128.635677,370.102971,612.876398,9252.574275
1128.636003,148.041188,842.705048,9178.553681
1128.636329,666.185348,1838.629195,8956.491898
1128.636655,814.226536,1378.971896,9252.574275
1128.636981,740.205942,383.047749,9474.636058
1128.637307,-518.144159,766.095498,9252.574275
1128.637633,-518.144159,842.705048,9400.615463
1128.637959,0.000000,689.485948,9548.656652
1128.638285,-962.267725,0.000000,9622.677246
1128.638611,-1702.473667,-229.828649,9252.574275
1128.638937,-1036.288319,306.438199,9844.739029
1128.639263,-296.082377,153.219100,9770.718434
1128.639589,-814.226536,0.000000,9326.594869
1128.639915,-222.061783,383.047749,9770.718434
1128.640241,74.020594,612.876398,9030.512492
1128.640567,740.205942,1838.629195,8882.471304
1128.640893,1480.411884,766.095498,9992.780217
1128.641219,370.102971,536.266849,9252.574275
1128.641545,0.000000,1378.971896,8882.471304
1128.641871,1036.288319,689.485948,9474.636058
1128.642197,962.267725,612.876398,9474.636058
1128.642523,-296.082377,-689.485948,8808.450710
1128.642849,0.000000,459.657299,8808.450710
1128.643175,222.061783,766.095498,9104.533087
1128.643501,0.000000,229.828649,8660.409521
1128.643827,-296.082377,383.047749,9104.533087
1128.644153,0.000000,612.876398,8882.471304
1128.644479,0.000000,1685.410096,8142.265362
1128.644805,888.247130,612.876398,9178.553681
1128.645131,444.123565,383.047749,9178.553681
1128.645457,-1184.329507,995.924147,8808.450710
1128.645783,0.000000,919.314598,9178.553681
1128.646109,296.082377,76.609550,9770.718434
1128.646435,-1184.329507,0.000000,9474.636058
1128.646761,-1480.411884,306.438199,9030.512492
1128.647087,296.082377,919.314598,9548.656652
1128.647413,222.061783,459.657299,9104.533087
1128.647739,296.082377,1072.533697,9474.636058
1128.648065,740.205942,1378.971896,9474.636058
1128.648391,1258.350101,2145.067394,9252.574275
1128.648717,1554.432478,1685.410096,9474.636058
1128.649043,1776.494261,1225.752797,9474.636058
1128.649369,1110.308913,1532.190996,9252.574275
1128.649695,1184.329507,1838.629195,9326.594869
1128.650021,2072.576638,1455.581446,9844.739029
1128.650348,1554.432478,1225.752797,10066.800811
1128.650674,592.164754,1072.533697,9326.594869
1128.651000,1406.391290,1532.190996,9548.656652
1128.651326,2146.597232,2221.676944,9770.718434
1128.651652,2368.659014,2834.553343,9548.656652
1128.651978,2368.659014,2528.115143,9696.697840
1128.652304,3330.926739,3217.601092,9844.739029
1128.652630,3404.947333,3064.381992,9400.615463
1128.652956,3849.070898,2681.334243,9770.718434
1128.653282,3108.864956,3217.601092,9474.636058
1128.653608,2738.761985,3600.648841,8734.430116
1128.653934,3552.988522,2987.772442,8660.409521
1128.654260,2960.823768,3294.210641,9178.553681
1128.654586,1998.556043,3677.258390,7846.182985
1128.654912,1554.432478,3217.601092,7698.141797
1128.655238,1998.556043,3677.258390,8586.388927
1128.655564,1406.391290,3447.429741,8290.306550
1128.655890,1036.288319,3600.648841,8438.347739
1128.656216,1628.453072,4136.915689,8290.306550
1128.656542,2220.617826,4060.306139,7994.224174
1128.656868,2590.720797,3677.258390,9104.533087
1128.657194,2072.576638,3524.039291,8734.430116
1128.657520,1258.350101,3983.696590,8438.347739
1128.657846,2368.659014,3600.648841,9252.574275
1128.658172,2960.823768,2987.772442,9992.780217
1128.658498,1998.556043,3447.429741,9770.718434
1128.658824,1850.514855,3294.210641,9548.656652
1128.659150,3256.906145,3447.429741,10732.986159
1128.659476,3330.926739,2834.553343,10955.047942
1128.659802,2960.823768,2834.553343,10807.006753
1128.660128,3478.967927,3524.039291,10362.883188
1128.660454,3997.112087,4213.525239,9696.697840
1128.660780,4737.318029,4903.011187,9622.677246
1128.661106,4737.318029,3983.696590,9252.574275
1128.661432,4071.132681,4290.134789,8142.265362
1128.661758,3256.906145,3907.087040,7772.162391
1128.662084,2960.823768,3600.648841,7994.224174
1128.662410,1554.432478,3217.601092,8068.244768
1128.662736,-222.061783,2681.334243,7328.038826
1128.663062,-814.226536,1838.629195,7254.018232
1128.663388,-888.247130,689.485948,7772.162391
1128.663714,-1628.453072,689.485948,8142.265362
1128.664040,-962.267725,689.485948,8660.409521
1128.664366,-814.226536,1225.752797,8586.388927
1128.664692,-296.082377,842.705048,9474.636058
1128.665018,296.082377,689.485948,10658.965565
1128.665344,-518.144159,459.657299,10732.986159
1128.665670,-1184.329507,0.000000,10436.903782
1128.665996,-444.123565,-1915.238745,11843.295072
1128.666322,296.082377,-2451.505594,13027.624579
1128.666648,-518.144159,-1225.752797,12435.459826
1128.666974,148.041188,-919.314598,12065.356855
1128.667300,1406.391290,-1378.971896,11547.212695
1128.667626,2220.617826,-536.266849,10288.862594
1128.667952,2960.823768,1302.362347,8808.450710
1128.668278,5329.482782,3370.820191,7772.162391
1128.668604,6661.853478,5056.230287,6143.709319
1128.668930,7698.141797,5975.544884,6809.894666
1128.669256,7328.038826,6128.763984,7031.956449
1128.669582,6291.750507,6435.202183,6587.832884
1128.669908,5847.626942,4673.182538,7624.121203
1128.670234,5477.523971,2834.553343,9548.656652
1128.670560,2590.720797,2145.067394,10807.006753
1128.670886,444.123565,1072.533697,11251.130318
1128.671212,0.000000,-766.095498,11917.315666
1128.671538,-740.205942,-1608.800546,11843.295072
1128.671864,-592.164754,153.219100,10955.047942
1128.672190,1628.453072,3524.039291,9622.677246
1128.672516,3701.029710,5822.325785,7179.997637
1128.672842,5699.585753,7354.516781,5773.606348
1128.673168,5995.668130,8273.831378,4293.194464
1128.673494,4737.318029,9729.412825,3478.967927
1128.673820,4293.194464,9652.803275,4885.359217
1128.674146,3330.926739,7584.345430,7920.203579
1128.674472,0.000000,4213.525239,10214.842000
1128.674798,-3256.906145,459.657299,11473.192101
1128.675124,-3701.029710,-2528.115143,12657.521608
1128.675450,-2664.741391,-1838.629195,15396.283594
1128.675776,-2220.617826,-1532.190996,16950.716072
1128.676102,-592.164754,766.095498,16210.510130
1128.676428,2072.576638,1915.238745,13767.830521
1128.676754,4145.153275,3524.039291,11473.192101
1128.677080,4145.153275,5975.544884,9104.533087
1128.677406,4885.359217,7737.564530,4737.318029
1128.677732,5995.668130,9193.145976,2368.659014
1128.678058,6587.832884,8197.221829,3701.029710
1128.678384,5329.482782,8197.221829,4367.215058
1128.678710,3849.070898,7814.174080,3701.029710
1128.679036,2590.720797,5362.668486,4293.194464
1128.679362,1110.308913,2221.676944,6291.750507
1128.679688,-296.082377,919.314598,7846.182985
1128.680014,-1258.350101,1685.410096,9252.574275
1128.680340,-2368.659014,0.000000,10436.903782
1128.680666,-2516.700203,-2374.896044,11769.274478
1128.680992,-1258.350101,-2834.553343,13397.727550
1128.681318,-296.082377,-1915.238745,13693.809927
1128.681644,-1258.350101,-1302.362347,14656.077652
1128.681970,0.000000,-2374.896044,14063.912898
1128.682296,1776.494261,-2834.553343,12953.603985
1128.682622,2812.782580,-1378.971896,11103.089130
1128.682948,3923.091493,1455.581446,9548.656652
1128.683274,5403.503377,3524.039291,8290.306550
1128.683600,7105.977043,5132.839837,6883.915261
1128.683926,8290.306550,5439.278036,7031.956449
1128.684252,7476.080014,6205.373534,5477.523971
1128.684578,6809.894666,6435.202183,4737.318029
1128.684904,6809.894666,4903.011187,5699.585753
1128.685230,5181.441594,3600.648841,8512.368333
1128.685556,1850.514855,2834.553343,10881.027347
1128.685882,0.000000,919.314598,12879.583391
1128.686208,-1998.556043,-2451.505594,14063.912898
1128.686534,-3923.091493,-5898.935335,13693.809927
1128.686860,-4219.173869,-5898.935335,13249.686362
1128.687186,-2368.659014,-3217.601092,13323.706956
1128.687512,-370.102971,229.828649,13249.686362
1128.687838,666.185348,3064.381992,9770.718434
1128.688164,3108.864956,3983.696590,5551.544565
1128.688490,5995.668130,5975.544884,2738.761985
1128.688816,7105.977043,9269.755526,-0.000000
1128.689142,7846.182985,12870.404366,-296.082377
1128.689468,7624.121203,12487.356617,2294.638420
1128.689794,5847.626942,9039.926876,5329.482782
1128.690120,2146.597232,5745.716235,8956.491898
1128.690446,-3627.009116,1378.971896,10955.047942
1128.690772,-8660.409521,-3907.087040,11843.295072
1128.691098,-9992.780217,-7507.735880,14434.015869
1128.691424,-8438.347739,-7584.345430,19319.375086
1128.691750,-8512.368333,-6205.373534,20281.642811
1128.692076,-9030.512492,-5209.449386,16432.571912
1128.692402,-4737.318029,-4903.011187,11399.171507
1128.692728,1998.556043,-153.219100,7920.203579
1128.693054,6365.771101,9039.926876,6587.832884
1128.693380,8290.306550,14479.204912,3404.947333
1128.693706,9770.718434,13023.623466,814.226536
1128.694032,8068.244768,7967.393179,444.123565
1128.694358,4145.153275,5132.839837,2368.659014
1128.694684,0.000000,5745.716235,5181.441594
1128.695010,-2516.700203,2451.505594,10066.800811
1128.695336,-5699.585753,-4596.572988,13619.789333
1128.695662,-7846.182985,-10342.289223,13619.789333
1128.695988,-9030.512492,-9576.193725,13915.871710
1128.696314,-8956.491898,-6741.640382,13101.645173
1128.696640,-5181.441594,-3524.039291,12139.377449
1128.696966,1110.308913,-1455.581446,11769.274478
1128.697292,4589.276840,2451.505594,11399.171507
1128.697618,3034.844362,6205.373534,8216.285956
1128.697943,3256.906145,4826.401637,4589.276840
1128.698269,4737.318029,612.876398,5329.482782
1128.698595,4441.235652,0.000000,7031.956449
1128.698921,2294.638420,2374.896044,9400.615463
1128.699247,3034.844362,2068.457845,11621.233289
1128.699573,2368.659014,-2374.896044,11843.295072
1128.699899,296.082377,-5439.278036,11621.233289
1128.700225,518.144159,-3217.601092,9696.697840
1128.700551,2886.803174,2145.067394,7846.182985
1128.700877,4737.318029,3983.696590,9770.718434
1128.701203,4219.173869,2681.334243,10807.006753
1128.701529,518.144159,1991.848295,9696.697840
1128.701855,-2220.617826,0.000000,7920.203579
1128.702181,-3330.926739,-2681.334243,8512.368333
1128.702507,-4293.194464,-3753.867940,10140.821405
1128.702833,-5181.441594,-3447.429741,12657.521608
1128.703159,-5107.421000,-2221.676944,12435.459826
1128.703485,-3627.009116,-2604.724693,10732.986159
1128.703811,-2368.659014,-3600.648841,7698.141797
1128.704137,814.226536,0.000000,5033.400406
1128.704463,5033.400406,7354.516781,4737.318029
1128.704788,6957.935855,10878.556072,5699.585753
1128.705114,4737.318029,8503.660028,4959.379811
1128.705440,2738.761985,3600.648841,4145.153275
1128.705766,148.041188,1149.143247,5329.482782
1128.706092,-2960.823768,2451.505594,8068.244768
1128.706418,-5107.421000,919.314598,12139.377449
1128.706744,-5625.565159,-4979.620737,14211.954086
1128.707070,-6069.688724,-7277.907231,15396.283594
1128.707396,-6513.812290,-5439.278036,15100.201217
1128.707722,-3627.009116,-1915.238745,12879.583391
1128.708048,-518.144159,1685.410096,10436.903782
1128.708374,3627.009116,3064.381992,10214.842000
1128.708700,5699.585753,5822.325785,9474.636058
1128.709026,4293.194464,7890.783629,6513.812290
1128.709352,2442.679609,5822.325785,4515.256246
1128.709678,1406.391290,1149.143247,5551.544565
1128.710004,666.185348,1838.629195,6809.894666
1128.710330,444.123565,1532.190996,10140.821405
1128.710656,-1702.473667,-229.828649,11473.192101
1128.710982,-4515.256246,-3447.429741,10288.862594
1128.711308,-3108.864956,-5286.058936,9104.533087
1128.711633,740.205942,-1991.848295,9696.697840
1128.711959,2220.617826,3524.039291,10140.821405
1128.712285,1998.556043,4290.134789,10955.047942
1128.712611,1258.350101,1838.629195,9400.615463
1128.712937,518.144159,-536.266849,8808.450710
1128.713263,-518.144159,-919.314598,9252.574275
1128.713589,-1628.453072,383.047749,8586.388927
1128.713915,-592.164754,0.000000,8438.347739
1128.714241,1184.329507,-2604.724693,10362.883188
1128.714567,1036.288319,-1302.362347,11029.068536
1128.714893,888.247130,842.705048,8290.306550
1128.715219,2590.720797,2068.457845,6439.791695
1128.715545,5181.441594,2987.772442,6587.832884
1128.715871,6735.874072,4596.572988,7328.038826
1128.716197,3997.112087,6665.030833,8660.409521
1128.716523,962.267725,4060.306139,8586.388927
1128.716849,-1258.350101,-1991.848295,7476.080014
1128.717175,-3256.906145,-4903.011187,10436.903782
1128.717501,-5773.606348,-3370.820191,13175.665768
1128.717827,-6883.915261,-2221.676944,13915.871710
1128.718152,-6143.709319,-4903.011187,13841.851115
1128.718478,-4663.297435,-7431.126331,12657.521608
1128.718804,-3923.091493,-4290.134789,9252.574275
1128.719130,-740.205942,3447.429741,5995.668130
1128.719456,3849.070898,6971.469032,5699.585753
1128.719782,4515.256246,5975.544884,6217.729913
1128.720108,3108.864956,5592.497135,6587.832884
1128.720434,2738.761985,4443.353888,5625.565159
1128.720760,1480.411884,3370.820191,5181.441594
1128.721086,-888.247130,689.485948,7031.956449
1128.721412,-1998.556043,-842.705048,11177.109724
1128.721738,-2368.659014,-2221.676944,12805.562797
1128.722064,-3552.988522,-3217.601092,13767.830521
1128.722390,-2812.782580,-5362.668486,12731.542202
1128.722716,-1110.308913,-2757.943793,10955.047942
1128.723042,1036.288319,2681.334243,10658.965565
1128.723368,2886.803174,5592.497135,10214.842000
1128.723694,2664.741391,4366.744339,9178.553681
1128.724020,148.041188,1302.362347,7254.018232
1128.724346,148.041188,612.876398,5847.626942
1128.724672,-814.226536,2068.457845,6143.709319
1128.724997,-1332.370696,1378.971896,8512.368333
1128.725323,-2442.679609,-1072.533697,10807.006753
1128.725649,-1850.514855,-2681.334243,10732.986159
1128.725975,-1184.329507,-2604.724693,9474.636058
1128.726301,-222.061783,-1378.971896,8956.491898
1128.726627,2886.803174,1302.362347,8734.430116
1128.726953,4737.318029,4596.572988,9918.759623
1128.727279,4071.132681,4749.792088,10362.883188
1128.727605,2442.679609,2451.505594,9622.677246
1128.727931,1184.329507,-1072.533697,8216.285956
1128.728257,-1110.308913,-1302.362347,9030.512492
1128.728583,-1258.350101,-459.657299,9400.615463
1128.728909,-222.061783,536.266849,11991.336260
1128.729235,148.041188,-995.924147,13249.686362
1128.729561,-296.082377,-2604.724693,10584.944971
1128.729887,0.000000,-1225.752797,7476.080014
1128.730213,3923.091493,1915.238745,6587.832884
1128.730539,6069.688724,7354.516781,6809.894666
1128.730865,5921.647536,7660.954980,7031.956449
1128.731191,2812.782580,6052.154434,6439.791695
1128.731517,888.247130,2145.067394,6735.874072
1128.731842,-1554.432478,-842.705048,7105.977043
1128.732168,-3330.926739,-612.876398,7994.224174
1128.732494,-4145.153275,-995.924147,11103.089130
1128.732820,-4737.318029,-2068.457845,13471.748144
1128.733146,-4145.153275,-4136.915689,13545.768739
1128.733472,-3034.844362,-4826.401637,12805.562797
1128.733798,-1998.556043,-1685.410096,10658.965565
1128.734124,962.267725,2911.162892,9104.533087
1128.734450,5255.462188,5745.716235,8808.450710
1128.734776,4071.132681,6665.030833,8956.491898
1128.735102,-666.185348,4290.134789,6809.894666
1128.735428,148.041188,842.705048,5551.544565
1128.735754,-740.205942,306.438199,6883.915261
1128.736080,-2664.741391,536.266849,9548.656652
1128.736406,-3775.050304,153.219100,11473.192101
1128.736732,-3182.885551,-1838.629195,12139.377449
1128.737058,-3182.885551,-4136.915689,12657.521608
1128.737384,-2516.700203,-3524.039291,10362.883188
1128.737710,370.102971,689.485948,8512.368333
1128.738036,3108.864956,4673.182538,9326.594869
1128.738362,3775.050304,4979.620737,10288.862594
1128.738687,2072.576638,3217.601092,9178.553681
1128.739013,666.185348,-536.266849,6883.915261
1128.739339,-1184.329507,-1072.533697,6661.853478
1128.739665,-1850.514855,1225.752797,7550.100608
1128.739991,-1850.514855,0.000000,9696.697840
1128.740317,-1036.288319,-2374.896044,10288.862594
1128.740643,-1554.432478,-3753.867940,10510.924376
1128.740969,-1184.329507,-2911.162892,9252.574275
1128.741295,1406.391290,919.314598,7772.162391
1128.741621,3182.885551,3983.696590,7920.203579
1128.741947,3552.988522,3830.477490,8512.368333
1128.742273,2072.576638,2681.334243,8586.388927
1128.742599,1036.288319,229.828649,7920.203579
1128.742925,-814.226536,-1378.971896,9178.553681
1128.743251,-2072.576638,-1838.629195,10288.862594
1128.743577,-1628.453072,-2604.724693,11547.212695
1128.743903,-444.123565,-3370.820191,14211.954086
1128.744229,-888.247130,-2451.505594,14211.954086
1128.744555,0.000000,-2298.286494,11399.171507
1128.744881,3182.885551,459.657299,9918.759623
1128.745207,5921.647536,4290.134789,8586.388927
1128.745532,7105.977043,6894.859482,7179.997637
1128.745858,4441.235652,7354.516781,6661.853478
1128.746184,3182.885551,3753.867940,5847.626942
1128.746510,592.164754,1378.971896,6809.894666
1128.746836,-2812.782580,459.657299,7254.018232
1128.747162,-5921.647536,-306.438199,8068.244768
1128.747488,-6143.709319,-3294.210641,9918.759623
1128.747814,-6217.729913,-4903.011187,11991.336260
1128.748140,-6587.832884,-3830.477490,11917.315666
1128.748466,-3849.070898,-1378.971896,10066.800811
1128.748792,-370.102971,1072.533697,9030.512492
1128.749118,3997.112087,4290.134789,8586.388927
1128.749444,4071.132681,6128.763984,8586.388927
1128.749770,2072.576638,6665.030833,8142.265362
1128.750096,1480.411884,4596.572988,7476.080014
1128.750422,1406.391290,1302.362347,7550.100608
1128.750748,-888.247130,-689.485948,8216.285956
1128.751074,-2368.659014,-229.828649,10510.924376
1128.751400,-2368.659014,-536.266849,12509.480420
1128.751726,-1924.535449,-2068.457845,13397.727550
1128.752052,-222.061783,-3830.477490,11177.109724
1128.752377,1258.350101,-459.657299,9770.718434
1128.752703,3182.885551,5056.230287,7772.162391
1128.753029,4737.318029,6971.469032,7550.100608
1128.753355,2516.700203,4673.182538,8290.306550
1128.753681,0.000000,1532.190996,7254.018232
1128.754007,-962.267725,76.609550,5995.668130
1128.754333,-2294.638420,0.000000,7254.018232
1128.754659,-4293.194464,-1915.238745,9992.780217
1128.754985,-6069.688724,-3600.648841,10510.924376
1128.755311,-4441.235652,-4596.572988,10732.986159
1128.755637,-1850.514855,-5515.887586,10214.842000
1128.755963,-222.061783,-2451.505594,8586.388927
1128.756289,3330.926739,3677.258390,8438.347739
1128.756615,6883.915261,6435.202183,8660.409521
1128.756941,6217.729913,6205.373534,7476.080014
1128.757267,4515.256246,2911.162892,8142.265362
1128.757593,3701.029710,842.705048,8068.244768
1128.757919,1850.514855,1378.971896,8364.327145
1128.758245,222.061783,536.266849,10881.027347
1128.758571,-1184.329507,-2757.943793,13841.851115
1128.758897,-2590.720797,-4519.963438,13767.830521
1128.759222,-3627.009116,-4749.792088,12139.377449
1128.759548,-2368.659014,-4136.915689,10436.903782
1128.759874,-666.185348,-383.047749,9400.615463
1128.760200,1924.535449,2681.334243,8734.430116
1128.760526,2368.659014,5439.278036,8734.430116
1128.760852,814.226536,3753.867940,7624.121203
1128.761178,-740.205942,306.438199,6291.750507
1128.761504,-1776.494261,-536.266849,7105.977043
1128.761830,-3404.947333,536.266849,7994.224174
1128.762156,-3923.091493,-229.828649,10140.821405
1128.762482,-2442.679609,-3217.601092,11547.212695
1128.762808,-3404.947333,-4979.620737,11399.171507
1128.763134,-3552.988522,-3524.039291,9474.636058
1128.763460,-370.102971,-306.438199,8586.388927
1128.763786,3552.988522,3753.867940,9252.574275
1128.764112,4959.379811,5439.278036,9548.656652
1128.764438,2590.720797,5286.058936,8364.327145
1128.764764,962.267725,3064.381992,7179.997637
1128.765090,-222.061783,612.876398,6957.935855
1128.765416,-1036.288319,459.657299,7846.182985
1128.765742,-1702.473667,383.047749,8660.409521
1128.766067,-2812.782580,-689.485948,10436.903782
1128.766393,-2664.741391,-1838.629195,11695.253884
1128.766719,-2368.659014,-2221.676944,11177.109724
1128.767045,-1554.432478,-1455.581446,8290.306550
1128.767371,1554.432478,995.924147,7328.038826
1128.767697,4071.132681,4903.011187,8512.368333
1128.768023,4219.173869,6741.640382,9178.553681
1128.768349,2220.617826,4749.792088,8512.368333
1128.768675,0.000000,229.828649,7476.080014
1128.769001,-1480.411884,-1762.019645,7550.100608
1128.769327,-1850.514855,-459.657299,9696.697840
1128.769653,-1998.556043,0.000000,12435.459826
1128.769979,-3330.926739,-1685.410096,12583.501014
1128.770305,-3256.906145,-4366.744339,11473.192101
1128.770631,-888.247130,-4596.572988,9844.739029
1128.770957,962.267725,383.047749,8586.388927
1128.771283,3256.906145,6358.592633,8586.388927
1128.771609,4959.379811,5745.716235,9104.533087
1128.771935,4441.235652,4060.306139,8808.450710
1128.772261,1924.535449,1532.190996,7994.224174
1128.772587,444.123565,306.438199,7179.997637
1128.772912,-814.226536,995.924147,7328.038826
1128.773238,-444.123565,153.219100,10955.047942
1128.773564,-370.102971,-1378.971896,13397.727550
1128.773890,-1110.308913,-2374.896044,12509.480420
1128.774216,-1258.350101,-3294.210641,10807.006753
1128.774542,1036.288319,-2298.286494,9844.739029
1128.774868,2220.617826,2221.676944,8290.306550
1128.775194,3034.844362,5209.449386,8216.285956
1128.775520,2664.741391,4826.401637,8808.450710
1128.775846,592.164754,1532.190996,8290.306550
1128.776172,-1258.350101,-919.314598,6513.812290
1128.776498,-3627.009116,-306.438199,6587.832884
1128.776824,-4145.153275,0.000000,7994.224174
1128.777150,-3330.926739,-1378.971896,10955.047942
1128.777476,-2812.782580,-2911.162892,12361.439231
1128.777802,-3627.009116,-3600.648841,10436.903782
1128.778128,-2812.782580,-2757.943793,7624.121203
1128.778454,888.247130,766.095498,8216.285956
1128.778780,4663.297435,5975.544884,9770.718434
1128.779106,4737.318029,6205.373534,9548.656652
1128.779432,2738.761985,3753.867940,8586.388927
1128.779757,1850.514855,76.609550,7772.162391
1128.780083,740.205942,-536.266849,7994.224174
1128.780409,-814.226536,1762.019645,8586.388927
1128.780735,-444.123565,459.657299,10140.821405
1128.781061,-592.164754,-1915.238745,10881.027347
1128.781387,-1406.391290,-2911.162892,11769.274478
1128.781713,-666.185348,-766.095498,10955.047942
1128.782039,518.144159,1762.019645,8734.430116
1128.782365,1998.556043,2757.943793,8438.347739
1128.782691,2812.782580,2834.553343,8808.450710
1128.783017,888.247130,3370.820191,8438.347739
1128.783343,-1776.494261,2145.067394,6809.894666
1128.783669,-3108.864956,-536.266849,7179.997637
1128.783995,-4959.379811,-2374.896044,8956.491898
1128.784321,-4515.256246,-2068.457845,10436.903782
1128.784647,-3552.988522,-1455.581446,12287.418637
1128.784973,-3330.926739,-2987.772442,12213.398043
1128.785299,-1776.494261,-4596.572988,11177.109724
1128.785625,1332.370696,-1532.190996,10362.883188
1128.785951,4071.132681,3830.477490,9252.574275
1128.786277,5847.626942,5975.544884,8660.409521
1128.786602,6143.709319,5209.449386,8956.491898
1128.786928,3849.070898,3600.648841,8586.388927
1128.787254,1406.391290,1685.410096,7624.121203
1128.787580,-370.102971,229.828649,7624.121203
1128.787906,-2072.576638,-459.657299,9178.553681
1128.788232,-3108.864956,-2145.067394,10140.821405
1128.788558,-3627.009116,-2298.286494,11325.150913
1128.788884,-3923.091493,-3370.820191,10584.944971
1128.789210,-2294.638420,-3447.429741,9178.553681
1128.789536,1184.329507,306.438199,9104.533087
1128.789862,3552.988522,5209.449386,8290.306550
1128.790188,2664.741391,6741.640382,7846.182985
1128.790514,2072.576638,4749.792088,7105.977043
1128.790840,962.267725,459.657299,6735.874072
1128.791166,-592.164754,-766.095498,6735.874072
1128.791492,-2146.597232,229.828649,7920.203579
1128.791818,-1850.514855,306.438199,11103.089130
1128.792144,0.000000,-1378.971896,13175.665768
1128.792470,74.020594,-2681.334243,13767.830521
1128.792796,0.000000,-2145.067394,11991.336260
1128.793122,1406.391290,0.000000,8438.347739
1128.793447,4663.297435,3830.477490,7476.080014
1128.793773,6069.688724,6205.373534,9178.553681
1128.794099,2664.741391,6818.249932,8734.430116
1128.794425,222.061783,3447.429741,7698.141797
1128.794751,-370.102971,-689.485948,6735.874072
1128.795077,-3849.070898,-2451.505594,6809.894666
1128.795403,-5773.606348,-689.485948,8438.347739
1128.795729,-4145.153275,-689.485948,11251.130318
1128.796055,-2960.823768,-2528.115143,13027.624579
1128.796381,-3552.988522,-4519.963438,12065.356855
1128.796707,-1924.535449,-2911.162892,9622.677246
1128.797033,2294.638420,2451.505594,7846.182985
1128.797359,6217.729913,6435.202183,9474.636058
1128.797685,5625.565159,5822.325785,10066.800811
1128.798011,2812.782580,3983.696590,8216.285956
1128.798337,1110.308913,1685.410096,6957.935855
1128.798663,-148.041188,0.000000,7624.121203
1128.798989,-2516.700203,-306.438199,8216.285956
1128.799315,-3775.050304,-1072.533697,10362.883188
1128.799641,-3256.906145,-2298.286494,12583.501014
1128.799967,-3478.967927,-3600.648841,12287.418637
1128.800293,-2886.803174,-4213.525239,9400.615463
1128.800619,-888.247130,-1149.143247,9178.553681
1128.800945,2072.576638,3524.039291,8882.471304
1128.801271,3552.988522,6052.154434,8438.347739
1128.801597,3701.029710,3983.696590,8734.430116
1128.801923,1184.329507,1762.019645,8142.265362
1128.802249,-222.061783,459.657299,6735.874072
1128.802576,0.000000,306.438199,7698.141797
1128.802902,-222.061783,-459.657299,9844.739029
1128.803228,-1036.288319,-1455.581446,11547.212695
1128.803554,-1776.494261,-1302.362347,10955.047942
1128.803880,-148.041188,-2451.505594,10214.842000
1128.804206,740.205942,-766.095498,9252.574275
1128.804532,2664.741391,3217.601092,8882.471304
1128.804858,4515.256246,5669.106685,7772.162391
1128.805184,3108.864956,5056.230287,7476.080014
1128.805510,592.164754,2451.505594,8586.388927
1128.805836,-1406.391290,536.266849,7994.224174
1128.806162,-3997.112087,229.828649,6439.791695
1128.806489,-4515.256246,-1302.362347,7920.203579
1128.806815,-3775.050304,-2221.676944,10955.047942
1128.807141,-4219.173869,-2451.505594,11843.295072
1128.807467,-4219.173869,-2604.724693,11325.150913
1128.807793,-1480.411884,-2911.162892,9548.656652
1128.808119,1036.288319,76.609550,9474.636058
1128.808445,3478.967927,4366.744339,10214.842000
1128.808771,3775.050304,6511.811733,10732.986159
1128.809097,2812.782580,3907.087040,9400.615463
1128.809423,1924.535449,-306.438199,9326.594869
1128.809749,666.185348,-919.314598,9104.533087
1128.810075,-1110.308913,1149.143247,9030.512492
1128.810402,-1406.391290,1302.362347,10807.006753
1128.810728,-1480.411884,-1685.410096,12657.521608
1128.811054,-2146.597232,-3140.991542,11547.212695
1128.811380,-1480.411884,-2374.896044,7846.182985
1128.811706,518.144159,919.314598,7994.224174
1128.812032,2220.617826,4519.963438,8438.347739
1128.812358,2738.761985,5209.449386,7698.141797
1128.812684,1998.556043,3447.429741,7550.100608
1128.813010,-592.164754,1225.752797,6587.832884
1128.813336,-1480.411884,-459.657299,6291.750507
1128.813662,-814.226536,76.609550,8216.285956
1128.813988,-1628.453072,229.828649,10288.862594
1128.814315,-3478.967927,-1455.581446,11029.068536
1128.814641,-1850.514855,-2987.772442,10732.986159
1128.814967,518.144159,-2374.896044,10140.821405
1128.815293,518.144159,383.047749,8438.347739
1128.815619,1998.556043,2681.334243,7105.977043
1128.815945,5181.441594,5209.449386,8512.368333
1128.816271,4367.215058,4596.572988,10214.842000
1128.816597,1628.453072,2604.724693,9474.636058
1128.816923,0.000000,766.095498,8068.244768
1128.817249,-1110.308913,-919.314598,7994.224174
1128.817575,-1480.411884,-766.095498,9992.780217
1128.817901,-2220.617826,-1149.143247,11547.212695
1128.818228,-2886.803174,-2298.286494,11843.295072
1128.818554,-3108.864956,-3370.820191,10807.006753
1128.818880,-666.185348,-3217.601092,9696.697840
1128.819206,444.123565,1225.752797,9474.636058
1128.819532,1850.514855,5056.230287,9030.512492
1128.819858,3182.885551,4903.011187,9030.512492
1128.820184,2516.700203,2987.772442,7994.224174
1128.820510,0.000000,0.000000,7179.997637
1128.820836,-1998.556043,-383.047749,7698.141797
1128.821162,-2368.659014,612.876398,8660.409521
1128.821488,-1850.514855,-766.095498,10658.965565
1128.821814,-1480.411884,-2834.553343,12139.377449
1128.822140,-2072.576638,-3140.991542,12065.356855
1128.822467,-1184.329507,-1915.238745,10066.800811
1128.822793,1924.535449,-229.828649,9400.615463
1128.823119,3478.967927,2757.943793,8364.327145
1128.823445,3330.926739,4366.744339,7772.162391
1128.823771,3182.885551,5898.935335,8216.285956
1128.824097,2442.679609,4136.915689,8586.388927
1128.824423,888.247130,0.000000,7402.059420
1128.824749,-1554.432478,-919.314598,7698.141797
1128.825075,-2812.782580,-229.828649,7994.224174
1128.825401,-1184.329507,459.657299,9770.718434
1128.825727,-962.267725,-919.314598,11621.233289
1128.826053,-1924.535449,-2451.505594,11621.233289
1128.826380,-1628.453072,-1762.019645,8734.430116
1128.826706,2220.617826,1685.410096,8068.244768
1128.827032,3997.112087,4749.792088,9326.594869
1128.827358,2368.659014,5362.668486,8882.471304
1128.827684,888.247130,3907.087040,7550.100608
1128.828010,0.000000,612.876398,7105.977043
1128.828336,-2072.576638,-766.095498,7105.977043
1128.828662,-2886.803174,383.047749,8142.265362
1128.828988,-2072.576638,842.705048,10362.883188
1128.829314,-1924.535449,229.828649,11769.274478
1128.829640,-1998.556043,-1838.629195,12583.501014
1128.829966,-148.041188,-3217.601092,9992.780217
1128.830293,740.205942,536.266849,7476.080014
1128.830619,2590.720797,4519.963438,7698.141797
1128.830945,4071.132681,5975.544884,9844.739029
1128.831271,2368.659014,4979.620737,9770.718434
1128.831597,-740.205942,1149.143247,8216.285956
1128.831923,-3404.947333,-2987.772442,7105.977043
1128.832249,-3997.112087,-2145.067394,7698.141797
1128.832575,-3330.926739,-459.657299,10214.842000
1128.832901,-2368.659014,-766.095498,12361.439231
1128.833227,-3256.906145,-2834.553343,11991.336260
1128.833553,-1850.514855,-4826.401637,10436.903782
1128.833879,740.205942,-2451.505594,9622.677246
1128.834206,2294.638420,3140.991542,8808.450710
1128.834532,2960.823768,4903.011187,8808.450710
1128.834858,3627.009116,3217.601092,9474.636058
1128.835184,1776.494261,153.219100,9252.574275
1128.835510,-2146.597232,-612.876398,8512.368333
1128.835836,-3330.926739,-1532.190996,7550.100608
1128.836162,-2368.659014,-2298.286494,8142.265362
1128.836488,-1406.391290,-3064.381992,10732.986159
1128.836814,-1924.535449,-3217.601092,12731.542202
1128.837140,-2146.597232,-1455.581446,11029.068536
1128.837466,888.247130,-1762.019645,9252.574275
1128.837792,3775.050304,153.219100,9104.533087
1128.838118,4515.256246,3524.039291,7920.203579
1128.838445,4219.173869,6435.202183,7105.977043
1128.838771,3775.050304,5362.668486,8216.285956
1128.839097,1628.453072,995.924147,8512.368333
1128.839423,-148.041188,-1608.800546,7476.080014
1128.839749,-1924.535449,-153.219100,7920.203579
1128.840075,-1480.411884,0.000000,9474.636058
1128.840401,-1850.514855,-1378.971896,11103.089130
1128.840727,-1850.514855,-3217.601092,11917.315666
1128.841053,-1332.370696,-2145.067394,9992.780217
1128.841379,1036.288319,1302.362347,8882.471304
1128.841705,3627.009116,4596.572988,8734.430116
1128.842031,4663.297435,5745.716235,8882.471304
1128.842358,2368.659014,5822.325785,8290.306550
1128.842684,444.123565,2987.772442,7402.059420
1128.843010,-370.102971,306.438199,8364.327145
1128.843336,-2516.700203,-229.828649,8438.347739
1128.843662,-4219.173869,383.047749,9474.636058
1128.843988,-4367.215058,-995.924147,11177.109724
1128.844314,-4071.132681,-3064.381992,12213.398043
1128.844640,-3627.009116,-3370.820191,11843.295072
1128.844966,-1184.329507,-612.876398,10436.903782
1128.845292,1628.453072,3753.867940,8512.368333
1128.845618,4737.318029,6894.859482,8734.430116
1128.845944,4885.359217,6052.154434,9252.574275
1128.846271,2146.597232,4749.792088,7994.224174
1128.846597,518.144159,2757.943793,7179.997637
1128.846923,592.164754,766.095498,7031.956449
1128.847249,-1480.411884,766.095498,8586.388927
1128.847575,-2368.659014,-306.438199,9326.594869
1128.847901,-2146.597232,-1685.410096,11547.212695
1128.848227,-2516.700203,-2911.162892,10955.047942
1128.848553,-1406.391290,-3600.648841,9770.718434
1128.848879,592.164754,0.000000,9770.718434
1128.849205,3478.967927,5132.839837,9400.615463
1128.849531,4811.338623,5975.544884,8882.471304
1128.849857,3552.988522,3447.429741,7698.141797
1128.850184,0.000000,0.000000,7031.956449
1128.850510,-1480.411884,-1072.533697,5847.626942
1128.850836,-2072.576638,0.000000,7698.141797
1128.851162,-2368.659014,-612.876398,10807.006753
1128.851488,-3997.112087,-2834.553343,12139.377449
1128.851814,-4589.276840,-4060.306139,11251.130318
1128.852140,-1036.288319,-5669.106685,9770.718434
1128.852466,1406.391290,-2528.115143,9622.677246
1128.852792,3256.906145,3217.601092,9992.780217
1128.853118,5403.503377,6281.983084,10140.821405
1128.853444,5995.668130,4749.792088,9474.636058
1128.853770,3330.926739,1532.190996,9252.574275
1128.854097,592.164754,-612.876398,7994.224174
1128.854423,-1998.556043,1455.581446,7179.997637
1128.854749,-1702.473667,306.438199,9474.636058
1128.855075,-1702.473667,-3217.601092,12213.398043
1128.855401,-3849.070898,-4596.572988,11843.295072
1128.855727,-4589.276840,-4749.792088,9474.636058
1128.856053,-1850.514855,-3370.820191,9474.636058
1128.856379,666.185348,1302.362347,9326.594869
1128.856705,2516.700203,5056.230287,9326.594869
1128.857031,3775.050304,4903.011187,8216.285956
1128.857357,1924.535449,3217.601092,7698.141797
1128.857683,-1628.453072,1149.143247,5773.606348
1128.858009,-1850.514855,-612.876398,6217.729913
1128.858336,-3256.906145,229.828649,7994.224174
1128.858662,-4293.194464,0.000000,11177.109724
1128.858988,-4367.215058,-3140.991542,12287.418637
1128.859314,-4145.153275,-4519.963438,11399.171507
1128.859640,-3034.844362,-4903.011187,9992.780217
1128.859966,296.082377,-919.314598,9252.574275
1128.860292,3552.988522,4673.182538,9548.656652
1128.860618,5403.503377,6435.202183,9548.656652
1128.860944,4367.215058,5822.325785,9178.553681
1128.861270,2516.700203,4136.915689,7105.977043
1128.861596,1406.391290,1378.971896,5921.647536
1128.861922,74.020594,459.657299,7624.121203
1128.862249,-1628.453072,1608.800546,9474.636058
1128.862575,-2960.823768,0.000000,11621.233289
1128.862901,-2368.659014,-2681.334243,11843.295072
1128.863227,-2368.659014,-4213.525239,11177.109724
1128.863553,-1850.514855,-2374.896044,9474.636058
1128.863879,1110.308913,2145.067394,6883.915261
1128.864205,4145.153275,5975.544884,8734.430116
1128.864531,3997.112087,6128.763984,9252.574275
1128.864857,1406.391290,4749.792088,7402.059420
1128.865183,0.000000,1455.581446,5107.421000
1128.865509,-1332.370696,0.000000,5477.523971
1128.865835,-2442.679609,612.876398,7179.997637
1128.866162,-1628.453072,995.924147,11325.150913
1128.866488,-2072.576638,-1378.971896,12435.459826
1128.866814,-2220.617826,-4136.915689,12213.398043
1128.867140,-666.185348,-4366.744339,11695.253884
1128.867466,1406.391290,-306.438199,10362.883188
1128.867792,3404.947333,4673.182538,9400.615463
1128.868118,5773.606348,4443.353888,9252.574275
1128.868444,4293.194464,3294.210641,9844.739029
1128.868770,1480.411884,1915.238745,8512.368333
1128.869096,444.123565,1532.190996,8216.285956
1128.869422,-814.226536,229.828649,7772.162391
1128.869748,-1628.453072,-1378.971896,9548.656652
1128.870075,-1258.350101,-2451.505594,12213.398043
1128.870401,-1924.535449,-1608.800546,12731.542202
1128.870727,-2220.617826,-2604.724693,10362.883188
1128.871053,0.000000,-3370.820191,8660.409521
1128.871379,1998.556043,689.485948,8142.265362
1128.871705,3849.070898,5056.230287,7846.182985
1128.872031,3034.844362,6205.373534,8808.450710
1128.872357,666.185348,2528.115143,8290.306550
1128.872683,-1036.288319,-1225.752797,6661.853478
1128.873009,-1480.411884,-1455.581446,6883.915261
1128.873335,-2886.803174,1149.143247,8438.347739
1128.873661,-2664.741391,-612.876398,9770.718434
1128.873987,-2294.638420,-2757.943793,12139.377449
1128.874314,-2368.659014,-3983.696590,11695.253884
1128.874640,-1554.432478,-2145.067394,9030.512492
1128.874966,1184.329507,2145.067394,7846.182985
1128.875292,3923.091493,4979.620737,8438.347739
1128.875618,3552.988522,5132.839837,8216.285956
1128.875944,740.205942,3753.867940,7994.224174
1128.876270,-1184.329507,689.485948,7920.203579
1128.876596,-2146.597232,-919.314598,7550.100608
1128.876922,-3775.050304,0.000000,9326.594869
1128.877248,-4219.173869,-306.438199,11399.171507
1128.877574,-4145.153275,-1991.848295,11695.253884
1128.877900,-2442.679609,-3524.039291,11769.274478
1128.878227,-1628.453072,-2528.115143,11177.109724
1128.878553,0.000000,1302.362347,8512.368333
1128.878879,3034.844362,4979.620737,7846.182985
1128.879205,6143.709319,4596.572988,8734.430116
1128.879531,2960.823768,3907.087040,9030.512492
1128.879857,518.144159,2757.943793,7550.100608
1128.880183,0.000000,1378.971896,7254.018232
1128.880509,-1628.453072,689.485948,8216.285956
1128.880835,-3478.967927,-1685.410096,9696.697840
1128.881161,-3849.070898,-2757.943793,11325.150913
1128.881487,-2960.823768,-2681.334243,11325.150913
1128.881813,-1702.473667,-2374.896044,11325.150913
1128.882140,1036.288319,-1608.800546,9474.636058
1128.882466,2738.761985,2451.505594,8512.368333
1128.882792,4219.173869,5515.887586,8068.244768
1128.883118,4515.256246,4826.401637,7994.224174
1128.883444,2368.659014,3064.381992,7994.224174
1128.883770,740.205942,229.828649,7402.059420
1128.884096,-740.205942,-459.657299,7476.080014
1128.884422,-2368.659014,0.000000,9770.718434
1128.884748,-2220.617826,-1991.848295,12139.377449
1128.885074,-2368.659014,-3140.991542,11843.295072
1128.885400,-2294.638420,-3217.601092,11177.109724
1128.885726,888.247130,-2987.772442,9104.533087
1128.886053,3478.967927,2145.067394,8882.471304
1128.886379,4959.379811,5669.106685,8364.327145
1128.886705,4293.194464,5286.058936,7476.080014
1128.887031,2886.803174,3907.087040,6883.915261
1128.887357,740.205942,1378.971896,7105.977043
1128.887683,-1850.514855,0.000000,7920.203579
1128.888009,-3849.070898,0.000000,7698.141797
1128.888335,-4219.173869,-1608.800546,10658.965565
1128.888661,-3627.009116,-3677.258390,12287.418637
1128.888987,-3997.112087,-3064.381992,11695.253884
1128.889313,-2294.638420,-2068.457845,10362.883188
1128.889639,814.226536,689.485948,8808.450710
1128.889966,4367.215058,4596.572988,8956.491898
1128.890292,5921.647536,6971.469032,8586.388927
1128.890618,3627.009116,7048.078582,7476.080014
1128.890944,2072.576638,4366.744339,6735.874072
1128.891270,740.205942,919.314598,7179.997637
1128.891596,-2220.617826,-919.314598,7328.038826
1128.891922,-4959.379811,0.000000,9844.739029
1128.892248,-4071.132681,-1838.629195,13027.624579
1128.892574,-3775.050304,-4136.915689,13323.706956
1128.892900,-3552.988522,-4903.011187,12065.356855
1128.893226,-1332.370696,-3370.820191,10881.027347
1128.893552,1480.411884,3140.991542,8142.265362
1128.893878,4959.379811,6052.154434,7994.224174
1128.894205,4959.379811,4979.620737,8882.471304
1128.894531,1554.432478,3600.648841,7031.956449
1128.894857,0.000000,1991.848295,6883.915261
1128.895183,296.082377,383.047749,8586.388927
1128.895509,-1776.494261,-229.828649,9918.759623
1128.895835,-3108.864956,-1915.238745,11029.068536
1128.896161,-2368.659014,-4366.744339,11769.274478
1128.896487,-1406.391290,-4366.744339,11621.233289
1128.896813,666.185348,-3983.696590,10584.944971
1128.897139,2516.700203,1149.143247,10732.986159
1128.897465,4811.338623,5362.668486,8068.244768
1128.897791,6069.688724,5898.935335,7994.224174
1128.898118,4367.215058,4443.353888,8068.244768
1128.898444,1554.432478,2298.286494,5995.668130
1128.898770,-1702.473667,1302.362347,4737.318029
1128.899096,-2368.659014,0.000000,6883.915261
1128.899422,-3923.091493,-1225.752797,10658.965565
1128.899748,-3923.091493,-3524.039291,10955.047942
1128.900074,-4589.276840,-3524.039291,11621.233289
1128.900400,-3701.029710,-3907.087040,9770.718434
1128.900726,-1406.391290,-2145.067394,8290.306550
1128.901052,2368.659014,2987.772442,8512.368333
1128.901378,5181.441594,5822.325785,9548.656652
1128.901704,3034.844362,5898.935335,8512.368333
1128.902030,1480.411884,3677.258390,8290.306550
1128.902357,888.247130,612.876398,7994.224174
1128.902683,-1406.391290,689.485948,8438.347739
1128.903009,-2368.659014,-306.438199,10362.883188
1128.903335,-2294.638420,-995.924147,12805.562797
1128.903661,-3627.009116,-2451.505594,12361.439231
1128.903987,-4071.132681,-3524.039291,11473.192101
1128.904313,-1480.411884,-2987.772442,9622.677246
1128.904639,888.247130,1072.533697,9252.574275
1128.904965,2886.803174,5362.668486,10140.821405
1128.905291,3404.947333,5362.668486,9326.594869
1128.905617,1998.556043,4673.182538,7105.977043
1128.905943,740.205942,766.095498,6809.894666
1128.906269,-814.226536,536.266849,7994.224174
1128.906595,-3108.864956,1455.581446,7994.224174
1128.906922,-2812.782580,0.000000,9474.636058
1128.907248,-1406.391290,-2681.334243,11769.274478
1128.907574,-2072.576638,-3294.210641,11695.253884
1128.907900,-1776.494261,-2145.067394,8808.450710
1128.908226,1184.329507,689.485948,7698.141797
1128.908552,4071.132681,2911.162892,7698.141797
1128.908878,5181.441594,4749.792088,8068.244768
1128.909204,3775.050304,5822.325785,7920.203579
1128.909530,1480.411884,3907.087040,7846.182985
1128.909856,-666.185348,-1225.752797,7254.018232
1128.910182,-1776.494261,-1915.238745,7550.100608
1128.910508,-2886.803174,-1378.971896,9770.718434
1128.910834,-3552.988522,-1838.629195,11473.192101
1128.911160,-3552.988522,-2834.553343,13027.624579
1128.911487,-1850.514855,-4596.572988,11991.336260
1128.911813,0.000000,-3830.477490,9474.636058
1128.912139,2442.679609,2145.067394,7920.203579
1128.912465,4811.338623,5898.935335,9104.533087
1128.912791,5625.565159,6358.592633,9400.615463
1128.913117,3330.926739,3140.991542,8734.430116
1128.913443,1036.288319,0.000000,7772.162391
1128.913769,-592.164754,-306.438199,7624.121203
1128.914095,-1406.391290,536.266849,9474.636058
1128.914421,-814.226536,-229.828649,12139.377449
1128.914747,-2516.700203,-2145.067394,12805.562797
1128.915073,-2590.720797,-3524.039291,11103.089130
1128.915399,-1258.350101,-3064.381992,8882.471304
1128.915725,444.123565,1532.190996,7698.141797
1128.916052,2146.597232,4903.011187,7179.997637
1128.916378,3256.906145,5592.497135,8586.388927
1128.916704,2146.597232,4673.182538,8438.347739
1128.917030,518.144159,1915.238745,7772.162391
1128.917356,-2072.576638,0.000000,7105.977043
1128.917682,-3256.906145,-612.876398,7698.141797
1128.918008,-2738.761985,-459.657299,11399.171507
1128.918334,-1554.432478,-1302.362347,13693.809927
1128.918660,-2664.741391,-1608.800546,11843.295072
1128.918986,-1554.432478,-3064.381992,10066.800811
1128.919312,1332.370696,-383.047749,9474.636058
1128.919638,3478.967927,4596.572988,8660.409521
1128.919964,5107.421000,6971.469032,7031.956449
1128.920290,4219.173869,5439.278036,7179.997637
1128.920617,1776.494261,3140.991542,7179.997637
1128.920943,-740.205942,1685.410096,6661.853478
1128.921269,-2960.823768,919.314598,7550.100608
1128.921595,-3775.050304,-689.485948,9696.697840
1128.921921,-2886.803174,-3217.601092,10807.006753
1128.922247,-2368.659014,-3524.039291,12509.480420
1128.922573,-3108.864956,-1991.848295,11325.150913
1128.922899,-1850.514855,-1302.362347,9326.594869
1128.923225,1702.473667,612.876398,8142.265362
1128.923551,4515.256246,4060.306139,8364.327145
1128.923877,3182.885551,6052.154434,7920.203579
1128.924203,1850.514855,4903.011187,7105.977043
1128.924529,1554.432478,153.219100,7698.141797
1128.924855,-518.144159,-1455.581446,9104.533087
1128.925182,-2960.823768,-459.657299,9548.656652
1128.925508,-2960.823768,-766.095498,9770.718434
1128.925834,-2220.617826,-3064.381992,11917.315666
1128.926160,-1776.494261,-4596.572988,12361.439231
1128.926486,-518.144159,-3294.210641,11621.233289
1128.926812,518.144159,1762.019645,9548.656652
1128.927138,2812.782580,3753.867940,7772.162391
1128.927464,4293.194464,3294.210641,8142.265362
1128.927790,2294.638420,2834.553343,7328.038826
1128.928116,-740.205942,1608.800546,6735.874072
1128.928442,-1628.453072,-306.438199,7698.141797
1128.928768,-2812.782580,-2221.676944,9178.553681
1128.929094,-3478.967927,-3064.381992,11029.068536
1128.929420,-2812.782580,-2911.162892,11843.295072
1128.929747,-2442.679609,-2068.457845,12361.439231
1128.930073,-370.102971,-3447.429741,11325.150913
1128.930399,2294.638420,-1378.971896,9474.636058
1128.930725,3997.112087,4060.306139,9030.512492
1128.931051,5773.606348,6052.154434,7772.162391
1128.931377,4885.359217,5822.325785,7624.121203
1128.931703,2294.638420,2757.943793,7994.224174
1128.932029,-518.144159,0.000000,6587.832884
1128.932355,-2146.597232,0.000000,7105.977043
1128.932681,-2590.720797,0.000000,9474.636058
1128.933007,-3552.988522,-2068.457845,10658.965565
1128.933333,-3849.070898,-3370.820191,11325.150913
1128.933659,-2960.823768,-2911.162892,10658.965565
1128.933985,-666.185348,-1302.362347,8734.430116
1128.934311,1850.514855,2298.286494,7920.203579
1128.934638,3627.009116,6281.983084,8068.244768
1128.934964,3627.009116,6281.983084,7254.018232
1128.935290,2368.659014,5209.449386,7698.141797
1128.935616,1924.535449,995.924147,7031.956449
1128.935942,-888.247130,0.000000,7179.997637
1128.936268,-2960.823768,1072.533697,8364.327145
1128.936594,-2368.659014,153.219100,11843.295072
1128.936920,-1998.556043,-2221.676944,12805.562797
1128.937246,-2072.576638,-3217.601092,12583.501014
1128.937572,-1184.329507,-1915.238745,11399.171507
1128.937898,1998.556043,919.314598,9326.594869
1128.938224,4811.338623,4749.792088,9622.677246
1128.938550,6217.729913,4903.011187,10066.800811
1128.938876,2590.720797,4979.620737,10214.842000
1128.939203,518.144159,2221.676944,8142.265362
1128.939529,-370.102971,-1149.143247,6809.894666
1128.939855,-2516.700203,-1838.629195,7846.182985
1128.940181,-4071.132681,-689.485948,10362.883188
1128.940507,-4071.132681,-1149.143247,11325.150913
1128.940833,-2738.761985,-2834.553343,11399.171507
1128.941159,-2072.576638,-4903.011187,9474.636058
1128.941485,-370.102971,-1685.410096,8956.491898
1128.941811,3034.844362,3600.648841,7402.059420
1128.942137,6587.832884,7354.516781,8512.368333
1128.942463,4959.379811,4903.011187,8660.409521
1128.942789,1924.535449,2145.067394,6809.894666
1128.943115,0.000000,536.266849,5995.668130
1128.943441,-296.082377,0.000000,7179.997637
1128.943768,-2886.803174,0.000000,10288.862594
1128.944094,-3330.926739,-2221.676944,10510.924376
1128.944420,-2886.803174,-4443.353888,10584.944971
1128.944746,-2738.761985,-4060.306139,11843.295072
1128.945072,-2220.617826,-2834.553343,10214.842000
1128.945398,0.000000,842.705048,8216.285956
1128.945724,3182.885551,3600.648841,8364.327145
1128.946050,4145.153275,5132.839837,9400.615463
1128.946376,2516.700203,5132.839837,8734.430116
1128.946702,1184.329507,2757.943793,7402.059420
1128.947028,-1184.329507,-306.438199,6513.812290
1128.947354,-2294.638420,-612.876398,8882.471304
1128.947680,-1998.556043,-383.047749,11473.192101
1128.948006,-3330.926739,-1685.410096,12509.480420
1128.948333,-4293.194464,-3907.087040,11399.171507
1128.948659,-1850.514855,-5286.058936,10510.924376
1128.948985,518.144159,-919.314598,9474.636058
1128.949311,1924.535449,3524.039291,8216.285956
1128.949637,3775.050304,6128.763984,8808.450710
1128.949963,3701.029710,4366.744339,9104.533087
1128.950289,1776.494261,2604.724693,8660.409521
1128.950615,0.000000,919.314598,7328.038826
1128.950941,-2220.617826,766.095498,6883.915261
1128.951267,-2664.741391,0.000000,8068.244768
1128.951593,-1850.514855,-2528.115143,11917.315666
1128.951919,-2368.659014,-2221.676944,12213.398043
1128.952245,-3478.967927,-2068.457845,10881.027347
1128.952571,-1036.288319,-2757.943793,9400.615463
1128.952898,2590.720797,229.828649,8882.471304
1128.953224,4737.318029,5362.668486,9104.533087
1128.953550,4885.359217,7277.907231,10140.821405
1128.953876,2590.720797,4136.915689,7994.224174
1128.954202,1924.535449,995.924147,7476.080014
1128.954528,592.164754,-766.095498,8290.306550
1128.954854,-2072.576638,1302.362347,8956.491898
1128.955180,-2590.720797,689.485948,10362.883188
1128.955506,-1406.391290,-3140.991542,11917.315666
1128.955832,-1184.329507,-4749.792088,12065.356855
1128.956158,-1406.391290,-3600.648841,10214.842000
1128.956484,222.061783,1532.190996,8290.306550
1128.956810,3034.844362,4749.792088,7772.162391
1128.957136,4515.256246,4749.792088,8216.285956
1128.957463,2590.720797,4366.744339,8142.265362
1128.957789,666.185348,3677.258390,6587.832884
1128.958115,148.041188,1225.752797,6587.832884
1128.958441,-888.247130,-919.314598,7920.203579
1128.958767,-2738.761985,76.609550,9474.636058
1128.959093,-3478.967927,-306.438199,10955.047942
1128.959419,-2812.782580,-2681.334243,11695.253884
1128.959745,-1480.411884,-4443.353888,11473.192101
1128.960071,-814.226536,-2298.286494,9918.759623
1128.960397,1184.329507,2374.896044,8364.327145
1128.960723,3034.844362,6205.373534,10066.800811
1128.961049,2590.720797,3983.696590,9474.636058
1128.961375,444.123565,1378.971896,8290.306550
1128.961701,-1184.329507,-459.657299,7476.080014
1128.962028,-2368.659014,-229.828649,7624.121203
1128.962354,-2368.659014,536.266849,9474.636058
1128.962680,-2368.659014,-1302.362347,12213.398043
1128.963006,-2960.823768,-3600.648841,12361.439231
1128.963332,-2664.741391,-3370.820191,10436.903782
1128.963658,0.000000,-2298.286494,10732.986159
1128.963984,2738.761985,1072.533697,10288.862594
1128.964310,3330.926739,4596.572988,9030.512492
1128.964636,4219.173869,4673.182538,9326.594869
1128.964962,3701.029710,2221.676944,8808.450710
1128.965288,1924.535449,153.219100,7624.121203
1128.965614,0.000000,1149.143247,7698.141797
1128.965940,-814.226536,1608.800546,8142.265362
1128.966266,-888.247130,0.000000,9474.636058
1128.966593,-518.144159,-2604.724693,11325.150913
1128.966919,-2146.597232,-2528.115143,11029.068536
1128.967245,-2368.659014,-1608.800546,8512.368333
1128.967571,814.226536,-459.657299,7624.121203
1128.967897,2738.761985,2604.724693,8734.430116
1128.968223,2664.741391,4519.963438,7772.162391
1128.968549,592.164754,4443.353888,7105.977043
1128.968875,0.000000,1532.190996,7179.997637
1128.969201,-1480.411884,-1455.581446,7105.977043
1128.969527,-3182.885551,-536.266849,7994.224174
1128.969853,-2960.823768,0.000000,10140.821405
1128.970179,-2146.597232,0.000000,11251.130318
1128.970505,-1110.308913,-2834.553343,12287.418637
1128.970831,-962.267725,-3600.648841,12065.356855
1128.971158,222.061783,-229.828649,10436.903782
1128.971484,3478.967927,4213.525239,8808.450710
1128.971810,6143.709319,5362.668486,9696.697840
1128.972136,4441.235652,4290.134789,9178.553681
1128.972462,1184.329507,4213.525239,7476.080014
1128.972788,-148.041188,1991.848295,7698.141797
1128.973114,-1702.473667,689.485948,8438.347739
1128.973440,-3775.050304,-153.219100,9400.615463
1128.973766,-4219.173869,-1302.362347,10362.883188
1128.974092,-3701.029710,-2145.067394,10140.821405
1128.974418,-4219.173869,-2604.724693,11177.109724
1128.974744,-2516.700203,-2528.115143,10066.800811
1128.975070,-370.102971,612.876398,8290.306550
1128.975396,1998.556043,4136.915689,8068.244768
1128.975723,3330.926739,4366.744339,8438.347739
1128.976049,1776.494261,3753.867940,8068.244768
1128.976375,444.123565,1455.581446,7254.018232
1128.976701,-666.185348,229.828649,7254.018232
1128.977027,-370.102971,-229.828649,8142.265362
1128.977353,-1110.308913,-612.876398,9770.718434
1128.977679,-1110.308913,-612.876398,11695.253884
1128.978005,-814.226536,-1532.190996,11547.212695
1128.978331,1036.288319,-2681.334243,10807.006753
1128.978657,2442.679609,-842.705048,10955.047942
1128.978983,3701.029710,3524.039291,8882.471304
1128.979309,5625.565159,5592.497135,9474.636058
1128.979635,4515.256246,3064.381992,9992.780217
1128.979961,592.164754,-306.438199,9474.636058
1128.980287,-2368.659014,-1915.238745,7402.059420
1128.980614,-3478.967927,-1762.019645,7179.997637
1128.980940,-3923.091493,-1378.971896,9400.615463
1128.981266,-3256.906145,-2451.505594,11029.068536
1128.981592,-4441.235652,-2451.505594,10732.986159
1128.981918,-2960.823768,-3064.381992,10214.842000
1128.982244,-296.082377,-1991.848295,8586.388927
1128.982570,2960.823768,2451.505594,7698.141797
1128.982896,4663.297435,5056.230287,7846.182985
1128.983222,3923.091493,6511.811733,7994.224174
1128.983548,2442.679609,3907.087040,8290.306550
1128.983874,1554.432478,153.219100,8586.388927
1128.984200,-222.061783,-1838.629195,7550.100608
1128.984526,-1924.535449,0.000000,8290.306550
1128.984852,-1776.494261,995.924147,11251.130318
1128.985179,-1036.288319,-1608.800546,11843.295072
1128.985505,-2220.617826,-3064.381992,11769.274478
1128.985831,-1036.288319,-1991.848295,10584.944971
1128.986157,962.267725,1378.971896,8364.327145
1128.986483,3256.906145,5975.544884,8438.347739
1128.986809,5329.482782,5822.325785,9622.677246
1128.987135,2516.700203,4366.744339,8808.450710
1128.987461,0.000000,1532.190996,7772.162391
1128.987787,-1332.370696,-536.266849,8660.409521
1128.988113,-2368.659014,-459.657299,9400.615463
1128.988439,-3256.906145,459.657299,10807.006753
1128.988765,-2664.741391,-2451.505594,11399.171507
1128.989091,-2886.803174,-3370.820191,11769.274478
1128.989417,-2738.761985,-2834.553343,10658.965565
1128.989744,-370.102971,-383.047749,9548.656652
1128.990070,2368.659014,3753.867940,7254.018232
1128.990396,5033.400406,4596.572988,7550.100608
1128.990722,4515.256246,5209.449386,9252.574275
1128.991048,1480.411884,4213.525239,7550.100608
1128.991374,-888.247130,2374.896044,6069.688724
1128.991700,-444.123565,-766.095498,6439.791695
1128.992026,-1406.391290,-766.095498,8290.306550
1128.992352,-2886.803174,153.219100,9770.718434
1128.992678,-3256.906145,0.000000,10732.986159
1128.993004,-1998.556043,-2298.286494,10436.903782
1128.993330,-148.041188,-3524.039291,9400.615463
1128.993656,1258.350101,919.314598,8882.471304
1128.993982,3256.906145,5975.544884,7920.203579
1128.994309,3849.070898,5439.278036,8512.368333
1128.994635,2738.761985,2068.457845,9104.533087
1128.994961,0.000000,383.047749,8882.471304
1128.995287,-1480.411884,842.705048,7994.224174
1128.995613,-2220.617826,76.609550,9400.615463
1128.995939,-2664.741391,-2298.286494,11621.233289
1128.996265,-3404.947333,-3677.258390,13101.645173
1128.996591,-4071.132681,-3447.429741,11917.315666
1128.996917,-1998.556043,-3294.210641,11547.212695
1128.997243,296.082377,-1455.581446,10955.047942
1128.997569,1406.391290,3140.991542,9474.636058
1128.997895,4441.235652,5362.668486,8586.388927
1128.998221,3701.029710,4903.011187,8882.471304
1128.998547,2294.638420,2145.067394,7994.224174
1128.998873,1110.308913,0.000000,7402.059420
1128.999199,-740.205942,1149.143247,8216.285956
1128.999525,-1554.432478,1532.190996,9918.759623
1128.999851,-740.205942,-1455.581446,10510.924376
1129.000177,-1702.473667,-2834.553343,10881.027347
1129.000502,-1998.556043,-2528.115143,10288.862594
1129.000828,0.000000,-766.095498,8438.347739
1129.001154,2368.659014,2374.896044,8068.244768
1129.001480,4293.194464,4060.306139,8734.430116
1129.001806,2738.761985,4749.792088,8290.306550
1129.002132,296.082377,3447.429741,7179.997637
1129.002458,-444.123565,-306.438199,6143.709319
1129.002784,-1850.514855,-1532.190996,7105.977043
1129.003110,-3849.070898,-766.095498,9104.533087
1129.003435,-4293.194464,-306.438199,10807.006753
1129.003761,-3552.988522,-2145.067394,11547.212695
1129.004087,-3034.844362,-4749.792088,11621.233289
1129.004413,-2368.659014,-3983.696590,10140.821405
1129.004739,518.144159,766.095498,8512.368333
1129.005065,3775.050304,4979.620737,9844.739029
1129.005391,5255.462188,5515.887586,10288.862594
1129.005717,3108.864956,3447.429741,9400.615463
1129.006043,740.205942,689.485948,7772.162391
1129.006368,-222.061783,229.828649,7105.977043
1129.006694,-518.144159,459.657299,8882.471304
1129.007020,-222.061783,76.609550,10955.047942
1129.007346,-814.226536,-689.485948,12139.377449
1129.007672,-1776.494261,-2221.676944,11399.171507
1129.007998,-740.205942,-3064.381992,10140.821405
1129.008324,148.041188,-459.657299,8290.306550
1129.008650,2072.576638,3677.258390,6957.935855
1129.008976,3997.112087,5209.449386,7994.224174
1129.009301,3478.967927,4519.963438,7994.224174
1129.009627,296.082377,3294.210641,8068.244768
1129.009953,-1998.556043,76.609550,7550.100608
1129.010279,-2220.617826,-1608.800546,6661.853478
1129.010605,-1554.432478,-1225.752797,9400.615463
1129.010931,-592.164754,-536.266849,12139.377449
1129.011257,-1184.329507,-383.047749,12213.398043
1129.011583,-888.247130,-2221.676944,11325.150913
1129.011909,1554.432478,-3370.820191,9918.759623
1129.012235,2886.803174,842.705048,9696.697840
1129.012560,4367.215058,6052.154434,9400.615463
1129.012886,4737.318029,6741.640382,9474.636058
1129.013212,2590.720797,3294.210641,8882.471304
1129.013538,518.144159,-153.219100,8512.368333
1129.013864,-1406.391290,-1532.190996,7772.162391
1129.014190,-3478.967927,1455.581446,7476.080014
1129.014516,-2590.720797,76.609550,9474.636058
1129.014842,-1776.494261,-1762.019645,11843.295072
1129.015168,-3330.926739,-1915.238745,11325.150913
1129.015493,-2960.823768,-1378.971896,9326.594869
1129.015819,-296.082377,842.705048,8290.306550
1129.016145,2442.679609,3907.087040,7698.141797
1129.016471,2590.720797,5209.449386,7031.956449
1129.016797,888.247130,4290.134789,5995.668130
1129.017123,-592.164754,2145.067394,7698.141797
1129.017449,-1702.473667,-995.924147,7402.059420
1129.017775,-2590.720797,-459.657299,8882.471304
1129.018101,-3552.988522,689.485948,10214.842000
1129.018426,-2146.597232,0.000000,11325.150913
1129.018752,-1628.453072,-1991.848295,11177.109724
1129.019078,-962.267725,-3907.087040,11029.068536
1129.019404,-962.267725,-1762.019645,9844.739029
1129.019730,962.267725,3447.429741,9400.615463
1129.020056,3701.029710,5362.668486,10066.800811
1129.020382,3034.844362,3370.820191,10140.821405
1129.020708,-1110.308913,1378.971896,8882.471304
1129.021034,-2146.597232,-766.095498,6957.935855
1129.021359,-2368.659014,-1685.410096,7994.224174
1129.021685,-3256.906145,-995.924147,10140.821405
1129.022011,-2072.576638,-1915.238745,11769.274478
1129.022337,-518.144159,-2145.067394,11695.253884
1129.022663,222.061783,-2604.724693,12139.377449
1129.022989,2886.803174,-1149.143247,10955.047942
1129.023315,4367.215058,2451.505594,8142.265362
1129.023641,6735.874072,5745.716235,7772.162391
1129.023967,7624.121203,5362.668486,8956.491898
1129.024292,4145.153275,4749.792088,8364.327145
1129.024618,444.123565,1455.581446,7105.977043
1129.024944,-1776.494261,-2221.676944,6217.729913
1129.025270,-3552.988522,-2068.457845,8068.244768
1129.025596,-3997.112087,-1532.190996,10288.862594
1129.025922,-3627.009116,-2221.676944,11843.295072
1129.026248,-4219.173869,-3064.381992,10955.047942
1129.026574,-2294.638420,-3983.696590,9252.574275
1129.026900,296.082377,-689.485948,8660.409521
1129.027225,2146.597232,5209.449386,7254.018232
1129.027551,5033.400406,7507.735880,7846.182985
1129.027877,4145.153275,6205.373534,8142.265362
1129.028203,1702.473667,2298.286494,7920.203579
1129.028529,-1332.370696,0.000000,7105.977043
1129.028855,-2664.741391,383.047749,7698.141797
1129.029181,-2664.741391,153.219100,10732.986159
1129.029507,-2516.700203,-1838.629195,11843.295072
1129.029833,-2220.617826,-2681.334243,12139.377449
1129.030159,-2664.741391,-2374.896044,11695.253884
1129.030484,-148.041188,-689.485948,10362.883188
1129.030810,3034.844362,3677.258390,9770.718434
1129.031136,4959.379811,5822.325785,8882.471304
1129.031462,2738.761985,5822.325785,8290.306550
1129.031788,296.082377,4443.353888,7698.141797
1129.032114,-444.123565,1532.190996,7476.080014
1129.032440,-3552.988522,-1302.362347,7476.080014
1129.032766,-4811.338623,-1762.019645,7772.162391
1129.033092,-3701.029710,-1378.971896,10881.027347
1129.033417,-2442.679609,-1685.410096,12657.521608
1129.033743,-2220.617826,-3217.601092,12065.356855
1129.034069,-296.082377,-2911.162892,10584.944971
1129.034395,3108.864956,1608.800546,8586.388927
1129.034721,6439.791695,7124.688131,7994.224174
1129.035047,7772.162391,7124.688131,8438.347739
1129.035373,5181.441594,4826.401637,7846.182985
1129.035699,1850.514855,2298.286494,7624.121203
1129.036025,148.041188,76.609550,7402.059420
1129.036350,-1184.329507,-536.266849,7698.141797
1129.036676,-2960.823768,-1302.362347,9178.553681
1129.037002,-2516.700203,-2987.772442,11103.089130
1129.037328,-3330.926739,-3753.867940,12509.480420
1129.037654,-3108.864956,-4290.134789,10732.986159
1129.037980,-1110.308913,-1838.629195,9696.697840
1129.038306,2294.638420,2604.724693,8438.347739
1129.038632,4959.379811,5056.230287,7994.224174
1129.038958,4071.132681,5286.058936,8734.430116
1129.039283,592.164754,2911.162892,8068.244768
1129.039609,-1110.308913,1149.143247,7402.059420
1129.039935,-592.164754,-2221.676944,7994.224174
1129.040261,-2368.659014,-1532.190996,10362.883188
1129.040587,-3182.885551,-1838.629195,11843.295072
1129.040913,-3478.967927,-2298.286494,12287.418637
1129.041239,-1850.514855,-3677.258390,11843.295072
1129.041565,814.226536,-2681.334243,10881.027347
1129.041891,2146.597232,2451.505594,9326.594869
1129.042216,4145.153275,7124.688131,8364.327145
1129.042542,3849.070898,7048.078582,8068.244768
1129.042868,1998.556043,3370.820191,7624.121203
1129.043194,-814.226536,459.657299,7105.977043
1129.043520,-2664.741391,76.609550,6365.771101
1129.043846,-4737.318029,229.828649,7179.997637
1129.044172,-4293.194464,-2298.286494,10510.924376
1129.044498,-4885.359217,-4060.306139,11695.253884
1129.044824,-4885.359217,-4213.525239,10732.986159
1129.045149,-3256.906145,-3370.820191,9696.697840
1129.045475,0.000000,0.000000,9844.739029
1129.045801,3701.029710,4903.011187,10362.883188
1129.046127,5699.585753,7201.297681,9030.512492
1129.046453,3701.029710,4443.353888,8290.306550
1129.046779,2072.576638,1455.581446,7994.224174
1129.047105,962.267725,306.438199,8068.244768
1129.047431,-1110.308913,1225.752797,8808.450710
1129.047757,-2146.597232,-306.438199,10436.903782
1129.048082,-1332.370696,-2757.943793,11399.171507
1129.048408,-1184.329507,-3983.696590,11695.253884
1129.048734,-2220.617826,-2221.676944,10362.883188
1129.049060,-370.102971,-689.485948,8290.306550
1129.049386,3182.885551,2987.772442,8734.430116
1129.049712,4811.338623,4826.401637,8512.368333
1129.050038,3701.029710,5745.716235,7920.203579
1129.050364,1628.453072,4213.525239,6587.832884
1129.050690,814.226536,1072.533697,6735.874072
1129.051016,-518.144159,-842.705048,7402.059420
1129.051341,-3034.844362,-229.828649,9474.636058
1129.051667,-3108.864956,-306.438199,11029.068536
1129.051993,-1776.494261,-2604.724693,11547.212695
1129.052319,-1184.329507,-3983.696590,11473.192101
1129.052645,148.041188,-3140.991542,9770.718434
1129.052971,2442.679609,1762.019645,8512.368333
1129.053297,4959.379811,5745.716235,9252.574275
1129.053623,5403.503377,5439.278036,10214.842000
1129.053949,2664.741391,4596.572988,9326.594869
1129.054274,296.082377,2298.286494,7698.141797
1129.054600,-1258.350101,-229.828649,7031.956449
1129.054926,-2368.659014,-766.095498,8512.368333
1129.055252,-2886.803174,-1149.143247,11325.150913
1129.055578,-3923.091493,-1378.971896,11473.192101
1129.055904,-4737.318029,-2987.772442,10955.047942
1129.056230,-2368.659014,-4213.525239,10807.006753
1129.056556,0.000000,-1302.362347,9326.594869
1129.056882,1998.556043,4366.744339,8216.285956
1129.057207,5107.421000,5362.668486,8364.327145
1129.057533,4515.256246,4519.963438,8364.327145
1129.057859,2516.700203,3294.210641,8660.409521
1129.058185,518.144159,1608.800546,7846.182985
1129.058511,-1258.350101,536.266849,6883.915261
1129.058837,-1924.535449,-842.705048,8438.347739
1129.059163,-1332.370696,-2451.505594,11547.212695
1129.059489,-2146.597232,-766.095498,11843.295072
1129.059815,-1924.535449,-1608.800546,10140.821405
1129.060140,-518.144159,-2911.162892,9474.636058
1129.060466,1332.370696,-76.609550,8364.327145
1129.060792,2738.761985,4749.792088,8660.409521
1129.061118,2664.741391,6435.202183,8586.388927
1129.061444,518.144159,3217.601092,7402.059420
1129.061770,-1406.391290,-1072.533697,7550.100608
1129.062096,-2442.679609,-2451.505594,7105.977043
1129.062422,-3849.070898,689.485948,8216.285956
1129.062748,-3404.947333,-459.657299,9918.759623
1129.063073,-2516.700203,-3064.381992,12731.542202
1129.063399,-2294.638420,-3447.429741,12805.562797
1129.063725,-222.061783,-1991.848295,10955.047942
1129.064051,2812.782580,1149.143247,9548.656652
1129.064377,5255.462188,3677.258390,7920.203579
1129.064703,5255.462188,4596.572988,9030.512492
1129.065029,3775.050304,5515.887586,8882.471304
1129.065355,1110.308913,3294.210641,9178.553681
1129.065681,-1036.288319,-1225.752797,8660.409521
1129.066006,-2516.700203,-2451.505594,8438.347739
1129.066332,-2812.782580,-766.095498,9918.759623
1129.066658,-2146.597232,-1532.190996,10955.047942
1129.066984,-2812.782580,-2757.943793,11177.109724
1129.067310,-2072.576638,-3983.696590,10955.047942
1129.067636,-296.082377,-1378.971896,9326.594869
1129.067962,2368.659014,3753.867940,7920.203579
1129.068288,4737.318029,5439.278036,8364.327145
1129.068614,3997.112087,4596.572988,9400.615463
1129.068939,296.082377,3294.210641,7624.121203
1129.069265,-518.144159,536.266849,7105.977043
1129.069591,-1776.494261,-1762.019645,8216.285956
1129.069917,-3034.844362,-1455.581446,9252.574275
1129.070243,-2146.597232,-459.657299,10658.965565
1129.070569,-1850.514855,-306.438199,11695.253884
1129.070895,-1258.350101,-2681.334243,10436.903782
1129.071221,-370.102971,-2221.676944,8808.450710
1129.071547,2220.617826,1302.362347,8290.306550
1129.071873,3478.967927,5745.716235,7550.100608
1129.072198,3849.070898,6205.373534,7402.059420
1129.072524,2516.700203,3447.429741,8364.327145
1129.072850,-370.102971,459.657299,7920.203579
1129.073176,-2738.761985,0.000000,7254.018232
1129.073502,-3404.947333,-612.876398,7772.162391
1129.073828,-2220.617826,-2068.457845,9474.636058
1129.074154,-2368.659014,-1685.410096,11769.274478
1129.074480,-2590.720797,-1302.362347,12805.562797
1129.074806,-518.144159,-1455.581446,11251.130318
1129.075131,2220.617826,153.219100,10436.903782
1129.075457,3997.112087,3140.991542,9918.759623
1129.075783,4293.194464,5669.106685,9326.594869
1129.076109,3701.029710,6128.763984,7698.141797
1129.076435,1998.556043,2298.286494,9326.594869
1129.076761,-1036.288319,-306.438199,8956.491898
1129.077087,-2886.803174,0.000000,7550.100608
1129.077413,-3627.009116,-306.438199,8808.450710
1129.077739,-2590.720797,-1915.238745,9474.636058
1129.078064,-3108.864956,-3447.429741,10881.027347
1129.078390,-1850.514855,-1302.362347,11325.150913
1129.078716,296.082377,1302.362347,9104.533087
1129.079042,2960.823768,2911.162892,7920.203579
1129.079368,5551.544565,3907.087040,9030.512492
1129.079694,3997.112087,5286.058936,8882.471304
1129.080020,1406.391290,4366.744339,7994.224174
1129.080346,962.267725,-229.828649,7328.038826
1129.080672,-740.205942,-2681.334243,7920.203579
1129.080997,-3627.009116,-229.828649,8808.450710
1129.081323,-3182.885551,306.438199,10288.862594
1129.081649,-2146.597232,-2145.067394,10436.903782
1129.081975,-2516.700203,-4519.963438,11251.130318
1129.082301,-1258.350101,-3600.648841,10732.986159
1129.082627,2220.617826,2221.676944,9326.594869
1129.082953,5255.462188,5898.935335,9474.636058
1129.083279,4959.379811,4443.353888,9622.677246
1129.083605,1332.370696,2374.896044,8142.265362
1129.083930,-666.185348,1072.533697,6809.894666
1129.084256,-740.205942,-459.657299,7772.162391
1129.084582,-1628.453072,-536.266849,8734.430116
1129.084908,-3256.906145,-306.438199,10955.047942
1129.085234,-3034.844362,-1838.629195,11029.068536
1129.085560,-3404.947333,-2298.286494,10510.924376
1129.085886,-2220.617826,-3600.648841,9326.594869
1129.086212,370.102971,-1838.629195,8512.368333
1129.086538,1702.473667,4366.744339,9178.553681
1129.086863,4663.297435,7048.078582,9104.533087
1129.087189,4071.132681,5362.668486,9992.780217
1129.087515,370.102971,1149.143247,8290.306550
1129.087841,-3034.844362,-1225.752797,7105.977043
1129.088167,-2738.761985,-306.438199,6735.874072
1129.088493,-2368.659014,0.000000,9770.718434
1129.088819,-2960.823768,-2451.505594,12287.418637
1129.089145,-4219.173869,-4060.306139,11695.253884
1129.089471,-3627.009116,-3294.210641,11029.068536
1129.089797,-888.247130,-2834.553343,10732.986159
1129.090122,1480.411884,1149.143247,9326.594869
1129.090448,4441.235652,4443.353888,8290.306550
1129.090774,5033.400406,5592.497135,9104.533087
1129.091100,2738.761985,5286.058936,8808.450710
1129.091426,1554.432478,1838.629195,8438.347739
1129.091752,148.041188,-689.485948,6735.874072
1129.092078,-1776.494261,-306.438199,7402.059420
1129.092404,-1924.535449,0.000000,10362.883188
1129.092730,-1332.370696,-1149.143247,11769.274478
1129.093055,-1924.535449,-2451.505594,10510.924376
1129.093381,-222.061783,-3753.867940,9548.656652
1129.093707,1406.391290,-153.219100,9178.553681
1129.094033,3627.009116,4903.011187,7846.182985
1129.094359,4367.215058,7354.516781,8660.409521
1129.094685,3552.988522,4443.353888,8216.285956
1129.095011,1554.432478,2451.505594,7402.059420
1129.095337,518.144159,995.924147,6957.935855
1129.095663,-1184.329507,536.266849,7254.018232
1129.095988,-3182.885551,-383.047749,8882.471304
1129.096314,-2812.782580,-2451.505594,11621.233289
1129.096640,-2516.700203,-3064.381992,12953.603985
1129.096966,-2368.659014,-2298.286494,11325.150913
1129.097292,-1184.329507,-1072.533697,9696.697840
1129.097618,2072.576638,1225.752797,8956.491898
1129.097944,4145.153275,4749.792088,8956.491898
1129.098270,3404.947333,5975.544884,9326.594869
1129.098596,1702.473667,4213.525239,8364.327145
1129.098921,222.061783,1378.971896,6735.874072
1129.099247,-148.041188,-459.657299,7031.956449
1129.099573,-2146.597232,689.485948,9548.656652
1129.099899,-3478.967927,766.095498,11695.253884
1129.100225,-3478.967927,-1991.848295,12287.418637
1129.100551,-2146.597232,-4673.182538,11621.233289
1129.100877,-1480.411884,-4213.525239,9474.636058
1129.101203,0.000000,536.266849,8512.368333
1129.101529,2146.597232,5822.325785,8956.491898
1129.101855,3849.070898,5592.497135,9104.533087
1129.102181,2368.659014,2834.553343,9030.512492
1129.102507,148.041188,766.095498,6883.915261
1129.102833,-1258.350101,0.000000,5699.585753
1129.103159,-888.247130,306.438199,7402.059420
1129.103485,-1850.514855,0.000000,11325.150913
1129.103811,-2294.638420,-1762.019645,12509.480420
1129.104137,-2368.659014,-3753.867940,10732.986159
1129.104463,-888.247130,-4290.134789,9992.780217
1129.104789,888.247130,-1915.238745,10214.842000
1129.105115,1406.391290,3907.087040,9326.594869
1129.105441,3775.050304,4903.011187,8142.265362
1129.105767,2664.741391,2834.553343,9326.594869
1129.106093,-148.041188,689.485948,7772.162391
1129.106419,-1258.350101,612.876398,5625.565159
1129.106745,-1628.453072,306.438199,6291.750507
1129.107071,-2590.720797,-306.438199,8808.450710
1129.107397,-2294.638420,-1378.971896,11325.150913
1129.107724,-814.226536,-2451.505594,10732.986159
1129.108050,-518.144159,-2145.067394,9918.759623
1129.108376,518.144159,-1915.238745,9474.636058
1129.108702,2516.700203,2374.896044,10807.006753
1129.109028,5181.441594,5745.716235,10510.924376
1129.109354,4811.338623,4596.572988,10436.903782
1129.109680,2220.617826,995.924147,8808.450710
1129.110006,-148.041188,-1608.800546,7105.977043
1129.110332,-1998.556043,0.000000,7846.182985
1129.110658,-3330.926739,1532.190996,10658.965565
1129.110984,-3478.967927,-306.438199,10214.842000
1129.111310,-3108.864956,-4290.134789,10658.965565
1129.111636,-3330.926739,-4903.011187,10436.903782
1129.111962,-2368.659014,-1225.752797,9992.780217
1129.112288,-222.061783,2987.772442,9474.636058
1129.112614,3182.885551,3370.820191,9400.615463
1129.112940,3849.070898,2528.115143,8142.265362
1129.113266,962.267725,4213.525239,7846.182985
1129.113592,-814.226536,3370.820191,6365.771101
1129.113918,-888.247130,306.438199,7105.977043
1129.114244,-1406.391290,-1762.019645,8512.368333
1129.114570,-2738.761985,-919.314598,10288.862594
1129.114896,-3108.864956,229.828649,9400.615463
1129.115222,-1480.411884,-919.314598,10214.842000
1129.115548,0.000000,-2604.724693,11843.295072
1129.115874,1406.391290,-459.657299,9770.718434
1129.116200,3330.926739,4366.744339,7920.203579
1129.116526,5995.668130,5898.935335,8364.327145
1129.116852,4737.318029,4903.011187,9400.615463
1129.117178,1184.329507,3524.039291,7846.182985
1129.117504,-740.205942,995.924147,6439.791695
1129.117830,-1850.514855,-383.047749,7105.977043
1129.118156,-3330.926739,-383.047749,8808.450710
1129.118482,-2516.700203,-1608.800546,9992.780217
1129.118808,-2738.761985,-1685.410096,11029.068536
1129.119134,-3182.885551,-2145.067394,11473.192101
1129.119460,-1332.370696,-1762.019645,10436.903782
1129.119786,1110.308913,842.705048,9104.533087
1129.120112,2368.659014,4136.915689,8364.327145
1129.120438,2812.782580,3600.648841,8808.450710
1129.120764,1776.494261,2451.505594,9400.615463
1129.121090,74.020594,689.485948,9326.594869
1129.121416,-1628.453072,-1455.581446,8290.306550
1129.121742,-1702.473667,-1608.800546,8956.491898
1129.122068,-740.205942,-1302.362347,9696.697840
1129.122394,148.041188,-612.876398,12879.583391
1129.122720,0.000000,612.876398,12805.562797
1129.123046,1776.494261,-919.314598,9548.656652
1129.123372,3997.112087,-153.219100,7994.224174
1129.123698,5033.400406,4060.306139,8586.388927
1129.124024,4515.256246,7737.564530,8660.409521
1129.124350,2590.720797,6358.592633,7920.203579
1129.124676,518.144159,306.438199,7402.059420
1129.125002,-2146.597232,-3447.429741,7624.121203
1129.125328,-4811.338623,-2145.067394,7624.121203
1129.125654,-4737.318029,-383.047749,9030.512492
1129.125980,-3849.070898,-2451.505594,11843.295072
1129.126306,-4441.235652,-4213.525239,11695.253884
1129.126632,-2960.823768,-3217.601092,10140.821405
1129.126958,-296.082377,-229.828649,8216.285956
1129.127284,3034.844362,3447.429741,7698.141797
1129.127610,4959.379811,6128.763984,9252.574275
1129.127936,4515.256246,6281.983084,9622.677246
1129.128262,1554.432478,4826.401637,7772.162391
1129.128588,-222.061783,153.219100,7179.997637
1129.128914,-1776.494261,-1762.019645,7402.059420
1129.129240,-3627.009116,-536.266849,8068.244768
1129.129566,-2442.679609,-229.828649,10658.965565
1129.129892,-2442.679609,-1072.533697,13027.624579
1129.130218,-2886.803174,-3447.429741,11325.150913
1129.130544,-2368.659014,-3370.820191,9474.636058
1129.130870,444.123565,1455.581446,8142.265362
1129.131196,2738.761985,5975.544884,7772.162391
1129.131522,5255.462188,6741.640382,9400.615463
1129.131848,3997.112087,4673.182538,9326.594869
1129.132174,222.061783,1685.410096,7476.080014
1129.132500,-1332.370696,-536.266849,6735.874072
1129.132826,-2368.659014,-995.924147,7994.224174
1129.133152,-2812.782580,-306.438199,9696.697840
1129.133478,-2220.617826,-1608.800546,11843.295072
1129.133804,-3404.947333,-2528.115143,13101.645173
1129.134130,-2664.741391,-4060.306139,10955.047942
1129.134456,-148.041188,-2604.724693,9548.656652
1129.134782,2368.659014,2374.896044,9474.636058
1129.135108,3775.050304,4979.620737,9104.533087
1129.135434,2812.782580,4903.011187,8660.409521
1129.135760,2294.638420,1838.629195,8882.471304
1129.136086,0.000000,-1378.971896,7105.977043
1129.136412,-1924.535449,-1378.971896,6957.935855
1129.136738,-2442.679609,-229.828649,8808.450710
1129.137064,-1258.350101,-1225.752797,10362.883188
1129.137390,-1702.473667,-2374.896044,10807.006753
1129.137716,-1332.370696,-2987.772442,10510.924376
1129.138042,1480.411884,-1072.533697,9622.677246
1129.138368,3997.112087,2834.553343,8882.471304
1129.138694,5329.482782,5132.839837,8734.430116
1129.139020,4737.318029,4903.011187,8808.450710
1129.139346,2886.803174,4290.134789,8734.430116
1129.139672,1480.411884,1685.410096,8364.327145
1129.139998,-222.061783,-689.485948,7031.956449
1129.140324,-3034.844362,-1302.362347,7254.018232
1129.140650,-2812.782580,-1149.143247,10436.903782
1129.140976,-1776.494261,-1072.533697,11991.336260
1129.141302,-3775.050304,-1915.238745,11103.089130
1129.141628,-3330.926739,-4060.306139,9770.718434
1129.141954,-592.164754,-1072.533697,8734.430116
1129.142280,2220.617826,4903.011187,8290.306550
1129.142606,3108.864956,6435.202183,8734.430116
1129.142932,1406.391290,4749.792088,9104.533087
1129.143258,148.041188,1149.143247,8364.327145
1129.143584,148.041188,0.000000,8068.244768
1129.143910,-1554.432478,842.705048,8586.388927
1129.144236,-3256.906145,995.924147,9548.656652
1129.144562,-2442.679609,-1225.752797,10288.862594
1129.144888,-1332.370696,-1838.629195,11621.233289
1129.145214,-1776.494261,-2681.334243,11473.192101
1129.145540,-1110.308913,-766.095498,9474.636058
1129.145866,1110.308913,2604.724693,8290.306550
1129.146192,3552.988522,4903.011187,9104.533087
1129.146518,2664.741391,4826.401637,9548.656652
1129.146844,518.144159,3064.381992,8586.388927
1129.147170,-962.267725,-612.876398,6661.853478
1129.147496,-2146.597232,-1608.800546,6809.894666
1129.147822,-2294.638420,76.609550,9252.574275
1129.148148,-2516.700203,229.828649,10658.965565
1129.148474,-3404.947333,-1915.238745,10658.965565
1129.148800,-2516.700203,-4290.134789,10140.821405
1129.149126,-222.061783,-3524.039291,9844.739029
1129.149452,1258.350101,1455.581446,8438.347739
1129.149778,3775.050304,5669.106685,8438.347739
1129.150104,4959.379811,4596.572988,9474.636058
1129.150430,4219.173869,1838.629195,8364.327145
1129.150756,2220.617826,459.657299,8512.368333
1129.151082,444.123565,1072.533697,9030.512492
1129.151408,962.267725,1378.971896,8956.491898
1129.151734,1924.535449,-153.219100,10214.842000
1129.152060,2146.597232,-2604.724693,11473.192101
1129.152386,-1628.453072,-1455.581446,11177.109724
1129.152712,-518.144159,-995.924147,9918.759623
1129.153038,1480.411884,0.000000,10658.965565
1129.153364,2368.659014,2221.676944,9696.697840
1129.153690,2220.617826,3217.601092,8364.327145
1129.154016,740.205942,3524.039291,8660.409521
1129.154342,-666.185348,995.924147,7550.100608
1129.154668,-2960.823768,-919.314598,8068.244768
1129.154994,-4071.132681,-1378.971896,7994.224174
1129.155320,-4145.153275,-153.219100,9104.533087
1129.155646,-2886.803174,-612.876398,10732.986159
1129.155972,-2664.741391,-1838.629195,11695.253884
1129.156298,-2738.761985,-2451.505594,10214.842000
1129.156624,-592.164754,-1149.143247,8660.409521
1129.156950,3108.864956,2145.067394,9326.594869
1129.157276,4293.194464,5822.325785,9992.780217
1129.157602,2516.700203,5669.106685,9178.553681
1129.157928,888.247130,3370.820191,8364.327145
1129.158254,-444.123565,0.000000,7031.956449
1129.158580,-1850.514855,-689.485948,6513.812290
1129.158906,-2442.679609,995.924147,7920.203579
1129.159232,-2516.700203,1991.848295,10066.800811
1129.159558,-2590.720797,0.000000,10658.965565
1129.159884,-2664.741391,-2834.553343,10584.944971
1129.160210,-2664.741391,-2987.772442,9178.553681
1129.160536,-814.226536,1149.143247,8068.244768
1129.160862,2368.659014,3600.648841,8808.450710
1129.161188,3182.885551,3830.477490,9844.739029
1129.161514,148.041188,1455.581446,9548.656652
1129.161840,-2368.659014,-383.047749,8068.244768
1129.162166,-2146.597232,-2374.896044,7328.038826
1129.162492,-2072.576638,-2145.067394,8290.306550
1129.162818,-1924.535449,-1225.752797,11325.150913
1129.163144,-666.185348,0.000000,12139.377449
1129.163470,1406.391290,-459.657299,11325.150913
1129.163796,3108.864956,-1915.238745,10288.862594
1129.164122,3849.070898,229.828649,9178.553681
1129.164448,5551.544565,6052.154434,7476.080014
1129.164774,6439.791695,8120.612279,8660.409521
1129.165100,5921.647536,4213.525239,9548.656652
1129.165426,1628.453072,536.266849,9178.553681
1129.165752,-1850.514855,-1378.971896,7105.977043
1129.166078,-2886.803174,-1378.971896,7476.080014
1129.166404,-3627.009116,-1378.971896,9918.759623
1129.166730,-2664.741391,-3294.210641,11917.315666
1129.167056,-2960.823768,-2911.162892,13101.645173
1129.167382,-2146.597232,-2911.162892,9770.718434
1129.167708,296.082377,-1608.800546,8956.491898
1129.168034,4219.173869,2451.505594,9696.697840
1129.168360,4737.318029,7201.297681,9770.718434
1129.168686,4071.132681,7048.078582,9474.636058
1129.169012,2960.823768,3140.991542,8660.409521
1129.169338,-296.082377,-383.047749,7846.182985
1129.169664,-3256.906145,-1455.581446,6217.729913
1129.169990,-3256.906145,153.219100,7179.997637
1129.170316,-2442.679609,153.219100,11547.212695
1129.170642,-3256.906145,-2451.505594,12065.356855
1129.170968,-4071.132681,-2757.943793,11103.089130
1129.171294,-2368.659014,-2145.067394,8660.409521
1129.171620,444.123565,459.657299,8364.327145
1129.171946,3108.864956,4749.792088,8734.430116
1129.172272,3997.112087,6665.030833,9030.512492
1129.172598,1554.432478,5745.716235,7772.162391
1129.172924,222.061783,2145.067394,6735.874072
1129.173250,-666.185348,-306.438199,7254.018232
1129.173576,-2368.659014,229.828649,7105.977043
1129.173902,-2738.761985,1225.752797,8512.368333
1129.174228,-1554.432478,-383.047749,11103.089130
1129.174554,-1110.308913,-2528.115143,11547.212695
1129.174880,-1184.329507,-2298.286494,12509.480420
1129.175206,-296.082377,-766.095498,10362.883188
1129.175532,1628.453072,2681.334243,9030.512492
1129.175858,4219.173869,4290.134789,9844.739029
1129.176184,4071.132681,3370.820191,11029.068536
1129.176510,444.123565,2451.505594,9104.533087
1129.176836,-1332.370696,0.000000,6809.894666
1129.177162,-2072.576638,-1915.238745,7624.121203
1129.177488,-2516.700203,-919.314598,8956.491898
1129.177814,-3108.864956,-459.657299,9770.718434
1129.178140,-2516.700203,-1762.019645,11177.109724
1129.178466,-1924.535449,-3677.258390,11103.089130
1129.178792,-222.061783,-2911.162892,10214.842000
1129.179118,2368.659014,1072.533697,9770.718434
1129.179444,3849.070898,4903.011187,9252.574275
1129.179770,3849.070898,4290.134789,8956.491898
1129.180096,3182.885551,1608.800546,9474.636058
1129.180422,888.247130,0.000000,8364.327145
1129.180748,-962.267725,0.000000,7031.956449
1129.181074,-1184.329507,0.000000,7624.121203
1129.181400,-888.247130,-919.314598,9474.636058
1129.181726,-1998.556043,-2451.505594,9844.739029
1129.182052,-2886.803174,-2145.067394,9918.759623
1129.182378,-1702.473667,-1915.238745,9992.780217
1129.182704,74.020594,-229.828649,9178.553681
1129.183030,1850.514855,2911.162892,9400.615463
1129.183356,2516.700203,4060.306139,9918.759623
1129.183682,1480.411884,4213.525239,8956.491898
1129.184008,592.164754,1302.362347,9030.512492
1129.184334,-888.247130,-766.095498,7402.059420
1129.184660,-2442.679609,0.000000,7254.018232
1129.184986,-2294.638420,995.924147,9252.574275
1129.185312,-592.164754,0.000000,11103.089130
1129.185638,-1924.535449,-1225.752797,11177.109724
1129.185964,-1998.556043,-842.705048,9992.780217
1129.186290,592.164754,-306.438199,9622.677246
1129.186616,3478.967927,4366.744339,9770.718434
1129.186942,4071.132681,6052.154434,9844.739029
1129.187268,3034.844362,4673.182538,9474.636058
1129.187594,1480.411884,2451.505594,7920.203579
1129.187920,370.102971,383.047749,7624.121203
1129.188246,-1406.391290,76.609550,7772.162391
1129.188572,-3108.864956,1762.019645,9104.533087
1129.188898,-2738.761985,153.219100,10510.924376
1129.189224,-1850.514855,-1915.238745,11325.150913
1129.189550,-2368.659014,-3064.381992,10955.047942
1129.189876,-2516.700203,-2374.896044,8734.430116
1129.190202,74.020594,995.924147,7624.121203
1129.190528,3478.967927,3830.477490,8660.409521
1129.190854,3923.091493,5209.449386,9918.759623
1129.191180,1406.391290,4290.134789,8882.471304
1129.191506,296.082377,766.095498,7402.059420
1129.191832,-148.041188,-1378.971896,6439.791695
1129.192158,-592.164754,-1072.533697,8290.306550
1129.192484,-888.247130,383.047749,10436.903782
1129.192810,0.000000,-306.438199,10732.986159
1129.193136,0.000000,-1762.019645,11991.336260
1129.193462,296.082377,-3370.820191,11251.130318
1129.193788,222.061783,0.000000,8660.409521
1129.194114,3182.885551,4060.306139,7846.182985
1129.194440,4663.297435,4826.401637,9696.697840
1129.194766,2590.720797,2834.553343,8956.491898
1129.195092,-518.144159,1302.362347,7920.203579
1129.195418,-2220.617826,-919.314598,7254.018232
1129.195744,-3330.926739,-1762.019645,7105.977043
1129.196070,-3256.906145,-1838.629195,9030.512492
1129.196396,-2590.720797,-1915.238745,12065.356855
1129.196722,-2368.659014,-1838.629195,11325.150913
1129.197049,-1406.391290,-2451.505594,10436.903782
1129.197374,962.267725,-1608.800546,10362.883188
1129.197700,3330.926739,2068.457845,8956.491898
1129.198026,3182.885551,6358.592633,8512.368333
1129.198352,4441.235652,5286.058936,9770.718434
1129.198678,2220.617826,2911.162892,9548.656652
1129.199004,-518.144159,459.657299,7328.038826
1129.199330,-1924.535449,-383.047749,7402.059420
1129.199656,-2368.659014,0.000000,7698.141797
1129.199982,-1776.494261,153.219100,9844.739029
1129.200308,-1554.432478,-1685.410096,11251.130318
1129.200634,-3034.844362,-1455.581446,10436.903782
1129.200960,-2368.659014,-919.314598,9548.656652
1129.201285,962.267725,306.438199,8956.491898
1129.201611,2960.823768,4519.963438,8364.327145
1129.201937,1776.494261,5439.278036,8290.306550
1129.202263,592.164754,4673.182538,9178.553681
1129.202589,0.000000,2145.067394,7698.141797
1129.202915,-2146.597232,-2145.067394,6587.832884
1129.203241,-3997.112087,-2681.334243,8216.285956
1129.203567,-3627.009116,-306.438199,9030.512492
1129.203893,-1702.473667,0.000000,11843.295072
1129.204219,-1480.411884,-2374.896044,12953.603985
1129.204545,-1184.329507,-4290.134789,11029.068536
1129.204870,1110.308913,153.219100,9474.636058
1129.205196,4145.153275,3600.648841,8660.409521
1129.205522,4663.297435,6511.811733,9326.594869
1129.205848,2886.803174,4749.792088,9326.594869
1129.206174,444.123565,1608.800546,7624.121203
1129.206500,-1110.308913,-1149.143247,6957.935855
1129.206826,-2960.823768,-2068.457845,7031.956449
1129.207152,-3849.070898,-229.828649,8956.491898
1129.207478,-2146.597232,0.000000,10214.842000
1129.207804,-1258.350101,-2298.286494,10807.006753
1129.208130,-1184.329507,-4136.915689,11029.068536
1129.208456,592.164754,-2145.067394,10288.862594
1129.208781,2516.700203,3064.381992,9770.718434
1129.209107,4885.359217,6128.763984,10214.842000
1129.209433,5921.647536,3983.696590,10140.821405
1129.209759,3108.864956,2374.896044,9844.739029
1129.210085,370.102971,919.314598,7550.100608
1129.210411,-592.164754,153.219100,7105.977043
1129.210737,-1628.453072,-612.876398,8068.244768
1129.211063,-2294.638420,-1072.533697,10140.821405
1129.211389,-1628.453072,-612.876398,10658.965565
1129.211715,-1184.329507,-1225.752797,10807.006753
1129.212041,-814.226536,-1838.629195,9474.636058
1129.212367,962.267725,76.609550,9622.677246
1129.212692,2294.638420,4673.182538,9622.677246
1129.213018,2590.720797,5209.449386,9178.553681
1129.213344,1776.494261,2757.943793,8808.450710
1129.213670,-666.185348,153.219100,8364.327145
1129.213996,-3701.029710,-919.314598,5995.668130
1129.214322,-3478.967927,153.219100,5995.668130
1129.214648,-2368.659014,0.000000,8808.450710
1129.214974,-2516.700203,-919.314598,11103.089130
1129.215300,-2294.638420,-1072.533697,10288.862594
1129.215626,-1702.473667,-766.095498,9918.759623
1129.215952,1480.411884,-306.438199,9474.636058
1129.216278,4219.173869,3447.429741,10362.883188
1129.216603,4959.379811,6511.811733,10732.986159
1129.216929,2960.823768,4979.620737,9770.718434
1129.217255,814.226536,1762.019645,8216.285956
1129.217581,0.000000,-1225.752797,7994.224174
1129.217907,-2516.700203,-1072.533697,8068.244768
1129.218233,-4367.215058,766.095498,7328.038826
1129.218559,-3256.906145,-842.705048,8956.491898
1129.218885,-1924.535449,-3677.258390,11547.212695
1129.219211,-2220.617826,-3217.601092,10732.986159
1129.219537,-592.164754,-612.876398,9474.636058
1129.219863,2812.782580,2145.067394,8438.347739
1129.220189,4737.318029,4213.525239,10436.903782
1129.220514,4515.256246,4213.525239,11843.295072
1129.220840,2590.720797,3983.696590,11177.109724
1129.221166,1184.329507,1225.752797,8734.430116
1129.221492,1258.350101,-2604.724693,7179.997637
1129.221818,-666.185348,-2068.457845,8216.285956
1129.222144,-2220.617826,995.924147,9400.615463
1129.222470,-1850.514855,536.266849,11325.150913
1129.222796,-1702.473667,-2451.505594,11177.109724
1129.223122,-518.144159,-4443.353888,9548.656652
1129.223448,814.226536,-229.828649,9400.615463
1129.223774,2220.617826,6128.763984,8586.388927
1129.224100,3701.029710,6665.030833,9030.512492
1129.224425,2886.803174,1685.410096,9474.636058
1129.224751,-740.205942,-689.485948,7772.162391
1129.225077,-3701.029710,459.657299,5699.585753
1129.225403,-3256.906145,383.047749,5699.585753
1129.225729,-3552.988522,-995.924147,8512.368333
1129.226055,-4589.276840,-3064.381992,10288.862594
1129.226381,-4071.132681,-2757.943793,9844.739029
1129.226707,-2368.659014,-1378.971896,10066.800811
1129.227033,296.082377,-919.314598,10066.800811
1129.227359,2368.659014,995.924147,9400.615463
1129.227685,4589.276840,5592.497135,10436.903782
1129.228011,5329.482782,6435.202183,10732.986159
1129.228336,3701.029710,4290.134789,10362.883188
1129.228662,518.144159,383.047749,8660.409521
1129.228988,-1702.473667,-1072.533697,7328.038826
1129.229314,-2812.782580,153.219100,8438.347739
1129.229640,-2368.659014,-229.828649,10362.883188
1129.229966,-3108.864956,-2068.457845,12435.459826
1129.230292,-3701.029710,-3294.210641,10584.944971
1129.230618,-2220.617826,-1991.848295,9474.636058
1129.230944,1036.288319,76.609550,9400.615463
1129.231270,2738.761985,3447.429741,8882.471304
1129.231596,2812.782580,5515.887586,9844.739029
1129.231922,2960.823768,4519.963438,8808.450710
1129.232247,1924.535449,2911.162892,7698.141797
1129.232573,0.000000,-229.828649,6587.832884
1129.232899,-2664.741391,-689.485948,7031.956449
1129.233225,-2960.823768,689.485948,8290.306550
1129.233551,-1850.514855,-536.266849,11029.068536
1129.233877,-2146.597232,-2987.772442,10807.006753
1129.234203,-2146.597232,-3370.820191,9474.636058
1129.234529,888.247130,-689.485948,8216.285956
1129.234855,4071.132681,3907.087040,9474.636058
1129.235181,4811.338623,5515.887586,10510.924376
1129.235507,4441.235652,4290.134789,11695.253884
1129.235833,3330.926739,2221.676944,9252.574275
1129.236158,2072.576638,153.219100,7105.977043
1129.236484,148.041188,-1378.971896,7105.977043
1129.236810,-1480.411884,0.000000,7772.162391
1129.237136,-3256.906145,766.095498,9696.697840
1129.237462,-2368.659014,-2374.896044,11251.130318
1129.237788,-1850.514855,-4060.306139,10658.965565
1129.238114,-1998.556043,-2987.772442,9474.636058
1129.238440,0.000000,383.047749,8734.430116
1129.238766,2220.617826,4596.572988,9770.718434
1129.239092,2812.782580,4979.620737,11695.253884
1129.239418,1184.329507,1838.629195,11103.089130
1129.239744,-2368.659014,-612.876398,7920.203579
1129.240069,-2886.803174,-1608.800546,6069.688724
1129.240395,-1258.350101,-1378.971896,6957.935855
1129.240721,-1702.473667,1608.800546,10436.903782
1129.241047,-2368.659014,612.876398,10807.006753
1129.241373,-2072.576638,-919.314598,9474.636058
1129.241699,0.000000,-2757.943793,9104.533087
1129.242025,1702.473667,-536.266849,9474.636058
1129.242351,2590.720797,4903.011187,8290.306550
1129.242677,4441.235652,7354.516781,9696.697840
1129.243003,4737.318029,4290.134789,11029.068536
1129.243329,2072.576638,1225.752797,9104.533087
1129.243655,-888.247130,0.000000,6883.915261
1129.243980,-740.205942,459.657299,5847.626942
1129.244306,-1036.288319,1149.143247,6957.935855
1129.244632,-740.205942,383.047749,10510.924376
1129.244958,-1850.514855,-1685.410096,11029.068536
1129.245284,-2368.659014,-2528.115143,9252.574275
1129.245610,-1110.308913,-1762.019645,9992.780217
1129.245936,814.226536,1149.143247,10436.903782
1129.246262,1258.350101,4213.525239,10881.027347
1129.246588,2368.659014,3217.601092,11473.192101
1129.246914,1110.308913,689.485948,10288.862594
1129.247240,-1110.308913,-1302.362347,7179.997637
1129.247566,-2072.576638,-1072.533697,6439.791695
1129.247891,-2738.761985,1532.190996,7105.977043
1129.248217,-1554.432478,2298.286494,8068.244768
1129.248543,-1480.411884,-842.705048,10214.842000
1129.248869,-2812.782580,-2528.115143,10658.965565
1129.249195,-2368.659014,-2068.457845,9178.553681
1129.249521,666.185348,0.000000,9474.636058
1129.249847,3108.864956,2451.505594,10584.944971
1129.250173,2664.741391,4290.134789,10658.965565
1129.250499,2220.617826,1991.848295,9474.636058
1129.250825,814.226536,229.828649,8438.347739
1129.251151,-444.123565,-1149.143247,8364.327145
1129.251477,-962.267725,0.000000,8438.347739
1129.251802,-1406.391290,1685.410096,9326.594869
1129.252128,-1184.329507,459.657299,9548.656652
1129.252454,-962.267725,-1762.019645,10362.883188
1129.252780,0.000000,-2681.334243,9918.759623
1129.253106,666.185348,-459.657299,9400.615463
1129.253432,2220.617826,3217.601092,10288.862594
1129.253758,3997.112087,4826.401637,11695.253884
1129.254084,3034.844362,3217.601092,11843.295072
1129.254410,0.000000,612.876398,9622.677246
1129.254736,-1850.514855,-1991.848295,6587.832884
1129.255062,-2442.679609,-1915.238745,5773.606348
1129.255388,-2738.761985,0.000000,7772.162391
1129.255713,-2368.659014,689.485948,8956.491898
1129.256039,-2442.679609,0.000000,9918.759623
1129.256365,-1628.453072,-2528.115143,9252.574275
1129.256691,592.164754,-1685.410096,9400.615463
1129.257017,2664.741391,4136.915689,9474.636058
1129.257343,4441.235652,7277.907231,9770.718434
1129.257669,4515.256246,5898.935335,9992.780217
1129.257995,3108.864956,1991.848295,9474.636058
1129.258321,-1184.329507,76.609550,7476.080014
1129.258647,-2146.597232,-995.924147,5255.462188
1129.258973,-2516.700203,0.000000,7254.018232
1129.259299,-2294.638420,306.438199,9992.780217
1129.259624,-2146.597232,0.000000,12139.377449
1129.259950,-2294.638420,-919.314598,10881.027347
1129.260276,-962.267725,-2298.286494,8808.450710
1129.260602,1554.432478,-536.266849,8734.430116
1129.260928,3627.009116,3983.696590,9474.636058
1129.261254,2812.782580,6358.592633,10807.006753
1129.261580,2664.741391,4060.306139,11251.130318
1129.261906,1332.370696,-536.266849,9844.739029
1129.262232,-1554.432478,-2374.896044,6883.915261
1129.262558,-3849.070898,-995.924147,6661.853478
1129.262884,-3478.967927,995.924147,7994.224174
1129.263210,-1554.432478,-1608.800546,10214.842000
1129.263535,-1554.432478,-4136.915689,12213.398043
1129.263861,-2738.761985,-3600.648841,11621.233289
1129.264187,-1184.329507,-689.485948,9178.553681
1129.264513,3775.050304,2221.676944,9844.739029
1129.264839,6513.812290,3140.991542,10584.944971
1129.265165,4293.194464,4060.306139,10955.047942
1129.265491,2516.700203,3140.991542,8068.244768
1129.265817,2368.659014,459.657299,7105.977043
1129.266143,592.164754,-1378.971896,7328.038826
1129.266469,-1480.411884,-153.219100,7402.059420
1129.266795,-1776.494261,536.266849,9030.512492
1129.267121,-1036.288319,-1532.190996,10510.924376
1129.267446,-1628.453072,-3370.820191,11399.171507
1129.267772,-740.205942,-2681.334243,9992.780217
1129.268098,1258.350101,1225.752797,8734.430116
1129.268424,3034.844362,4366.744339,8512.368333
1129.268750,4515.256246,4366.744339,10214.842000
1129.269076,2294.638420,3677.258390,10955.047942
1129.269402,-962.267725,1991.848295,8216.285956
1129.269728,-1480.411884,-612.876398,6735.874072
1129.270054,-2368.659014,-919.314598,7402.059420
1129.270380,-4293.194464,-306.438199,8290.306550
1129.270706,-3923.091493,-306.438199,9770.718434
1129.271031,-3034.844362,-1532.190996,11177.109724
1129.271357,-2886.803174,-3830.477490,10807.006753
1129.271683,-1184.329507,-1455.581446,10214.842000
1129.272009,1628.453072,3294.210641,10436.903782
1129.272335,3775.050304,6435.202183,11103.089130
1129.272661,3256.906145,4826.401637,11473.192101
1129.272987,740.205942,1915.238745,9696.697840
1129.273313,-592.164754,-612.876398,6069.688724
1129.273639,-1406.391290,76.609550,5477.523971
1129.273965,-2146.597232,1608.800546,7550.100608
1129.274291,-2146.597232,1378.971896,9696.697840
1129.274617,-3034.844362,-306.438199,9992.780217
1129.274942,-2664.741391,-2681.334243,9474.636058
1129.275268,-1776.494261,-2451.505594,9104.533087
1129.275594,-370.102971,1608.800546,8660.409521
1129.275920,2516.700203,4060.306139,9474.636058
1129.276246,2738.761985,4366.744339,9844.739029
1129.276572,1406.391290,1149.143247,9474.636058
1129.276898,0.000000,-229.828649,9474.636058
1129.277224,-1480.411884,-766.095498,7105.977043
1129.277550,-1998.556043,-383.047749,6217.729913
1129.277876,592.164754,-459.657299,9104.533087
1129.278202,2072.576638,-1149.143247,11843.295072
1129.278528,-74.020594,-383.047749,11177.109724
1129.278853,1702.473667,-2068.457845,9474.636058
1129.279179,4293.194464,-1762.019645,10436.903782
1129.279505,5625.565159,2145.067394,11769.274478
1129.279831,5625.565159,6128.763984,12435.459826
1129.280157,3627.009116,4826.401637,11177.109724
1129.280483,592.164754,-536.266849,8734.430116
1129.280809,-1184.329507,-3524.039291,6957.935855
1129.281135,-1776.494261,-1225.752797,6439.791695
1129.281461,-3404.947333,2145.067394,7402.059420
1129.281787,-3330.926739,-383.047749,8956.491898
1129.282113,-3330.926739,-3983.696590,10288.862594
1129.282439,-3701.029710,-3907.087040,9474.636058
1129.282764,-2294.638420,-1762.019645,9030.512492
1129.283090,0.000000,3294.210641,9252.574275
1129.283416,2442.679609,2911.162892,9252.574275
1129.283742,2960.823768,1838.629195,10066.800811
1129.284068,592.164754,2374.896044,10214.842000
1129.284394,-592.164754,1455.581446,8364.327145
1129.284720,370.102971,0.000000,7031.956449
1129.285046,0.000000,-229.828649,7624.121203
1129.285372,-1332.370696,1149.143247,9696.697840
1129.285698,-1258.350101,1915.238745,10584.944971
1129.286024,-592.164754,0.000000,10881.027347
1129.286350,-740.205942,-2757.943793,10436.903782
1129.286675,0.000000,229.828649,8882.471304
1129.287001,2590.720797,5515.887586,8956.491898
1129.287327,3330.926739,5975.544884,10881.027347
1129.287653,1110.308913,2068.457845,9918.759623
1129.287979,-2072.576638,-536.266849,7994.224174
1129.288305,-2072.576638,-1378.971896,6513.812290
1129.288631,-2220.617826,229.828649,7031.956449
1129.288957,-2886.803174,842.705048,9844.739029
1129.289283,-2442.679609,-766.095498,10510.924376
1129.289609,-2368.659014,-1302.362347,10510.924376
1129.289935,0.000000,-1762.019645,9844.739029
1129.290261,2738.761985,919.314598,9844.739029
1129.290586,3627.009116,5515.887586,8364.327145
1129.290912,4589.276840,7354.516781,8882.471304
1129.291238,3478.967927,5515.887586,9104.533087
1129.291564,888.247130,1225.752797,8216.285956
1129.291890,-1036.288319,-1149.143247,7105.977043
1129.292216,-2664.741391,-1072.533697,6809.894666
1129.292542,-3108.864956,76.609550,7994.224174
1129.292868,-1184.329507,-1991.848295,10214.842000
1129.293194,-1332.370696,-2834.553343,12213.398043
1129.293520,-1258.350101,-1838.629195,11547.212695
1129.293846,1036.288319,-689.485948,9992.780217
1129.294172,5107.421000,2681.334243,11251.130318
1129.294497,6883.915261,5822.325785,11177.109724
1129.294823,4737.318029,6281.983084,9844.739029
1129.295149,3478.967927,4060.306139,7994.224174
1129.295475,1554.432478,-229.828649,7105.977043
1129.295801,-518.144159,-1608.800546,7328.038826
1129.296127,-2516.700203,995.924147,8956.491898
1129.296453,-2738.761985,689.485948,9622.677246
1129.296779,-2294.638420,-3140.991542,10732.986159
1129.297105,-3108.864956,-4826.401637,11621.233289
1129.297431,-2886.803174,-3217.601092,9474.636058
1129.297757,-1332.370696,1225.752797,8882.471304
1129.298083,740.205942,3064.381992,10140.821405
1129.298408,666.185348,2757.943793,11621.233289
1129.298734,-1036.288319,1532.190996,8512.368333
1129.299060,-2812.782580,-153.219100,6217.729913
1129.299386,-3330.926739,-1608.800546,5181.441594
1129.299712,-4071.132681,-1149.143247,6143.709319
1129.300038,-3552.988522,306.438199,8364.327145
1129.300364,-1850.514855,-153.219100,10658.965565
1129.300690,-1924.535449,-1532.190996,11029.068536
1129.301016,0.000000,-2451.505594,10510.924376
1129.301342,2220.617826,-1225.752797,9844.739029
1129.301668,4367.215058,3217.601092,9548.656652
1129.301993,5847.626942,5822.325785,11325.150913
1129.302319,5773.606348,4213.525239,11103.089130
1129.302645,1850.514855,1532.190996,8586.388927
1129.302971,-148.041188,-995.924147,6217.729913
1129.303297,-814.226536,-383.047749,6365.771101
1129.303623,-1776.494261,919.314598,8438.347739
1129.303949,-1850.514855,-229.828649,10066.800811
1129.304275,-2442.679609,-2145.067394,10732.986159
1129.304600,-2590.720797,-2528.115143,10140.821405
1129.304926,-1480.411884,-1991.848295,9844.739029
1129.305252,888.247130,306.438199,9844.739029
1129.305578,2146.597232,3140.991542,10510.924376
1129.305904,2072.576638,3600.648841,10955.047942
1129.306230,1554.432478,1838.629195,10288.862594
1129.306556,222.061783,-459.657299,8438.347739
1129.306882,-1554.432478,-2145.067394,5995.668130
1129.307207,-2294.638420,-383.047749,6513.812290
1129.307533,-592.164754,919.314598,9326.594869
1129.307859,148.041188,689.485948,11695.253884
1129.308185,-370.102971,-919.314598,11177.109724
1129.308511,666.185348,-1838.629195,10066.800811
1129.308837,3627.009116,306.438199,8290.306550
1129.309163,5699.585753,4903.011187,10066.800811
1129.309489,5033.400406,7201.297681,11325.150913
1129.309815,2738.761985,4903.011187,10066.800811
1129.310140,962.267725,842.705048,7772.162391
1129.310466,-444.123565,-1838.629195,5773.606348
1129.310792,-3034.844362,76.609550,4737.318029
1129.311118,-3997.112087,2221.676944,6069.688724
1129.311444,-2368.659014,689.485948,10214.842000
1129.311770,-2664.741391,-1608.800546,11843.295072
1129.312096,-2960.823768,-2451.505594,9918.759623
1129.312422,-1628.453072,-995.924147,8142.265362
1129.312747,1258.350101,2374.896044,7994.224174
1129.313073,3404.947333,5515.887586,10584.944971
1129.313399,3330.926739,4903.011187,11843.295072
1129.313725,518.144159,2757.943793,9992.780217
1129.314051,-666.185348,-1532.190996,6587.832884
1129.314377,-1998.556043,-2604.724693,6809.894666
1129.314703,-3256.906145,383.047749,8290.306550
1129.315029,-2812.782580,1532.190996,9992.780217
1129.315354,-1702.473667,-1149.143247,12213.398043
1129.315680,-1110.308913,-4290.134789,11621.233289
1129.316006,-888.247130,-3294.210641,10066.800811
1129.316332,1702.473667,1762.019645,9326.594869
1129.316658,3849.070898,6052.154434,10066.800811
1129.316984,4589.276840,5439.278036,11325.150913
1129.317310,2812.782580,2911.162892,10732.986159
1129.317636,222.061783,383.047749,7476.080014
1129.317961,-1702.473667,-919.314598,4811.338623
1129.318287,-2664.741391,-766.095498,6439.791695
1129.318613,-2960.823768,-306.438199,8808.450710
1129.318939,-3108.864956,-1225.752797,9992.780217
1129.319265,-3478.967927,-3370.820191,11029.068536
1129.319591,-2368.659014,-4213.525239,10214.842000
1129.319917,-592.164754,-2987.772442,8808.450710
1129.320243,1702.473667,3140.991542,9104.533087
1129.320569,3775.050304,5822.325785,10955.047942
1129.320894,2886.803174,3830.477490,10510.924376
1129.321220,1702.473667,-153.219100,8512.368333
1129.321546,-814.226536,-2451.505594,7105.977043
1129.321872,-3404.947333,-306.438199,6957.935855
1129.322198,-3034.844362,1608.800546,8216.285956
1129.322524,-296.082377,-612.876398,10288.862594
1129.322850,-1850.514855,-3907.087040,10658.965565
1129.323176,-3330.926739,-3907.087040,10214.842000
1129.323501,-148.041188,-689.485948,9918.759623
1129.323827,3478.967927,2757.943793,9918.759623
1129.324153,4885.359217,4749.792088,11029.068536
1129.324479,4145.153275,4519.963438,11177.109724
1129.324805,2664.741391,3753.867940,9400.615463
1129.325131,1406.391290,1302.362347,6735.874072
1129.325457,74.020594,-919.314598,6809.894666
1129.325783,-2294.638420,1072.533697,7105.977043
1129.326108,-1702.473667,2681.334243,8808.450710
1129.326434,-666.185348,383.047749,10732.986159
1129.326760,-2516.700203,-2221.676944,10436.903782
1129.327086,-3404.947333,-3447.429741,8808.450710
1129.327412,148.041188,612.876398,8956.491898
1129.327738,2664.741391,5439.278036,10140.821405
1129.328064,2812.782580,5745.716235,11325.150913
1129.328390,1258.350101,3217.601092,10510.924376
1129.328715,296.082377,919.314598,7105.977043
1129.329041,74.020594,-306.438199,5255.462188
1129.329367,-740.205942,1838.629195,6365.771101
1129.329693,-1998.556043,2451.505594,8068.244768
1129.330019,-962.267725,1149.143247,9474.636058
1129.330345,-222.061783,-1838.629195,10732.986159
1129.330671,-1110.308913,-2528.115143,10955.047942
1129.330997,-740.205942,-995.924147,8734.430116
1129.331323,2072.576638,2451.505594,8586.388927
1129.331648,3775.050304,3370.820191,11029.068536
1129.331974,1924.535449,3217.601092,12435.459826
1129.332300,0.000000,1455.581446,10732.986159
1129.332626,-1184.329507,-2068.457845,7254.018232
1129.332952,-1924.535449,-2911.162892,6143.709319
1129.333278,-2220.617826,-612.876398,7994.224174
1129.333604,-2072.576638,1072.533697,9474.636058
1129.333930,-2220.617826,-459.657299,10584.944971
1129.334255,-2146.597232,-3983.696590,10807.006753
1129.334581,-666.185348,-3830.477490,10214.842000
1129.334907,1406.391290,842.705048,9252.574275
1129.335233,3256.906145,4903.011187,9844.739029
1129.335559,4293.194464,3677.258390,11399.171507
1129.335885,2960.823768,1072.533697,10955.047942
1129.336211,1406.391290,-1225.752797,7179.997637
1129.336537,-666.185348,-383.047749,6069.688724
1129.336862,-740.205942,1455.581446,6365.771101
1129.337188,888.247130,1532.190996,7920.203579
1129.337514,1406.391290,0.000000,10658.965565
1129.337840,-666.185348,-1072.533697,10955.047942
1129.338166,-1110.308913,-689.485948,9252.574275
1129.338492,1628.453072,-306.438199,8660.409521
1129.338818,1924.535449,2221.676944,10881.027347
1129.339144,1258.350101,3907.087040,10584.944971
1129.339469,1110.308913,2911.162892,11547.212695
1129.339795,-518.144159,689.485948,10214.842000
1129.340121,-2886.803174,-2681.334243,7105.977043
1129.340447,-4811.338623,-1608.800546,6069.688724
1129.340773,-3478.967927,229.828649,7105.977043
1129.341099,-2590.720797,689.485948,10362.883188
1129.341425,-2146.597232,-306.438199,9622.677246
1129.341751,-2590.720797,-2221.676944,9104.533087
1129.342077,-1628.453072,-842.705048,8734.430116
1129.342402,888.247130,2911.162892,9770.718434
1129.342728,3701.029710,5056.230287,11251.130318
1129.343054,3404.947333,3140.991542,11103.089130
1129.343380,740.205942,919.314598,8660.409521
1129.343706,518.144159,766.095498,7624.121203
1129.344032,-592.164754,76.609550,6513.812290
1129.344358,-2220.617826,919.314598,7105.977043
1129.344684,-2146.597232,1302.362347,9104.533087
1129.345009,-370.102971,612.876398,9474.636058
1129.345335,-592.164754,-919.314598,9992.780217
1129.345661,-444.123565,-1302.362347,9474.636058
1129.345987,370.102971,995.924147,9622.677246
1129.346313,2442.679609,3600.648841,9992.780217
1129.346639,3478.967927,3524.039291,11769.274478
1129.346965,1480.411884,1762.019645,10955.047942
1129.347291,-666.185348,-612.876398,7846.182985
1129.347616,-1110.308913,-2451.505594,6587.832884
1129.347942,-1554.432478,-1072.533697,7476.080014
1129.348268,-1702.473667,1532.190996,8660.409521
1129.348594,-370.102971,689.485948,11251.130318
1129.348920,74.020594,-1378.971896,11399.171507
1129.349246,444.123565,-3140.991542,10584.944971
1129.349572,1924.535449,-1149.143247,10807.006753
1129.349898,2886.803174,3370.820191,9992.780217
1129.350224,4145.153275,4979.620737,10955.047942
1129.350549,3997.112087,3447.429741,11399.171507
1129.350875,962.267725,0.000000,9770.718434
1129.351201,-2072.576638,-1225.752797,6513.812290
1129.351527,-2960.823768,-842.705048,5477.523971
1129.351853,-2664.741391,1072.533697,6735.874072
1129.352179,-1998.556043,306.438199,9030.512492
1129.352505,-1184.329507,0.000000,9400.615463
1129.352831,-1332.370696,-383.047749,9178.553681
1129.353156,-370.102971,-995.924147,8438.347739
1129.353482,2664.741391,2145.067394,9548.656652
1129.353808,4293.194464,5592.497135,11029.068536
1129.354134,2960.823768,5132.839837,10510.924376
1129.354460,1776.494261,1838.629195,9548.656652
1129.354786,814.226536,-383.047749,8438.347739
1129.355112,-1702.473667,306.438199,7105.977043
1129.355438,-3256.906145,2068.457845,6513.812290
1129.355763,-1850.514855,536.266849,8068.244768
1129.356089,-1184.329507,-1915.238745,10066.800811
1129.356415,-2664.741391,-1302.362347,11843.295072
1129.356741,-2664.741391,229.828649,10732.986159
1129.357067,-148.041188,612.876398,8956.491898
1129.357393,1776.494261,1378.971896,9770.718434
1129.357719,1850.514855,2145.067394,11325.150913
1129.358045,1184.329507,3524.039291,11029.068536
1129.358370,0.000000,1762.019645,9770.718434
1129.358696,-592.164754,-2528.115143,7476.080014
1129.359022,-1480.411884,-2451.505594,6883.915261
1129.359348,-2220.617826,1455.581446,7254.018232
1129.359674,-1184.329507,2604.724693,8808.450710
1129.360000,0.000000,-383.047749,10732.986159
1129.360326,740.205942,-2145.067394,10658.965565
1129.360652,2220.617826,0.000000,9844.739029
1129.360978,3478.967927,4290.134789,8956.491898
1129.361303,4811.338623,4979.620737,9696.697840
1129.361629,3849.070898,3064.381992,11843.295072
1129.361955,962.267725,995.924147,9400.615463
1129.362281,-1184.329507,536.266849,6513.812290
1129.362607,-1258.350101,-919.314598,6291.750507
1129.362933,-3034.844362,-1455.581446,6735.874072
1129.363259,-3849.070898,-1455.581446,7402.059420
1129.363585,-3108.864956,-1455.581446,9918.759623
1129.363910,-2368.659014,-1072.533697,11547.212695
1129.364236,-1406.391290,-1532.190996,10510.924376
1129.364562,0.000000,-919.314598,9178.553681
1129.364888,1110.308913,1608.800546,10362.883188
1129.365214,1776.494261,3140.991542,11103.089130
1129.365540,1406.391290,2374.896044,12213.398043
1129.365866,518.144159,-536.266849,8956.491898
1129.366192,-1924.535449,-2374.896044,6587.832884
1129.366517,-2368.659014,-1302.362347,6069.688724
1129.366843,-370.102971,689.485948,8068.244768
1129.367169,-1258.350101,1608.800546,11029.068536
1129.367495,-1924.535449,-995.924147,10955.047942
1129.367821,-666.185348,-2374.896044,10288.862594
1129.368147,2072.576638,-1532.190996,9696.697840
1129.368473,2294.638420,2834.553343,9918.759623
1129.368799,2738.761985,4979.620737,10214.842000
1129.369124,1702.473667,3370.820191,9104.533087
1129.369450,1036.288319,0.000000,8734.430116
1129.369776,-592.164754,-1455.581446,7254.018232
1129.370102,-3108.864956,76.609550,6587.832884
1129.370428,-3034.844362,2298.286494,7105.977043
1129.370754,-1702.473667,76.609550,9400.615463
1129.371080,-1850.514855,-1838.629195,11177.109724
1129.371406,-2886.803174,-3064.381992,9252.574275
1129.371732,-1258.350101,-1762.019645,8660.409521
1129.372057,1554.432478,919.314598,10288.862594
1129.372383,2886.803174,4060.306139,11843.295072
1129.372709,3997.112087,4673.182538,11325.150913
1129.373035,2812.782580,2681.334243,9770.718434
1129.373361,740.205942,-459.657299,6883.915261
1129.373687,0.000000,-1455.581446,6513.812290
1129.374013,-666.185348,1608.800546,7402.059420
1129.374339,-518.144159,2298.286494,9474.636058
1129.374664,-740.205942,0.000000,10881.027347
1129.374990,-1184.329507,-2911.162892,10881.027347
1129.375316,-2220.617826,-3294.210641,10140.821405
1129.375642,-222.061783,-229.828649,8956.491898
1129.375968,740.205942,4136.915689,10436.903782
1129.376294,1628.453072,4060.306139,10066.800811
1129.376620,296.082377,2911.162892,8956.491898
1129.376946,-666.185348,383.047749,6513.812290
1129.377271,-962.267725,-995.924147,5995.668130
1129.377597,-962.267725,919.314598,7698.141797
1129.377923,-962.267725,2374.896044,9992.780217
1129.378249,370.102971,1532.190996,10807.006753
1129.378575,1258.350101,-1608.800546,11399.171507
1129.378901,1776.494261,-2681.334243,11325.150913
1129.379227,2442.679609,-229.828649,9400.615463
1129.379553,2886.803174,4596.572988,9252.574275
1129.379878,5033.400406,5439.278036,12139.377449
1129.380204,4071.132681,3294.210641,11029.068536
1129.380530,1702.473667,766.095498,7846.182985
1129.380856,-1628.453072,-766.095498,5625.565159
1129.381182,-2368.659014,-153.219100,4663.297435
1129.381508,-962.267725,1608.800546,5699.585753
1129.381834,-148.041188,1225.752797,10214.842000
1129.382160,-2146.597232,-1762.019645,10362.883188
1129.382486,-3478.967927,-2757.943793,9030.512492
1129.382811,666.185348,-1762.019645,10214.842000
1129.383137,3034.844362,612.876398,11621.233289
1129.383463,2294.638420,5056.230287,10807.006753
1129.383789,2146.597232,4060.306139,11399.171507
1129.384115,1850.514855,919.314598,10066.800811
1129.384441,148.041188,-1608.800546,7105.977043
1129.384767,-1332.370696,-919.314598,6217.729913
1129.385093,-2368.659014,2145.067394,6587.832884
1129.385418,-1998.556043,3370.820191,9326.594869
1129.385744,-1036.288319,-306.438199,11917.315666
1129.386070,-1998.556043,-3600.648841,11251.130318
1129.386396,-3108.864956,-3217.601092,9844.739029
1129.386722,-1110.308913,-153.219100,10066.800811
1129.387048,2220.617826,3217.601092,11547.212695
1129.387374,2368.659014,3524.039291,11621.233289
1129.387700,666.185348,1762.019645,10214.842000
1129.388025,-1258.350101,229.828649,6957.935855
1129.388351,-2368.659014,76.609550,5033.400406
1129.388677,-3330.926739,689.485948,5699.585753
1129.389003,-2664.741391,1608.800546,7476.080014
1129.389329,-1628.453072,689.485948,8882.471304
1129.389655,-1554.432478,-1608.800546,10584.944971
1129.389981,-2220.617826,-2451.505594,10436.903782
1129.390307,-1332.370696,-1685.410096,9696.697840
1129.390632,814.226536,995.924147,10881.027347
1129.390958,3034.844362,2528.115143,11547.212695
1129.391284,2368.659014,2451.505594,12065.356855
1129.391610,518.144159,1378.971896,9622.677246
1129.391936,296.082377,-995.924147,6291.750507
1129.392262,-814.226536,-689.485948,5847.626942
1129.392588,-1258.350101,1149.143247,7179.997637
1129.392914,-370.102971,1532.190996,9252.574275
1129.393240,1258.350101,229.828649,10658.965565
1129.393565,814.226536,-1685.410096,11251.130318
1129.393891,1184.329507,-536.266849,11325.150913
1129.394217,1924.535449,2681.334243,9252.574275
1129.394543,1924.535449,4673.182538,9326.594869
1129.394869,3256.906145,2681.334243,10510.924376
1129.395195,1332.370696,1685.410096,11325.150913
1129.395521,-1406.391290,842.705048,7994.224174
1129.395847,-2590.720797,0.000000,5255.462188
1129.396172,-2146.597232,-306.438199,5181.441594
1129.396498,-1702.473667,306.438199,7920.203579
1129.396824,-1184.329507,2374.896044,9622.677246
1129.397150,-444.123565,1302.362347,10140.821405
1129.397476,592.164754,0.000000,8956.491898
1129.397802,3108.864956,536.266849,8364.327145
1129.398128,4293.194464,5132.839837,10140.821405
1129.398454,4071.132681,7814.174080,10288.862594
1129.398779,3108.864956,4519.963438,10140.821405
1129.399105,1184.329507,-459.657299,10214.842000
1129.399431,-1332.370696,-1838.629195,7920.203579
1129.399757,-3404.947333,229.828649,6365.771101
1129.400083,-3404.947333,0.000000,6957.935855
1129.400409,-3182.885551,-2145.067394,9178.553681
1129.400735,-3478.967927,-2528.115143,11621.233289
1129.401060,-3775.050304,-459.657299,12065.356855
1129.401386,-2664.741391,76.609550,10066.800811
1129.401712,0.000000,-229.828649,9252.574275
1129.402038,1998.556043,612.876398,10140.821405
1129.402364,1110.308913,2528.115143,10436.903782
1129.402690,-740.205942,2451.505594,9548.656652
1129.403016,-518.144159,-919.314598,7846.182985
1129.403342,-1036.288319,-4366.744339,7105.977043
1129.403667,-2590.720797,-1915.238745,6587.832884
1129.403993,-1110.308913,995.924147,8142.265362
1129.404319,1924.535449,612.876398,11029.068536
1129.404645,2072.576638,-2298.286494,11843.295072
1129.404971,1628.453072,-2681.334243,11177.109724
1129.405297,3404.947333,1225.752797,9548.656652
1129.405623,5625.565159,5515.887586,9770.718434
1129.405948,6661.853478,3830.477490,10584.944971
1129.406274,4293.194464,1838.629195,9992.780217
1129.406600,296.082377,1225.752797,7994.224174
1129.406926,-1036.288319,-536.266849,6513.812290
1129.407252,-2516.700203,-1991.848295,6735.874072
1129.407578,-4885.359217,-2451.505594,7624.121203
1129.407904,-5255.462188,-2145.067394,8216.285956
1129.408229,-4145.153275,-2681.334243,9918.759623
1129.408555,-2516.700203,-3677.258390,10807.006753
1129.408881,-962.267725,-3140.991542,11251.130318
1129.409207,888.247130,2068.457845,12213.398043
1129.409533,3108.864956,5592.497135,12065.356855
1129.409859,4367.215058,4366.744339,11399.171507
1129.410185,2812.782580,1072.533697,8882.471304
1129.410511,444.123565,-153.219100,6513.812290
1129.410836,74.020594,1762.019645,5329.482782
1129.411162,814.226536,3370.820191,8216.285956
1129.411488,148.041188,1685.410096,11177.109724
1129.411814,-1924.535449,-536.266849,11325.150913
1129.412140,-1924.535449,-1685.410096,9696.697840
1129.412466,0.000000,-1378.971896,9770.718434
1129.412792,518.144159,1991.848295,10140.821405
1129.413117,962.267725,5669.106685,11177.109724
1129.413443,2442.679609,5439.278036,10510.924376
1129.413769,296.082377,2757.943793,8512.368333
1129.414095,-2220.617826,0.000000,5625.565159
1129.414421,-3627.009116,-306.438199,4441.235652
1129.414747,-4515.256246,2757.943793,4515.256246
1129.415073,-3701.029710,2834.553343,7624.121203
1129.415398,-2294.638420,0.000000,10807.006753
1129.415724,-3256.906145,-2374.896044,9252.574275
1129.416050,-2960.823768,-2604.724693,7624.121203
1129.416376,-592.164754,0.000000,9326.594869
1129.416702,2294.638420,3907.087040,11695.253884
1129.417028,4071.132681,5439.278036,12509.480420
1129.417354,2960.823768,2604.724693,10658.965565
1129.417679,2442.679609,536.266849,8216.285956
1129.418005,1924.535449,76.609550,6217.729913
1129.418331,1110.308913,612.876398,5921.647536
1129.418657,814.226536,459.657299,6883.915261
1129.418983,592.164754,-1608.800546,10436.903782
1129.419309,888.247130,-2068.457845,13397.727550
1129.419635,74.020594,-2068.457845,13323.706956
1129.419961,1406.391290,-2604.724693,10436.903782
1129.420286,3478.967927,-1762.019645,11991.336260
1129.420612,4589.276840,1455.581446,13841.851115
1129.420938,3775.050304,2987.772442,13471.748144
1129.421264,1480.411884,1225.752797,10658.965565
1129.421590,-1258.350101,-2451.505594,7254.018232
1129.421916,-3330.926739,-2911.162892,7105.977043
1129.422242,-3034.844362,0.000000,6069.688724
1129.422567,-4145.153275,612.876398,7254.018232
1129.422893,-5255.462188,-2528.115143,9104.533087
1129.423219,-4293.194464,-5056.230287,9696.697840
1129.423545,-2220.617826,-2374.896044,9622.677246
1129.423871,-740.205942,1072.533697,9178.553681
1129.424197,518.144159,3830.477490,9696.697840
1129.424523,2294.638420,3064.381992,10066.800811
1129.424848,2442.679609,2757.943793,9770.718434
1129.425174,1702.473667,2911.162892,7254.018232
1129.425500,814.226536,1762.019645,5033.400406
1129.425826,222.061783,2451.505594,4737.318029
1129.426152,1406.391290,3600.648841,6957.935855
1129.426478,1628.453072,3217.601092,8956.491898
1129.426804,-296.082377,536.266849,9178.553681
1129.427130,0.000000,-1149.143247,9844.739029
1129.427455,1998.556043,1072.533697,11843.295072
1129.427781,1776.494261,5439.278036,12361.439231
1129.428107,1110.308913,5056.230287,12435.459826
1129.428433,592.164754,995.924147,11769.274478
1129.428759,-1480.411884,-766.095498,10140.821405
1129.429085,-3775.050304,229.828649,7105.977043
1129.429411,-4441.235652,1762.019645,6661.853478
1129.429736,-3552.988522,2068.457845,7624.121203
1129.430062,-2812.782580,383.047749,10066.800811
1129.430388,-2812.782580,0.000000,10881.027347
1129.430714,-2516.700203,689.485948,8808.450710
1129.431040,74.020594,919.314598,7920.203579
1129.431366,3182.885551,2298.286494,8808.450710
1129.431692,4293.194464,5592.497135,10140.821405
1129.432017,5181.441594,6665.030833,9178.553681
1129.432343,3997.112087,4213.525239,8956.491898
1129.432669,2220.617826,536.266849,6957.935855
1129.432995,1850.514855,-306.438199,4885.359217
1129.433321,1332.370696,3140.991542,6291.750507
1129.433647,1480.411884,2911.162892,8290.306550
1129.433973,1184.329507,0.000000,9844.739029
1129.434298,296.082377,-3064.381992,10214.842000
1129.434624,-814.226536,-3064.381992,10436.903782
1129.434950,-222.061783,0.000000,10955.047942
1129.435276,2294.638420,2451.505594,11991.336260
1129.435602,2294.638420,1532.190996,13545.768739
1129.435928,-1184.329507,-383.047749,11769.274478
1129.436254,-3627.009116,-1991.848295,8142.265362
1129.436580,-4663.297435,-4136.915689,6661.853478
1129.436905,-5551.544565,-4443.353888,5477.523971
