#time,accel_x,accel_y,accel_z
20872.111759,-3182.885551,-689.485948,7031.956449
20872.112082,-3478.967927,-919.314598,6291.750507
20872.112405,-3034.844362,-1608.800546,7624.121203
20872.112729,-2664.741391,-612.876398,7994.224174
20872.113052,-2442.679609,-459.657299,8438.347739
20872.113375,-1110.308913,0.000000,8364.327145
20872.113699,814.226536,536.266849,8216.285956
20872.114022,1406.391290,1455.581446,9696.697840
20872.114345,370.102971,1378.971896,10436.903782
20872.114669,-962.267725,919.314598,10436.903782
20872.114992,-666.185348,-306.438199,10658.965565
20872.115315,-296.082377,-1915.238745,11547.212695
20872.115639,-1332.370696,-1762.019645,11991.336260
20872.115962,-2294.638420,-1762.019645,12361.439231
20872.116285,-1554.432478,-1685.410096,11843.295072
20872.116608,-1258.350101,-1455.581446,10732.986159
20872.116932,-2146.597232,-383.047749,11029.068536
20872.117255,-3256.906145,459.657299,10288.862594
20872.117578,-3182.885551,383.047749,9844.739029
20872.117902,-2146.597232,919.314598,9474.636058
20872.118225,-3256.906145,1608.800546,9400.615463
20872.118548,-4441.235652,2451.505594,9400.615463
20872.118872,-5033.400406,2604.724693,8956.491898
20872.119195,-5107.421000,2911.162892,8586.388927
20872.119518,-4441.235652,2757.943793,8438.347739
20872.119842,-5921.647536,2834.553343,8216.285956
20872.120165,-6365.771101,2681.334243,7698.141797
20872.120488,-6217.729913,2834.553343,7105.977043
20872.120812,-5699.585753,2757.943793,6883.915261
20872.121135,-5551.544565,3370.820191,7402.059420
20872.121458,-5477.523971,4290.134789,7402.059420
20872.121782,-4885.359217,4443.353888,7624.121203
20872.122105,-3775.050304,4519.963438,7772.162391
20872.122428,-3404.947333,5669.106685,7994.224174
20872.122752,-2960.823768,5439.278036,8586.388927
20872.123075,-2886.803174,5515.887586,8586.388927
20872.123398,-1998.556043,5515.887586,8882.471304
20872.123721,-1406.391290,6281.983084,9474.636058
20872.124045,-2368.659014,6052.154434,9104.533087
20872.124368,-2442.679609,5362.668486,9178.553681
20872.124691,-1110.308913,4366.744339,9474.636058
20872.125015,-740.205942,4136.915689,9622.677246
20872.125338,-1776.494261,4366.744339,9844.739029
20872.125661,-1628.453072,3753.867940,9474.636058
20872.125985,-814.226536,2681.334243,8882.471304
20872.126308,0.000000,2834.553343,8438.347739
20872.126631,0.000000,2757.943793,8882.471304
20872.126955,74.020594,2221.676944,8586.388927
20872.127278,74.020594,1915.238745,8068.244768
20872.127601,148.041188,1149.143247,8512.368333
20872.127925,-444.123565,612.876398,8956.491898
20872.128248,-2368.659014,0.000000,9326.594869
20872.128571,-2738.761985,153.219100,10288.862594
20872.128895,-3108.864956,-612.876398,10807.006753
20872.129218,-3108.864956,919.314598,11399.171507
20872.129541,-4071.132681,1225.752797,11177.109724
20872.129864,-3627.009116,1378.971896,11177.109724
20872.130188,-3034.844362,2221.676944,10584.944971
20872.130511,-2812.782580,2834.553343,9696.697840
20872.130834,-1480.411884,2451.505594,8586.388927
20872.131158,-1406.391290,2145.067394,6661.853478
20872.131481,-148.041188,1225.752797,5329.482782
20872.131804,-148.041188,-153.219100,5107.421000
20872.132128,-518.144159,-1455.581446,5551.544565
20872.132451,-1554.432478,-2681.334243,6513.812290
20872.132774,-2368.659014,-4136.915689,8142.265362
20872.133098,-3256.906145,-4903.011187,9474.636058
20872.133421,-4145.153275,-5975.544884,10436.903782
20872.133744,-3775.050304,-6281.983084,11917.315666
20872.134068,-2442.679609,-4979.620737,11991.336260
20872.134391,-1332.370696,-2757.943793,12065.356855
20872.134714,-296.082377,-919.314598,11843.295072
20872.135038,592.164754,383.047749,10510.924376
20872.135361,2368.659014,1149.143247,7846.182985
20872.135684,3997.112087,1072.533697,6883.915261
20872.136008,3849.070898,612.876398,6883.915261
20872.136331,2368.659014,-76.609550,7179.997637
20872.136654,814.226536,-2221.676944,8882.471304
20872.136978,-888.247130,-3907.087040,10955.047942
20872.137301,-3034.844362,-5439.278036,12731.542202
20872.137624,-4885.359217,-6281.983084,14137.933492
20872.137948,-5477.523971,-6205.373534,15100.201217
20872.138271,-4293.194464,-4136.915689,15914.427753
20872.138595,-2960.823768,-1149.143247,14730.098246
20872.138918,-1850.514855,2221.676944,12731.542202
20872.139241,-148.041188,4213.525239,9474.636058
20872.139565,2368.659014,6281.983084,5625.565159
20872.139888,3627.009116,7507.735880,3330.926739
20872.140211,3775.050304,7890.783629,2220.617826
20872.140535,2294.638420,7124.688131,962.267725
20872.140858,1110.308913,4979.620737,2368.659014
20872.141182,-444.123565,1838.629195,3923.091493
20872.141505,-2738.761985,-536.266849,6365.771101
20872.141828,-4145.153275,-2528.115143,7846.182985
20872.142152,-4219.173869,-3907.087040,9252.574275
20872.142475,-3478.967927,-4290.134789,9992.780217
20872.142799,-1702.473667,-2451.505594,10510.924376
20872.143122,222.061783,-459.657299,10214.842000
20872.143445,2368.659014,1455.581446,9030.512492
20872.143769,3997.112087,2604.724693,8438.347739
20872.144092,4737.318029,4213.525239,8956.491898
20872.144415,4071.132681,5132.839837,10288.862594
20872.144739,2442.679609,4749.792088,11177.109724
20872.145062,1258.350101,3753.867940,11843.295072
20872.145386,-1406.391290,1378.971896,13249.686362
20872.145709,-3849.070898,0.000000,15026.180623
20872.146032,-5329.482782,-842.705048,14434.015869
20872.146356,-4737.318029,-1991.848295,13989.892304
20872.146679,-3330.926739,-2528.115143,11399.171507
20872.147003,-2294.638420,-2221.676944,9178.553681
20872.147326,-592.164754,-1532.190996,6957.935855
20872.147649,0.000000,-766.095498,4885.359217
20872.147973,666.185348,229.828649,4367.215058
20872.148296,888.247130,-153.219100,3552.988522
20872.148619,740.205942,-536.266849,3849.070898
20872.148943,444.123565,-766.095498,5847.626942
20872.149266,592.164754,-766.095498,7105.977043
20872.149590,666.185348,-995.924147,7846.182985
20872.149913,962.267725,-995.924147,8512.368333
20872.150236,2072.576638,-383.047749,8956.491898
20872.150560,3404.947333,-612.876398,9104.533087
20872.150883,3627.009116,-1685.410096,8586.388927
20872.151206,2886.803174,-1838.629195,8882.471304
20872.151530,1776.494261,-1991.848295,9992.780217
20872.151853,0.000000,-2604.724693,10510.924376
20872.152177,-2146.597232,-3524.039291,11177.109724
20872.152500,-3701.029710,-4596.572988,12805.562797
20872.152823,-4663.297435,-4903.011187,14359.995275
20872.153147,-5403.503377,-4596.572988,15914.427753
20872.153470,-5699.585753,-3983.696590,14730.098246
20872.153794,-4145.153275,-3140.991542,12953.603985
20872.154117,-1998.556043,-2451.505594,11177.109724
20872.154440,74.020594,-689.485948,9918.759623
20872.154764,740.205942,536.266849,8216.285956
20872.155087,1258.350101,459.657299,7550.100608
20872.155410,1850.514855,229.828649,6809.894666
20872.155734,1628.453072,-766.095498,6513.812290
20872.156057,814.226536,-1608.800546,6809.894666
20872.156381,222.061783,-2374.896044,7105.977043
20872.156704,222.061783,-2221.676944,7105.977043
20872.157027,1184.329507,-1149.143247,8142.265362
20872.157351,1776.494261,0.000000,6883.915261
20872.157674,2664.741391,689.485948,5773.606348
20872.157998,4145.153275,1149.143247,5551.544565
20872.158321,4663.297435,2451.505594,5699.585753
20872.158644,3775.050304,3140.991542,6735.874072
20872.158968,1776.494261,2911.162892,8068.244768
20872.159291,-518.144159,2221.676944,9474.636058
20872.159614,-2442.679609,995.924147,10436.903782
20872.159938,-3923.091493,-766.095498,13323.706956
20872.160261,-6217.729913,-1378.971896,14359.995275
20872.160585,-6809.894666,-1149.143247,15174.221811
20872.160908,-6069.688724,-1149.143247,13915.871710
20872.161231,-3404.947333,-383.047749,11843.295072
20872.161555,-888.247130,919.314598,9770.718434
20872.161878,888.247130,2451.505594,8290.306550
20872.162201,1924.535449,2528.115143,6143.709319
20872.162525,3256.906145,2451.505594,6069.688724
20872.162848,3182.885551,2145.067394,6365.771101
20872.163172,1184.329507,1455.581446,7179.997637
20872.163495,0.000000,-229.828649,8068.244768
20872.163818,-1110.308913,-1608.800546,8216.285956
20872.164142,-1036.288319,-2068.457845,9400.615463
20872.164465,-1184.329507,-2298.286494,9104.533087
20872.164789,-370.102971,0.000000,7994.224174
20872.165112,1110.308913,0.000000,7179.997637
20872.165435,2812.782580,1378.971896,6069.688724
20872.165759,3182.885551,2145.067394,5847.626942
20872.166082,2368.659014,2374.896044,6217.729913
20872.166405,2072.576638,2374.896044,7105.977043
20872.166729,1184.329507,1915.238745,8956.491898
20872.167052,-1184.329507,0.000000,10658.965565
20872.167376,-3182.885551,-2374.896044,12657.521608
20872.167699,-5181.441594,-3600.648841,13323.706956
20872.168022,-5551.544565,-3830.477490,13841.851115
20872.168346,-4515.256246,-4060.306139,14211.954086
20872.168669,-3552.988522,-3524.039291,12435.459826
20872.168993,-2664.741391,-2911.162892,10362.883188
20872.169316,-444.123565,-2604.724693,7476.080014
20872.169639,222.061783,-1225.752797,6661.853478
20872.169963,666.185348,-689.485948,7105.977043
20872.170286,1110.308913,-919.314598,7105.977043
20872.170609,1776.494261,-1455.581446,7846.182985
20872.170933,1332.370696,-2757.943793,8734.430116
20872.171256,518.144159,-2987.772442,9474.636058
20872.171580,296.082377,-2604.724693,10066.800811
20872.171903,1554.432478,-2834.553343,9992.780217
20872.172226,2590.720797,-2451.505594,8734.430116
20872.172550,2590.720797,-1915.238745,7846.182985
20872.172873,2590.720797,-1225.752797,7254.018232
20872.173196,2960.823768,-306.438199,7624.121203
20872.173520,1776.494261,229.828649,7920.203579
20872.173843,296.082377,-612.876398,9178.553681
20872.174167,-1628.453072,-995.924147,9474.636058
20872.174490,-2960.823768,-1302.362347,11547.212695
20872.174813,-4441.235652,-1455.581446,12583.501014
20872.175137,-5625.565159,-1608.800546,12953.603985
20872.175460,-5477.523971,-1225.752797,12509.480420
20872.175784,-4589.276840,-842.705048,11103.089130
20872.176107,-2664.741391,-842.705048,8956.491898
20872.176430,-1258.350101,306.438199,7772.162391
20872.176754,-592.164754,995.924147,6661.853478
20872.177077,0.000000,995.924147,6069.688724
20872.177400,666.185348,612.876398,5921.647536
20872.177724,518.144159,306.438199,6439.791695
20872.178047,148.041188,-612.876398,7254.018232
20872.178371,0.000000,-536.266849,8142.265362
20872.178694,444.123565,-1225.752797,9474.636058
20872.179017,740.205942,-766.095498,9622.677246
20872.179341,1702.473667,229.828649,9326.594869
20872.179664,2886.803174,1225.752797,8438.347739
20872.179988,4071.132681,1838.629195,7698.141797
20872.180311,4367.215058,2451.505594,7846.182985
20872.180634,2516.700203,2604.724693,7624.121203
20872.180958,1036.288319,2451.505594,8364.327145
20872.181281,-148.041188,1838.629195,9474.636058
20872.181604,-2294.638420,153.219100,10881.027347
20872.181928,-4293.194464,-995.924147,12213.398043
20872.182251,-5921.647536,-1608.800546,13027.624579
20872.182575,-5995.668130,-1149.143247,13397.727550
20872.182898,-4959.379811,-1532.190996,12287.418637
20872.183221,-2442.679609,-536.266849,10066.800811
20872.183545,-1036.288319,76.609550,8290.306550
20872.183868,148.041188,459.657299,6883.915261
20872.184192,1480.411884,1072.533697,6365.771101
20872.184515,1628.453072,766.095498,6365.771101
20872.184838,1184.329507,0.000000,5773.606348
20872.185162,1184.329507,-919.314598,6809.894666
20872.185485,666.185348,-2068.457845,7772.162391
20872.185808,296.082377,-2068.457845,8956.491898
20872.186132,148.041188,-2451.505594,9770.718434
20872.186455,666.185348,-2221.676944,9326.594869
20872.186779,2146.597232,-1838.629195,8808.450710
20872.187102,3182.885551,-842.705048,8216.285956
20872.187425,3404.947333,-383.047749,7328.038826
20872.187749,2812.782580,0.000000,7328.038826
20872.188072,2072.576638,-536.266849,7920.203579
20872.188395,814.226536,-995.924147,9104.533087
20872.188719,-1184.329507,-2068.457845,10584.944971
20872.189042,-3182.885551,-2987.772442,12065.356855
20872.189366,-4737.318029,-3677.258390,13693.809927
20872.189689,-5921.647536,-3830.477490,14211.954086
20872.190012,-5551.544565,-3140.991542,14211.954086
20872.190336,-3923.091493,-2451.505594,13101.645173
20872.190659,-1998.556043,-1532.190996,10732.986159
20872.190983,0.000000,-995.924147,9326.594869
20872.191306,1258.350101,0.000000,7476.080014
20872.191629,1332.370696,459.657299,6809.894666
20872.191953,1258.350101,766.095498,6291.750507
20872.192276,1036.288319,-612.876398,6069.688724
20872.192599,370.102971,-1225.752797,6513.812290
20872.192923,-888.247130,-1838.629195,6957.935855
20872.193246,-740.205942,-2451.505594,8142.265362
20872.193570,-962.267725,-2298.286494,8216.285956
20872.193893,-370.102971,-2068.457845,7624.121203
20872.194216,888.247130,-766.095498,7772.162391
20872.194540,1924.535449,459.657299,7105.977043
20872.194863,3552.988522,1532.190996,6661.853478
20872.195187,3701.029710,2298.286494,8290.306550
20872.195510,2664.741391,2451.505594,8364.327145
20872.195833,888.247130,1685.410096,9548.656652
20872.196157,-74.020594,919.314598,11029.068536
20872.196480,-1258.350101,0.000000,12953.603985
20872.196803,-3849.070898,0.000000,13693.809927
20872.197127,-5033.400406,-842.705048,14434.015869
20872.197450,-3997.112087,-766.095498,13027.624579
20872.197774,-2368.659014,0.000000,11399.171507
20872.198097,-1184.329507,383.047749,9622.677246
20872.198420,-888.247130,919.314598,7920.203579
20872.198744,296.082377,1762.019645,7105.977043
20872.199067,1184.329507,1915.238745,6513.812290
20872.199390,666.185348,1685.410096,6439.791695
20872.199714,-444.123565,689.485948,6217.729913
20872.200037,-888.247130,-689.485948,7105.977043
20872.200361,-1184.329507,-1378.971896,7920.203579
20872.200684,-1480.411884,-1225.752797,9326.594869
20872.201007,-1110.308913,-919.314598,9030.512492
20872.201331,0.000000,-459.657299,7402.059420
20872.201654,2368.659014,-612.876398,6291.750507
20872.201978,3330.926739,1072.533697,5995.668130
20872.202301,4145.153275,2068.457845,6661.853478
20872.202624,3256.906145,2681.334243,7698.141797
20872.202948,2812.782580,1991.848295,8660.409521
20872.203271,1776.494261,1072.533697,9474.636058
20872.203594,-740.205942,-459.657299,11473.192101
20872.203918,-2738.761985,-766.095498,13175.665768
20872.204241,-3775.050304,-1608.800546,13915.871710
20872.204565,-4071.132681,-2374.896044,13619.789333
20872.204888,-3627.009116,-2451.505594,13249.686362
20872.205211,-3108.864956,-1455.581446,11325.150913
20872.205535,-1924.535449,-1608.800546,9474.636058
20872.205858,-1184.329507,-995.924147,7772.162391
20872.206182,-148.041188,-766.095498,6957.935855
20872.206505,222.061783,-153.219100,7328.038826
20872.206828,-296.082377,-1149.143247,7179.997637
20872.207152,-592.164754,-2068.457845,7698.141797
20872.207475,-296.082377,-3064.381992,8142.265362
20872.207798,-1110.308913,-3370.820191,9178.553681
20872.208122,-814.226536,-3370.820191,9326.594869
20872.208445,592.164754,-2681.334243,9252.574275
20872.208769,2072.576638,-2221.676944,8364.327145
20872.209092,2886.803174,-1225.752797,7476.080014
20872.209415,3775.050304,76.609550,7402.059420
20872.209739,3478.967927,689.485948,7328.038826
20872.210062,2738.761985,689.485948,7698.141797
20872.210385,1924.535449,919.314598,8808.450710
20872.210709,518.144159,612.876398,10658.965565
20872.211032,-740.205942,-153.219100,11843.295072
20872.211356,-2368.659014,-153.219100,13249.686362
20872.211679,-3627.009116,-459.657299,12583.501014
20872.212002,-3923.091493,-1302.362347,12065.356855
20872.212326,-3108.864956,-995.924147,10955.047942
20872.212649,-1406.391290,-689.485948,9770.718434
20872.212973,-1036.288319,-459.657299,9104.533087
20872.213296,-1184.329507,0.000000,7179.997637
20872.213619,-592.164754,995.924147,6217.729913
20872.213943,-740.205942,-383.047749,6957.935855
20872.214266,-888.247130,-229.828649,7402.059420
20872.214589,-1332.370696,-1072.533697,8216.285956
20872.214913,-1332.370696,-1532.190996,9030.512492
20872.215236,-592.164754,-1455.581446,8956.491898
20872.215560,592.164754,-612.876398,9030.512492
20872.215883,888.247130,459.657299,8808.450710
20872.216206,1554.432478,383.047749,8364.327145
20872.216530,3552.988522,1685.410096,7328.038826
20872.216853,3182.885551,2221.676944,6957.935855
20872.217177,1924.535449,2451.505594,7698.141797
20872.217500,888.247130,2068.457845,7476.080014
20872.217823,296.082377,1378.971896,8808.450710
20872.218147,-1628.453072,536.266849,10732.986159
20872.218470,-2812.782580,229.828649,12435.459826
20872.218793,-3775.050304,-383.047749,13101.645173
20872.219117,-4663.297435,-766.095498,12065.356855
20872.219440,-3404.947333,0.000000,11917.315666
20872.219764,-1554.432478,153.219100,10436.903782
20872.220087,-1036.288319,766.095498,9178.553681
20872.220410,0.000000,1072.533697,7105.977043
20872.220734,814.226536,1225.752797,7031.956449
20872.221057,0.000000,1072.533697,6365.771101
20872.221380,-592.164754,0.000000,7402.059420
20872.221704,-1258.350101,-1532.190996,7698.141797
20872.222027,-1702.473667,-2604.724693,8068.244768
20872.222351,-2368.659014,-2757.943793,8808.450710
20872.222674,-1480.411884,-2681.334243,9548.656652
20872.222997,-222.061783,-2298.286494,9326.594869
20872.223321,888.247130,-1378.971896,8734.430116
20872.223644,2664.741391,-536.266849,8068.244768
20872.223968,3108.864956,0.000000,7328.038826
20872.224291,2886.803174,612.876398,7698.141797
20872.224614,2368.659014,766.095498,8586.388927
20872.224938,2072.576638,766.095498,9696.697840
20872.225261,0.000000,0.000000,10436.903782
20872.225584,-1554.432478,-919.314598,11547.212695
20872.225908,-2294.638420,-1532.190996,12287.418637
20872.226231,-3552.988522,-1991.848295,13175.665768
20872.226555,-3849.070898,-1532.190996,13397.727550
20872.226878,-2886.803174,-1302.362347,11547.212695
20872.227201,-1480.411884,-919.314598,9400.615463
20872.227525,0.000000,-689.485948,7624.121203
20872.227848,296.082377,-229.828649,6883.915261
20872.228172,444.123565,153.219100,6957.935855
20872.228495,-148.041188,-459.657299,6217.729913
20872.228818,74.020594,-1072.533697,6661.853478
20872.229142,-814.226536,-2221.676944,7624.121203
20872.229465,-1850.514855,-2911.162892,8216.285956
20872.229788,-888.247130,-2834.553343,9326.594869
20872.230112,0.000000,-2528.115143,9474.636058
20872.230435,814.226536,-1378.971896,8808.450710
20872.230759,2368.659014,-536.266849,8438.347739
20872.231082,3775.050304,229.828649,7550.100608
20872.231405,4515.256246,1302.362347,7920.203579
20872.231729,3701.029710,1991.848295,8586.388927
20872.232052,2664.741391,1838.629195,9548.656652
20872.232375,1332.370696,995.924147,10066.800811
20872.232699,-592.164754,0.000000,11029.068536
20872.233022,-2220.617826,-842.705048,12361.439231
20872.233346,-4811.338623,-1455.581446,12879.583391
20872.233669,-5181.441594,-1685.410096,13101.645173
20872.233992,-4293.194464,-1378.971896,11843.295072
20872.234316,-3034.844362,-536.266849,10140.821405
20872.234639,-2146.597232,0.000000,8734.430116
20872.234963,-962.267725,766.095498,7550.100608
20872.235286,222.061783,1072.533697,6513.812290
20872.235609,222.061783,919.314598,6217.729913
20872.235933,0.000000,689.485948,6143.709319
20872.236256,-518.144159,-766.095498,6735.874072
20872.236579,-1628.453072,-1532.190996,7402.059420
20872.236903,-1184.329507,-2221.676944,8586.388927
20872.237226,-592.164754,-2221.676944,9622.677246
20872.237550,-296.082377,-1608.800546,8808.450710
20872.237873,518.144159,-1532.190996,7624.121203
20872.238196,2516.700203,-995.924147,7476.080014
20872.238520,3478.967927,229.828649,7846.182985
20872.238843,3404.947333,1225.752797,7920.203579
20872.239167,2886.803174,1378.971896,8142.265362
20872.239490,2812.782580,1225.752797,9844.739029
20872.239813,1480.411884,383.047749,11325.150913
20872.240137,0.000000,0.000000,12287.418637
20872.240460,-2368.659014,-612.876398,12953.603985
20872.240783,-3404.947333,-1915.238745,13841.851115
20872.241107,-2960.823768,-1378.971896,13619.789333
20872.241430,-2738.761985,-1378.971896,12287.418637
20872.241753,-2664.741391,-1378.971896,9622.677246
20872.242077,-1184.329507,-1072.533697,8068.244768
20872.242400,-148.041188,-229.828649,6735.874072
20872.242724,0.000000,0.000000,6735.874072
20872.243047,-814.226536,-153.219100,6439.791695
20872.243370,-592.164754,-1378.971896,7031.956449
20872.243694,-518.144159,-2374.896044,7624.121203
20872.244017,-1332.370696,-2451.505594,8068.244768
20872.244340,-1332.370696,-2604.724693,8364.327145
20872.244664,-370.102971,-2834.553343,8216.285956
20872.244987,666.185348,-1915.238745,7846.182985
20872.245311,2590.720797,-766.095498,7994.224174
20872.245634,3478.967927,-459.657299,7846.182985
20872.245957,2812.782580,689.485948,7624.121203
20872.246281,3256.906145,995.924147,7846.182985
20872.246604,2738.761985,612.876398,8586.388927
20872.246927,1036.288319,0.000000,9696.697840
20872.247251,-518.144159,76.609550,11399.171507
20872.247574,-1554.432478,-459.657299,13027.624579
20872.247897,-2442.679609,-1608.800546,13323.706956
20872.248221,-3701.029710,-995.924147,13693.809927
20872.248544,-3404.947333,-1378.971896,13101.645173
20872.248868,-2294.638420,-1072.533697,10807.006753
20872.249191,-1110.308913,-919.314598,8882.471304
20872.249514,-370.102971,0.000000,7772.162391
20872.249838,-814.226536,76.609550,7105.977043
20872.250161,-74.020594,-459.657299,6513.812290
20872.250484,0.000000,-1072.533697,6661.853478
20872.250808,-592.164754,-1608.800546,7328.038826
20872.251131,-1406.391290,-2221.676944,8216.285956
20872.251455,-222.061783,-2374.896044,9104.533087
20872.251778,740.205942,-2068.457845,9844.739029
20872.252101,888.247130,-1608.800546,8734.430116
20872.252425,1998.556043,-842.705048,8216.285956
20872.252748,3108.864956,76.609550,7254.018232
20872.253071,3849.070898,1072.533697,7476.080014
20872.253395,4441.235652,1302.362347,7402.059420
20872.253718,2886.803174,919.314598,7328.038826
20872.254041,1110.308913,1532.190996,8512.368333
20872.254365,-296.082377,306.438199,9844.739029
20872.254688,-1406.391290,-766.095498,10955.047942
20872.255012,-3701.029710,-1225.752797,12213.398043
20872.255335,-4737.318029,-1225.752797,13027.624579
20872.255658,-3701.029710,-995.924147,12657.521608
20872.255982,-2220.617826,-842.705048,11843.295072
20872.256305,-1628.453072,-689.485948,10658.965565
20872.256628,-814.226536,229.828649,8660.409521
20872.256952,148.041188,689.485948,7254.018232
20872.257275,814.226536,0.000000,7179.997637
20872.257599,148.041188,0.000000,7179.997637
20872.257922,-962.267725,-689.485948,7328.038826
20872.258245,-1184.329507,-2221.676944,7698.141797
20872.258569,-740.205942,-3064.381992,8808.450710
20872.258892,-1036.288319,-2451.505594,9400.615463
20872.259215,-1110.308913,-2757.943793,9770.718434
20872.259539,222.061783,-1608.800546,9474.636058
20872.259862,2146.597232,-459.657299,7624.121203
20872.260185,3256.906145,-153.219100,7179.997637
20872.260509,3627.009116,689.485948,7624.121203
20872.260832,2664.741391,1455.581446,7550.100608
20872.261156,1998.556043,1225.752797,7846.182985
20872.261479,666.185348,0.000000,9104.533087
20872.261802,-1850.514855,-229.828649,10732.986159
20872.262126,-2960.823768,-1225.752797,11991.336260
20872.262449,-4219.173869,-1762.019645,12583.501014
20872.262772,-4663.297435,-1302.362347,12879.583391
20872.263096,-3849.070898,-1149.143247,12361.439231
20872.263419,-2590.720797,-306.438199,11103.089130
20872.263743,-1332.370696,0.000000,8808.450710
20872.264066,296.082377,766.095498,7624.121203
20872.264389,740.205942,383.047749,6735.874072
20872.264713,370.102971,612.876398,6735.874072
20872.265036,370.102971,0.000000,6883.915261
20872.265359,0.000000,-1149.143247,7328.038826
20872.265683,-1036.288319,-2145.067394,8364.327145
20872.266006,-1924.535449,-2911.162892,9178.553681
20872.266329,-1036.288319,-2911.162892,10140.821405
20872.266653,-814.226536,-2681.334243,9918.759623
20872.266976,222.061783,-1532.190996,9326.594869
20872.267300,1480.411884,-383.047749,8438.347739
20872.267623,3034.844362,306.438199,7698.141797
20872.267946,3701.029710,1072.533697,7772.162391
20872.268270,3034.844362,1762.019645,8068.244768
20872.268593,1332.370696,1762.019645,8364.327145
20872.268916,0.000000,1302.362347,9844.739029
20872.269240,-1110.308913,0.000000,11325.150913
20872.269563,-2516.700203,-995.924147,12361.439231
20872.269886,-4145.153275,-1072.533697,13027.624579
20872.270210,-4737.318029,-1225.752797,12509.480420
20872.270533,-3108.864956,-459.657299,11251.130318
20872.270857,-1628.453072,-306.438199,9770.718434
20872.271180,-296.082377,689.485948,8216.285956
20872.271503,-222.061783,1685.410096,6809.894666
20872.271827,592.164754,1455.581446,6143.709319
20872.272150,740.205942,1225.752797,6143.709319
20872.272473,296.082377,153.219100,6809.894666
20872.272797,0.000000,-612.876398,7624.121203
20872.273120,-1036.288319,-1991.848295,8290.306550
20872.273444,-1480.411884,-3064.381992,8956.491898
20872.273767,-1184.329507,-2451.505594,9474.636058
20872.274090,-1184.329507,-2221.676944,9178.553681
20872.274414,74.020594,-1302.362347,8142.265362
20872.274737,1924.535449,-689.485948,8068.244768
20872.275060,2590.720797,76.609550,7772.162391
20872.275384,2590.720797,1072.533697,8216.285956
20872.275707,2368.659014,995.924147,8956.491898
20872.276030,1702.473667,459.657299,9770.718434
20872.276354,518.144159,306.438199,11325.150913
20872.276677,-1628.453072,-383.047749,12509.480420
20872.277001,-2590.720797,-1455.581446,13249.686362
20872.277324,-3478.967927,-1378.971896,13471.748144
20872.277647,-3034.844362,-766.095498,12805.562797
20872.277971,-2590.720797,-383.047749,10955.047942
20872.278294,-1332.370696,-306.438199,9030.512492
20872.278617,-1036.288319,0.000000,7550.100608
20872.278941,0.000000,536.266849,6217.729913
20872.279264,-296.082377,383.047749,6217.729913
20872.279588,-518.144159,153.219100,5995.668130
20872.279911,-222.061783,-689.485948,6069.688724
20872.280234,-296.082377,-1608.800546,6957.935855
20872.280558,-148.041188,-2757.943793,8142.265362
20872.280881,-1036.288319,-2451.505594,8364.327145
20872.281204,-740.205942,-1991.848295,9326.594869
20872.281528,888.247130,-1762.019645,9178.553681
20872.281851,1924.535449,-1225.752797,8808.450710
20872.282174,2368.659014,0.000000,7698.141797
20872.282498,2738.761985,536.266849,7476.080014
20872.282821,2146.597232,766.095498,8586.388927
20872.283145,1702.473667,995.924147,9326.594869
20872.283468,666.185348,383.047749,10955.047942
20872.283791,-814.226536,0.000000,11991.336260
20872.284115,-2368.659014,-842.705048,12731.542202
20872.284438,-3034.844362,-1072.533697,13249.686362
20872.284761,-3256.906145,-919.314598,13101.645173
20872.285085,-3108.864956,-229.828649,12657.521608
20872.285408,-1998.556043,-459.657299,10214.842000
20872.285732,-814.226536,0.000000,9252.574275
20872.286055,-1110.308913,459.657299,7402.059420
20872.286378,-740.205942,766.095498,6735.874072
20872.286702,0.000000,306.438199,6365.771101
20872.287025,-592.164754,0.000000,6587.832884
20872.287348,-592.164754,-766.095498,7105.977043
20872.287672,-962.267725,-1685.410096,7254.018232
20872.287995,-962.267725,-2298.286494,7920.203579
20872.288318,-222.061783,-1608.800546,8438.347739
20872.288642,296.082377,-612.876398,8586.388927
20872.288965,1406.391290,-383.047749,7920.203579
20872.289289,2146.597232,229.828649,7105.977043
20872.289612,3849.070898,919.314598,6957.935855
20872.289935,3478.967927,766.095498,7105.977043
20872.290259,1998.556043,1378.971896,8364.327145
20872.290582,666.185348,1072.533697,9622.677246
20872.290905,74.020594,306.438199,10955.047942
20872.291229,-814.226536,-919.314598,12657.521608
20872.291552,-2960.823768,-1455.581446,13619.789333
20872.291876,-3552.988522,-995.924147,13249.686362
20872.292199,-2738.761985,-919.314598,13101.645173
20872.292522,-1702.473667,-612.876398,11917.315666
20872.292846,-592.164754,383.047749,10214.842000
20872.293169,-740.205942,153.219100,8142.265362
20872.293492,-740.205942,0.000000,7105.977043
20872.293816,-370.102971,0.000000,6735.874072
20872.294139,-1036.288319,-153.219100,6365.771101
20872.294462,-1702.473667,-1378.971896,6735.874072
20872.294786,-1628.453072,-2451.505594,6809.894666
20872.295109,-1332.370696,-3217.601092,7624.121203
20872.295433,-370.102971,-2528.115143,9252.574275
20872.295756,-222.061783,-1608.800546,8956.491898
20872.296079,1702.473667,-1149.143247,8734.430116
20872.296403,3627.009116,0.000000,8438.347739
20872.296726,4515.256246,842.705048,7624.121203
20872.297049,4367.215058,1072.533697,7402.059420
20872.297373,3552.988522,995.924147,8364.327145
20872.297696,2368.659014,995.924147,8660.409521
20872.298020,1110.308913,306.438199,9770.718434
20872.298343,-518.144159,-842.705048,10807.006753
20872.298666,-2590.720797,-1608.800546,12509.480420
20872.298990,-3849.070898,-1915.238745,12953.603985
20872.299313,-4367.215058,-1991.848295,12879.583391
20872.299636,-3627.009116,-1378.971896,11991.336260
20872.299960,-2368.659014,-995.924147,10732.986159
20872.300283,-962.267725,-383.047749,9252.574275
20872.300606,0.000000,0.000000,8142.265362
20872.300930,0.000000,612.876398,7476.080014
20872.301253,-222.061783,153.219100,6883.915261
20872.301577,296.082377,-612.876398,6957.935855
20872.301900,296.082377,-1762.019645,7254.018232
20872.302223,-370.102971,-2145.067394,8216.285956
20872.302547,-1184.329507,-2221.676944,8882.471304
20872.302870,-666.185348,-2145.067394,9622.677246
20872.303193,296.082377,-1608.800546,9030.512492
20872.303517,1480.411884,-1072.533697,8586.388927
20872.303840,1998.556043,-459.657299,7920.203579
20872.304164,3034.844362,612.876398,6883.915261
20872.304487,3627.009116,1685.410096,7328.038826
20872.304810,3108.864956,1608.800546,8068.244768
20872.305134,1110.308913,1532.190996,9030.512492
20872.305457,-296.082377,536.266849,9992.780217
20872.305780,-1554.432478,-229.828649,11917.315666
20872.306104,-2812.782580,-1149.143247,12509.480420
20872.306427,-4737.318029,-842.705048,12583.501014
20872.306750,-4663.297435,-1532.190996,12213.398043
20872.307074,-3330.926739,-919.314598,10955.047942
20872.307397,-1776.494261,0.000000,9400.615463
20872.307721,-962.267725,383.047749,8290.306550
20872.308044,-222.061783,842.705048,7254.018232
20872.308367,74.020594,1455.581446,6291.750507
20872.308691,518.144159,1149.143247,6735.874072
20872.309014,74.020594,-229.828649,7031.956449
20872.309337,-814.226536,-1149.143247,7179.997637
20872.309661,-1110.308913,-1762.019645,8216.285956
20872.309984,-1184.329507,-1838.629195,9548.656652
20872.310307,-1184.329507,-1915.238745,9474.636058
20872.310631,-740.205942,-2068.457845,8364.327145
20872.310954,1036.288319,-1685.410096,7624.121203
20872.311278,1998.556043,-306.438199,7772.162391
20872.311601,2442.679609,995.924147,8142.265362
20872.311924,2664.741391,1149.143247,8216.285956
20872.312248,2368.659014,1149.143247,8956.491898
20872.312571,1258.350101,612.876398,10362.883188
20872.312894,0.000000,995.924147,11843.295072
20872.313218,-1332.370696,-766.095498,12583.501014
20872.313541,-2960.823768,-1455.581446,12509.480420
20872.313865,-3256.906145,-766.095498,12805.562797
20872.314188,-3034.844362,-1532.190996,11843.295072
20872.314511,-2738.761985,-1225.752797,10288.862594
20872.314835,-1480.411884,-689.485948,8660.409521
20872.315158,-740.205942,-383.047749,7254.018232
20872.315481,-222.061783,0.000000,6439.791695
20872.315805,-740.205942,0.000000,5847.626942
20872.316128,-888.247130,-842.705048,5847.626942
20872.316451,-296.082377,-1532.190996,6439.791695
20872.316775,-518.144159,-2298.286494,7846.182985
20872.317098,-1110.308913,-2451.505594,8808.450710
20872.317422,-444.123565,-2681.334243,9252.574275
20872.317745,888.247130,-2221.676944,9622.677246
20872.318068,1850.514855,-1149.143247,8734.430116
20872.318392,2590.720797,-459.657299,8586.388927
20872.318715,2664.741391,-383.047749,8216.285956
20872.319038,3552.988522,229.828649,8512.368333
20872.319362,2812.782580,689.485948,9030.512492
20872.319685,1406.391290,459.657299,9918.759623
20872.320009,0.000000,-306.438199,10362.883188
20872.320332,-1258.350101,-1302.362347,12139.377449
20872.320655,-2072.576638,-1378.971896,13323.706956
20872.320979,-3849.070898,-2604.724693,13767.830521
20872.321302,-4367.215058,-1915.238745,12953.603985
20872.321625,-3478.967927,-1685.410096,11621.233289
20872.321949,-2368.659014,-1302.362347,9474.636058
20872.322272,-1332.370696,-612.876398,8068.244768
20872.322595,-666.185348,0.000000,6735.874072
20872.322919,-296.082377,459.657299,6439.791695
20872.323242,-888.247130,0.000000,5551.544565
20872.323566,-592.164754,-612.876398,6069.688724
20872.323889,-740.205942,-1302.362347,6883.915261
20872.324212,-814.226536,-1608.800546,7179.997637
20872.324536,-222.061783,-1685.410096,8364.327145
20872.324859,518.144159,-1762.019645,8142.265362
20872.325182,1110.308913,-612.876398,8734.430116
20872.325506,1850.514855,0.000000,7698.141797
20872.325829,2738.761985,689.485948,7476.080014
20872.326153,3775.050304,766.095498,7476.080014
20872.326476,2516.700203,1149.143247,8216.285956
20872.326799,1480.411884,689.485948,8734.430116
20872.327123,666.185348,459.657299,10066.800811
20872.327446,-740.205942,-383.047749,11325.150913
20872.327769,-2146.597232,-689.485948,12139.377449
20872.328093,-2960.823768,-995.924147,13027.624579
20872.328416,-3256.906145,-766.095498,13619.789333
20872.328739,-1850.514855,-76.609550,13027.624579
20872.329063,-962.267725,0.000000,11325.150913
20872.329386,-518.144159,766.095498,9474.636058
20872.329710,74.020594,459.657299,8068.244768
20872.330033,1110.308913,995.924147,7476.080014
20872.330356,0.000000,76.609550,6735.874072
20872.330680,-962.267725,-766.095498,6735.874072
20872.331003,-1480.411884,-1225.752797,6661.853478
20872.331326,-1776.494261,-2451.505594,7179.997637
20872.331650,-2368.659014,-2374.896044,8068.244768
20872.331973,-2294.638420,-2221.676944,9178.553681
20872.332297,-2072.576638,-2068.457845,8142.265362
20872.332620,-148.041188,-919.314598,7476.080014
20872.332943,1776.494261,0.000000,7105.977043
20872.333267,2590.720797,612.876398,7105.977043
20872.333590,2368.659014,1532.190996,7105.977043
20872.333913,2442.679609,1302.362347,7920.203579
20872.334237,1776.494261,919.314598,8956.491898
20872.334560,0.000000,459.657299,9992.780217
20872.334883,-1332.370696,-1378.971896,11769.274478
20872.335207,-2146.597232,-1455.581446,13101.645173
20872.335530,-2812.782580,-1532.190996,13619.789333
20872.335854,-3034.844362,-1608.800546,13989.892304
20872.336177,-1924.535449,-1072.533697,12361.439231
20872.336500,-1110.308913,-842.705048,10288.862594
20872.336824,592.164754,-459.657299,9326.594869
20872.337147,518.144159,612.876398,7994.224174
20872.337470,0.000000,689.485948,7105.977043
20872.337794,-296.082377,-459.657299,6439.791695
20872.338117,0.000000,-1149.143247,6439.791695
20872.338441,-888.247130,-1915.238745,7179.997637
20872.338764,-2146.597232,-2451.505594,7920.203579
20872.339087,-2072.576638,-2911.162892,8660.409521
20872.339411,-1924.535449,-2528.115143,8808.450710
20872.339734,-1110.308913,-2451.505594,8364.327145
20872.340058,222.061783,-842.705048,7994.224174
20872.340381,2220.617826,-306.438199,7254.018232
20872.340704,3404.947333,459.657299,7105.977043
20872.341028,3923.091493,1455.581446,7846.182985
20872.341351,3034.844362,1838.629195,8512.368333
20872.341675,1702.473667,995.924147,9770.718434
20872.341998,148.041188,229.828649,9844.739029
20872.342321,-518.144159,-766.095498,11769.274478
20872.342645,-1776.494261,-1915.238745,13175.665768
20872.342968,-3108.864956,-1532.190996,13249.686362
20872.343292,-2368.659014,-1072.533697,12213.398043
20872.343615,-1628.453072,-1149.143247,11399.171507
20872.343938,-888.247130,-306.438199,9696.697840
20872.344262,0.000000,842.705048,8438.347739
20872.344585,518.144159,0.000000,7994.224174
20872.344909,888.247130,0.000000,6661.853478
20872.345232,74.020594,0.000000,6883.915261
20872.345555,-296.082377,-1072.533697,7328.038826
20872.345879,-962.267725,-1991.848295,8068.244768
20872.346202,-1110.308913,-2604.724693,8290.306550
20872.346526,-1406.391290,-2374.896044,9030.512492
20872.346849,-1628.453072,-1915.238745,9030.512492
20872.347172,-592.164754,-1762.019645,8586.388927
20872.347496,1184.329507,-689.485948,8142.265362
20872.347819,2368.659014,536.266849,7402.059420
20872.348143,2368.659014,995.924147,7254.018232
20872.348466,2368.659014,1685.410096,7476.080014
20872.348789,1924.535449,1532.190996,8808.450710
20872.349113,740.205942,995.924147,9992.780217
20872.349436,-370.102971,229.828649,11029.068536
20872.349760,-2072.576638,-536.266849,12139.377449
20872.350083,-3404.947333,-995.924147,12879.583391
20872.350406,-3849.070898,-1302.362347,12805.562797
20872.350730,-3701.029710,-612.876398,11991.336260
20872.351053,-2368.659014,-919.314598,9770.718434
20872.351377,-1480.411884,0.000000,8290.306550
20872.351700,-666.185348,76.609550,7328.038826
20872.352023,-296.082377,306.438199,6883.915261
20872.352347,-370.102971,536.266849,6661.853478
20872.352670,-222.061783,-153.219100,6883.915261
20872.352994,-518.144159,-536.266849,7476.080014
20872.353317,-592.164754,-1378.971896,7846.182985
20872.353640,-592.164754,-1378.971896,8956.491898
20872.353964,-370.102971,-2298.286494,9696.697840
20872.354287,0.000000,-1455.581446,8586.388927
20872.354611,888.247130,-1149.143247,8660.409521
20872.354934,1406.391290,-383.047749,7772.162391
20872.355257,2442.679609,153.219100,7402.059420
20872.355581,2960.823768,842.705048,7254.018232
20872.355904,2442.679609,919.314598,8438.347739
20872.356228,1184.329507,1455.581446,9622.677246
20872.356551,296.082377,995.924147,10510.924376
20872.356874,-592.164754,-306.438199,11843.295072
20872.357198,-1776.494261,-766.095498,12657.521608
20872.357521,-2590.720797,-1072.533697,13249.686362
20872.357845,-2738.761985,-919.314598,12805.562797
20872.358168,-2516.700203,-919.314598,11103.089130
20872.358491,-592.164754,-459.657299,8882.471304
20872.358815,0.000000,-536.266849,8808.450710
20872.359138,-592.164754,0.000000,7476.080014
20872.359462,0.000000,-153.219100,6809.894666
20872.359785,222.061783,-919.314598,6439.791695
20872.360108,-222.061783,-1915.238745,6513.812290
20872.360432,-1110.308913,-1991.848295,7476.080014
20872.360755,-888.247130,-2451.505594,8068.244768
20872.361079,-74.020594,-2374.896044,9030.512492
20872.361402,-296.082377,-2145.067394,9622.677246
20872.361725,0.000000,-1225.752797,9104.533087
20872.362049,814.226536,-995.924147,8512.368333
20872.362372,2442.679609,-229.828649,7994.224174
20872.362696,2960.823768,995.924147,7846.182985
20872.363019,1554.432478,1149.143247,8068.244768
20872.363342,370.102971,1072.533697,9030.512492
20872.363666,-592.164754,842.705048,9844.739029
20872.363989,-1924.535449,153.219100,11621.233289
20872.364313,-3404.947333,-689.485948,12583.501014
20872.364636,-4145.153275,-1302.362347,12805.562797
20872.364959,-3997.112087,-689.485948,12953.603985
20872.365283,-3330.926739,-612.876398,12139.377449
20872.365606,-2516.700203,-536.266849,10436.903782
20872.365930,-1998.556043,536.266849,9252.574275
20872.366253,-1628.453072,0.000000,7328.038826
20872.366576,-370.102971,229.828649,6217.729913
20872.366900,0.000000,76.609550,6291.750507
20872.367223,-740.205942,0.000000,6513.812290
20872.367547,-962.267725,-306.438199,6883.915261
20872.367870,-1258.350101,-1685.410096,7328.038826
20872.368193,-296.082377,-2298.286494,7476.080014
20872.368517,0.000000,-1302.362347,8438.347739
20872.368840,1036.288319,-995.924147,9030.512492
20872.369164,2516.700203,-229.828649,8956.491898
20872.369487,3849.070898,919.314598,8364.327145
20872.369810,4737.318029,1378.971896,7772.162391
20872.370134,3997.112087,842.705048,7772.162391
20872.370457,3256.906145,1225.752797,8142.265362
20872.370781,1628.453072,1378.971896,9844.739029
20872.371104,0.000000,306.438199,11177.109724
20872.371427,-1332.370696,-766.095498,11917.315666
20872.371751,-2516.700203,-1532.190996,12287.418637
20872.372074,-3701.029710,-1302.362347,12065.356855
20872.372398,-3478.967927,-1532.190996,12213.398043
20872.372721,-2590.720797,-459.657299,11399.171507
20872.373044,-444.123565,229.828649,9918.759623
20872.373368,370.102971,383.047749,8364.327145
20872.373691,518.144159,229.828649,6957.935855
20872.374015,0.000000,0.000000,6957.935855
20872.374338,-296.082377,-383.047749,7550.100608
20872.374661,444.123565,-1225.752797,7476.080014
20872.374985,0.000000,-1838.629195,8142.265362
20872.375308,-1776.494261,-2834.553343,8808.450710
20872.375632,-1628.453072,-3370.820191,8956.491898
20872.375955,-1036.288319,-3524.039291,8882.471304
20872.376278,-296.082377,-2221.676944,8956.491898
20872.376602,814.226536,-1225.752797,8438.347739
20872.376925,1776.494261,76.609550,7994.224174
20872.377249,2294.638420,536.266849,7846.182985
20872.377572,2368.659014,1302.362347,8586.388927
20872.377895,1406.391290,995.924147,9474.636058
20872.378219,-148.041188,536.266849,10288.862594
20872.378542,-740.205942,0.000000,11251.130318
20872.378866,-2368.659014,-766.095498,12213.398043
20872.379189,-4589.276840,-1225.752797,12435.459826
20872.379512,-5181.441594,-919.314598,12879.583391
20872.379836,-3404.947333,-1685.410096,11769.274478
20872.380159,-3108.864956,-459.657299,10362.883188
20872.380483,-2590.720797,0.000000,9474.636058
20872.380806,-1332.370696,76.609550,7031.956449
20872.381129,-518.144159,536.266849,6513.812290
20872.381453,0.000000,1762.019645,7105.977043
20872.381776,0.000000,1532.190996,6513.812290
20872.382100,74.020594,-766.095498,6587.832884
20872.382423,0.000000,-1762.019645,7105.977043
20872.382746,0.000000,-1455.581446,8364.327145
20872.383070,-370.102971,-1532.190996,9326.594869
20872.383393,-296.082377,-1608.800546,8808.450710
20872.383717,592.164754,-1149.143247,8290.306550
20872.384040,2442.679609,-306.438199,7698.141797
20872.384363,3404.947333,1072.533697,7846.182985
20872.384687,4219.173869,1225.752797,7920.203579
20872.385010,3701.029710,2068.457845,8734.430116
20872.385334,2960.823768,2145.067394,9548.656652
20872.385657,2442.679609,1532.190996,10362.883188
20872.385980,1332.370696,383.047749,11547.212695
20872.386304,-518.144159,229.828649,12139.377449
20872.386627,-2294.638420,-612.876398,12287.418637
20872.386951,-2368.659014,-1072.533697,12509.480420
20872.387274,-2146.597232,-689.485948,11843.295072
20872.387597,-1776.494261,-689.485948,10436.903782
20872.387921,-962.267725,-995.924147,8660.409521
20872.388244,-592.164754,-536.266849,7402.059420
20872.388568,-74.020594,-459.657299,6513.812290
20872.388891,-222.061783,-995.924147,6735.874072
20872.389214,74.020594,-919.314598,6957.935855
20872.389538,0.000000,-1455.581446,7328.038826
20872.389861,-370.102971,-2374.896044,8068.244768
20872.390185,-814.226536,-3064.381992,8438.347739
20872.390508,-666.185348,-2911.162892,9400.615463
20872.390831,444.123565,-2451.505594,9548.656652
20872.391155,1406.391290,-2068.457845,8734.430116
20872.391478,2220.617826,-1685.410096,8438.347739
20872.391802,2368.659014,-1608.800546,8142.265362
20872.392125,2146.597232,0.000000,8290.306550
20872.392448,1776.494261,306.438199,9178.553681
20872.392772,518.144159,76.609550,10066.800811
20872.393095,-1184.329507,0.000000,10584.944971
20872.393419,-1406.391290,-1225.752797,11547.212695
20872.393742,-2516.700203,-1838.629195,12583.501014
20872.394065,-3997.112087,-1762.019645,12731.542202
20872.394389,-4367.215058,-1225.752797,12361.439231
20872.394712,-3108.864956,-1378.971896,10807.006753
20872.395036,-2368.659014,-1149.143247,9474.636058
20872.395359,-2220.617826,-689.485948,7772.162391
20872.395682,-2146.597232,-383.047749,6809.894666
20872.396006,-2072.576638,153.219100,6587.832884
20872.396329,-888.247130,76.609550,6587.832884
20872.396653,-740.205942,-1072.533697,6365.771101
20872.396976,-1110.308913,-1532.190996,7105.977043
20872.397299,-888.247130,-1915.238745,8068.244768
20872.397623,0.000000,-1378.971896,8734.430116
20872.397946,592.164754,-919.314598,8734.430116
20872.398270,1480.411884,-766.095498,8882.471304
20872.398593,2812.782580,0.000000,8660.409521
20872.398916,4071.132681,459.657299,7920.203579
20872.399240,4145.153275,1072.533697,8216.285956
20872.399563,3256.906145,1532.190996,8956.491898
20872.399887,2368.659014,1685.410096,9400.615463
20872.400210,1332.370696,1762.019645,9622.677246
20872.400533,962.267725,766.095498,11251.130318
20872.400857,-740.205942,383.047749,11843.295072
20872.401180,-2368.659014,0.000000,12657.521608
20872.401504,-2368.659014,306.438199,12879.583391
20872.401827,-1924.535449,306.438199,11843.295072
20872.402150,-2072.576638,689.485948,10584.944971
20872.402474,-2220.617826,459.657299,8586.388927
20872.402797,-1480.411884,0.000000,7698.141797
20872.403121,-1332.370696,76.609550,6809.894666
20872.403444,-2072.576638,-612.876398,5995.668130
20872.403767,-2294.638420,-842.705048,6291.750507
20872.404091,-1702.473667,-1838.629195,6513.812290
20872.404414,-1776.494261,-2221.676944,7179.997637
20872.404738,-1406.391290,-2451.505594,7994.224174
20872.405061,-1406.391290,-2145.067394,8956.491898
20872.405384,-370.102971,-1378.971896,8808.450710
20872.405708,1110.308913,-995.924147,8290.306550
20872.406031,2590.720797,0.000000,8438.347739
20872.406355,3034.844362,383.047749,7994.224174
20872.406678,2960.823768,842.705048,8438.347739
20872.407001,2812.782580,612.876398,8882.471304
20872.407325,1480.411884,0.000000,9474.636058
20872.407648,-296.082377,0.000000,10584.944971
20872.407972,-1480.411884,-306.438199,11843.295072
20872.408295,-2812.782580,-1838.629195,12361.439231
20872.408618,-4219.173869,-1762.019645,12953.603985
20872.408942,-4219.173869,-1685.410096,12657.521608
20872.409265,-3552.988522,-919.314598,11473.192101
20872.409589,-2442.679609,-842.705048,8956.491898
20872.409912,-1628.453072,-919.314598,8142.265362
20872.410235,-1406.391290,306.438199,7698.141797
20872.410559,-1554.432478,-842.705048,6587.832884
20872.410882,-740.205942,-1072.533697,6587.832884
20872.411206,-666.185348,-2221.676944,6661.853478
20872.411529,-1184.329507,-2528.115143,7550.100608
20872.411852,-1332.370696,-2911.162892,8438.347739
20872.412176,-592.164754,-3447.429741,9252.574275
20872.412499,148.041188,-2528.115143,9178.553681
20872.412823,1406.391290,-1532.190996,9178.553681
20872.413146,2368.659014,-459.657299,8142.265362
20872.413469,4071.132681,153.219100,7994.224174
20872.413793,5181.441594,1149.143247,8438.347739
20872.414116,4515.256246,1532.190996,8364.327145
20872.414440,3034.844362,1532.190996,9178.553681
20872.414763,1850.514855,459.657299,9474.636058
20872.415086,444.123565,306.438199,10510.924376
20872.415410,-962.267725,-1149.143247,12953.603985
20872.415733,-3552.988522,-1455.581446,12805.562797
20872.416057,-4367.215058,-1991.848295,12509.480420
20872.416380,-4145.153275,-1685.410096,11917.315666
20872.416703,-3330.926739,-1149.143247,10436.903782
20872.417027,-2146.597232,-536.266849,8438.347739
20872.417350,-1406.391290,689.485948,7105.977043
20872.417674,296.082377,383.047749,6883.915261
20872.417997,740.205942,919.314598,6217.729913
20872.418320,888.247130,536.266849,6365.771101
20872.418644,0.000000,-766.095498,6883.915261
20872.418967,-148.041188,-1991.848295,7624.121203
20872.419291,148.041188,-1838.629195,9326.594869
20872.419614,-370.102971,-2221.676944,9622.677246
20872.419937,-740.205942,-2528.115143,9030.512492
20872.420261,370.102971,-1455.581446,8956.491898
20872.420584,1776.494261,-995.924147,8364.327145
20872.420908,2664.741391,612.876398,8290.306550
20872.421231,3182.885551,1762.019645,8438.347739
20872.421554,2738.761985,2145.067394,8808.450710
20872.421878,1628.453072,1302.362347,9030.512492
20872.422201,1036.288319,1762.019645,9918.759623
20872.422525,-962.267725,612.876398,11103.089130
20872.422848,-3182.885551,-306.438199,12065.356855
20872.423171,-4589.276840,-1225.752797,12139.377449
20872.423495,-5107.421000,-1685.410096,12435.459826
20872.423818,-5255.462188,-1302.362347,11917.315666
20872.424142,-4219.173869,-919.314598,9622.677246
20872.424465,-2442.679609,-536.266849,8142.265362
20872.424788,-1332.370696,-459.657299,7105.977043
20872.425112,-1110.308913,766.095498,7105.977043
20872.425435,-222.061783,1072.533697,6439.791695
20872.425759,222.061783,153.219100,6143.709319
20872.426082,296.082377,-612.876398,6439.791695
20872.426405,222.061783,-1532.190996,7550.100608
20872.426729,-296.082377,-1838.629195,8586.388927
20872.427052,148.041188,-1915.238745,8882.471304
20872.427376,1110.308913,-1608.800546,9400.615463
20872.427699,1554.432478,-995.924147,9030.512492
20872.428022,2368.659014,-689.485948,7994.224174
20872.428346,3404.947333,-383.047749,8068.244768
20872.428669,3849.070898,459.657299,8586.388927
20872.428993,2960.823768,1072.533697,9474.636058
20872.429316,1406.391290,1072.533697,9918.759623
20872.429639,1036.288319,0.000000,11251.130318
20872.429963,0.000000,-306.438199,12139.377449
20872.430286,-1628.453072,-1072.533697,12953.603985
20872.430610,-2886.803174,-1225.752797,13397.727550
20872.430933,-3775.050304,-1532.190996,12879.583391
20872.431256,-2516.700203,-1685.410096,12213.398043
20872.431580,-2072.576638,-1455.581446,9474.636058
20872.431903,-1628.453072,-1225.752797,7772.162391
20872.432227,-1110.308913,-842.705048,6217.729913
20872.432550,-222.061783,-766.095498,5995.668130
20872.432873,0.000000,0.000000,6365.771101
20872.433197,-370.102971,-919.314598,6217.729913
20872.433520,-518.144159,-1072.533697,6291.750507
20872.433844,370.102971,-1762.019645,7402.059420
20872.434167,518.144159,-1915.238745,8734.430116
20872.434490,222.061783,-919.314598,9696.697840
20872.434814,1258.350101,-383.047749,9400.615463
20872.435137,2442.679609,0.000000,8216.285956
20872.435461,3775.050304,842.705048,7994.224174
20872.435784,3330.926739,1149.143247,7846.182985
20872.436107,2590.720797,919.314598,8512.368333
20872.436431,1332.370696,766.095498,8808.450710
20872.436754,518.144159,0.000000,10584.944971
20872.437078,-1776.494261,-536.266849,11695.253884
20872.437401,-3775.050304,-1608.800546,12509.480420
20872.437725,-4959.379811,-2221.676944,13471.748144
20872.438048,-5477.523971,-2145.067394,13471.748144
20872.438372,-5255.462188,-1378.971896,12509.480420
20872.438695,-3775.050304,-612.876398,11029.068536
20872.439019,-1998.556043,-842.705048,8882.471304
20872.439342,-962.267725,-383.047749,7031.956449
20872.439666,0.000000,229.828649,6365.771101
20872.439989,666.185348,766.095498,6439.791695
20872.440313,740.205942,536.266849,6661.853478
20872.440636,740.205942,-995.924147,7328.038826
20872.440960,444.123565,-1608.800546,7328.038826
20872.441283,444.123565,-1378.971896,8808.450710
20872.441607,592.164754,-1149.143247,9844.739029
20872.441930,1480.411884,-459.657299,9844.739029
20872.442254,2368.659014,0.000000,8808.450710
20872.442577,3627.009116,1072.533697,8438.347739
20872.442901,3775.050304,2145.067394,7476.080014
20872.443224,3627.009116,1991.848295,7105.977043
20872.443548,2664.741391,1915.238745,6957.935855
20872.443871,1184.329507,1838.629195,8660.409521
20872.444195,-962.267725,919.314598,9548.656652
20872.444518,-2960.823768,0.000000,11251.130318
20872.444841,-3849.070898,-1302.362347,11843.295072
20872.445165,-4959.379811,-1532.190996,13101.645173
20872.445488,-5033.400406,-1149.143247,13027.624579
20872.445812,-3701.029710,-766.095498,12213.398043
20872.446135,-1702.473667,-459.657299,10510.924376
20872.446459,-222.061783,0.000000,8734.430116
20872.446782,74.020594,306.438199,7476.080014
20872.447106,740.205942,0.000000,6587.832884
20872.447429,1480.411884,76.609550,7105.977043
20872.447753,740.205942,-612.876398,6587.832884
20872.448076,-592.164754,-1991.848295,7550.100608
20872.448400,-1406.391290,-1762.019645,8586.388927
20872.448723,-1406.391290,-2451.505594,9252.574275
20872.449047,-1036.288319,-2451.505594,9548.656652
20872.449370,-444.123565,-1608.800546,8956.491898
20872.449694,1110.308913,-459.657299,8364.327145
20872.450017,2590.720797,383.047749,7994.224174
20872.450341,3849.070898,1302.362347,7476.080014
20872.450664,3404.947333,1532.190996,7031.956449
20872.450988,1850.514855,995.924147,8068.244768
20872.451311,592.164754,0.000000,8734.430116
20872.451635,-666.185348,-842.705048,10288.862594
20872.451958,-2664.741391,-2374.896044,12657.521608
20872.452282,-4145.153275,-2681.334243,13841.851115
20872.452605,-5329.482782,-3064.381992,13175.665768
20872.452929,-4071.132681,-3294.210641,13027.624579
20872.453252,-2442.679609,-2528.115143,11547.212695
20872.453576,-1332.370696,-1685.410096,9474.636058
20872.453899,0.000000,-766.095498,7698.141797
20872.454223,962.267725,-536.266849,6957.935855
20872.454546,888.247130,0.000000,5995.668130
20872.454870,518.144159,-306.438199,6883.915261
20872.455193,-296.082377,-1302.362347,7328.038826
20872.455517,-740.205942,-2451.505594,8660.409521
20872.455840,-1406.391290,-2987.772442,9622.677246
20872.456164,-1184.329507,-3217.601092,10214.842000
20872.456487,-666.185348,-2374.896044,9844.739029
20872.456811,296.082377,-1838.629195,8068.244768
20872.457134,2368.659014,-306.438199,7105.977043
20872.457457,3701.029710,1149.143247,7254.018232
20872.457781,3404.947333,2298.286494,7254.018232
20872.458104,2960.823768,2604.724693,8290.306550
20872.458428,2146.597232,1991.848295,8882.471304
20872.458751,74.020594,1225.752797,9844.739029
20872.459075,-1850.514855,0.000000,11547.212695
20872.459398,-3552.988522,-689.485948,11917.315666
20872.459722,-4959.379811,-1838.629195,12583.501014
20872.460045,-5921.647536,-1838.629195,12657.521608
20872.460369,-5181.441594,-1225.752797,11621.233289
20872.460692,-3034.844362,-766.095498,8956.491898
20872.461016,-518.144159,-153.219100,7476.080014
20872.461339,740.205942,383.047749,6513.812290
20872.461663,888.247130,1915.238745,5995.668130
20872.461986,1702.473667,1149.143247,5329.482782
20872.462310,2220.617826,383.047749,6217.729913
20872.462633,1406.391290,0.000000,7550.100608
20872.462957,222.061783,-1149.143247,8956.491898
20872.463280,444.123565,-1991.848295,9474.636058
20872.463604,666.185348,-1915.238745,10214.842000
20872.463927,1036.288319,-995.924147,10288.862594
20872.464251,1480.411884,0.000000,9252.574275
20872.464574,2442.679609,76.609550,7550.100608
20872.464898,3182.885551,0.000000,6809.894666
20872.465221,2368.659014,766.095498,7698.141797
20872.465545,74.020594,1455.581446,8660.409521
20872.465868,-666.185348,995.924147,9474.636058
20872.466192,-1628.453072,-459.657299,10214.842000
20872.466515,-2664.741391,-1378.971896,11917.315666
20872.466839,-4811.338623,-1302.362347,12657.521608
20872.467162,-5625.565159,-1455.581446,12953.603985
20872.467486,-4589.276840,-1685.410096,12361.439231
20872.467809,-2368.659014,-1225.752797,10807.006753
20872.468133,-962.267725,-995.924147,8956.491898
20872.468456,74.020594,0.000000,6883.915261
20872.468780,1110.308913,0.000000,6291.750507
20872.469103,1776.494261,306.438199,6291.750507
20872.469427,1480.411884,153.219100,6883.915261
20872.469750,1036.288319,-842.705048,7772.162391
20872.470073,814.226536,-1685.410096,8438.347739
20872.470397,444.123565,-2528.115143,9474.636058
20872.470720,148.041188,-2221.676944,10066.800811
20872.471044,74.020594,-1225.752797,10436.903782
20872.471367,814.226536,-689.485948,8734.430116
20872.471691,1628.453072,-766.095498,7698.141797
20872.472014,2220.617826,-229.828649,7179.997637
20872.472338,1480.411884,229.828649,6957.935855
20872.472661,370.102971,229.828649,7698.141797
20872.472985,-1332.370696,-229.828649,8660.409521
20872.473308,-2146.597232,-536.266849,9178.553681
20872.473632,-3256.906145,-995.924147,11695.253884
20872.473955,-4071.132681,-1915.238745,12953.603985
20872.474279,-4145.153275,-2374.896044,13323.706956
20872.474602,-3256.906145,-1225.752797,13471.748144
20872.474926,-2146.597232,-689.485948,11843.295072
20872.475249,-666.185348,-306.438199,10214.842000
20872.475573,1702.473667,-383.047749,8512.368333
20872.475896,2294.638420,995.924147,7105.977043
20872.476220,2368.659014,1302.362347,6365.771101
20872.476543,1998.556043,536.266849,6143.709319
20872.476867,1850.514855,0.000000,6809.894666
20872.477190,1110.308913,-689.485948,7550.100608
20872.477514,444.123565,-1915.238745,8438.347739
20872.477837,-666.185348,-2068.457845,8882.471304
20872.478161,-518.144159,-1532.190996,9326.594869
20872.478484,444.123565,-1608.800546,8882.471304
20872.478808,1480.411884,-612.876398,7179.997637
20872.479131,1924.535449,0.000000,7031.956449
20872.479455,2368.659014,766.095498,7105.977043
20872.479778,1776.494261,1225.752797,7254.018232
20872.480102,296.082377,1838.629195,9030.512492
20872.480425,-370.102971,153.219100,9030.512492
20872.480749,-1850.514855,-306.438199,10214.842000
20872.481072,-2960.823768,-1149.143247,12139.377449
20872.481396,-4071.132681,-1225.752797,12953.603985
20872.481719,-4589.276840,-995.924147,13841.851115
20872.482043,-4219.173869,-842.705048,13027.624579
20872.482366,-2442.679609,-383.047749,11473.192101
20872.482689,-592.164754,0.000000,9400.615463
20872.483013,370.102971,689.485948,7772.162391
20872.483336,962.267725,995.924147,7254.018232
20872.483660,814.226536,995.924147,6217.729913
20872.483983,666.185348,383.047749,6069.688724
20872.484307,-148.041188,-842.705048,6587.832884
20872.484630,-1184.329507,-1762.019645,7846.182985
20872.484954,-1258.350101,-2298.286494,8734.430116
20872.485277,-1850.514855,-4060.306139,9474.636058
20872.485601,-1036.288319,-2681.334243,8956.491898
20872.485924,370.102971,-1991.848295,9252.574275
20872.486248,1554.432478,-919.314598,8068.244768
20872.486571,2812.782580,383.047749,7920.203579
20872.486895,3034.844362,689.485948,7772.162391
20872.487218,2146.597232,1072.533697,7846.182985
20872.487542,1110.308913,1378.971896,9030.512492
20872.487865,444.123565,0.000000,9548.656652
20872.488189,-1332.370696,-919.314598,10955.047942
20872.488512,-3923.091493,-1915.238745,12361.439231
20872.488836,-4663.297435,-2451.505594,12879.583391
20872.489159,-4515.256246,-2145.067394,13249.686362
20872.489483,-3478.967927,-2068.457845,11843.295072
20872.489806,-1850.514855,-995.924147,9918.759623
20872.490130,0.000000,0.000000,8364.327145
20872.490453,1924.535449,76.609550,7105.977043
20872.490777,3034.844362,1455.581446,6143.709319
20872.491100,3108.864956,919.314598,5921.647536
20872.491424,2368.659014,229.828649,6439.791695
20872.491747,1628.453072,-842.705048,7624.121203
20872.492071,1850.514855,-2298.286494,8068.244768
20872.492394,444.123565,-3064.381992,9844.739029
20872.492718,-814.226536,-3064.381992,10066.800811
20872.493041,-222.061783,-2604.724693,9992.780217
20872.493365,1110.308913,-2221.676944,9252.574275
20872.493688,1480.411884,-842.705048,8586.388927
20872.494012,1554.432478,0.000000,8216.285956
20872.494335,2072.576638,689.485948,7994.224174
20872.494659,1184.329507,919.314598,7846.182985
20872.494982,0.000000,842.705048,8956.491898
20872.495305,-1554.432478,612.876398,9992.780217
20872.495629,-3330.926739,-766.095498,11251.130318
20872.495952,-4589.276840,-1302.362347,12435.459826
20872.496276,-5403.503377,-1838.629195,13175.665768
20872.496599,-5773.606348,-1915.238745,12953.603985
20872.496923,-4589.276840,-1378.971896,11251.130318
20872.497246,-2220.617826,0.000000,9770.718434
20872.497570,-222.061783,229.828649,7920.203579
20872.497893,370.102971,1225.752797,6735.874072
20872.498217,1628.453072,1685.410096,6217.729913
20872.498540,2146.597232,1915.238745,6291.750507
20872.498864,2072.576638,1072.533697,6513.812290
20872.499187,1628.453072,306.438199,7624.121203
20872.499511,444.123565,-919.314598,8364.327145
20872.499834,-1110.308913,-1915.238745,8586.388927
20872.500158,-1110.308913,-2145.067394,9474.636058
20872.500481,-444.123565,-2068.457845,9400.615463
20872.500805,74.020594,-1302.362347,8808.450710
20872.501128,888.247130,-459.657299,8142.265362
20872.501452,1332.370696,306.438199,7328.038826
20872.501775,1110.308913,612.876398,7698.141797
20872.502099,814.226536,995.924147,8734.430116
20872.502422,-296.082377,1225.752797,9474.636058
20872.502746,-1184.329507,76.609550,10955.047942
20872.503069,-2812.782580,-612.876398,11991.336260
20872.503393,-3775.050304,-1149.143247,13693.809927
20872.503716,-3849.070898,-995.924147,14285.974681
20872.504040,-3478.967927,-842.705048,12509.480420
20872.504363,-1924.535449,-919.314598,10436.903782
20872.504687,-888.247130,-306.438199,8364.327145
20872.505010,222.061783,536.266849,6957.935855
20872.505334,1776.494261,1532.190996,6883.915261
20872.505657,2294.638420,1072.533697,6217.729913
20872.505981,1406.391290,1302.362347,5995.668130
20872.506304,814.226536,76.609550,6291.750507
20872.506628,1110.308913,-919.314598,7402.059420
20872.506951,1036.288319,-1685.410096,8808.450710
20872.507275,-222.061783,-1991.848295,9326.594869
20872.507598,222.061783,-1608.800546,9178.553681
20872.507921,888.247130,-1378.971896,8142.265362
20872.508245,1998.556043,-612.876398,7772.162391
20872.508568,2294.638420,229.828649,8216.285956
20872.508892,1850.514855,766.095498,7846.182985
20872.509215,1406.391290,919.314598,8512.368333
20872.509539,962.267725,306.438199,9252.574275
20872.509862,-1110.308913,0.000000,10140.821405
20872.510186,-2812.782580,-842.705048,11991.336260
20872.510509,-3997.112087,-1608.800546,13545.768739
20872.510833,-4441.235652,-1225.752797,14211.954086
20872.511156,-4219.173869,-1532.190996,13471.748144
20872.511480,-3330.926739,-1302.362347,12139.377449
20872.511803,-2072.576638,-459.657299,9844.739029
20872.512127,-592.164754,0.000000,8142.265362
20872.512450,740.205942,536.266849,6883.915261
20872.512774,1406.391290,536.266849,5921.647536
20872.513097,518.144159,229.828649,5181.441594
20872.513421,444.123565,0.000000,5995.668130
20872.513744,-148.041188,-306.438199,6069.688724
20872.514068,-444.123565,-2374.896044,7550.100608
20872.514391,-296.082377,-2374.896044,9326.594869
20872.514715,0.000000,-2221.676944,9400.615463
20872.515038,370.102971,-2068.457845,9252.574275
20872.515362,1554.432478,-1302.362347,8364.327145
20872.515685,2886.803174,-536.266849,8290.306550
20872.516009,2812.782580,76.609550,7402.059420
20872.516332,2442.679609,689.485948,7772.162391
20872.516656,1110.308913,76.609550,8882.471304
20872.516979,-592.164754,-459.657299,9696.697840
20872.517303,-1850.514855,-1302.362347,11473.192101
20872.517626,-3034.844362,-2528.115143,12879.583391
20872.517950,-4811.338623,-2604.724693,13397.727550
20872.518273,-5181.441594,-2374.896044,14211.954086
20872.518597,-3478.967927,-1762.019645,13175.665768
20872.518920,-1480.411884,-1455.581446,11473.192101
20872.519244,0.000000,-612.876398,9844.739029
20872.519567,1110.308913,229.828649,7698.141797
20872.519891,1850.514855,536.266849,6291.750507
20872.520214,2368.659014,612.876398,5773.606348
20872.520537,2368.659014,536.266849,6439.791695
20872.520861,296.082377,0.000000,6809.894666
20872.521184,148.041188,-1915.238745,7772.162391
20872.521508,0.000000,-2374.896044,8586.388927
20872.521831,444.123565,-2145.067394,9252.574275
20872.522155,148.041188,-1072.533697,9252.574275
20872.522478,1184.329507,0.000000,8364.327145
20872.522802,2738.761985,612.876398,7031.956449
20872.523125,3997.112087,2298.286494,7031.956449
20872.523449,3478.967927,2528.115143,6735.874072
20872.523772,2072.576638,2221.676944,7105.977043
20872.524096,888.247130,1455.581446,8142.265362
20872.524419,-370.102971,919.314598,9992.780217
20872.524743,-2516.700203,0.000000,11695.253884
20872.525066,-4811.338623,-766.095498,11917.315666
20872.525390,-6069.688724,-1762.019645,13249.686362
20872.525713,-5477.523971,-1302.362347,13027.624579
20872.526037,-4515.256246,-995.924147,12139.377449
20872.526360,-3182.885551,-459.657299,10807.006753
20872.526684,-1406.391290,383.047749,8512.368333
20872.527007,518.144159,995.924147,7105.977043
20872.527331,1480.411884,995.924147,6143.709319
20872.527654,962.267725,1149.143247,6513.812290
20872.527978,592.164754,0.000000,6217.729913
20872.528301,222.061783,-842.705048,7031.956449
20872.528625,-148.041188,-1991.848295,8438.347739
20872.528948,-814.226536,-2298.286494,9252.574275
20872.529272,-592.164754,-2757.943793,9548.656652
20872.529595,0.000000,-2221.676944,8734.430116
20872.529919,1628.453072,-1685.410096,7698.141797
20872.530242,3108.864956,-842.705048,7550.100608
20872.530566,3552.988522,76.609550,7476.080014
20872.530889,3849.070898,919.314598,7624.121203
20872.531213,3330.926739,919.314598,7772.162391
20872.531536,1850.514855,689.485948,9400.615463
20872.531860,0.000000,0.000000,10881.027347
20872.532183,-1480.411884,-1762.019645,12065.356855
20872.532507,-3404.947333,-3140.991542,12879.583391
20872.532830,-5477.523971,-2834.553343,13471.748144
20872.533153,-5921.647536,-2911.162892,13545.768739
20872.533477,-4145.153275,-2834.553343,11843.295072
20872.533800,-2960.823768,-2374.896044,9770.718434
20872.534124,-1184.329507,-1378.971896,7994.224174
20872.534447,0.000000,0.000000,7254.018232
20872.534771,666.185348,76.609550,6291.750507
20872.535094,1036.288319,-306.438199,6439.791695
20872.535418,1184.329507,-306.438199,6809.894666
20872.535741,740.205942,-1685.410096,7698.141797
20872.536065,148.041188,-2451.505594,8882.471304
20872.536388,370.102971,-2757.943793,9696.697840
20872.536712,370.102971,-2374.896044,9844.739029
20872.537035,592.164754,-1455.581446,8956.491898
20872.537359,2220.617826,-842.705048,7698.141797
20872.537682,3404.947333,0.000000,7179.997637
20872.538005,3478.967927,1225.752797,7254.018232
20872.538329,2664.741391,2068.457845,7698.141797
20872.538652,740.205942,1915.238745,8808.450710
20872.538976,-518.144159,919.314598,9400.615463
20872.539299,-1480.411884,153.219100,10658.965565
20872.539622,-3849.070898,-1149.143247,12139.377449
20872.539946,-6735.874072,-1608.800546,13027.624579
20872.540269,-7328.038826,-1915.238745,12953.603985
20872.540593,-5699.585753,-2145.067394,12361.439231
20872.540916,-4663.297435,-1378.971896,10510.924376
20872.541239,-3108.864956,-689.485948,8438.347739
20872.541563,-814.226536,612.876398,6957.935855
20872.541886,740.205942,919.314598,5773.606348
20872.542209,1924.535449,1608.800546,6439.791695
20872.542533,1554.432478,1685.410096,6143.709319
20872.542856,1628.453072,842.705048,6513.812290
20872.543180,1850.514855,0.000000,8068.244768
20872.543503,1776.494261,-995.924147,9252.574275
20872.543826,888.247130,-842.705048,9770.718434
20872.544150,2072.576638,-1378.971896,9770.718434
20872.544473,2664.741391,-536.266849,8290.306550
20872.544797,3701.029710,536.266849,7846.182985
20872.545120,3997.112087,1072.533697,7179.997637
20872.545443,3330.926739,1532.190996,7476.080014
20872.545767,2072.576638,1608.800546,8290.306550
20872.546090,518.144159,1378.971896,8586.388927
20872.546414,-1258.350101,306.438199,9770.718434
20872.546737,-3404.947333,-766.095498,11325.150913
20872.547060,-4515.256246,-2374.896044,13101.645173
20872.547384,-5847.626942,-2145.067394,13545.768739
20872.547707,-5995.668130,-2298.286494,13027.624579
20872.548030,-5033.400406,-1762.019645,12065.356855
20872.548354,-2738.761985,-1225.752797,10362.883188
20872.548677,-666.185348,-1225.752797,8068.244768
20872.549001,222.061783,-459.657299,7105.977043
20872.549324,444.123565,-689.485948,6143.709319
20872.549647,814.226536,-153.219100,6957.935855
20872.549971,1702.473667,-1072.533697,6661.853478
20872.550294,1110.308913,-1838.629195,7254.018232
20872.550618,814.226536,-2604.724693,8290.306550
20872.550941,222.061783,-2068.457845,9030.512492
20872.551264,1776.494261,-2451.505594,9622.677246
20872.551588,2664.741391,-995.924147,9474.636058
20872.551911,3108.864956,-536.266849,8290.306550
20872.552234,3552.988522,-459.657299,7105.977043
20872.552558,3256.906145,0.000000,7402.059420
20872.552881,2146.597232,383.047749,8068.244768
20872.553205,518.144159,76.609550,8216.285956
20872.553528,-1998.556043,-995.924147,8956.491898
20872.553851,-3775.050304,-1608.800546,10436.903782
20872.554175,-4811.338623,-2834.553343,12213.398043
20872.554498,-6957.935855,-3064.381992,13471.748144
20872.554822,-7031.956449,-2911.162892,13545.768739
20872.555145,-5255.462188,-2374.896044,12213.398043
20872.555468,-2738.761985,-1532.190996,10658.965565
20872.555792,-1036.288319,-1072.533697,9252.574275
20872.556115,74.020594,229.828649,7846.182985
20872.556438,1628.453072,689.485948,7105.977043
20872.556762,2368.659014,229.828649,6661.853478
20872.557085,2368.659014,0.000000,6883.915261
20872.557409,1776.494261,-689.485948,7624.121203
20872.557732,1184.329507,-1455.581446,8290.306550
20872.558055,1332.370696,-1378.971896,8956.491898
20872.558379,1924.535449,-1991.848295,9844.739029
20872.558702,1332.370696,-1149.143247,9400.615463
20872.559026,2072.576638,-536.266849,8882.471304
20872.559349,2886.803174,383.047749,7772.162391
20872.559672,2590.720797,1302.362347,6883.915261
20872.559996,1850.514855,1762.019645,7105.977043
20872.560319,1332.370696,2221.676944,7179.997637
20872.560642,-370.102971,1072.533697,7846.182985
20872.560966,-2368.659014,612.876398,9918.759623
20872.561289,-4441.235652,-536.266849,11177.109724
20872.561613,-5773.606348,-766.095498,12361.439231
20872.561936,-6069.688724,-1378.971896,13397.727550
20872.562259,-5477.523971,-612.876398,13027.624579
20872.562583,-4367.215058,536.266849,12287.418637
20872.562906,-1998.556043,1455.581446,10955.047942
20872.563230,148.041188,2451.505594,8956.491898
20872.563553,1554.432478,2451.505594,7476.080014
20872.563876,2072.576638,3064.381992,6809.894666
20872.564200,1850.514855,2834.553343,6365.771101
20872.564523,1406.391290,1685.410096,6735.874072
20872.564846,1258.350101,919.314598,7698.141797
20872.565170,222.061783,0.000000,7772.162391
20872.565493,-1332.370696,-1838.629195,8290.306550
20872.565817,-888.247130,-1915.238745,8142.265362
20872.566140,148.041188,-1378.971896,8512.368333
20872.566463,1110.308913,-153.219100,7846.182985
20872.566787,2368.659014,689.485948,7105.977043
20872.567110,3108.864956,1455.581446,6809.894666
20872.567434,2886.803174,1991.848295,6809.894666
20872.567757,2368.659014,1991.848295,7105.977043
20872.568080,1258.350101,1072.533697,9178.553681
20872.568404,-740.205942,-306.438199,10214.842000
20872.568727,-2664.741391,-1378.971896,12361.439231
20872.569050,-4737.318029,-2451.505594,13989.892304
20872.569374,-6291.750507,-3140.991542,14211.954086
20872.569697,-6365.771101,-3753.867940,13693.809927
20872.570021,-3552.988522,-3600.648841,11695.253884
20872.570344,-1628.453072,-2834.553343,10288.862594
20872.570667,-444.123565,-2221.676944,9030.512492
20872.570991,518.144159,-1378.971896,7254.018232
20872.571314,1924.535449,-1378.971896,6661.853478
20872.571638,2294.638420,-1149.143247,7402.059420
20872.571961,1702.473667,-1762.019645,8216.285956
20872.572284,1776.494261,-2451.505594,9326.594869
20872.572608,1998.556043,-3907.087040,9474.636058
20872.572931,1554.432478,-4136.915689,9770.718434
20872.573254,1406.391290,-3294.210641,9844.739029
20872.573578,2294.638420,-2911.162892,9252.574275
20872.573901,3034.844362,-2068.457845,8068.244768
20872.574225,4293.194464,-1149.143247,7550.100608
20872.574548,3775.050304,766.095498,7328.038826
20872.574871,3034.844362,1225.752797,7179.997637
20872.575195,1924.535449,842.705048,8142.265362
20872.575518,1036.288319,536.266849,9548.656652
20872.575842,-1184.329507,-229.828649,10732.986159
20872.576165,-3701.029710,-1225.752797,11695.253884
20872.576488,-5477.523971,-2221.676944,12805.562797
20872.576812,-5921.647536,-1225.752797,12435.459826
20872.577135,-5255.462188,-536.266849,11991.336260
20872.577458,-4367.215058,-1455.581446,9696.697840
20872.577782,-3034.844362,-306.438199,8586.388927
20872.578105,-1924.535449,153.219100,7105.977043
20872.578429,-888.247130,842.705048,6587.832884
20872.578752,-1110.308913,919.314598,6439.791695
20872.579075,-592.164754,919.314598,6661.853478
20872.579399,0.000000,0.000000,7846.182985
20872.579722,0.000000,-229.828649,8882.471304
20872.580046,-222.061783,-536.266849,9252.574275
20872.580369,0.000000,-689.485948,9474.636058
20872.580692,1110.308913,-306.438199,8956.491898
20872.581016,2072.576638,459.657299,8216.285956
20872.581339,3330.926739,1378.971896,7476.080014
20872.581662,3627.009116,1685.410096,7031.956449
20872.581986,2812.782580,1991.848295,7105.977043
20872.582309,2442.679609,2145.067394,7846.182985
20872.582633,1776.494261,2221.676944,9252.574275
20872.582956,-592.164754,1455.581446,9918.759623
20872.583279,-1850.514855,306.438199,11473.192101
20872.583603,-2516.700203,229.828649,12213.398043
20872.583926,-4293.194464,-459.657299,12731.542202
20872.584250,-4515.256246,0.000000,12509.480420
20872.584573,-3849.070898,-229.828649,10955.047942
20872.584896,-1406.391290,-612.876398,9252.574275
20872.585220,-1184.329507,-536.266849,7994.224174
20872.585543,-888.247130,229.828649,7105.977043
20872.585867,-666.185348,0.000000,6735.874072
20872.586190,-592.164754,-612.876398,6513.812290
20872.586513,-444.123565,-1762.019645,6883.915261
20872.586837,-296.082377,-2681.334243,8216.285956
20872.587160,-444.123565,-3064.381992,8734.430116
20872.587483,518.144159,-3064.381992,9696.697840
20872.587807,1776.494261,-2374.896044,9770.718434
20872.588130,2664.741391,-1608.800546,9252.574275
20872.588454,4145.153275,-766.095498,8734.430116
20872.588777,4367.215058,-919.314598,7328.038826
20872.589100,4737.318029,229.828649,7698.141797
20872.589424,3552.988522,766.095498,8808.450710
20872.589747,1850.514855,383.047749,9252.574275
20872.590071,666.185348,-689.485948,9844.739029
20872.590394,-1036.288319,-1991.848295,10881.027347
20872.590717,-3256.906145,-2757.943793,12657.521608
20872.591041,-5477.523971,-1915.238745,13323.706956
20872.591364,-5403.503377,-1991.848295,13397.727550
20872.591687,-4737.318029,-2221.676944,12435.459826
20872.592011,-3404.947333,-1225.752797,10362.883188
20872.592334,-2886.803174,-689.485948,8438.347739
20872.592658,-1924.535449,-766.095498,6735.874072
20872.592981,-962.267725,0.000000,6217.729913
20872.593304,-740.205942,383.047749,6069.688724
20872.593628,-1036.288319,-612.876398,6291.750507
20872.593951,-1480.411884,-1225.752797,6587.832884
20872.594275,-518.144159,-2757.943793,7772.162391
20872.594598,-444.123565,-2451.505594,9252.574275
20872.594921,74.020594,-1838.629195,9696.697840
20872.595245,1332.370696,-1685.410096,9474.636058
20872.595568,3997.112087,0.000000,8734.430116
20872.595891,4959.379811,919.314598,7624.121203
20872.596215,5107.421000,1685.410096,8068.244768
20872.596538,4219.173869,1685.410096,8216.285956
20872.596862,3701.029710,2145.067394,8290.306550
20872.597185,2368.659014,1302.362347,9622.677246
20872.597508,222.061783,0.000000,10584.944971
20872.597832,-2886.803174,-766.095498,11547.212695
20872.598155,-3997.112087,-1991.848295,13323.706956
20872.598479,-5255.462188,-1838.629195,13397.727550
20872.598802,-5329.482782,-995.924147,12805.562797
20872.599125,-4663.297435,-919.314598,11473.192101
20872.599449,-2590.720797,-612.876398,9252.574275
20872.599772,-888.247130,383.047749,8216.285956
20872.600095,74.020594,612.876398,7179.997637
20872.600419,370.102971,1149.143247,6217.729913
20872.600742,740.205942,766.095498,5921.647536
20872.601066,1036.288319,229.828649,6513.812290
20872.601389,444.123565,-383.047749,7846.182985
20872.601712,0.000000,-1225.752797,8216.285956
20872.602036,0.000000,-1532.190996,8956.491898
20872.602359,518.144159,-842.705048,9104.533087
20872.602683,1332.370696,-536.266849,7994.224174
20872.603006,2812.782580,0.000000,8068.244768
20872.603329,3330.926739,919.314598,7105.977043
20872.603653,3923.091493,1838.629195,7402.059420
20872.603976,3182.885551,1608.800546,7624.121203
20872.604299,1850.514855,1149.143247,8290.306550
20872.604623,0.000000,689.485948,9696.697840
20872.604946,-1776.494261,-536.266849,11103.089130
20872.605270,-4071.132681,-1991.848295,11917.315666
20872.605593,-5699.585753,-2604.724693,13323.706956
20872.605916,-6439.791695,-2528.115143,13545.768739
20872.606240,-5625.565159,-2681.334243,12879.583391
20872.606563,-4071.132681,-1915.238745,10955.047942
20872.606887,-2146.597232,-1149.143247,9474.636058
20872.607210,-296.082377,-306.438199,7920.203579
20872.607533,592.164754,153.219100,6809.894666
20872.607857,1406.391290,995.924147,6809.894666
20872.608180,2146.597232,153.219100,7179.997637
20872.608503,1036.288319,-612.876398,7550.100608
20872.608827,888.247130,-1762.019645,8216.285956
20872.609150,592.164754,-2298.286494,8808.450710
20872.609474,444.123565,-2757.943793,9104.533087
20872.609797,222.061783,-1915.238745,8586.388927
20872.610120,1258.350101,-1378.971896,7772.162391
20872.610444,2368.659014,-689.485948,7402.059420
20872.610767,3034.844362,0.000000,6809.894666
20872.611091,2960.823768,536.266849,7105.977043
20872.611414,1628.453072,766.095498,7698.141797
20872.611737,740.205942,766.095498,9030.512492
20872.612061,0.000000,-306.438199,10066.800811
20872.612384,-1850.514855,-842.705048,11547.212695
20872.612707,-3997.112087,-2221.676944,12805.562797
20872.613031,-4441.235652,-2374.896044,14063.912898
20872.613354,-3701.029710,-2145.067394,13545.768739
20872.613678,-2960.823768,-1685.410096,12435.459826
20872.614001,-1628.453072,-919.314598,10436.903782
20872.614324,-592.164754,-383.047749,8364.327145
20872.614648,666.185348,76.609550,7031.956449
20872.614971,1850.514855,995.924147,7179.997637
20872.615295,1554.432478,1072.533697,7698.141797
20872.615618,740.205942,0.000000,7179.997637
20872.615941,666.185348,-842.705048,7624.121203
20872.616265,592.164754,-1455.581446,8364.327145
20872.616588,-296.082377,-1991.848295,9104.533087
20872.616911,0.000000,-1455.581446,9030.512492
20872.617235,444.123565,-612.876398,8364.327145
20872.617558,888.247130,-689.485948,7179.997637
20872.617882,1332.370696,383.047749,6439.791695
20872.618205,1776.494261,842.705048,6365.771101
20872.618528,1480.411884,1302.362347,6809.894666
20872.618852,814.226536,1532.190996,7105.977043
20872.619175,0.000000,919.314598,8882.471304
20872.619499,-1554.432478,383.047749,11029.068536
20872.619822,-3552.988522,0.000000,12213.398043
20872.620145,-4515.256246,-1532.190996,13249.686362
20872.620469,-4737.318029,-1915.238745,13471.748144
20872.620792,-4293.194464,-1225.752797,13397.727550
20872.621115,-2590.720797,-536.266849,11843.295072
20872.621439,-740.205942,-383.047749,9400.615463
20872.621762,0.000000,-612.876398,7550.100608
20872.622086,370.102971,919.314598,6661.853478
20872.622409,1702.473667,919.314598,6809.894666
20872.622732,1998.556043,229.828649,6883.915261
20872.623056,1332.370696,-306.438199,7328.038826
20872.623379,814.226536,-1302.362347,7920.203579
20872.623703,740.205942,-2145.067394,9030.512492
20872.624026,1332.370696,-1685.410096,9548.656652
20872.624349,2072.576638,-1225.752797,9696.697840
20872.624673,1702.473667,-1149.143247,8956.491898
20872.624996,2146.597232,-689.485948,7698.141797
20872.625320,3330.926739,0.000000,7254.018232
20872.625643,3034.844362,306.438199,7402.059420
20872.625966,592.164754,0.000000,7402.059420
20872.626290,-444.123565,-919.314598,7772.162391
20872.626613,-1332.370696,-842.705048,9400.615463
20872.626936,-3256.906145,-1915.238745,11177.109724
20872.627260,-5699.585753,-2068.457845,12583.501014
20872.627583,-5847.626942,-2298.286494,13249.686362
20872.627907,-5107.421000,-2528.115143,13175.665768
20872.628230,-3182.885551,-1915.238745,12435.459826
20872.628553,-1554.432478,-689.485948,10881.027347
20872.628877,0.000000,-306.438199,9474.636058
20872.629200,1406.391290,459.657299,7179.997637
20872.629524,2146.597232,919.314598,6735.874072
20872.629847,2590.720797,459.657299,6883.915261
20872.630170,1776.494261,0.000000,7328.038826
20872.630494,1110.308913,-766.095498,8290.306550
20872.630817,666.185348,-1225.752797,8586.388927
20872.631140,592.164754,-2298.286494,9104.533087
20872.631464,-296.082377,-1685.410096,10066.800811
20872.631787,0.000000,-689.485948,9326.594869
20872.632111,1554.432478,-536.266849,7994.224174
20872.632434,2220.617826,0.000000,7105.977043
20872.632757,2294.638420,1225.752797,6809.894666
20872.633081,1110.308913,1455.581446,6661.853478
20872.633404,148.041188,919.314598,7105.977043
20872.633728,-1184.329507,612.876398,8068.244768
20872.634051,-3627.009116,-306.438199,9770.718434
20872.634374,-4811.338623,-2451.505594,11325.150913
20872.634698,-6291.750507,-3140.991542,12213.398043
20872.635021,-6217.729913,-2374.896044,13249.686362
20872.635344,-5033.400406,-1302.362347,13619.789333
20872.635668,-3478.967927,-919.314598,11917.315666
20872.635991,-296.082377,-229.828649,9326.594869
20872.636315,1924.535449,919.314598,8364.327145
20872.636638,2220.617826,1685.410096,7254.018232
20872.636961,2960.823768,1762.019645,7179.997637
20872.637285,2738.761985,1378.971896,7254.018232
20872.637608,1924.535449,0.000000,7402.059420
20872.637932,0.000000,-1072.533697,8216.285956
20872.638255,-1184.329507,-2374.896044,8808.450710
20872.638578,-1036.288319,-2604.724693,9992.780217
20872.638902,-518.144159,-2681.334243,10140.821405
20872.639225,-296.082377,-1915.238745,9030.512492
20872.639549,518.144159,-1149.143247,7994.224174
20872.639872,1628.453072,-153.219100,6957.935855
20872.640196,2664.741391,1302.362347,6883.915261
20872.640519,2294.638420,1838.629195,7179.997637
20872.640842,666.185348,1532.190996,7698.141797
20872.641166,-592.164754,919.314598,8586.388927
20872.641489,-1406.391290,0.000000,10140.821405
20872.641813,-2738.761985,-842.705048,12065.356855
20872.642136,-4219.173869,-1225.752797,12805.562797
20872.642460,-4145.153275,-1149.143247,12805.562797
20872.642783,-2072.576638,-459.657299,12139.377449
20872.643106,-666.185348,306.438199,11029.068536
20872.643430,888.247130,1072.533697,8882.471304
20872.643753,1850.514855,1685.410096,7772.162391
20872.644077,2442.679609,1991.848295,6883.915261
20872.644400,2590.720797,1685.410096,6661.853478
20872.644723,1776.494261,842.705048,7105.977043
20872.645047,296.082377,-229.828649,8068.244768
20872.645370,-740.205942,-1455.581446,7698.141797
20872.645694,-1110.308913,-2528.115143,8660.409521
20872.646017,-1776.494261,-2834.553343,9622.677246
20872.646341,-2220.617826,-2528.115143,9104.533087
20872.646664,-1184.329507,-2221.676944,8882.471304
20872.646987,-148.041188,-1762.019645,7920.203579
20872.647311,666.185348,-612.876398,7328.038826
20872.647634,1258.350101,-306.438199,7550.100608
20872.647958,370.102971,612.876398,7846.182985
20872.648281,0.000000,153.219100,9252.574275
20872.648605,-148.041188,-153.219100,10510.924376
20872.648928,-1480.411884,-842.705048,11917.315666
20872.649251,-3182.885551,-1915.238745,13175.665768
20872.649575,-3997.112087,-1838.629195,13027.624579
20872.649898,-3330.926739,-1685.410096,12287.418637
20872.650222,-2812.782580,-995.924147,10658.965565
20872.650545,-1184.329507,-842.705048,8734.430116
20872.650868,-148.041188,-612.876398,8068.244768
20872.651192,444.123565,76.609550,7031.956449
20872.651515,444.123565,536.266849,6809.894666
20872.651839,296.082377,153.219100,7105.977043
20872.652162,0.000000,-1225.752797,6957.935855
20872.652486,518.144159,-1838.629195,7624.121203
20872.652809,518.144159,-3064.381992,9030.512492
20872.653132,-370.102971,-3064.381992,9918.759623
20872.653456,0.000000,-2451.505594,9474.636058
20872.653779,1554.432478,-1915.238745,9178.553681
20872.654103,2294.638420,-1225.752797,8660.409521
20872.654426,2442.679609,0.000000,7846.182985
20872.654750,3849.070898,229.828649,7994.224174
20872.655073,3701.029710,153.219100,8216.285956
20872.655396,1850.514855,536.266849,8586.388927
20872.655720,296.082377,383.047749,9992.780217
20872.656043,-1184.329507,0.000000,11177.109724
20872.656367,-2738.761985,-1225.752797,12139.377449
20872.656690,-4071.132681,-1302.362347,13027.624579
20872.657013,-4293.194464,-1225.752797,13027.624579
20872.657337,-4145.153275,-229.828649,12065.356855
20872.657660,-2812.782580,-842.705048,10066.800811
20872.657984,-1332.370696,0.000000,8660.409521
20872.658307,-962.267725,612.876398,7402.059420
20872.658631,-296.082377,1762.019645,6883.915261
20872.658954,814.226536,1455.581446,5995.668130
20872.659277,518.144159,459.657299,5847.626942
20872.659601,444.123565,306.438199,7476.080014
20872.659924,74.020594,-229.828649,7846.182985
20872.660248,296.082377,-995.924147,9326.594869
20872.660571,370.102971,-842.705048,9770.718434
20872.660895,740.205942,-459.657299,9400.615463
20872.661218,1628.453072,-229.828649,8216.285956
20872.661541,2442.679609,229.828649,7105.977043
20872.661865,3923.091493,1225.752797,7254.018232
20872.662188,3701.029710,2221.676944,7698.141797
20872.662512,2220.617826,2221.676944,7920.203579
20872.662835,1184.329507,1302.362347,8290.306550
20872.663158,-666.185348,612.876398,9474.636058
20872.663482,-2368.659014,-153.219100,11177.109724
20872.663805,-3552.988522,-689.485948,12435.459826
20872.664129,-3997.112087,-1532.190996,12879.583391
20872.664452,-3849.070898,-995.924147,13101.645173
20872.664776,-3627.009116,-1302.362347,11547.212695
20872.665099,-2664.741391,-612.876398,9918.759623
20872.665422,-1332.370696,-842.705048,8734.430116
20872.665746,-222.061783,-459.657299,7624.121203
20872.666069,0.000000,-229.828649,7031.956449
20872.666393,-148.041188,-459.657299,6661.853478
20872.666716,-518.144159,-766.095498,6957.935855
20872.667040,-296.082377,-2451.505594,8142.265362
20872.667363,-370.102971,-2757.943793,8808.450710
20872.667686,0.000000,-2987.772442,9326.594869
20872.668010,296.082377,-2451.505594,9474.636058
20872.668333,1776.494261,-2145.067394,9474.636058
20872.668657,3108.864956,-842.705048,8364.327145
20872.668980,3256.906145,0.000000,7698.141797
20872.669303,3701.029710,76.609550,7772.162391
20872.669627,3404.947333,459.657299,7402.059420
20872.669950,2368.659014,229.828649,8512.368333
20872.670274,222.061783,-76.609550,10140.821405
20872.670597,-1850.514855,-1532.190996,11325.150913
20872.670921,-3404.947333,-2451.505594,11843.295072
20872.671244,-3552.988522,-2451.505594,12065.356855
20872.671567,-4959.379811,-2451.505594,12583.501014
20872.671891,-4885.359217,-1378.971896,11843.295072
20872.672214,-2812.782580,-1149.143247,10807.006753
20872.672538,-370.102971,-689.485948,9030.512492
20872.672861,444.123565,76.609550,7402.059420
20872.673185,444.123565,306.438199,6809.894666
20872.673508,888.247130,0.000000,6661.853478
20872.673831,1036.288319,-383.047749,6439.791695
20872.674155,518.144159,-306.438199,7698.141797
20872.674478,-222.061783,-1915.238745,8364.327145
20872.674802,-740.205942,-2374.896044,8660.409521
20872.675125,-444.123565,-2451.505594,9326.594869
20872.675449,370.102971,-1378.971896,9844.739029
20872.675772,666.185348,-229.828649,9696.697840
20872.676095,2072.576638,1302.362347,8216.285956
20872.676419,3330.926739,1072.533697,7179.997637
20872.676742,3182.885551,1532.190996,7031.956449
20872.677066,1850.514855,2145.067394,7994.224174
20872.677389,148.041188,1838.629195,9400.615463
20872.677712,-1184.329507,689.485948,10214.842000
20872.678036,-3034.844362,-76.609550,10955.047942
20872.678359,-4737.318029,-919.314598,12287.418637
20872.678683,-6069.688724,-1378.971896,12287.418637
20872.679006,-4959.379811,-1302.362347,12805.562797
20872.679330,-3775.050304,-536.266849,11325.150913
20872.679653,-1776.494261,0.000000,9030.512492
20872.679976,-296.082377,1149.143247,7624.121203
20872.680300,888.247130,2145.067394,7105.977043
20872.680623,2516.700203,1991.848295,6513.812290
20872.680947,2812.782580,1685.410096,6587.832884
20872.681270,1924.535449,1225.752797,6661.853478
20872.681594,1110.308913,153.219100,7328.038826
20872.681917,1406.391290,-1225.752797,8586.388927
20872.682240,518.144159,-1915.238745,9326.594869
20872.682564,-592.164754,-1608.800546,9474.636058
20872.682887,-222.061783,-1685.410096,9104.533087
20872.683211,1036.288319,-2068.457845,7846.182985
20872.683534,1406.391290,-459.657299,7476.080014
20872.683857,2072.576638,0.000000,7105.977043
20872.684181,1776.494261,229.828649,7624.121203
20872.684504,370.102971,229.828649,8808.450710
20872.684828,-444.123565,-306.438199,9770.718434
20872.685151,-1850.514855,-1149.143247,10807.006753
20872.685475,-3404.947333,-2451.505594,11843.295072
20872.685798,-4145.153275,-2451.505594,13323.706956
20872.686121,-4293.194464,-3064.381992,14137.933492
20872.686445,-3404.947333,-2834.553343,12953.603985
20872.686768,-2738.761985,-2068.457845,11177.109724
20872.687092,-666.185348,-1532.190996,9622.677246
20872.687415,1110.308913,-612.876398,8586.388927
20872.687739,1850.514855,0.000000,6883.915261
20872.688062,2146.597232,76.609550,6661.853478
20872.688385,2368.659014,536.266849,6661.853478
20872.688709,2146.597232,0.000000,7179.997637
20872.689032,1480.411884,-1685.410096,7846.182985
20872.689356,740.205942,-2451.505594,9030.512492
20872.689679,-370.102971,-2221.676944,9696.697840
20872.690002,-592.164754,-1991.848295,9178.553681
20872.690326,-148.041188,-2068.457845,8586.388927
20872.690649,148.041188,-1378.971896,7550.100608
20872.690973,518.144159,-229.828649,7105.977043
20872.691296,888.247130,0.000000,7105.977043
20872.691620,444.123565,459.657299,7994.224174
20872.691943,-888.247130,612.876398,9252.574275
20872.692266,-1628.453072,76.609550,9696.697840
20872.692590,-2368.659014,-995.924147,11325.150913
20872.692913,-3478.967927,-1149.143247,12657.521608
20872.693237,-4589.276840,-842.705048,13249.686362
20872.693560,-4219.173869,-842.705048,13101.645173
20872.693884,-2886.803174,0.000000,11843.295072
20872.694207,-962.267725,383.047749,10288.862594
20872.694530,-74.020594,1455.581446,8882.471304
20872.694854,666.185348,1455.581446,6957.935855
20872.695177,2072.576638,1762.019645,6587.832884
20872.695501,1850.514855,2068.457845,6439.791695
20872.695824,1332.370696,1302.362347,6809.894666
20872.696147,444.123565,0.000000,6809.894666
20872.696471,370.102971,-766.095498,7624.121203
20872.696794,148.041188,-842.705048,8808.450710
20872.697118,0.000000,-306.438199,9326.594869
20872.697441,0.000000,-306.438199,9030.512492
20872.697765,666.185348,153.219100,8068.244768
20872.698088,1850.514855,76.609550,7328.038826
20872.698411,2072.576638,536.266849,7031.956449
20872.698735,1332.370696,995.924147,7254.018232
20872.699058,814.226536,1149.143247,8068.244768
20872.699382,0.000000,689.485948,9178.553681
20872.699705,-1332.370696,-536.266849,10140.821405
20872.700029,-2812.782580,-1225.752797,12065.356855
20872.700352,-4663.297435,-1685.410096,12805.562797
20872.700675,-4071.132681,-1838.629195,13619.789333
20872.700999,-3108.864956,-1532.190996,13397.727550
20872.701322,-1998.556043,-1072.533697,11917.315666
20872.701646,-1110.308913,-612.876398,10066.800811
20872.701969,444.123565,0.000000,7920.203579
20872.702293,1998.556043,76.609550,7328.038826
20872.702616,1924.535449,0.000000,7105.977043
20872.702939,1036.288319,-306.438199,7105.977043
20872.703263,740.205942,-1302.362347,7476.080014
20872.703586,518.144159,-1991.848295,8068.244768
20872.703910,0.000000,-2451.505594,8808.450710
20872.704233,-222.061783,-3064.381992,9326.594869
20872.704556,0.000000,-2911.162892,9770.718434
20872.704880,444.123565,-1378.971896,8586.388927
20872.705203,1850.514855,-689.485948,8364.327145
20872.705527,2590.720797,-153.219100,7476.080014
20872.705850,1628.453072,229.828649,6957.935855
20872.706174,1110.308913,306.438199,6883.915261
20872.706497,296.082377,0.000000,7476.080014
20872.706820,-1258.350101,153.219100,8956.491898
20872.707144,-2368.659014,-612.876398,10732.986159
20872.707467,-4367.215058,-1915.238745,11621.233289
20872.707791,-4885.359217,-2298.286494,12435.459826
20872.708114,-5107.421000,-1762.019645,13323.706956
20872.708438,-3701.029710,-842.705048,12879.583391
20872.708761,-1702.473667,-842.705048,10584.944971
20872.709084,74.020594,459.657299,9918.759623
20872.709408,666.185348,612.876398,7920.203579
20872.709731,1036.288319,1149.143247,6587.832884
20872.710055,1850.514855,1072.533697,7105.977043
20872.710378,1924.535449,459.657299,7624.121203
20872.710701,888.247130,-383.047749,7772.162391
20872.711025,0.000000,-1991.848295,8290.306550
20872.711348,0.000000,-2451.505594,9030.512492
20872.711672,222.061783,-1455.581446,9252.574275
20872.711995,444.123565,-1072.533697,8808.450710
20872.712319,1110.308913,-1225.752797,8216.285956
20872.712642,3034.844362,536.266849,7920.203579
20872.712965,4515.256246,1685.410096,7105.977043
20872.713289,3034.844362,1608.800546,6809.894666
20872.713612,1480.411884,536.266849,7105.977043
20872.713936,814.226536,919.314598,7920.203579
20872.714259,370.102971,536.266849,9918.759623
20872.714583,-1850.514855,-995.924147,11325.150913
20872.714906,-4293.194464,-1608.800546,11843.295072
20872.715229,-5033.400406,-1991.848295,12805.562797
20872.715553,-4515.256246,-1991.848295,13027.624579
20872.715876,-2368.659014,-2374.896044,11177.109724
20872.716200,-1406.391290,-536.266849,10140.821405
20872.716523,0.000000,-689.485948,8586.388927
20872.716846,1110.308913,306.438199,7846.182985
20872.717170,2146.597232,459.657299,7179.997637
20872.717493,1702.473667,0.000000,7254.018232
20872.717817,888.247130,-919.314598,7994.224174
20872.718140,148.041188,-1915.238745,8290.306550
20872.718464,0.000000,-3140.991542,9400.615463
20872.718787,-518.144159,-3983.696590,10658.965565
20872.719110,-1184.329507,-3064.381992,9474.636058
20872.719434,-962.267725,-2145.067394,9104.533087
20872.719757,444.123565,-1685.410096,8364.327145
20872.720081,1924.535449,-612.876398,7920.203579
20872.720404,2294.638420,612.876398,7402.059420
20872.720728,2146.597232,1149.143247,7550.100608
20872.721051,962.267725,842.705048,8068.244768
20872.721374,0.000000,995.924147,8882.471304
20872.721698,-1554.432478,536.266849,10807.006753
20872.722021,-3478.967927,-919.314598,11843.295072
20872.722345,-5255.462188,-1532.190996,12213.398043
20872.722668,-5921.647536,-1225.752797,12805.562797
20872.722991,-5477.523971,-766.095498,12361.439231
20872.723315,-4219.173869,-536.266849,10732.986159
20872.723638,-2368.659014,229.828649,8808.450710
20872.723962,-888.247130,1072.533697,7254.018232
20872.724285,0.000000,1915.238745,6069.688724
20872.724609,518.144159,2374.896044,6365.771101
20872.724932,1036.288319,2145.067394,6661.853478
20872.725255,1036.288319,1225.752797,6735.874072
20872.725579,666.185348,-383.047749,7772.162391
20872.725902,0.000000,-689.485948,8512.368333
20872.726226,-444.123565,-536.266849,9252.574275
20872.726549,-222.061783,-766.095498,9918.759623
20872.726873,222.061783,-689.485948,9252.574275
20872.727196,1258.350101,-459.657299,7920.203579
20872.727519,2664.741391,383.047749,7772.162391
20872.727843,2738.761985,1685.410096,7772.162391
20872.728166,2146.597232,2757.943793,7179.997637
20872.728490,2368.659014,1378.971896,8290.306550
20872.728813,1332.370696,1608.800546,9326.594869
20872.729136,0.000000,766.095498,10807.006753
20872.729460,-1554.432478,76.609550,11991.336260
20872.729783,-2664.741391,-612.876398,13027.624579
20872.730107,-2812.782580,-766.095498,12213.398043
20872.730430,-1406.391290,-1685.410096,11029.068536
20872.730754,-814.226536,-1149.143247,9622.677246
20872.731077,-222.061783,-229.828649,8808.450710
20872.731400,740.205942,-459.657299,7846.182985
20872.731724,1554.432478,-612.876398,6661.853478
20872.732047,1776.494261,-919.314598,6883.915261
20872.732371,740.205942,-1685.410096,7031.956449
20872.732694,370.102971,-1608.800546,7698.141797
20872.733018,1036.288319,-2757.943793,9474.636058
20872.733341,1036.288319,-3677.258390,9696.697840
20872.733664,-222.061783,-3524.039291,10436.903782
20872.733988,-592.164754,-2834.553343,9844.739029
20872.734311,666.185348,-2604.724693,9104.533087
20872.734635,1628.453072,-2528.115143,8068.244768
20872.734958,1628.453072,-1915.238745,7550.100608
20872.735282,592.164754,-919.314598,8216.285956
20872.735605,-518.144159,-1378.971896,8290.306550
20872.735928,-1332.370696,-1608.800546,9474.636058
20872.736252,-2294.638420,-1838.629195,10955.047942
20872.736575,-3775.050304,-2834.553343,12213.398043
20872.736899,-4515.256246,-3140.991542,12435.459826
20872.737222,-3923.091493,-2451.505594,13323.706956
20872.737545,-3256.906145,-1838.629195,12583.501014
20872.737869,-2146.597232,-1225.752797,11399.171507
20872.738192,-740.205942,-689.485948,9474.636058
20872.738516,370.102971,-459.657299,7402.059420
20872.738839,1036.288319,76.609550,6513.812290
20872.739163,888.247130,689.485948,6809.894666
20872.739486,592.164754,0.000000,6439.791695
20872.739810,148.041188,-383.047749,6217.729913
20872.740133,-222.061783,-766.095498,7179.997637
20872.740457,-1036.288319,-1532.190996,8068.244768
20872.740780,-1554.432478,-1378.971896,8808.450710
20872.741104,-740.205942,-1302.362347,8956.491898
20872.741427,0.000000,-383.047749,8364.327145
20872.741751,1258.350101,1149.143247,7402.059420
20872.742074,2072.576638,1455.581446,7179.997637
20872.742398,2886.803174,1532.190996,7402.059420
20872.742721,1924.535449,1838.629195,7920.203579
20872.743045,518.144159,2068.457845,9178.553681
20872.743368,-222.061783,1532.190996,10288.862594
20872.743692,-1184.329507,383.047749,11843.295072
20872.744015,-2442.679609,-306.438199,12879.583391
20872.744339,-3404.947333,383.047749,12805.562797
20872.744662,-3330.926739,-383.047749,13545.768739
20872.744986,-1406.391290,919.314598,12435.459826
20872.745309,222.061783,1532.190996,11029.068536
20872.745633,888.247130,1991.848295,9030.512492
20872.745956,1036.288319,2374.896044,7254.018232
20872.746280,1480.411884,2451.505594,5551.544565
20872.746603,1998.556043,1838.629195,5773.606348
20872.746927,1036.288319,1378.971896,6291.750507
20872.747250,-740.205942,76.609550,6291.750507
20872.747573,-1258.350101,-1378.971896,7179.997637
20872.747897,-1332.370696,-2145.067394,7476.080014
20872.748220,-1184.329507,-1915.238745,9104.533087
20872.748544,-962.267725,-1302.362347,9400.615463
20872.748867,592.164754,-689.485948,7920.203579
20872.749191,1998.556043,-383.047749,7328.038826
20872.749514,3034.844362,612.876398,7179.997637
20872.749838,2812.782580,919.314598,7846.182985
20872.750161,1850.514855,919.314598,8882.471304
20872.750485,740.205942,459.657299,9844.739029
20872.750808,-740.205942,-612.876398,11029.068536
20872.751132,-2442.679609,-1685.410096,12287.418637
20872.751455,-4219.173869,-2757.943793,13175.665768
20872.751779,-4959.379811,-2987.772442,13619.789333
20872.752102,-4885.359217,-3447.429741,13767.830521
20872.752426,-3775.050304,-2681.334243,12657.521608
20872.752749,-2072.576638,-2068.457845,10140.821405
20872.753073,-444.123565,-1762.019645,7846.182985
20872.753396,814.226536,-689.485948,7476.080014
20872.753720,1480.411884,-229.828649,7105.977043
20872.754043,1036.288319,-1378.971896,6439.791695
20872.754367,1184.329507,-1762.019645,6957.935855
20872.754690,740.205942,-2451.505594,7698.141797
20872.755014,0.000000,-3140.991542,8290.306550
20872.755337,-444.123565,-3983.696590,9326.594869
20872.755661,0.000000,-3294.210641,9104.533087
20872.755984,962.267725,-3064.381992,9030.512492
20872.756308,1628.453072,-2221.676944,8438.347739
20872.756631,2664.741391,-383.047749,8364.327145
20872.756955,2516.700203,-229.828649,7772.162391
20872.757278,2886.803174,229.828649,8142.265362
20872.757601,2220.617826,306.438199,8586.388927
20872.757925,0.000000,306.438199,9696.697840
20872.758248,-2294.638420,-383.047749,11177.109724
20872.758572,-2738.761985,-1149.143247,12213.398043
20872.758895,-3330.926739,-2221.676944,12805.562797
20872.759219,-5181.441594,-1915.238745,12435.459826
20872.759542,-4663.297435,-995.924147,12065.356855
20872.759866,-2368.659014,-76.609550,10584.944971
20872.760189,296.082377,229.828649,8734.430116
20872.760513,1332.370696,919.314598,7698.141797
20872.760836,1110.308913,1838.629195,6365.771101
20872.761160,2072.576638,2145.067394,6291.750507
20872.761483,2886.803174,1685.410096,6661.853478
20872.761807,1924.535449,995.924147,7772.162391
20872.762130,740.205942,76.609550,8660.409521
20872.762454,-370.102971,-919.314598,8734.430116
20872.762777,0.000000,-995.924147,8956.491898
20872.763101,-370.102971,-766.095498,8734.430116
20872.763424,-740.205942,-536.266849,8216.285956
20872.763748,666.185348,612.876398,7254.018232
20872.764071,1184.329507,1302.362347,6883.915261
20872.764395,1332.370696,1532.190996,6587.832884
20872.764718,0.000000,1915.238745,7105.977043
20872.765042,-518.144159,1685.410096,8142.265362
20872.765365,-1110.308913,1072.533697,10140.821405
20872.765689,-2516.700203,1072.533697,11177.109724
20872.766012,-3701.029710,-1225.752797,12435.459826
20872.766336,-4811.338623,-919.314598,12879.583391
20872.766659,-4293.194464,-766.095498,12509.480420
20872.766983,-2960.823768,-536.266849,12435.459826
20872.767306,-1702.473667,76.609550,10362.883188
20872.767630,-518.144159,612.876398,8364.327145
20872.767953,1110.308913,842.705048,7328.038826
20872.768276,1036.288319,383.047749,6143.709319
20872.768600,814.226536,612.876398,7105.977043
20872.768923,814.226536,-153.219100,7698.141797
20872.769247,518.144159,-1762.019645,7994.224174
20872.769570,-296.082377,-2681.334243,8808.450710
20872.769894,-1258.350101,-2757.943793,9474.636058
20872.770217,-1924.535449,-2987.772442,9178.553681
20872.770541,-962.267725,-3294.210641,8882.471304
20872.770864,666.185348,-2834.553343,8290.306550
20872.771188,1332.370696,-1685.410096,8068.244768
20872.771511,1702.473667,-1225.752797,7105.977043
20872.771835,2220.617826,-76.609550,7402.059420
20872.772158,1776.494261,383.047749,8956.491898
20872.772482,1258.350101,153.219100,9622.677246
20872.772805,518.144159,-536.266849,11103.089130
20872.773129,74.020594,-919.314598,12287.418637
20872.773452,-1036.288319,-1225.752797,13619.789333
20872.773776,-1924.535449,-1302.362347,13619.789333
20872.774099,-1998.556043,-689.485948,12879.583391
20872.774423,-1036.288319,-1072.533697,11547.212695
20872.774746,0.000000,-306.438199,8956.491898
20872.775070,444.123565,306.438199,7920.203579
20872.775393,74.020594,229.828649,6957.935855
20872.775717,-740.205942,0.000000,6217.729913
20872.776040,-444.123565,-842.705048,6069.688724
20872.776364,-814.226536,-1685.410096,6661.853478
20872.776687,-1628.453072,-1762.019645,7550.100608
20872.777011,-1628.453072,-1838.629195,8660.409521
20872.777334,-1554.432478,-1685.410096,9326.594869
20872.777658,-296.082377,-1685.410096,9474.636058
20872.777981,814.226536,-919.314598,8586.388927
20872.778305,2072.576638,-383.047749,7846.182985
20872.778628,2590.720797,536.266849,7476.080014
20872.778951,3478.967927,842.705048,7846.182985
20872.779275,2812.782580,1455.581446,9030.512492
20872.779598,666.185348,1455.581446,9104.533087
20872.779922,-962.267725,0.000000,9696.697840
20872.780245,-1776.494261,-536.266849,11251.130318
20872.780569,-2886.803174,-1378.971896,12435.459826
20872.780892,-4293.194464,-1149.143247,13619.789333
20872.781216,-4367.215058,-842.705048,13323.706956
20872.781539,-3627.009116,229.828649,11769.274478
20872.781863,-2294.638420,153.219100,9474.636058
20872.782186,-888.247130,612.876398,7846.182985
20872.782510,-444.123565,459.657299,6957.935855
20872.782833,296.082377,919.314598,6513.812290
20872.783157,518.144159,766.095498,6587.832884
20872.783480,0.000000,0.000000,6661.853478
20872.783804,-518.144159,-842.705048,7402.059420
20872.784127,-518.144159,-1991.848295,8216.285956
20872.784451,-222.061783,-2681.334243,8808.450710
20872.784774,-666.185348,-2068.457845,9548.656652
20872.785098,592.164754,-1072.533697,9030.512492
20872.785421,2590.720797,-536.266849,8438.347739
20872.785745,3478.967927,459.657299,7846.182985
20872.786068,3404.947333,1302.362347,7031.956449
20872.786392,2886.803174,1915.238745,7031.956449
20872.786715,2146.597232,306.438199,8734.430116
20872.787039,592.164754,153.219100,9474.636058
20872.787362,-1850.514855,-306.438199,11103.089130
20872.787686,-4071.132681,-1685.410096,12213.398043
20872.788009,-4959.379811,-2451.505594,13175.665768
20872.788333,-5181.441594,-2451.505594,13619.789333
20872.788656,-4737.318029,-1991.848295,12953.603985
20872.788979,-3108.864956,-1149.143247,11103.089130
20872.789303,-148.041188,459.657299,9844.739029
20872.789626,888.247130,1225.752797,8512.368333
20872.789950,1554.432478,1302.362347,7328.038826
20872.790273,1406.391290,1302.362347,6217.729913
20872.790597,1480.411884,919.314598,6735.874072
20872.790920,1554.432478,-612.876398,7179.997637
20872.791244,74.020594,-1532.190996,7994.224174
20872.791567,-1184.329507,-2757.943793,8808.450710
20872.791891,-1258.350101,-2757.943793,9104.533087
20872.792214,-814.226536,-2757.943793,9030.512492
20872.792538,0.000000,-2145.067394,8512.368333
20872.792861,814.226536,-766.095498,7624.121203
20872.793185,2072.576638,459.657299,7402.059420
20872.793508,3108.864956,1072.533697,7031.956449
20872.793832,2590.720797,1378.971896,6587.832884
20872.794155,1480.411884,1072.533697,7698.141797
20872.794479,444.123565,842.705048,8882.471304
20872.794802,-962.267725,-229.828649,10658.965565
20872.795126,-1924.535449,-1225.752797,11991.336260
20872.795449,-3552.988522,-1762.019645,13915.871710
20872.795773,-4441.235652,-1838.629195,13471.748144
20872.796096,-2812.782580,-1915.238745,12287.418637
20872.796420,-1406.391290,-2374.896044,10881.027347
20872.796743,-444.123565,-766.095498,9918.759623
20872.797067,74.020594,1072.533697,8216.285956
20872.797390,1776.494261,76.609550,7179.997637
20872.797714,1776.494261,229.828649,7105.977043
20872.798037,518.144159,-383.047749,7031.956449
20872.798361,-222.061783,-1225.752797,7772.162391
20872.798684,-962.267725,-2528.115143,8734.430116
20872.799008,-2146.597232,-2834.553343,9770.718434
20872.799331,-2146.597232,-3064.381992,9844.739029
20872.799654,-2146.597232,-2451.505594,8438.347739
20872.799978,-296.082377,-1608.800546,8290.306550
20872.800301,1850.514855,-383.047749,7105.977043
20872.800625,2960.823768,1302.362347,6883.915261
20872.800948,3108.864956,2374.896044,7105.977043
20872.801272,2812.782580,3140.991542,7476.080014
20872.801595,2886.803174,2757.943793,8290.306550
20872.801919,1628.453072,2068.457845,9770.718434
20872.802242,-518.144159,995.924147,11769.274478
20872.802566,-2072.576638,612.876398,12583.501014
20872.802889,-2590.720797,-459.657299,12805.562797
20872.803213,-3923.091493,-612.876398,12139.377449
20872.803536,-3997.112087,-1608.800546,11473.192101
20872.803860,-3404.947333,-459.657299,9178.553681
20872.804183,-1554.432478,-995.924147,8290.306550
20872.804507,-888.247130,-306.438199,6439.791695
20872.804830,-1332.370696,153.219100,6217.729913
20872.805154,-1184.329507,0.000000,6661.853478
20872.805477,-740.205942,-306.438199,6809.894666
20872.805801,-296.082377,-1225.752797,7624.121203
20872.806124,0.000000,-1838.629195,9474.636058
20872.806448,-1110.308913,-1149.143247,10288.862594
20872.806771,-370.102971,-1915.238745,9918.759623
20872.807095,1480.411884,-1762.019645,9696.697840
20872.807418,2812.782580,-919.314598,8956.491898
20872.807742,3849.070898,383.047749,8438.347739
20872.808065,3552.988522,612.876398,7846.182985
20872.808389,3182.885551,1455.581446,7624.121203
20872.808712,3108.864956,2298.286494,8660.409521
20872.809036,1480.411884,1072.533697,10362.883188
20872.809359,-518.144159,306.438199,10955.047942
20872.809682,-1480.411884,-459.657299,11769.274478
20872.810006,-2664.741391,-1455.581446,12509.480420
20872.810329,-3701.029710,-766.095498,12805.562797
20872.810653,-3849.070898,-612.876398,11695.253884
20872.810976,-2516.700203,-766.095498,9474.636058
20872.811300,-1406.391290,-459.657299,8364.327145
20872.811623,-1110.308913,-459.657299,6513.812290
20872.811947,-666.185348,-536.266849,5625.565159
20872.812270,-740.205942,-995.924147,6217.729913
20872.812594,-1258.350101,-1072.533697,6587.832884
20872.812917,-888.247130,-1915.238745,7550.100608
20872.813241,-1332.370696,-3217.601092,8956.491898
20872.813564,-740.205942,-2604.724693,10658.965565
20872.813888,296.082377,-2451.505594,11325.150913
20872.814211,962.267725,-1991.848295,10436.903782
20872.814535,1628.453072,-1149.143247,9474.636058
20872.814858,3182.885551,229.828649,8808.450710
20872.815182,4145.153275,1532.190996,8216.285956
20872.815505,3627.009116,1378.971896,8068.244768
20872.815829,1554.432478,1685.410096,7846.182985
20872.816152,0.000000,766.095498,8956.491898
20872.816476,-1702.473667,-229.828649,9992.780217
20872.816799,-3330.926739,-842.705048,11547.212695
20872.817123,-5033.400406,-2068.457845,12361.439231
20872.817446,-5625.565159,-1991.848295,12953.603985
20872.817770,-5255.462188,-1149.143247,12213.398043
20872.818093,-3849.070898,-536.266849,11251.130318
20872.818417,-2664.741391,0.000000,8808.450710
20872.818740,-1184.329507,536.266849,6883.915261
20872.819064,740.205942,1225.752797,5625.565159
20872.819387,1406.391290,1378.971896,5181.441594
20872.819711,1184.329507,1072.533697,4515.256246
20872.820034,888.247130,-536.266849,5551.544565
20872.820357,370.102971,-1225.752797,6735.874072
20872.820681,0.000000,-2221.676944,8142.265362
20872.821004,222.061783,-2451.505594,9844.739029
20872.821328,370.102971,-2451.505594,10436.903782
20872.821651,888.247130,-1838.629195,10214.842000
20872.821975,2368.659014,-1378.971896,9252.574275
20872.822298,3997.112087,-842.705048,8512.368333
20872.822622,3849.070898,-536.266849,8882.471304
20872.822945,2590.720797,689.485948,8216.285956
20872.823269,1554.432478,689.485948,9252.574275
20872.823592,518.144159,0.000000,10510.924376
20872.823916,-1628.453072,-689.485948,11843.295072
20872.824239,-2886.803174,-1149.143247,12879.583391
20872.824563,-3849.070898,-1838.629195,13027.624579
20872.824886,-4367.215058,-2604.724693,13471.748144
20872.825210,-3849.070898,-1532.190996,13027.624579
20872.825533,-1998.556043,-229.828649,11399.171507
20872.825857,0.000000,612.876398,9548.656652
20872.826180,888.247130,919.314598,7328.038826
20872.826504,1332.370696,1225.752797,5995.668130
20872.826827,1184.329507,1302.362347,5625.565159
20872.827151,1036.288319,689.485948,5551.544565
20872.827474,444.123565,229.828649,6513.812290
20872.827798,-1036.288319,-536.266849,7031.956449
20872.828121,-1850.514855,-1915.238745,7698.141797
20872.828445,-1850.514855,-2528.115143,8364.327145
20872.828768,-1480.411884,-1991.848295,8512.368333
20872.829092,-592.164754,-766.095498,8364.327145
20872.829415,444.123565,153.219100,7550.100608
20872.829739,2442.679609,612.876398,7031.956449
20872.830062,2368.659014,919.314598,7179.997637
20872.830386,1258.350101,1762.019645,7772.162391
20872.830709,74.020594,1378.971896,9178.553681
20872.831032,-370.102971,459.657299,10584.944971
20872.831356,-1110.308913,-383.047749,12065.356855
20872.831679,-3108.864956,-1608.800546,13101.645173
20872.832003,-4737.318029,-2451.505594,13693.809927
20872.832326,-5477.523971,-2374.896044,12953.603985
20872.832650,-3404.947333,-1608.800546,12805.562797
20872.832973,-1702.473667,-689.485948,11547.212695
20872.833297,-1110.308913,0.000000,9178.553681
20872.833620,74.020594,76.609550,7031.956449
20872.833944,1628.453072,306.438199,6809.894666
20872.834267,1628.453072,689.485948,6587.832884
20872.834591,666.185348,0.000000,6513.812290
20872.834914,222.061783,-842.705048,7105.977043
20872.835238,148.041188,-2145.067394,7846.182985
20872.835561,0.000000,-2374.896044,8956.491898
20872.835885,-592.164754,-2451.505594,8956.491898
20872.836208,-444.123565,-2068.457845,8216.285956
20872.836532,1332.370696,-1302.362347,7179.997637
20872.836855,3182.885551,-229.828649,7402.059420
20872.837179,3478.967927,1072.533697,7179.997637
20872.837502,3034.844362,919.314598,7328.038826
20872.837826,2590.720797,766.095498,7698.141797
20872.838149,1628.453072,536.266849,9104.533087
20872.838473,0.000000,229.828649,10584.944971
20872.838796,-1332.370696,-919.314598,12879.583391
20872.839120,-2960.823768,-1608.800546,13397.727550
20872.839443,-3997.112087,-1685.410096,13249.686362
20872.839767,-4367.215058,-2145.067394,13027.624579
20872.840090,-3182.885551,-1455.581446,11325.150913
20872.840414,-1332.370696,-1149.143247,9400.615463
20872.840737,296.082377,-459.657299,8142.265362
20872.841060,444.123565,919.314598,7179.997637
20872.841384,296.082377,1455.581446,6661.853478
20872.841707,1036.288319,153.219100,7031.956449
20872.842031,888.247130,-612.876398,7402.059420
20872.842354,0.000000,-1991.848295,8068.244768
20872.842678,-666.185348,-2221.676944,9178.553681
20872.843001,-666.185348,-2451.505594,9844.739029
20872.843324,-666.185348,-2374.896044,9622.677246
20872.843648,0.000000,-1455.581446,8660.409521
20872.843971,1110.308913,-306.438199,7550.100608
20872.844294,1480.411884,-76.609550,6513.812290
20872.844618,2146.597232,1072.533697,6661.853478
20872.844941,1554.432478,1762.019645,7105.977043
20872.845265,-222.061783,1532.190996,7846.182985
20872.845588,-1332.370696,995.924147,9104.533087
20872.845911,-1998.556043,536.266849,10955.047942
20872.846235,-3923.091493,-766.095498,11843.295072
20872.846558,-4737.318029,-1149.143247,13101.645173
20872.846882,-5255.462188,-1378.971896,13397.727550
20872.847205,-4071.132681,-1378.971896,12435.459826
20872.847528,-1776.494261,-919.314598,10214.842000
20872.847852,-666.185348,-459.657299,8734.430116
20872.848175,74.020594,0.000000,7402.059420
20872.848498,814.226536,842.705048,6365.771101
20872.848822,2072.576638,995.924147,6439.791695
20872.849145,2368.659014,-612.876398,7328.038826
20872.849469,1110.308913,-919.314598,7846.182985
20872.849792,592.164754,-2145.067394,8956.491898
20872.850115,962.267725,-2604.724693,9992.780217
20872.850439,148.041188,-2681.334243,9992.780217
20872.850762,1258.350101,-1532.190996,10658.965565
20872.851086,1406.391290,-229.828649,8956.491898
20872.851409,3108.864956,-229.828649,8216.285956
20872.851732,3627.009116,536.266849,7550.100608
20872.852056,2590.720797,919.314598,7179.997637
20872.852379,1036.288319,1149.143247,7254.018232
20872.852702,-296.082377,842.705048,8438.347739
20872.853026,-1258.350101,383.047749,9696.697840
20872.853349,-2590.720797,0.000000,11621.233289
20872.853673,-4515.256246,-1378.971896,12509.480420
20872.853996,-4663.297435,-1532.190996,13101.645173
20872.854319,-4515.256246,-1302.362347,12583.501014
20872.854643,-3330.926739,-612.876398,11547.212695
20872.854966,-1628.453072,0.000000,9770.718434
20872.855290,-592.164754,0.000000,7476.080014
20872.855613,962.267725,383.047749,6143.709319
20872.855936,814.226536,153.219100,5847.626942
20872.856260,370.102971,689.485948,6143.709319
20872.856583,518.144159,-459.657299,6735.874072
20872.856906,370.102971,-1455.581446,7772.162391
20872.857230,-148.041188,-2221.676944,8512.368333
20872.857553,-740.205942,-2604.724693,9696.697840
20872.857877,-296.082377,-1838.629195,10066.800811
20872.858200,1184.329507,-1378.971896,9548.656652
20872.858523,2442.679609,-766.095498,9400.615463
20872.858847,2590.720797,459.657299,8068.244768
20872.859170,3034.844362,919.314598,7772.162391
20872.859494,2516.700203,1455.581446,8216.285956
20872.859817,888.247130,1378.971896,8660.409521
20872.860140,-1036.288319,0.000000,8882.471304
20872.860464,-2738.761985,-766.095498,10436.903782
20872.860787,-3849.070898,-1838.629195,12583.501014
20872.861110,-5625.565159,-1838.629195,13249.686362
20872.861434,-6439.791695,-1991.848295,13101.645173
20872.861757,-5403.503377,-1608.800546,11991.336260
20872.862081,-2590.720797,-995.924147,9992.780217
20872.862404,-148.041188,-459.657299,9030.512492
20872.862727,222.061783,842.705048,6957.935855
20872.863051,518.144159,995.924147,5921.647536
20872.863374,1406.391290,536.266849,5255.462188
20872.863698,2220.617826,-306.438199,5699.585753
20872.864021,1628.453072,-1072.533697,7328.038826
20872.864344,444.123565,-1991.848295,8512.368333
20872.864668,518.144159,-2528.115143,9770.718434
20872.864991,1036.288319,-2987.772442,9474.636058
20872.865314,1480.411884,-1608.800546,9696.697840
20872.865638,2294.638420,-842.705048,9622.677246
20872.865961,3256.906145,-306.438199,8438.347739
20872.866285,4515.256246,459.657299,8068.244768
20872.866608,3997.112087,1225.752797,7772.162391
20872.866931,2590.720797,1838.629195,8586.388927
20872.867255,148.041188,612.876398,8734.430116
20872.867578,-1036.288319,-306.438199,10584.944971
20872.867902,-3034.844362,-1455.581446,11991.336260
20872.868225,-4811.338623,-2221.676944,13101.645173
20872.868548,-6365.771101,-2374.896044,13397.727550
20872.868872,-6217.729913,-2068.457845,12805.562797
20872.869195,-4367.215058,-842.705048,11473.192101
20872.869518,-2146.597232,153.219100,9696.697840
20872.869842,-888.247130,689.485948,7846.182985
20872.870165,666.185348,919.314598,6587.832884
20872.870489,1480.411884,1838.629195,5551.544565
20872.870812,1702.473667,1378.971896,5921.647536
20872.871135,1258.350101,612.876398,6587.832884
20872.871459,962.267725,-383.047749,7328.038826
20872.871782,518.144159,-1685.410096,8290.306550
20872.872106,-518.144159,-1762.019645,9104.533087
20872.872429,-1036.288319,-2298.286494,9548.656652
20872.872752,148.041188,-1762.019645,9104.533087
20872.873076,1406.391290,-1302.362347,7994.224174
20872.873399,2220.617826,0.000000,7550.100608
20872.873722,2590.720797,995.924147,6809.894666
20872.874046,2812.782580,1302.362347,7846.182985
20872.874369,1702.473667,1685.410096,8734.430116
20872.874693,0.000000,842.705048,9400.615463
20872.875016,-1480.411884,-229.828649,11399.171507
20872.875339,-3182.885551,-1608.800546,12805.562797
20872.875663,-4737.318029,-2221.676944,14211.954086
20872.875986,-5773.606348,-2451.505594,14211.954086
20872.876309,-5625.565159,-2145.067394,13027.624579
20872.876633,-4145.153275,-1608.800546,11177.109724
20872.876956,-2294.638420,-536.266849,9548.656652
20872.877280,222.061783,459.657299,7550.100608
20872.877603,740.205942,229.828649,6513.812290
20872.877926,814.226536,689.485948,6069.688724
20872.878250,1406.391290,842.705048,6365.771101
20872.878573,1776.494261,153.219100,7105.977043
20872.878897,1258.350101,-459.657299,8364.327145
20872.879220,592.164754,-1685.410096,8734.430116
20872.879543,962.267725,-2757.943793,9104.533087
20872.879867,1480.411884,-1838.629195,9696.697840
20872.880190,2368.659014,-1072.533697,9030.512492
20872.880513,2738.761985,-153.219100,7772.162391
20872.880837,3627.009116,306.438199,7031.956449
20872.881160,3775.050304,1149.143247,6957.935855
20872.881484,3256.906145,2374.896044,7550.100608
20872.881807,1480.411884,1915.238745,8660.409521
20872.882130,-370.102971,612.876398,9474.636058
20872.882454,-1924.535449,-689.485948,11325.150913
20872.882777,-4145.153275,-1915.238745,12509.480420
20872.883101,-5995.668130,-2374.896044,13545.768739
20872.883424,-6883.915261,-2451.505594,13471.748144
20872.883747,-5033.400406,-2374.896044,12361.439231
20872.884071,-3627.009116,-1378.971896,10584.944971
20872.884394,-2368.659014,-1072.533697,8660.409521
20872.884717,-666.185348,-153.219100,7476.080014
20872.885041,666.185348,459.657299,6217.729913
20872.885364,1184.329507,766.095498,6069.688724
20872.885688,1628.453072,612.876398,7031.956449
20872.886011,1776.494261,-229.828649,7254.018232
20872.886334,1924.535449,-1225.752797,7846.182985
20872.886658,1776.494261,-1685.410096,9548.656652
20872.886981,814.226536,-1608.800546,9696.697840
20872.887305,1628.453072,-995.924147,9696.697840
20872.887628,2886.803174,-766.095498,8734.430116
20872.887951,3478.967927,0.000000,7920.203579
20872.888275,2738.761985,153.219100,6735.874072
20872.888598,1628.453072,1149.143247,6735.874072
20872.888921,1332.370696,919.314598,7254.018232
20872.889245,0.000000,0.000000,8660.409521
20872.889568,-3256.906145,-459.657299,9844.739029
20872.889892,-5181.441594,-1762.019645,11251.130318
20872.890215,-5847.626942,-2221.676944,13249.686362
20872.890538,-5921.647536,-2145.067394,13471.748144
20872.890862,-6365.771101,-2221.676944,12805.562797
20872.891185,-4515.256246,-1838.629195,11695.253884
20872.891509,-2220.617826,-689.485948,10140.821405
20872.891832,-370.102971,0.000000,8586.388927
20872.892155,814.226536,153.219100,7402.059420
20872.892479,1036.288319,153.219100,6217.729913
20872.892802,1332.370696,383.047749,6661.853478
20872.893125,1850.514855,0.000000,7105.977043
20872.893449,2146.597232,-306.438199,7772.162391
20872.893772,2072.576638,-1072.533697,9252.574275
20872.894096,1480.411884,-995.924147,10066.800811
20872.894419,2516.700203,-306.438199,9844.739029
20872.894742,3849.070898,76.609550,8956.491898
20872.895066,3997.112087,689.485948,7402.059420
20872.895389,3330.926739,1302.362347,6957.935855
20872.895713,3034.844362,1302.362347,6809.894666
20872.896036,1702.473667,1378.971896,6883.915261
20872.896359,0.000000,766.095498,8142.265362
20872.896683,-2368.659014,-153.219100,9622.677246
20872.897006,-4737.318029,-1072.533697,10362.883188
20872.897329,-5329.482782,-2221.676944,11547.212695
20872.897653,-6291.750507,-2834.553343,12509.480420
20872.897976,-6291.750507,-1762.019645,13175.665768
20872.898300,-5181.441594,-1378.971896,11843.295072
20872.898623,-3108.864956,-1455.581446,9918.759623
20872.898946,-962.267725,-383.047749,8290.306550
