#time,accel_x,accel_y,accel_z
5381.152072,-518.144159,459.657299,9770.718434
5381.152395,0.000000,-689.485948,9548.656652
5381.152718,-592.164754,1149.143247,8586.388927
5381.153041,-1184.329507,459.657299,8808.450710
5381.153363,-148.041188,459.657299,9918.759623
5381.153686,592.164754,919.314598,9622.677246
5381.154009,444.123565,1149.143247,8216.285956
5381.154332,0.000000,1149.143247,9178.553681
5381.154655,148.041188,842.705048,9696.697840
5381.154977,222.061783,1149.143247,9770.718434
5381.155300,296.082377,1072.533697,8956.491898
5381.155623,0.000000,612.876398,9326.594869
5381.155946,-814.226536,306.438199,10066.800811
5381.156269,-222.061783,612.876398,9770.718434
5381.156591,0.000000,536.266849,9770.718434
5381.156914,-814.226536,1149.143247,8882.471304
5381.157237,-518.144159,536.266849,9696.697840
5381.157560,0.000000,0.000000,9696.697840
5381.157883,740.205942,1225.752797,8882.471304
5381.158205,148.041188,1225.752797,7846.182985
5381.158528,0.000000,766.095498,8956.491898
5381.158851,0.000000,842.705048,8882.471304
5381.159174,740.205942,1838.629195,8734.430116
5381.159497,814.226536,1532.190996,8438.347739
5381.159819,74.020594,1762.019645,9474.636058
5381.160142,-444.123565,1072.533697,10288.862594
5381.160465,888.247130,1149.143247,10584.944971
5381.160788,740.205942,1762.019645,9400.615463
5381.161111,518.144159,1685.410096,9474.636058
5381.161433,740.205942,1762.019645,10436.903782
5381.161756,2368.659014,1685.410096,11325.150913
5381.162079,2812.782580,2298.286494,8956.491898
5381.162402,2368.659014,2451.505594,8734.430116
5381.162725,1998.556043,2068.457845,9622.677246
5381.163047,2220.617826,2068.457845,10066.800811
5381.163370,3256.906145,3064.381992,9030.512492
5381.163693,3997.112087,2451.505594,8808.450710
5381.164016,2886.803174,2604.724693,9104.533087
5381.164339,2960.823768,2911.162892,10288.862594
5381.164661,4071.132681,3294.210641,9770.718434
5381.164984,3552.988522,4136.915689,8956.491898
5381.165307,3256.906145,3753.867940,9400.615463
5381.165630,2886.803174,3447.429741,10584.944971
5381.165953,3775.050304,3140.991542,9992.780217
5381.166275,4071.132681,4213.525239,8364.327145
5381.166598,2960.823768,3294.210641,7772.162391
5381.166921,2072.576638,3677.258390,8956.491898
5381.167244,1776.494261,3370.820191,8142.265362
5381.167567,2072.576638,3830.477490,7105.977043
5381.167890,2516.700203,4136.915689,6661.853478
5381.168212,1110.308913,3753.867940,7846.182985
5381.168535,1036.288319,3830.477490,7772.162391
5381.168858,2294.638420,3907.087040,8290.306550
5381.169181,1406.391290,3983.696590,7550.100608
5381.169504,888.247130,3600.648841,9178.553681
5381.169826,740.205942,2757.943793,10436.903782
5381.170149,1850.514855,3370.820191,10436.903782
5381.170472,1702.473667,3064.381992,9622.677246
5381.170795,370.102971,2068.457845,9918.759623
5381.171118,370.102971,1302.362347,10807.006753
5381.171440,888.247130,1455.581446,10658.965565
5381.171763,1628.453072,2604.724693,9770.718434
5381.172086,2072.576638,2911.162892,9474.636058
5381.172409,1628.453072,2911.162892,10066.800811
5381.172732,2960.823768,2834.553343,9844.739029
5381.173054,3552.988522,3524.039291,8956.491898
5381.173377,3182.885551,4213.525239,8364.327145
5381.173700,2590.720797,3524.039291,10066.800811
5381.174023,1850.514855,2145.067394,10140.821405
5381.174346,1924.535449,1991.848295,9474.636058
5381.174668,740.205942,1685.410096,8660.409521
5381.174991,74.020594,842.705048,9844.739029
5381.175314,-444.123565,459.657299,10214.842000
5381.175637,444.123565,1838.629195,9326.594869
5381.175960,962.267725,1608.800546,8364.327145
5381.176282,74.020594,1225.752797,8586.388927
5381.176605,-518.144159,536.266849,9548.656652
5381.176928,888.247130,1072.533697,9400.615463
5381.177251,962.267725,1378.971896,8956.491898
5381.177574,1184.329507,2221.676944,8660.409521
5381.177896,1332.370696,1302.362347,10140.821405
5381.178219,1924.535449,1915.238745,9992.780217
5381.178542,2738.761985,2145.067394,8586.388927
5381.178865,2812.782580,2298.286494,7920.203579
5381.179188,3701.029710,2145.067394,9104.533087
5381.179510,4441.235652,2604.724693,9548.656652
5381.179833,5107.421000,3217.601092,8808.450710
5381.180156,4959.379811,3064.381992,8290.306550
5381.180479,3404.947333,2528.115143,9622.677246
5381.180802,2368.659014,1685.410096,11103.089130
5381.181124,2886.803174,1991.848295,11103.089130
5381.181447,1628.453072,2298.286494,11029.068536
5381.181770,-370.102971,2145.067394,11547.212695
5381.182093,-1258.350101,1149.143247,11399.171507
5381.182416,0.000000,1378.971896,9548.656652
5381.182738,1184.329507,2987.772442,7846.182985
5381.183061,2294.638420,3677.258390,7179.997637
5381.183384,2664.741391,4519.963438,8438.347739
5381.183707,3478.967927,5056.230287,7920.203579
5381.184030,4589.276840,5592.497135,6513.812290
5381.184352,4589.276840,4979.620737,7031.956449
5381.184675,2368.659014,4673.182538,9696.697840
5381.184998,74.020594,3600.648841,10732.986159
5381.185321,592.164754,2834.553343,10955.047942
5381.185644,296.082377,2757.943793,9770.718434
5381.185966,0.000000,2298.286494,9696.697840
5381.186289,-296.082377,2145.067394,10288.862594
5381.186612,814.226536,3140.991542,9326.594869
5381.186935,2442.679609,4979.620737,7328.038826
5381.187258,3775.050304,4979.620737,7254.018232
5381.187580,2738.761985,4903.011187,8364.327145
5381.187903,1850.514855,4903.011187,8364.327145
5381.188226,2072.576638,4979.620737,8216.285956
5381.188549,2812.782580,4826.401637,8142.265362
5381.188872,1480.411884,4290.134789,10214.842000
5381.189195,1258.350101,3830.477490,11029.068536
5381.189517,1480.411884,3064.381992,9918.759623
5381.189840,1258.350101,3677.258390,9844.739029
5381.190163,666.185348,2681.334243,10214.842000
5381.190486,888.247130,1378.971896,10140.821405
5381.190809,2368.659014,1991.848295,8882.471304
5381.191131,3256.906145,3524.039291,7179.997637
5381.191454,2812.782580,3370.820191,8142.265362
5381.191777,2516.700203,3447.429741,8956.491898
5381.192100,3997.112087,3830.477490,9030.512492
5381.192423,3701.029710,4443.353888,8290.306550
5381.192745,2590.720797,3830.477490,9992.780217
5381.193068,1998.556043,2757.943793,10658.965565
5381.193391,2812.782580,2374.896044,11029.068536
5381.193714,1480.411884,2528.115143,9992.780217
5381.194037,148.041188,1991.848295,10436.903782
5381.194359,222.061783,1455.581446,10436.903782
5381.194682,0.000000,842.705048,9770.718434
5381.195005,888.247130,689.485948,8290.306550
5381.195328,814.226536,842.705048,7105.977043
5381.195651,1924.535449,1762.019645,7920.203579
5381.195973,2590.720797,2451.505594,9326.594869
5381.196296,3552.988522,3140.991542,8808.450710
5381.196619,4219.173869,3370.820191,7772.162391
5381.196942,2442.679609,3140.991542,9474.636058
5381.197265,1776.494261,2068.457845,11029.068536
5381.197587,2146.597232,2298.286494,11769.274478
5381.197910,1776.494261,2374.896044,10658.965565
5381.198233,444.123565,1915.238745,10584.944971
5381.198556,-370.102971,766.095498,9622.677246
5381.198879,-888.247130,-306.438199,8808.450710
5381.199201,148.041188,919.314598,6809.894666
5381.199524,1036.288319,1302.362347,7328.038826
5381.199847,740.205942,1762.019645,7920.203579
5381.200170,1924.535449,2221.676944,8956.491898
5381.200493,2294.638420,2911.162892,8956.491898
5381.200815,2294.638420,2757.943793,8216.285956
5381.201138,1702.473667,3140.991542,9918.759623
5381.201461,1332.370696,3217.601092,12435.459826
5381.201784,1850.514855,2298.286494,12731.542202
5381.202107,296.082377,2068.457845,11843.295072
5381.202429,-518.144159,919.314598,10807.006753
5381.202752,-962.267725,0.000000,9622.677246
5381.203075,0.000000,612.876398,8364.327145
5381.203398,444.123565,1762.019645,7846.182985
5381.203721,888.247130,2451.505594,7254.018232
5381.204043,2516.700203,2145.067394,8068.244768
5381.204366,2590.720797,2911.162892,6735.874072
5381.204689,4441.235652,3217.601092,6883.915261
5381.205012,3108.864956,3677.258390,8734.430116
5381.205335,1776.494261,3753.867940,11103.089130
5381.205657,1850.514855,2604.724693,12435.459826
5381.205980,1406.391290,1455.581446,11251.130318
5381.206303,1332.370696,2068.457845,9622.677246
5381.206626,370.102971,1685.410096,10584.944971
5381.206949,592.164754,2068.457845,10955.047942
5381.207272,2368.659014,2298.286494,9326.594869
5381.207594,2442.679609,2604.724693,6365.771101
5381.207917,3256.906145,2451.505594,5625.565159
5381.208240,3775.050304,2987.772442,6883.915261
5381.208563,2664.741391,3677.258390,7402.059420
5381.208886,3627.009116,4213.525239,8068.244768
5381.209209,3256.906145,3600.648841,8438.347739
5381.209532,2072.576638,3447.429741,9770.718434
5381.209854,2368.659014,2451.505594,10807.006753
5381.210177,592.164754,2681.334243,11399.171507
5381.210500,-962.267725,2911.162892,11029.068536
5381.210823,-962.267725,1608.800546,10140.821405
5381.211146,0.000000,383.047749,10214.842000
5381.211469,1332.370696,1991.848295,8216.285956
5381.211792,-222.061783,1762.019645,7328.038826
5381.212114,-1110.308913,1072.533697,8364.327145
5381.212437,-1184.329507,1532.190996,7772.162391
5381.212760,222.061783,1455.581446,7105.977043
5381.213083,1258.350101,2834.553343,7772.162391
5381.213406,-814.226536,2911.162892,9918.759623
5381.213729,-1480.411884,1608.800546,11177.109724
5381.214052,-1110.308913,1302.362347,10584.944971
5381.214374,-1036.288319,1225.752797,9918.759623
5381.214697,-1628.453072,536.266849,10214.842000
5381.215020,-3923.091493,76.609550,11621.233289
5381.215343,-3182.885551,-842.705048,11547.212695
5381.215666,-1702.473667,-459.657299,7920.203579
5381.215989,-1924.535449,-766.095498,7698.141797
5381.216311,-1850.514855,-153.219100,7772.162391
5381.216634,-2368.659014,-766.095498,8660.409521
5381.216957,-1184.329507,0.000000,7550.100608
5381.217280,222.061783,0.000000,6513.812290
5381.217603,-592.164754,0.000000,8882.471304
5381.217926,-1480.411884,-612.876398,9770.718434
5381.218249,-2146.597232,-995.924147,11325.150913
5381.218571,-2146.597232,-766.095498,10436.903782
5381.218894,-592.164754,-995.924147,10510.924376
5381.219217,0.000000,-766.095498,10658.965565
5381.219540,740.205942,76.609550,9474.636058
5381.219863,592.164754,-766.095498,8956.491898
5381.220186,1184.329507,-766.095498,8142.265362
5381.220509,2072.576638,-842.705048,8364.327145
5381.220831,2368.659014,-995.924147,8586.388927
5381.221154,1554.432478,-536.266849,9844.739029
5381.221477,296.082377,-689.485948,10140.821405
5381.221800,-518.144159,-1225.752797,9844.739029
5381.222123,740.205942,-2068.457845,10658.965565
5381.222446,444.123565,-1302.362347,10066.800811
5381.222769,-1554.432478,-995.924147,10066.800811
5381.223091,-1628.453072,-919.314598,10807.006753
5381.223414,0.000000,-1072.533697,9030.512492
5381.223737,1332.370696,-689.485948,9104.533087
5381.224060,222.061783,-689.485948,8142.265362
5381.224383,-1480.411884,-2068.457845,10288.862594
5381.224706,-1776.494261,-1455.581446,10436.903782
5381.225029,-444.123565,-1302.362347,9178.553681
5381.225351,888.247130,-459.657299,9104.533087
5381.225674,-518.144159,153.219100,10362.883188
5381.225997,-1924.535449,-153.219100,11621.233289
5381.226320,962.267725,612.876398,10066.800811
5381.226643,2146.597232,2298.286494,9178.553681
5381.226966,1998.556043,2987.772442,8956.491898
5381.227289,1332.370696,2068.457845,9104.533087
5381.227611,2294.638420,2451.505594,9252.574275
5381.227934,3404.947333,3294.210641,7402.059420
5381.228257,3404.947333,2834.553343,5107.421000
5381.228580,0.000000,1762.019645,8956.491898
5381.228903,-1258.350101,2451.505594,9030.512492
5381.229226,-592.164754,1455.581446,8586.388927
5381.229549,814.226536,2681.334243,6587.832884
5381.229871,-148.041188,2987.772442,8808.450710
5381.230194,-1406.391290,2374.896044,9474.636058
5381.230517,-1998.556043,1915.238745,10658.965565
5381.230840,-1702.473667,2911.162892,8142.265362
5381.231163,-1258.350101,2911.162892,7846.182985
5381.231486,-1110.308913,2451.505594,8438.347739
5381.231809,-1554.432478,3140.991542,9696.697840
5381.232131,-1184.329507,2987.772442,8216.285956
5381.232454,-962.267725,2221.676944,7031.956449
5381.232777,0.000000,2145.067394,7846.182985
5381.233100,-1406.391290,1838.629195,9252.574275
5381.233423,-2516.700203,1225.752797,9474.636058
5381.233746,-2738.761985,229.828649,9326.594869
5381.234068,-2368.659014,153.219100,8364.327145
5381.234391,-1628.453072,0.000000,9770.718434
5381.234714,-1332.370696,459.657299,10140.821405
5381.235037,-2368.659014,0.000000,10436.903782
5381.235360,-1776.494261,-306.438199,10510.924376
5381.235683,296.082377,153.219100,9770.718434
5381.236006,1554.432478,919.314598,10214.842000
5381.236328,962.267725,1072.533697,9400.615463
5381.236651,0.000000,-76.609550,10510.924376
5381.236974,962.267725,-766.095498,8956.491898
5381.237297,2442.679609,-306.438199,8586.388927
5381.237620,2368.659014,0.000000,7994.224174
5381.237943,1036.288319,-612.876398,8882.471304
5381.238266,-1480.411884,-1072.533697,10436.903782
5381.238588,0.000000,-1991.848295,9474.636058
5381.238911,1480.411884,-1225.752797,8956.491898
5381.239234,296.082377,-1225.752797,9178.553681
5381.239557,-1480.411884,-1991.848295,10658.965565
5381.239880,-1998.556043,-2681.334243,11769.274478
5381.240203,518.144159,-1608.800546,8882.471304
5381.240526,1184.329507,-919.314598,8586.388927
5381.240848,0.000000,-1532.190996,8956.491898
5381.241171,-1110.308913,-1915.238745,11399.171507
5381.241494,-370.102971,-919.314598,9622.677246
5381.241817,1850.514855,-995.924147,7624.121203
5381.242140,888.247130,-1072.533697,8734.430116
5381.242463,-2516.700203,-1608.800546,10214.842000
5381.242786,-2368.659014,-2068.457845,11473.192101
5381.243108,-444.123565,-1455.581446,9178.553681
5381.243431,370.102971,-766.095498,8660.409521
5381.243754,-592.164754,-1378.971896,9992.780217
5381.244077,-1480.411884,-995.924147,11103.089130
5381.244400,0.000000,-229.828649,10362.883188
5381.244723,666.185348,229.828649,8438.347739
5381.245046,1036.288319,842.705048,9844.739029
5381.245368,148.041188,1072.533697,10584.944971
5381.245691,0.000000,842.705048,10732.986159
5381.246014,370.102971,1608.800546,9474.636058
5381.246337,296.082377,1532.190996,7994.224174
5381.246660,0.000000,1149.143247,9992.780217
5381.246983,0.000000,2221.676944,9178.553681
5381.247306,-222.061783,2221.676944,9474.636058
5381.247628,-148.041188,2757.943793,7698.141797
5381.247951,74.020594,2987.772442,8364.327145
5381.248274,1258.350101,3600.648841,8290.306550
5381.248597,148.041188,3370.820191,8216.285956
5381.248920,-666.185348,3294.210641,8734.430116
5381.249243,-592.164754,2681.334243,8290.306550
5381.249566,-962.267725,2298.286494,8586.388927
5381.249888,-518.144159,2451.505594,7846.182985
5381.250211,-592.164754,2451.505594,8364.327145
5381.250534,-2294.638420,2451.505594,8660.409521
5381.250857,-740.205942,2528.115143,8882.471304
5381.251180,0.000000,2987.772442,8512.368333
5381.251503,-1110.308913,3370.820191,7624.121203
5381.251825,-1776.494261,2298.286494,8734.430116
5381.252148,-1480.411884,2298.286494,9548.656652
5381.252471,592.164754,2451.505594,8364.327145
5381.252794,1036.288319,3294.210641,7402.059420
5381.253117,74.020594,2374.896044,8068.244768
5381.253440,-814.226536,1455.581446,10658.965565
5381.253763,-296.082377,1532.190996,9474.636058
5381.254085,1850.514855,1915.238745,9326.594869
5381.254408,1184.329507,1455.581446,9178.553681
5381.254731,-740.205942,995.924147,10362.883188
5381.255054,-1628.453072,-306.438199,11251.130318
5381.255377,222.061783,612.876398,9178.553681
5381.255700,666.185348,766.095498,8734.430116
5381.256023,666.185348,459.657299,9252.574275
5381.256345,74.020594,0.000000,10732.986159
5381.256668,592.164754,459.657299,9918.759623
5381.256991,1110.308913,612.876398,7031.956449
5381.257314,518.144159,-229.828649,8882.471304
5381.257637,-592.164754,-229.828649,10214.842000
5381.257960,-296.082377,-1302.362347,10510.924376
5381.258283,-962.267725,-1225.752797,10732.986159
5381.258605,-592.164754,-1915.238745,8956.491898
5381.258928,-1776.494261,-3140.991542,10658.965565
5381.259251,-2368.659014,-3064.381992,9400.615463
5381.259574,-1258.350101,-2374.896044,10881.027347
5381.259897,-740.205942,-1762.019645,9030.512492
5381.260220,296.082377,-1378.971896,9178.553681
5381.260543,1332.370696,-1072.533697,10066.800811
5381.260865,1406.391290,-229.828649,8364.327145
5381.261188,1924.535449,153.219100,8660.409521
5381.261511,1998.556043,76.609550,9252.574275
5381.261834,3108.864956,306.438199,9548.656652
5381.262157,2294.638420,-536.266849,10066.800811
5381.262480,1110.308913,0.000000,8660.409521
5381.262803,-740.205942,-919.314598,9918.759623
5381.263125,-1332.370696,-1991.848295,9844.739029
5381.263448,-1036.288319,-1915.238745,10881.027347
5381.263771,-740.205942,-1302.362347,9104.533087
5381.264094,-1628.453072,-612.876398,10436.903782
5381.264417,-2294.638420,-306.438199,11029.068536
5381.264740,-1332.370696,-306.438199,10362.883188
5381.265063,0.000000,229.828649,8438.347739
5381.265385,-814.226536,919.314598,8216.285956
5381.265708,-1406.391290,689.485948,10658.965565
5381.266031,-1110.308913,1991.848295,9992.780217
5381.266354,222.061783,1685.410096,9104.533087
5381.266677,0.000000,1762.019645,7624.121203
5381.267000,-1554.432478,1455.581446,8882.471304
5381.267323,-2368.659014,1072.533697,10214.842000
5381.267645,-666.185348,1532.190996,8734.430116
5381.267968,444.123565,1915.238745,8586.388927
5381.268291,814.226536,2987.772442,7772.162391
5381.268614,0.000000,2681.334243,10140.821405
5381.268937,592.164754,3217.601092,10066.800811
5381.269260,2220.617826,4673.182538,8512.368333
5381.269582,2368.659014,3677.258390,8142.265362
5381.269905,1628.453072,3370.820191,9326.594869
5381.270228,296.082377,3677.258390,10288.862594
5381.270551,296.082377,3524.039291,8586.388927
5381.270874,1258.350101,2451.505594,6735.874072
5381.271197,-370.102971,2451.505594,6735.874072
5381.271520,-666.185348,2757.943793,7402.059420
5381.271842,-962.267725,2068.457845,8660.409521
5381.272165,-2368.659014,2604.724693,7105.977043
5381.272488,-1850.514855,1608.800546,6883.915261
5381.272811,-962.267725,536.266849,6957.935855
5381.273134,-2368.659014,1378.971896,9400.615463
5381.273457,-2072.576638,1762.019645,9252.574275
5381.273780,-2664.741391,0.000000,9548.656652
5381.274102,-1036.288319,536.266849,10436.903782
5381.274425,-296.082377,689.485948,11177.109724
5381.274748,296.082377,766.095498,10362.883188
5381.275071,666.185348,612.876398,11251.130318
5381.275394,1406.391290,229.828649,9030.512492
5381.275717,3034.844362,383.047749,10732.986159
5381.276040,2664.741391,1455.581446,9918.759623
5381.276362,2590.720797,612.876398,10881.027347
5381.276685,888.247130,383.047749,10214.842000
5381.277008,2442.679609,153.219100,9252.574275
5381.277331,3552.988522,536.266849,8808.450710
5381.277654,2886.803174,229.828649,7846.182985
5381.277977,222.061783,-612.876398,10807.006753
5381.278300,-1258.350101,-1302.362347,9474.636058
5381.278622,-370.102971,-2221.676944,9918.759623
5381.278945,-888.247130,-1149.143247,7698.141797
5381.279268,-3034.844362,-2221.676944,9770.718434
5381.279591,-4145.153275,-2911.162892,10955.047942
5381.279914,-3182.885551,-2528.115143,10362.883188
5381.280237,-888.247130,-1915.238745,7994.224174
5381.280560,-1924.535449,-1608.800546,7994.224174
5381.280882,-2146.597232,-2298.286494,10214.842000
5381.281205,-1406.391290,-1838.629195,9992.780217
5381.281528,1184.329507,-995.924147,7179.997637
5381.281851,2220.617826,-842.705048,7698.141797
5381.282174,814.226536,-1149.143247,9400.615463
5381.282497,-1184.329507,-2451.505594,12287.418637
5381.282820,0.000000,-1608.800546,9474.636058
5381.283142,592.164754,-1072.533697,9252.574275
5381.283465,-370.102971,-1455.581446,9696.697840
5381.283788,-1258.350101,-1991.848295,11769.274478
5381.284111,-1554.432478,-1532.190996,11917.315666
5381.284434,-1036.288319,-612.876398,9844.739029
5381.284757,-148.041188,-153.219100,9474.636058
5381.285080,-592.164754,153.219100,9622.677246
5381.285402,148.041188,766.095498,11029.068536
5381.285725,444.123565,1455.581446,9622.677246
5381.286048,148.041188,1532.190996,8216.285956
5381.286371,1184.329507,1225.752797,9178.553681
5381.286694,666.185348,1455.581446,8660.409521
5381.287017,-148.041188,1378.971896,8882.471304
5381.287339,0.000000,2298.286494,8586.388927
5381.287662,-1554.432478,1685.410096,8438.347739
5381.287985,148.041188,919.314598,8512.368333
5381.288308,-592.164754,1685.410096,9474.636058
5381.288631,-1406.391290,2451.505594,9104.533087
5381.288954,-1258.350101,2451.505594,9474.636058
5381.289277,-1184.329507,2528.115143,9030.512492
5381.289599,888.247130,2911.162892,8512.368333
5381.289922,592.164754,2834.553343,6883.915261
5381.290245,-1480.411884,3064.381992,7994.224174
5381.290568,-592.164754,3064.381992,8364.327145
5381.290891,148.041188,2604.724693,7402.059420
5381.291214,370.102971,3217.601092,7550.100608
5381.291537,-1332.370696,2374.896044,7550.100608
5381.291859,-3404.947333,1455.581446,9474.636058
5381.292182,-2220.617826,1455.581446,8142.265362
5381.292505,-296.082377,1915.238745,8142.265362
5381.292828,-222.061783,2145.067394,7624.121203
5381.293151,-666.185348,1455.581446,10436.903782
5381.293474,222.061783,1838.629195,10658.965565
5381.293797,2146.597232,1991.848295,9326.594869
5381.294119,3034.844362,2374.896044,8808.450710
5381.294442,2072.576638,1225.752797,9696.697840
5381.294765,1776.494261,1302.362347,11917.315666
5381.295088,2072.576638,1685.410096,10140.821405
5381.295411,3330.926739,1608.800546,9030.512492
5381.295734,2220.617826,766.095498,9178.553681
5381.296057,-222.061783,-306.438199,10140.821405
5381.296379,-666.185348,-383.047749,10362.883188
5381.296702,518.144159,0.000000,7920.203579
5381.297025,444.123565,-919.314598,8142.265362
5381.297348,-962.267725,-1608.800546,9104.533087
5381.297671,-2146.597232,-1532.190996,11251.130318
5381.297994,-1332.370696,-383.047749,10066.800811
5381.298317,-592.164754,0.000000,8512.368333
5381.298639,0.000000,-1685.410096,9030.512492
5381.298962,-888.247130,-2145.067394,9104.533087
5381.299285,-740.205942,-1455.581446,9400.615463
5381.299608,888.247130,-383.047749,7846.182985
5381.299931,370.102971,-842.705048,9326.594869
5381.300254,0.000000,-1302.362347,9844.739029
5381.300577,-740.205942,-1685.410096,10436.903782
5381.300899,-1258.350101,-1608.800546,9326.594869
5381.301222,-2368.659014,-2298.286494,10436.903782
5381.301545,-962.267725,-2528.115143,9474.636058
5381.301868,0.000000,-2221.676944,10510.924376
5381.302191,-296.082377,-842.705048,9474.636058
5381.302514,-814.226536,-1149.143247,10288.862594
5381.302837,-592.164754,-1762.019645,9770.718434
5381.303159,592.164754,-612.876398,10140.821405
5381.303482,1406.391290,0.000000,10140.821405
5381.303805,296.082377,459.657299,10584.944971
5381.304128,-1850.514855,0.000000,11029.068536
5381.304451,-444.123565,-842.705048,9178.553681
5381.304774,222.061783,-383.047749,8956.491898
5381.305096,-888.247130,766.095498,7920.203579
5381.305419,-1184.329507,153.219100,9992.780217
5381.305742,-1332.370696,536.266849,9770.718434
5381.306065,2072.576638,1149.143247,9474.636058
5381.306388,1702.473667,1378.971896,7846.182985
5381.306711,-370.102971,1838.629195,9474.636058
5381.307033,-1332.370696,1149.143247,11547.212695
5381.307356,-1184.329507,1302.362347,10066.800811
5381.307678,0.000000,1685.410096,8882.471304
5381.308001,74.020594,2374.896044,8142.265362
5381.308324,-2220.617826,1225.752797,9474.636058
5381.308646,-2294.638420,1915.238745,9696.697840
5381.308969,-962.267725,1991.848295,7550.100608
5381.309291,-148.041188,2757.943793,6587.832884
5381.309614,-592.164754,2451.505594,7254.018232
5381.309937,-1628.453072,2528.115143,9474.636058
5381.310259,592.164754,3677.258390,7476.080014
5381.310582,740.205942,3753.867940,7031.956449
5381.310904,74.020594,3064.381992,7105.977043
5381.311227,-296.082377,2757.943793,9992.780217
5381.311549,296.082377,2681.334243,9400.615463
5381.311872,1406.391290,2987.772442,10066.800811
5381.312195,1628.453072,2834.553343,8216.285956
5381.312517,666.185348,1991.848295,10214.842000
5381.312840,814.226536,2298.286494,9770.718434
5381.313162,-370.102971,2528.115143,10732.986159
5381.313485,-74.020594,2298.286494,8586.388927
5381.313807,296.082377,1225.752797,8586.388927
5381.314130,518.144159,1302.362347,9252.574275
5381.314453,1036.288319,1762.019645,8290.306550
5381.314775,-296.082377,1225.752797,8808.450710
5381.315098,370.102971,1455.581446,8142.265362
5381.315420,1850.514855,383.047749,9770.718434
5381.315743,296.082377,1072.533697,8956.491898
5381.316065,444.123565,536.266849,9696.697840
5381.316388,-1110.308913,-153.219100,9918.759623
5381.316711,-592.164754,-612.876398,9992.780217
5381.317033,-444.123565,-1378.971896,10066.800811
5381.317356,0.000000,-842.705048,9030.512492
5381.317678,-740.205942,-1149.143247,10881.027347
5381.318001,-962.267725,-995.924147,11029.068536
5381.318324,0.000000,-1532.190996,9252.574275
5381.318646,1480.411884,-1915.238745,8512.368333
5381.318969,-814.226536,-995.924147,8882.471304
5381.319291,-1924.535449,-1532.190996,11917.315666
5381.319614,-1554.432478,-1302.362347,10436.903782
5381.319936,-296.082377,-1991.848295,8364.327145
5381.320259,666.185348,-2221.676944,7550.100608
5381.320582,-2664.741391,-2145.067394,9252.574275
5381.320904,-3330.926739,-2068.457845,10881.027347
5381.321227,-1258.350101,-1838.629195,8808.450710
5381.321549,-1258.350101,-1532.190996,8660.409521
5381.321872,-1850.514855,-1302.362347,8734.430116
5381.322194,-2294.638420,-1302.362347,11029.068536
5381.322517,-888.247130,-2068.457845,10584.944971
5381.322840,1554.432478,0.000000,8364.327145
5381.323162,888.247130,-383.047749,9474.636058
5381.323485,1036.288319,76.609550,9992.780217
5381.323807,666.185348,536.266849,11103.089130
5381.324130,2072.576638,1378.971896,9178.553681
5381.324452,3256.906145,1915.238745,8586.388927
5381.324775,2368.659014,1149.143247,9770.718434
5381.325098,222.061783,919.314598,10881.027347
5381.325420,370.102971,1225.752797,10732.986159
5381.325743,-370.102971,1225.752797,8512.368333
5381.326065,370.102971,1149.143247,8808.450710
5381.326388,-296.082377,1915.238745,10066.800811
5381.326711,-592.164754,2145.067394,9992.780217
5381.327033,-1184.329507,2757.943793,8734.430116
5381.327356,-148.041188,2298.286494,7105.977043
5381.327678,-444.123565,2145.067394,7994.224174
5381.328001,-1258.350101,2681.334243,7624.121203
5381.328323,-1258.350101,2757.943793,8586.388927
5381.328646,-1850.514855,2528.115143,8216.285956
5381.328969,-2368.659014,1608.800546,7994.224174
5381.329291,-1258.350101,1915.238745,8512.368333
5381.329614,-1776.494261,2528.115143,7105.977043
5381.329936,-2368.659014,2604.724693,9030.512492
5381.330259,-814.226536,2987.772442,8438.347739
5381.330581,1036.288319,2451.505594,9400.615463
5381.330904,1924.535449,2911.162892,8068.244768
5381.331227,222.061783,1915.238745,8586.388927
5381.331549,-888.247130,459.657299,10066.800811
5381.331872,296.082377,1915.238745,9400.615463
5381.332194,2146.597232,2068.457845,9326.594869
5381.332517,3256.906145,2681.334243,9400.615463
5381.332839,1184.329507,2528.115143,11547.212695
5381.333162,1036.288319,1685.410096,10807.006753
5381.333485,3256.906145,1455.581446,8142.265362
5381.333807,2812.782580,1838.629195,8142.265362
5381.334130,1480.411884,2298.286494,9030.512492
5381.334452,-666.185348,1455.581446,12139.377449
5381.334775,-444.123565,919.314598,9918.759623
5381.335098,-222.061783,459.657299,7846.182985
5381.335420,-962.267725,-306.438199,6587.832884
5381.335743,-2886.803174,-1149.143247,8808.450710
5381.336065,-3478.967927,-1532.190996,9844.739029
5381.336388,-2442.679609,-383.047749,8660.409521
5381.336710,-2072.576638,-1072.533697,7698.141797
5381.337033,-3330.926739,-1838.629195,9400.615463
5381.337356,-4219.173869,-2451.505594,10436.903782
5381.337678,-3330.926739,-2604.724693,10658.965565
5381.338001,-888.247130,-1762.019645,9104.533087
5381.338323,666.185348,-1378.971896,9548.656652
5381.338646,1110.308913,-919.314598,10881.027347
5381.338968,1036.288319,-995.924147,11029.068536
5381.339291,1480.411884,-536.266849,9474.636058
5381.339614,2294.638420,-612.876398,8586.388927
5381.339936,3849.070898,-1072.533697,9844.739029
5381.340259,3034.844362,-689.485948,10214.842000
5381.340581,2072.576638,-689.485948,11473.192101
5381.340904,1998.556043,0.000000,9770.718434
5381.341226,1332.370696,-306.438199,8808.450710
5381.341549,1406.391290,-306.438199,9770.718434
5381.341872,1036.288319,153.219100,9252.574275
5381.342194,-1406.391290,-459.657299,9696.697840
5381.342517,-962.267725,-612.876398,8956.491898
5381.342839,-592.164754,-919.314598,9622.677246
5381.343162,-222.061783,76.609550,7994.224174
5381.343485,-1776.494261,536.266849,8882.471304
5381.343807,-2664.741391,0.000000,10436.903782
5381.344130,-1554.432478,0.000000,9326.594869
5381.344452,-444.123565,76.609550,8956.491898
5381.344775,-148.041188,1302.362347,8290.306550
5381.345097,-1554.432478,995.924147,9992.780217
5381.345420,-2886.803174,995.924147,10658.965565
5381.345743,-222.061783,2451.505594,9474.636058
5381.346065,962.267725,1991.848295,8068.244768
5381.346388,-888.247130,1378.971896,8364.327145
5381.346710,-1702.473667,1225.752797,9992.780217
5381.347033,-1110.308913,1378.971896,10807.006753
5381.347355,1332.370696,2145.067394,7920.203579
5381.347678,518.144159,2528.115143,8364.327145
5381.348001,-1110.308913,2451.505594,8660.409521
5381.348323,-1776.494261,1838.629195,10510.924376
5381.348646,-444.123565,2068.457845,7698.141797
5381.348968,1628.453072,2911.162892,7624.121203
5381.349291,0.000000,2221.676944,7846.182985
5381.349613,-2368.659014,1608.800546,9844.739029
5381.349936,-2220.617826,2068.457845,9992.780217
5381.350259,-1554.432478,1685.410096,7402.059420
5381.350581,-518.144159,1532.190996,7105.977043
5381.350904,-1258.350101,919.314598,8660.409521
5381.351226,-592.164754,1378.971896,8734.430116
5381.351549,740.205942,1915.238745,8290.306550
5381.351872,740.205942,1915.238745,6809.894666
5381.352194,666.185348,995.924147,9474.636058
5381.352517,0.000000,1608.800546,8734.430116
5381.352839,-222.061783,1608.800546,10214.842000
5381.353162,888.247130,842.705048,9844.739029
5381.353484,296.082377,229.828649,9474.636058
5381.353807,518.144159,0.000000,10214.842000
5381.354130,-296.082377,0.000000,10066.800811
5381.354452,-1406.391290,0.000000,10510.924376
5381.354775,-222.061783,-153.219100,9474.636058
5381.355097,666.185348,0.000000,9770.718434
5381.355420,2294.638420,76.609550,10288.862594
5381.355742,1406.391290,-459.657299,9622.677246
5381.356065,-592.164754,-612.876398,10436.903782
5381.356388,148.041188,-842.705048,9252.574275
5381.356710,814.226536,-1455.581446,9548.656652
5381.357033,740.205942,-995.924147,9548.656652
5381.357355,-148.041188,-1072.533697,10140.821405
5381.357678,-814.226536,-1608.800546,10288.862594
5381.358000,0.000000,-1455.581446,9252.574275
5381.358323,888.247130,-536.266849,9178.553681
5381.358646,-444.123565,-536.266849,8734.430116
5381.358968,-1702.473667,-1302.362347,11251.130318
5381.359291,-1184.329507,-1915.238745,10214.842000
5381.359613,1998.556043,-1072.533697,8734.430116
5381.359936,1924.535449,-306.438199,8660.409521
5381.360258,0.000000,0.000000,10214.842000
5381.360581,-1924.535449,-1072.533697,11843.295072
5381.360904,-296.082377,0.000000,9252.574275
5381.361226,1628.453072,229.828649,8364.327145
5381.361549,592.164754,229.828649,8660.409521
5381.361871,-2220.617826,-536.266849,10807.006753
5381.362194,-1258.350101,-919.314598,10214.842000
5381.362517,-666.185348,0.000000,7772.162391
5381.362839,0.000000,1072.533697,7402.059420
5381.363162,-1628.453072,612.876398,9104.533087
5381.363484,-1258.350101,842.705048,10510.924376
5381.363807,444.123565,1302.362347,9474.636058
5381.364129,1480.411884,1991.848295,7402.059420
5381.364452,592.164754,2374.896044,9696.697840
5381.364775,-666.185348,2221.676944,10214.842000
5381.365097,-1480.411884,1608.800546,10066.800811
5381.365420,74.020594,2374.896044,8660.409521
5381.365742,222.061783,2068.457845,8438.347739
5381.366065,-962.267725,1915.238745,9844.739029
5381.366387,-962.267725,1685.410096,9030.512492
5381.366710,-1850.514855,1455.581446,8882.471304
5381.367033,-1036.288319,2528.115143,7179.997637
5381.367355,814.226536,2451.505594,8512.368333
5381.367678,296.082377,2298.286494,9474.636058
5381.368000,0.000000,2374.896044,9548.656652
5381.368323,-1554.432478,1838.629195,9548.656652
5381.368645,-666.185348,842.705048,7994.224174
5381.368968,-740.205942,1072.533697,9622.677246
5381.369291,-444.123565,1608.800546,8142.265362
5381.369613,-1406.391290,1915.238745,9474.636058
5381.369936,-1850.514855,1149.143247,8660.409521
5381.370258,-740.205942,842.705048,8438.347739
5381.370581,888.247130,1225.752797,7624.121203
5381.370904,0.000000,919.314598,7772.162391
5381.371226,-518.144159,1378.971896,9696.697840
5381.371549,74.020594,1072.533697,9992.780217
5381.371871,1406.391290,1685.410096,9252.574275
5381.372194,2738.761985,1762.019645,8660.409521
5381.372516,518.144159,1455.581446,9474.636058
5381.372839,222.061783,536.266849,10362.883188
5381.373162,1258.350101,766.095498,8586.388927
5381.373484,1554.432478,766.095498,8216.285956
5381.373807,1554.432478,766.095498,8216.285956
5381.374129,-1702.473667,-1225.752797,10362.883188
5381.374452,-2812.782580,-1762.019645,10584.944971
5381.374774,-296.082377,-1685.410096,9252.574275
5381.375097,0.000000,-1455.581446,8808.450710
5381.375420,-518.144159,-1302.362347,9918.759623
5381.375742,-1480.411884,-1532.190996,12139.377449
5381.376065,0.000000,-766.095498,10362.883188
5381.376387,1776.494261,-383.047749,8364.327145
5381.376710,1036.288319,-459.657299,8808.450710
5381.377032,444.123565,-842.705048,10955.047942
5381.377355,74.020594,-919.314598,11917.315666
5381.377678,370.102971,-153.219100,10214.842000
5381.378000,814.226536,-1149.143247,9104.533087
5381.378323,-592.164754,-2145.067394,9474.636058
5381.378645,-1480.411884,-2068.457845,10436.903782
5381.378968,-1554.432478,-1378.971896,10066.800811
5381.379291,-1924.535449,-842.705048,8956.491898
5381.379613,-740.205942,-842.705048,9178.553681
5381.379936,592.164754,0.000000,9252.574275
5381.380258,-222.061783,0.000000,9918.759623
5381.380581,-148.041188,1455.581446,8216.285956
5381.380903,-222.061783,919.314598,8734.430116
5381.381226,1850.514855,536.266849,7179.997637
5381.381549,814.226536,1608.800546,9696.697840
5381.381871,666.185348,2145.067394,8956.491898
5381.382194,-740.205942,1149.143247,9548.656652
5381.382516,370.102971,1302.362347,8364.327145
5381.382839,1850.514855,1608.800546,9104.533087
5381.383161,1406.391290,2298.286494,7476.080014
5381.383484,-1036.288319,2298.286494,10584.944971
5381.383807,-740.205942,2221.676944,9770.718434
5381.384129,518.144159,1378.971896,9992.780217
5381.384452,740.205942,2604.724693,7772.162391
5381.384774,-1184.329507,2528.115143,9474.636058
5381.385097,-2812.782580,1455.581446,9992.780217
5381.385419,-2664.741391,1532.190996,9178.553681
5381.385742,-1110.308913,2298.286494,7031.956449
5381.386065,-1554.432478,1532.190996,6661.853478
5381.386387,-4589.276840,842.705048,8068.244768
5381.386710,-5107.421000,689.485948,8882.471304
5381.387032,-2368.659014,459.657299,8068.244768
5381.387355,-1332.370696,1532.190996,7328.038826
5381.387678,-1406.391290,1838.629195,8660.409521
5381.388000,-2220.617826,919.314598,11177.109724
5381.388323,-222.061783,1685.410096,10807.006753
5381.388645,2072.576638,1762.019645,9104.533087
5381.388968,1924.535449,1915.238745,9400.615463
5381.389290,814.226536,1378.971896,11103.089130
5381.389613,1776.494261,1378.971896,11029.068536
5381.389936,2442.679609,2451.505594,8882.471304
5381.390258,3997.112087,1915.238745,8660.409521
5381.390581,1776.494261,459.657299,8290.306550
5381.390903,592.164754,0.000000,10362.883188
5381.391226,888.247130,612.876398,10066.800811
5381.391548,888.247130,612.876398,8586.388927
5381.391871,1110.308913,0.000000,8512.368333
5381.392194,148.041188,-919.314598,9622.677246
5381.392516,148.041188,229.828649,10510.924376
5381.392839,74.020594,0.000000,9474.636058
5381.393161,-666.185348,459.657299,8660.409521
5381.393484,74.020594,-919.314598,9474.636058
5381.393806,-1036.288319,-919.314598,9474.636058
5381.394129,-962.267725,-383.047749,9178.553681
5381.394452,-444.123565,-536.266849,8512.368333
5381.394774,-740.205942,-1225.752797,8956.491898
5381.395097,-444.123565,-919.314598,9326.594869
5381.395419,-296.082377,-612.876398,9474.636058
5381.395742,-1850.514855,-766.095498,9770.718434
5381.396065,-518.144159,-612.876398,9252.574275
5381.396387,1628.453072,-689.485948,9992.780217
5381.396710,2146.597232,229.828649,8956.491898
5381.397032,814.226536,689.485948,9474.636058
5381.397355,518.144159,153.219100,10362.883188
5381.397677,592.164754,459.657299,9918.759623
5381.398000,1406.391290,459.657299,9252.574275
5381.398323,444.123565,459.657299,9548.656652
5381.398645,-888.247130,229.828649,10436.903782
5381.398968,-1702.473667,0.000000,10881.027347
5381.399290,0.000000,612.876398,8660.409521
5381.399613,148.041188,766.095498,7772.162391
5381.399935,-1554.432478,919.314598,9252.574275
5381.400258,-2442.679609,459.657299,10807.006753
5381.400581,-1184.329507,766.095498,9548.656652
5381.400903,1036.288319,995.924147,7402.059420
5381.401226,370.102971,1608.800546,8068.244768
5381.401548,-1184.329507,766.095498,9770.718434
5381.401871,-3330.926739,536.266849,11251.130318
5381.402193,-1554.432478,536.266849,9104.533087
5381.402516,296.082377,1225.752797,7920.203579
5381.402839,-1480.411884,919.314598,8364.327145
5381.403161,-2368.659014,766.095498,10436.903782
5381.403484,-962.267725,1149.143247,9696.697840
5381.403806,888.247130,2068.457845,8216.285956
5381.404129,1628.453072,2681.334243,8660.409521
5381.404452,0.000000,1302.362347,10362.883188
5381.404774,0.000000,1225.752797,11029.068536
5381.405097,0.000000,1685.410096,9252.574275
5381.405419,444.123565,1149.143247,7624.121203
5381.405742,814.226536,919.314598,8882.471304
5381.406064,-518.144159,1302.362347,9104.533087
5381.406387,-1110.308913,1838.629195,10288.862594
5381.406710,0.000000,1762.019645,7846.182985
5381.407033,-666.185348,919.314598,7994.224174
5381.407356,-444.123565,689.485948,7994.224174
5381.407679,-962.267725,459.657299,9548.656652
5381.408001,-1776.494261,995.924147,8734.430116
5381.408324,-666.185348,1072.533697,8142.265362
5381.408647,0.000000,1532.190996,9474.636058
5381.408969,1258.350101,2145.067394,8808.450710
5381.409292,518.144159,1225.752797,8660.409521
5381.409614,296.082377,919.314598,8734.430116
5381.409937,1184.329507,842.705048,9178.553681
5381.410260,1554.432478,766.095498,9474.636058
5381.410582,666.185348,1072.533697,10140.821405
5381.410905,0.000000,459.657299,10066.800811
5381.411228,-1036.288319,-383.047749,9844.739029
5381.411550,740.205942,-229.828649,9400.615463
5381.411873,1036.288319,229.828649,8586.388927
5381.412195,-444.123565,153.219100,8364.327145
5381.412518,-962.267725,383.047749,11029.068536
5381.412841,-740.205942,229.828649,11103.089130
5381.413163,1480.411884,76.609550,9474.636058
5381.413486,2442.679609,919.314598,8512.368333
5381.413809,-666.185348,0.000000,10510.924376
5381.414131,-1850.514855,-1455.581446,11695.253884
5381.414454,-1332.370696,-1149.143247,9622.677246
5381.414776,666.185348,-459.657299,7179.997637
5381.415099,-962.267725,-1225.752797,8956.491898
5381.415422,-3775.050304,-2221.676944,10584.944971
5381.415744,-1628.453072,-1685.410096,9622.677246
5381.416067,-444.123565,-229.828649,7698.141797
5381.416389,444.123565,-383.047749,8808.450710
5381.416712,-1480.411884,-1302.362347,10436.903782
5381.417035,-1776.494261,-995.924147,11843.295072
5381.417357,370.102971,306.438199,9400.615463
5381.417680,518.144159,-306.438199,7920.203579
5381.418003,1184.329507,-536.266849,9622.677246
5381.418325,-370.102971,-536.266849,9992.780217
5381.418648,-814.226536,0.000000,9622.677246
5381.418970,1258.350101,383.047749,8512.368333
5381.419293,1332.370696,76.609550,8808.450710
5381.419616,518.144159,229.828649,10140.821405
5381.419938,-222.061783,0.000000,10881.027347
5381.420261,-962.267725,-153.219100,10510.924376
5381.420584,0.000000,1225.752797,8808.450710
5381.420906,888.247130,383.047749,10288.862594
5381.421229,1036.288319,1378.971896,9918.759623
5381.421551,444.123565,2221.676944,10140.821405
5381.421874,-592.164754,2145.067394,9030.512492
5381.422197,296.082377,1838.629195,8290.306550
5381.422519,1036.288319,1762.019645,8290.306550
5381.422842,-444.123565,2298.286494,8142.265362
5381.423165,-1184.329507,2298.286494,8586.388927
5381.423487,-3108.864956,1378.971896,8586.388927
5381.423810,-1924.535449,766.095498,7994.224174
5381.424132,-1258.350101,1302.362347,8586.388927
5381.424455,-2072.576638,1762.019645,7846.182985
5381.424778,-2368.659014,919.314598,9474.636058
5381.425100,-1332.370696,1685.410096,9474.636058
5381.425423,1776.494261,2451.505594,8808.450710
5381.425745,1628.453072,3294.210641,7994.224174
5381.426068,0.000000,2604.724693,9622.677246
5381.426391,-370.102971,2068.457845,10732.986159
5381.426713,444.123565,2068.457845,9178.553681
5381.427036,2516.700203,2681.334243,8068.244768
5381.427359,1850.514855,2145.067394,8068.244768
5381.427681,-1110.308913,919.314598,10140.821405
5381.428004,-296.082377,1685.410096,9770.718434
5381.428326,962.267725,1685.410096,8364.327145
5381.428649,1036.288319,1838.629195,7772.162391
5381.428972,-444.123565,1072.533697,9696.697840
5381.429294,-740.205942,229.828649,10881.027347
5381.429617,-222.061783,1532.190996,9326.594869
5381.429940,592.164754,612.876398,7105.977043
5381.430262,740.205942,536.266849,8734.430116
5381.430585,-962.267725,306.438199,9844.739029
5381.430907,-814.226536,459.657299,10436.903782
5381.431230,666.185348,229.828649,7994.224174
5381.431553,518.144159,0.000000,8438.347739
5381.431875,-592.164754,-536.266849,8956.491898
5381.432198,-962.267725,-766.095498,10140.821405
5381.432521,-1110.308913,-766.095498,10140.821405
5381.432843,-370.102971,-1225.752797,8438.347739
5381.433166,0.000000,-1532.190996,9622.677246
5381.433488,148.041188,-1378.971896,10140.821405
5381.433811,0.000000,-1378.971896,10510.924376
5381.434134,0.000000,-1302.362347,9104.533087
5381.434456,740.205942,-1532.190996,9548.656652
5381.434779,0.000000,-1762.019645,11177.109724
5381.435101,-370.102971,-1302.362347,10140.821405
5381.435424,0.000000,-1685.410096,11029.068536
5381.435747,-1998.556043,-1838.629195,9548.656652
5381.436069,-1184.329507,-2145.067394,10436.903782
5381.436392,-222.061783,-1762.019645,9548.656652
5381.436715,-1036.288319,-383.047749,9474.636058
5381.437037,-2220.617826,-536.266849,10436.903782
5381.437360,74.020594,-536.266849,9696.697840
5381.437682,1258.350101,-383.047749,10140.821405
5381.438005,1184.329507,383.047749,8438.347739
5381.438328,-296.082377,0.000000,9400.615463
5381.438650,-1702.473667,-536.266849,10584.944971
5381.438973,0.000000,842.705048,8808.450710
5381.439296,1110.308913,1455.581446,9178.553681
5381.439618,814.226536,1608.800546,7698.141797
5381.439941,-1554.432478,689.485948,11251.130318
5381.440263,-222.061783,766.095498,8882.471304
5381.440586,962.267725,1225.752797,9474.636058
5381.440909,740.205942,2681.334243,8216.285956
5381.441231,-1184.329507,1915.238745,9770.718434
5381.441554,-2146.597232,1225.752797,10510.924376
5381.441877,-1036.288319,2451.505594,8586.388927
5381.442199,1258.350101,2528.115143,6069.688724
5381.442522,518.144159,2451.505594,8216.285956
5381.442844,-1184.329507,2604.724693,9400.615463
5381.443167,-1332.370696,2451.505594,10214.842000
5381.443490,-518.144159,2757.943793,7920.203579
5381.443812,0.000000,2221.676944,7846.182985
5381.444135,-1258.350101,1838.629195,8142.265362
5381.444457,-1924.535449,1608.800546,10066.800811
5381.444780,-1480.411884,2451.505594,9918.759623
5381.445103,-814.226536,2145.067394,6735.874072
5381.445425,-74.020594,1685.410096,7846.182985
5381.445748,-814.226536,2374.896044,8290.306550
5381.446071,-370.102971,2604.724693,9400.615463
5381.446393,-74.020594,2528.115143,7402.059420
5381.446716,222.061783,2298.286494,8142.265362
5381.447038,1184.329507,1991.848295,8290.306550
5381.447361,296.082377,1532.190996,9622.677246
5381.447684,74.020594,1838.629195,10732.986159
5381.448006,-222.061783,1532.190996,10436.903782
5381.448329,444.123565,0.000000,10066.800811
5381.448652,888.247130,536.266849,10140.821405
5381.448974,74.020594,306.438199,9326.594869
5381.449297,74.020594,-306.438199,9992.780217
5381.449619,0.000000,0.000000,9918.759623
5381.449942,2516.700203,306.438199,9844.739029
5381.450265,3997.112087,1378.971896,8142.265362
5381.450587,1110.308913,995.924147,8808.450710
5381.450910,1480.411884,229.828649,9474.636058
5381.451233,1258.350101,-1378.971896,9400.615463
5381.451555,1628.453072,-383.047749,7698.141797
5381.451878,666.185348,-229.828649,8882.471304
5381.452200,-2664.741391,-1532.190996,10510.924376
5381.452523,-1702.473667,-2221.676944,9104.533087
5381.452846,-740.205942,-2068.457845,9178.553681
5381.453168,-740.205942,-1532.190996,7772.162391
5381.453491,-2368.659014,-2221.676944,10436.903782
5381.453813,-3034.844362,-2911.162892,11399.171507
5381.454136,-888.247130,-1685.410096,11251.130318
5381.454459,592.164754,-995.924147,8586.388927
5381.454781,-296.082377,-689.485948,9696.697840
5381.455104,-518.144159,-536.266849,10881.027347
5381.455427,-296.082377,-536.266849,10807.006753
5381.455749,1850.514855,-689.485948,7846.182985
5381.456072,2664.741391,-153.219100,8364.327145
5381.456394,0.000000,0.000000,9696.697840
5381.456717,-1554.432478,-766.095498,11695.253884
5381.457040,-1184.329507,-919.314598,11029.068536
5381.457362,74.020594,-76.609550,8956.491898
5381.457685,0.000000,0.000000,9474.636058
5381.458008,-814.226536,-612.876398,11325.150913
5381.458330,-1110.308913,766.095498,11547.212695
5381.458653,-888.247130,1149.143247,9030.512492
5381.458975,-370.102971,1225.752797,8216.285956
5381.459298,-888.247130,1302.362347,9030.512492
5381.459621,-1776.494261,1225.752797,9400.615463
5381.459943,-1406.391290,2145.067394,9178.553681
5381.460266,-888.247130,2374.896044,7179.997637
5381.460589,-1036.288319,1149.143247,7179.997637
5381.460911,-1110.308913,1378.971896,7994.224174
5381.461234,-1924.535449,1762.019645,9030.512492
5381.461556,-2294.638420,1838.629195,8808.450710
5381.461879,-296.082377,2145.067394,7698.141797
5381.462202,444.123565,2374.896044,9030.512492
5381.462524,296.082377,2451.505594,8364.327145
5381.462847,-962.267725,1762.019645,9474.636058
5381.463169,-1850.514855,1685.410096,9474.636058
5381.463492,-592.164754,1838.629195,9622.677246
5381.463815,296.082377,2068.457845,8882.471304
5381.464137,74.020594,2298.286494,9030.512492
5381.464460,-1184.329507,1991.848295,9474.636058
5381.464783,-222.061783,1378.971896,9400.615463
5381.465105,1480.411884,2374.896044,8216.285956
5381.465428,2220.617826,2911.162892,8290.306550
5381.465750,1036.288319,2604.724693,9030.512492
5381.466073,222.061783,2145.067394,10732.986159
5381.466396,1480.411884,2221.676944,9622.677246
5381.466718,3108.864956,2068.457845,7624.121203
5381.467041,2664.741391,2451.505594,8586.388927
5381.467364,518.144159,1608.800546,10362.883188
5381.467686,518.144159,76.609550,11177.109724
5381.468009,2146.597232,1149.143247,9326.594869
5381.468331,2368.659014,1532.190996,8808.450710
5381.468654,-148.041188,153.219100,9178.553681
5381.468977,-1554.432478,-1072.533697,10584.944971
5381.469299,-1480.411884,-459.657299,9696.697840
5381.469622,-1036.288319,-229.828649,7031.956449
5381.469945,-1406.391290,-842.705048,8660.409521
5381.470267,-1924.535449,-612.876398,9178.553681
5381.470590,-1702.473667,-1302.362347,10288.862594
5381.470912,-592.164754,-766.095498,7550.100608
5381.471235,74.020594,-689.485948,7846.182985
5381.471558,74.020594,-1225.752797,9178.553681
5381.471880,-1554.432478,-1991.848295,10288.862594
5381.472203,-814.226536,-995.924147,11029.068536
5381.472525,592.164754,-1455.581446,8956.491898
5381.472848,296.082377,-1685.410096,10436.903782
5381.473171,518.144159,-1991.848295,10140.821405
5381.473493,148.041188,-1838.629195,11621.233289
5381.473816,0.000000,-459.657299,10807.006753
5381.474139,518.144159,-995.924147,10510.924376
5381.474461,1184.329507,-1685.410096,11029.068536
5381.474784,1036.288319,-459.657299,10214.842000
5381.475106,-814.226536,-153.219100,11399.171507
5381.475429,-1184.329507,-995.924147,9770.718434
5381.475752,-962.267725,-1532.190996,10362.883188
5381.476074,-888.247130,-995.924147,8364.327145
5381.476397,-1554.432478,-766.095498,9400.615463
5381.476720,-2368.659014,-306.438199,9326.594869
5381.477042,-3182.885551,-459.657299,9252.574275
5381.477365,-888.247130,-306.438199,8660.409521
5381.477687,-962.267725,-229.828649,8068.244768
5381.478010,-1850.514855,459.657299,8216.285956
5381.478333,-2294.638420,919.314598,9326.594869
5381.478655,-814.226536,1302.362347,8808.450710
5381.478978,1036.288319,1378.971896,8660.409521
5381.479301,592.164754,2068.457845,7105.977043
5381.479623,-296.082377,1762.019645,9474.636058
5381.479946,518.144159,1991.848295,9474.636058
5381.480268,1406.391290,2757.943793,9252.574275
5381.480591,2664.741391,3217.601092,8068.244768
5381.480914,222.061783,2757.943793,8364.327145
5381.481236,-1332.370696,2145.067394,9252.574275
5381.481559,-666.185348,1991.848295,9252.574275
5381.481881,296.082377,2681.334243,7402.059420
5381.482204,-518.144159,2528.115143,7402.059420
5381.482527,-2072.576638,1378.971896,8882.471304
5381.482849,-2072.576638,1532.190996,9918.759623
5381.483172,-148.041188,2145.067394,7402.059420
5381.483495,148.041188,2681.334243,6365.771101
5381.483817,-296.082377,2068.457845,8882.471304
5381.484140,-962.267725,1685.410096,10214.842000
5381.484462,-1702.473667,1991.848295,10658.965565
5381.484785,1332.370696,2757.943793,8512.368333
5381.485108,2072.576638,2528.115143,9400.615463
5381.485430,296.082377,1762.019645,10881.027347
5381.485753,148.041188,1915.238745,11547.212695
5381.486076,740.205942,1532.190996,9696.697840
5381.486398,1702.473667,1685.410096,8142.265362
5381.486721,1332.370696,919.314598,10214.842000
5381.487043,1184.329507,919.314598,9326.594869
5381.487366,1036.288319,383.047749,9770.718434
5381.487689,222.061783,1072.533697,7772.162391
5381.488011,1406.391290,229.828649,7920.203579
5381.488334,666.185348,306.438199,9400.615463
5381.488657,-518.144159,919.314598,9474.636058
5381.488979,0.000000,612.876398,9622.677246
5381.489302,222.061783,0.000000,7846.182985
5381.489624,0.000000,0.000000,9400.615463
5381.489947,444.123565,0.000000,8956.491898
5381.490270,-2146.597232,-1838.629195,9178.553681
5381.490592,-1850.514855,-1762.019645,8808.450710
5381.490915,-148.041188,-2145.067394,9252.574275
5381.491237,296.082377,-1685.410096,9104.533087
5381.491560,518.144159,-1302.362347,8734.430116
5381.491883,-962.267725,-1378.971896,10436.903782
5381.492205,-740.205942,-1838.629195,10807.006753
5381.492528,74.020594,-1608.800546,10436.903782
5381.492851,1184.329507,-1455.581446,10214.842000
5381.493173,-370.102971,-1072.533697,10140.821405
5381.493496,-2368.659014,-1762.019645,12065.356855
5381.493818,-2072.576638,-1532.190996,10658.965565
5381.494141,-222.061783,-1378.971896,8956.491898
5381.494464,-888.247130,-1532.190996,8216.285956
5381.494786,-2442.679609,-689.485948,9696.697840
5381.495109,-1036.288319,-1762.019645,10732.986159
5381.495432,666.185348,0.000000,8438.347739
5381.495754,1554.432478,459.657299,7846.182985
5381.496077,0.000000,0.000000,9622.677246
5381.496399,-1702.473667,0.000000,11695.253884
5381.496722,-1258.350101,459.657299,11843.295072
5381.497045,740.205942,459.657299,9030.512492
5381.497367,1036.288319,689.485948,8734.430116
5381.497690,-1036.288319,1455.581446,9696.697840
5381.498013,-1480.411884,766.095498,9622.677246
5381.498335,0.000000,1378.971896,8142.265362
5381.498658,962.267725,2451.505594,5625.565159
5381.498980,666.185348,2068.457845,7846.182985
5381.499303,0.000000,2528.115143,9030.512492
5381.499626,296.082377,2298.286494,9178.553681
5381.499948,-296.082377,1455.581446,6957.935855
5381.500271,444.123565,1762.019645,7624.121203
5381.500593,148.041188,2145.067394,8734.430116
5381.500916,-1924.535449,2221.676944,10214.842000
5381.501239,-370.102971,2681.334243,9252.574275
5381.501561,-296.082377,1838.629195,8290.306550
5381.501884,222.061783,1838.629195,8142.265362
5381.502207,296.082377,2068.457845,8956.491898
5381.502529,-296.082377,2451.505594,9252.574275
5381.502852,-666.185348,2451.505594,10066.800811
5381.503174,148.041188,2374.896044,9918.759623
5381.503497,1036.288319,1762.019645,10066.800811
5381.503820,1184.329507,2757.943793,8290.306550
5381.504142,-666.185348,2068.457845,9548.656652
5381.504465,222.061783,1915.238745,9696.697840
5381.504788,1110.308913,1302.362347,9030.512492
5381.505110,1332.370696,1685.410096,8956.491898
5381.505433,222.061783,1685.410096,8438.347739
5381.505755,-1480.411884,842.705048,9844.739029
5381.506078,-1036.288319,766.095498,9326.594869
5381.506401,888.247130,1149.143247,8364.327145
5381.506723,740.205942,1378.971896,8364.327145
5381.507046,-1258.350101,842.705048,9030.512492
5381.507369,-1480.411884,306.438199,11029.068536
5381.507691,370.102971,0.000000,8438.347739
5381.508014,1110.308913,306.438199,8068.244768
5381.508336,-666.185348,612.876398,8808.450710
5381.508659,-1184.329507,-612.876398,10881.027347
5381.508982,-1258.350101,-766.095498,9992.780217
5381.509304,444.123565,-306.438199,7920.203579
5381.509627,222.061783,-612.876398,8142.265362
5381.509949,-1850.514855,-1149.143247,9622.677246
5381.510272,-1998.556043,-1608.800546,10732.986159
5381.510595,-1110.308913,-1225.752797,9178.553681
5381.510918,-296.082377,-919.314598,8068.244768
5381.511240,-296.082377,-612.876398,9030.512492
5381.511563,-1776.494261,-1378.971896,11325.150913
5381.511886,-962.267725,-1838.629195,11029.068536
5381.512208,0.000000,-1762.019645,8808.450710
5381.512531,888.247130,-1378.971896,9030.512492
5381.512854,296.082377,-1149.143247,11473.192101
5381.513176,370.102971,-689.485948,11473.192101
5381.513499,1110.308913,-536.266849,11029.068536
5381.513822,2146.597232,-995.924147,8438.347739
5381.514144,1480.411884,-842.705048,10584.944971
5381.514467,1036.288319,-306.438199,11547.212695
5381.514790,370.102971,-306.438199,11473.192101
5381.515112,0.000000,-383.047749,9326.594869
5381.515435,-592.164754,-536.266849,9252.574275
5381.515758,222.061783,-612.876398,10066.800811
5381.516081,-148.041188,153.219100,9252.574275
5381.516403,-1850.514855,459.657299,8660.409521
5381.516726,-1554.432478,76.609550,8734.430116
5381.517049,-296.082377,153.219100,9104.533087
5381.517371,-1036.288319,1072.533697,8808.450710
5381.517694,-888.247130,1685.410096,8586.388927
5381.518017,-3034.844362,842.705048,8808.450710
5381.518339,-2812.782580,919.314598,8364.327145
5381.518662,-222.061783,536.266849,7476.080014
5381.518985,0.000000,1455.581446,7328.038826
5381.519307,-1184.329507,2068.457845,8734.430116
5381.519630,-1258.350101,1915.238745,10288.862594
5381.519953,962.267725,2451.505594,8364.327145
5381.520275,2294.638420,2911.162892,7550.100608
5381.520598,1776.494261,3600.648841,7846.182985
5381.520921,1332.370696,2298.286494,10288.862594
5381.521243,444.123565,2604.724693,9844.739029
5381.521566,1850.514855,2911.162892,8512.368333
5381.521889,1480.411884,2604.724693,8882.471304
5381.522212,-1406.391290,2298.286494,9992.780217
5381.522534,-2886.803174,1762.019645,10955.047942
5381.522857,-370.102971,1991.848295,9252.574275
5381.523180,740.205942,2528.115143,7698.141797
5381.523502,0.000000,2911.162892,8512.368333
5381.523825,-1332.370696,1762.019645,10584.944971
5381.524148,-666.185348,1225.752797,9918.759623
5381.524470,1184.329507,2451.505594,7105.977043
5381.524793,370.102971,2681.334243,8364.327145
5381.525116,-370.102971,2145.067394,10214.842000
5381.525438,-370.102971,1149.143247,11251.130318
5381.525761,-444.123565,766.095498,8882.471304
5381.526084,1406.391290,459.657299,5995.668130
5381.526406,0.000000,0.000000,8142.265362
5381.526729,-1184.329507,766.095498,8882.471304
5381.527052,-444.123565,0.000000,9844.739029
5381.527374,-740.205942,-306.438199,7179.997637
5381.527697,148.041188,689.485948,7031.956449
5381.528020,1184.329507,-153.219100,8512.368333
5381.528343,1184.329507,306.438199,9252.574275
5381.528665,1258.350101,766.095498,11473.192101
5381.528988,740.205942,0.000000,9104.533087
5381.529311,592.164754,-1608.800546,11769.274478
5381.529633,-222.061783,-1378.971896,10214.842000
5381.529956,-740.205942,-1762.019645,10807.006753
5381.530279,-296.082377,-2451.505594,9326.594869
5381.530601,-962.267725,-2451.505594,9992.780217
5381.530924,888.247130,-1915.238745,10066.800811
5381.531247,0.000000,-1685.410096,9770.718434
5381.531569,-1924.535449,-1838.629195,10807.006753
5381.531892,-1628.453072,-1838.629195,10881.027347
5381.532215,-148.041188,-1991.848295,10584.944971
5381.532537,1258.350101,-919.314598,9770.718434
5381.532860,-296.082377,-689.485948,10362.883188
5381.533183,-2146.597232,-1685.410096,11547.212695
5381.533506,-2146.597232,-1991.848295,10732.986159
5381.533828,-1036.288319,-1302.362347,8808.450710
5381.534151,0.000000,-536.266849,9030.512492
5381.534474,-592.164754,-1225.752797,9104.533087
5381.534796,-1406.391290,-1072.533697,10140.821405
5381.535119,296.082377,-153.219100,8956.491898
5381.535442,1406.391290,842.705048,8438.347739
5381.535764,592.164754,1762.019645,8586.388927
5381.536087,-888.247130,1072.533697,10584.944971
5381.536410,666.185348,1608.800546,9992.780217
5381.536732,1998.556043,2374.896044,8290.306550
5381.537055,1850.514855,2374.896044,6957.935855
5381.537378,962.267725,2068.457845,8142.265362
5381.537700,-1332.370696,1915.238745,9622.677246
5381.538023,-1110.308913,1915.238745,8364.327145
5381.538346,148.041188,2145.067394,6883.915261
5381.538668,-1702.473667,1762.019645,7920.203579
5381.538991,-2368.659014,1991.848295,8512.368333
5381.539314,-2368.659014,1608.800546,9252.574275
5381.539637,-2664.741391,2451.505594,7402.059420
5381.539959,-1776.494261,2221.676944,8364.327145
5381.540282,-2516.700203,1991.848295,9252.574275
5381.540605,-1406.391290,2221.676944,9474.636058
5381.540927,-666.185348,2757.943793,8512.368333
5381.541250,-740.205942,2298.286494,7328.038826
5381.541573,888.247130,2221.676944,9030.512492
5381.541895,-370.102971,2451.505594,9178.553681
5381.542218,296.082377,2834.553343,9400.615463
5381.542541,740.205942,2145.067394,9696.697840
5381.542863,-370.102971,1915.238745,9844.739029
5381.543186,1776.494261,1608.800546,9844.739029
5381.543509,2294.638420,1532.190996,9178.553681
5381.543831,1480.411884,2298.286494,9474.636058
5381.544154,814.226536,1302.362347,10288.862594
5381.544477,1554.432478,995.924147,9252.574275
5381.544799,2812.782580,1455.581446,9770.718434
5381.545122,1554.432478,1991.848295,8512.368333
5381.545445,-518.144159,0.000000,10362.883188
5381.545768,-518.144159,-612.876398,9622.677246
5381.546090,0.000000,-229.828649,8734.430116
5381.546413,1332.370696,0.000000,7254.018232
5381.546736,-814.226536,0.000000,9178.553681
5381.547058,-2886.803174,-1149.143247,10732.986159
5381.547381,-1628.453072,-1608.800546,9326.594869
5381.547704,444.123565,-1149.143247,7994.224174
5381.548026,296.082377,-1072.533697,8364.327145
5381.548349,0.000000,-1378.971896,10214.842000
5381.548672,-518.144159,-1225.752797,11991.336260
5381.548994,888.247130,-842.705048,8956.491898
5381.549317,1480.411884,-1302.362347,8808.450710
5381.549640,740.205942,-1072.533697,9326.594869
5381.549962,-814.226536,-1991.848295,11695.253884
5381.550285,0.000000,-1225.752797,10288.862594
5381.550608,1998.556043,-689.485948,8438.347739
5381.550931,740.205942,-229.828649,9104.533087
5381.551253,-1702.473667,-766.095498,10732.986159
5381.551576,-2294.638420,-1378.971896,11325.150913
5381.551899,-1776.494261,-1225.752797,9770.718434
5381.552221,-666.185348,-766.095498,8586.388927
5381.552544,-666.185348,-1149.143247,9474.636058
5381.552867,-518.144159,0.000000,10140.821405
5381.553189,-370.102971,689.485948,10436.903782
5381.553512,-1184.329507,919.314598,8808.450710
5381.553835,740.205942,306.438199,9252.574275
5381.554157,296.082377,919.314598,9474.636058
5381.554480,0.000000,1072.533697,9104.533087
5381.554803,-592.164754,1225.752797,9400.615463
5381.555125,-1998.556043,1608.800546,8364.327145
5381.555448,-518.144159,1378.971896,8438.347739
5381.555771,74.020594,1915.238745,8660.409521
5381.556093,-740.205942,1915.238745,8808.450710
5381.556416,-1184.329507,2221.676944,9178.553681
5381.556739,-814.226536,2221.676944,8882.471304
5381.557062,962.267725,2528.115143,8216.285956
5381.557384,-296.082377,2068.457845,7846.182985
5381.557707,-2738.761985,1149.143247,8808.450710
5381.558030,-2220.617826,1302.362347,9918.759623
5381.558352,0.000000,1915.238745,7846.182985
5381.558675,296.082377,1915.238745,8364.327145
5381.558998,222.061783,1685.410096,8068.244768
5381.559320,-2442.679609,1072.533697,10658.965565
5381.559643,-814.226536,1302.362347,8512.368333
5381.559966,1480.411884,2451.505594,9326.594869
5381.560288,296.082377,2757.943793,8364.327145
5381.560611,-592.164754,1608.800546,11325.150913
5381.560934,-1036.288319,1072.533697,11029.068536
5381.561256,592.164754,1455.581446,8882.471304
5381.561579,2516.700203,1991.848295,7698.141797
5381.561902,222.061783,1455.581446,9178.553681
5381.562225,-148.041188,842.705048,10955.047942
5381.562547,-370.102971,766.095498,9622.677246
5381.562870,2294.638420,1302.362347,8068.244768
5381.563193,1850.514855,919.314598,9252.574275
5381.563515,-518.144159,689.485948,10066.800811
5381.563838,-1110.308913,-306.438199,11917.315666
5381.564161,-444.123565,306.438199,9252.574275
5381.564483,370.102971,459.657299,7920.203579
5381.564806,592.164754,689.485948,8660.409521
5381.565129,0.000000,536.266849,9696.697840
5381.565451,444.123565,995.924147,9622.677246
5381.565774,1258.350101,1225.752797,5625.565159
5381.566097,2072.576638,459.657299,7402.059420
5381.566419,370.102971,383.047749,9400.615463
5381.566742,-1554.432478,76.609550,10214.842000
5381.567065,-1554.432478,-842.705048,9474.636058
5381.567387,-1406.391290,-1225.752797,7920.203579
5381.567710,-1554.432478,-1225.752797,9030.512492
5381.568033,-1258.350101,-842.705048,10584.944971
5381.568356,-2738.761985,-1225.752797,10955.047942
5381.568678,-1998.556043,-766.095498,9030.512492
5381.569001,0.000000,-842.705048,9474.636058
5381.569324,962.267725,-306.438199,9770.718434
5381.569646,222.061783,766.095498,9844.739029
5381.569969,-222.061783,0.000000,9992.780217
5381.570292,1036.288319,-459.657299,10066.800811
5381.570614,1554.432478,306.438199,10214.842000
5381.570937,2072.576638,689.485948,9474.636058
5381.571260,1406.391290,229.828649,9918.759623
5381.571582,-444.123565,-153.219100,10436.903782
5381.571905,1036.288319,383.047749,9770.718434
5381.572228,2220.617826,383.047749,9696.697840
5381.572550,814.226536,459.657299,9770.718434
5381.572873,-1184.329507,306.438199,10732.986159
5381.573196,-1924.535449,-306.438199,10584.944971
5381.573518,222.061783,229.828649,9030.512492
5381.573841,888.247130,1378.971896,8882.471304
5381.574164,-1332.370696,612.876398,8290.306550
5381.574487,-2516.700203,0.000000,9474.636058
5381.574809,-2072.576638,612.876398,8438.347739
5381.575132,-296.082377,1378.971896,6883.915261
5381.575455,-148.041188,1225.752797,7624.121203
5381.575777,-3108.864956,536.266849,9178.553681
5381.576100,-3478.967927,536.266849,10140.821405
5381.576423,-1110.308913,383.047749,7920.203579
5381.576745,-592.164754,1225.752797,7254.018232
5381.577068,-666.185348,995.924147,8660.409521
5381.577391,-1628.453072,1072.533697,10288.862594
5381.577713,0.000000,1302.362347,10362.883188
5381.578036,1036.288319,2221.676944,8142.265362
5381.578359,1184.329507,1838.629195,9252.574275
5381.578681,1184.329507,1685.410096,10066.800811
5381.579004,-518.144159,0.000000,11029.068536
5381.579327,592.164754,1532.190996,9252.574275
5381.579650,1702.473667,2068.457845,8438.347739
5381.579972,0.000000,1455.581446,9474.636058
5381.580295,0.000000,1378.971896,9844.739029
5381.580618,-148.041188,842.705048,9400.615463
5381.580940,888.247130,1838.629195,7624.121203
5381.581263,1110.308913,1149.143247,8216.285956
5381.581586,740.205942,1072.533697,9622.677246
5381.581908,592.164754,1991.848295,10140.821405
5381.582231,-888.247130,919.314598,9104.533087
5381.582554,-1332.370696,0.000000,9178.553681
5381.582876,0.000000,459.657299,9326.594869
5381.583199,74.020594,229.828649,9992.780217
5381.583522,74.020594,536.266849,9474.636058
5381.583844,0.000000,229.828649,9548.656652
5381.584167,-148.041188,306.438199,9104.533087
5381.584490,1258.350101,459.657299,9104.533087
5381.584812,666.185348,919.314598,9326.594869
5381.585135,-444.123565,383.047749,9104.533087
5381.585458,-1110.308913,0.000000,10214.842000
5381.585781,740.205942,612.876398,7994.224174
5381.586103,2220.617826,383.047749,7772.162391
5381.586426,222.061783,-153.219100,7550.100608
5381.586749,-888.247130,-306.438199,10807.006753
5381.587071,0.000000,-612.876398,9622.677246
5381.587394,1110.308913,0.000000,9104.533087
5381.587717,1110.308913,229.828649,8808.450710
5381.588039,-814.226536,-1072.533697,9696.697840
5381.588362,-2442.679609,-1838.629195,11399.171507
5381.588685,-592.164754,-1072.533697,9104.533087
5381.589007,814.226536,0.000000,9104.533087
5381.589330,0.000000,-153.219100,8734.430116
5381.589653,-1924.535449,-919.314598,11399.171507
5381.589975,-1258.350101,-689.485948,10732.986159
5381.590298,444.123565,536.266849,8808.450710
5381.590621,1110.308913,306.438199,8216.285956
5381.590944,-222.061783,-995.924147,10658.965565
5381.591266,-1924.535449,-459.657299,10881.027347
5381.591589,-1628.453072,-153.219100,10436.903782
5381.591912,0.000000,-229.828649,7698.141797
5381.592234,-1332.370696,-689.485948,8882.471304
5381.592557,-1036.288319,-842.705048,9252.574275
5381.592880,-1258.350101,536.266849,10214.842000
5381.593202,-370.102971,919.314598,8216.285956
5381.593525,740.205942,842.705048,8586.388927
5381.593848,888.247130,995.924147,9548.656652
5381.594170,1184.329507,1685.410096,10510.924376
5381.594493,592.164754,2298.286494,10362.883188
5381.594816,370.102971,2451.505594,8660.409521
5381.595138,1406.391290,1762.019645,9326.594869
5381.595461,296.082377,1532.190996,8586.388927
5381.595784,-592.164754,1762.019645,9178.553681
5381.596106,-1702.473667,1378.971896,7994.224174
5381.596429,-2294.638420,459.657299,7624.121203
5381.596752,-814.226536,766.095498,8216.285956
5381.597075,-1702.473667,1532.190996,8290.306550
5381.597397,-3701.029710,842.705048,9400.615463
5381.597720,-3108.864956,383.047749,9844.739029
5381.598043,-2146.597232,-229.828649,9400.615463
5381.598365,0.000000,612.876398,8882.471304
5381.598688,-592.164754,1455.581446,8216.285956
5381.599011,-1554.432478,1149.143247,10436.903782
5381.599333,444.123565,1762.019645,9918.759623
5381.599656,1776.494261,1915.238745,8734.430116
5381.599979,3404.947333,3140.991542,7476.080014
5381.600301,1776.494261,2145.067394,9548.656652
5381.600624,-518.144159,1225.752797,11251.130318
5381.600947,1258.350101,766.095498,9844.739029
5381.601269,2368.659014,1532.190996,9474.636058
5381.601592,1702.473667,1915.238745,9252.574275
5381.601915,-592.164754,995.924147,11103.089130
5381.602237,148.041188,-766.095498,10881.027347
5381.602560,1850.514855,1072.533697,7846.182985
5381.602883,1776.494261,919.314598,7994.224174
5381.603206,-148.041188,766.095498,9622.677246
5381.603528,-2368.659014,0.000000,11843.295072
5381.603851,-740.205942,459.657299,9400.615463
5381.604174,1480.411884,766.095498,6883.915261
5381.604496,296.082377,459.657299,7846.182985
5381.604819,-1110.308913,612.876398,9696.697840
5381.605142,-148.041188,-995.924147,10881.027347
5381.605464,0.000000,383.047749,8438.347739
5381.605787,888.247130,306.438199,8142.265362
5381.606110,444.123565,-536.266849,9622.677246
5381.606432,-518.144159,-766.095498,10584.944971
5381.606755,0.000000,0.000000,9918.759623
5381.607078,0.000000,-766.095498,8586.388927
5381.607400,962.267725,-1149.143247,9474.636058
5381.607723,0.000000,-536.266849,9992.780217
5381.608046,-666.185348,-536.266849,10362.883188
5381.608369,-740.205942,0.000000,9992.780217
5381.608691,-1480.411884,0.000000,8882.471304
5381.609014,0.000000,-153.219100,9474.636058
5381.609337,-518.144159,-842.705048,8660.409521
5381.609659,-1332.370696,536.266849,10066.800811
5381.609982,-740.205942,536.266849,9770.718434
5381.610305,-296.082377,766.095498,10362.883188
5381.610627,1110.308913,306.438199,9326.594869
5381.610950,740.205942,459.657299,8364.327145
5381.611273,-296.082377,229.828649,10140.821405
5381.611595,444.123565,995.924147,9992.780217
5381.611918,740.205942,995.924147,10807.006753
5381.612240,74.020594,995.924147,8808.450710
5381.612563,-518.144159,229.828649,9622.677246
5381.612886,-2294.638420,0.000000,9400.615463
5381.613208,-1332.370696,689.485948,9918.759623
5381.613531,296.082377,1149.143247,8290.306550
5381.613854,-370.102971,1685.410096,8068.244768
5381.614176,-2146.597232,1225.752797,8882.471304
5381.614499,-2072.576638,1608.800546,8882.471304
5381.614822,0.000000,1915.238745,7846.182985
5381.615144,1184.329507,2451.505594,6883.915261
5381.615467,-1184.329507,1378.971896,9030.512492
5381.615789,-1924.535449,459.657299,10658.965565
5381.616112,-2220.617826,612.876398,9844.739029
5381.616435,-666.185348,76.609550,7624.121203
5381.616757,-740.205942,1302.362347,8216.285956
5381.617080,-2812.782580,229.828649,9918.759623
5381.617403,-1332.370696,689.485948,10436.903782
5381.617725,444.123565,1302.362347,9030.512492
5381.618048,1702.473667,2068.457845,8290.306550
5381.618371,1184.329507,1608.800546,9400.615463
5381.618693,1036.288319,689.485948,10436.903782
5381.619016,1628.453072,1532.190996,9548.656652
5381.619339,2072.576638,1532.190996,9104.533087
5381.619661,1924.535449,1225.752797,9474.636058
5381.619984,1628.453072,383.047749,9770.718434
5381.620306,370.102971,306.438199,9622.677246
5381.620629,1036.288319,919.314598,8882.471304
5381.620952,-444.123565,306.438199,8808.450710
5381.621274,-296.082377,0.000000,9844.739029
5381.621597,-222.061783,-459.657299,9178.553681
5381.621920,-1998.556043,0.000000,9474.636058
5381.622242,-1850.514855,0.000000,8882.471304
5381.622565,-740.205942,0.000000,9400.615463
5381.622888,148.041188,0.000000,9030.512492
5381.623210,444.123565,766.095498,8734.430116
5381.623533,-1480.411884,919.314598,8364.327145
5381.623855,518.144159,229.828649,8586.388927
5381.624178,814.226536,-383.047749,8364.327145
5381.624501,888.247130,0.000000,8068.244768
5381.624823,296.082377,-153.219100,9400.615463
5381.625146,-2368.659014,-919.314598,10288.862594
5381.625469,-1036.288319,-766.095498,10584.944971
5381.625791,1406.391290,-536.266849,9030.512492
5381.626114,-444.123565,153.219100,10066.800811
5381.626437,-888.247130,0.000000,10362.883188
5381.626759,-444.123565,-995.924147,11325.150913
5381.627082,2368.659014,229.828649,9104.533087
5381.627405,2368.659014,842.705048,9252.574275
5381.627727,-962.267725,612.876398,9844.739029
5381.628050,-1554.432478,-229.828649,11473.192101
5381.628372,-444.123565,0.000000,10140.821405
5381.628695,2220.617826,229.828649,7328.038826
5381.629018,1480.411884,612.876398,9548.656652
5381.629340,-740.205942,459.657299,9918.759623
5381.629663,-1554.432478,153.219100,11843.295072
5381.629986,1110.308913,1072.533697,8586.388927
5381.630308,518.144159,1072.533697,8808.450710
5381.630631,-222.061783,1149.143247,9104.533087
5381.630954,-2220.617826,383.047749,11177.109724
5381.631276,-740.205942,1302.362347,8808.450710
5381.631599,814.226536,1685.410096,6883.915261
5381.631922,-592.164754,1455.581446,8290.306550
5381.632244,-1258.350101,383.047749,9992.780217
5381.632567,-2812.782580,536.266849,10140.821405
5381.632889,-666.185348,76.609550,9400.615463
5381.633212,-222.061783,1149.143247,7476.080014
5381.633535,-2072.576638,0.000000,9252.574275
5381.633857,-2368.659014,229.828649,9992.780217
5381.634180,-2146.597232,842.705048,8956.491898
5381.634503,-1776.494261,1149.143247,7254.018232
5381.634825,-222.061783,842.705048,7254.018232
5381.635148,-148.041188,1149.143247,9770.718434
5381.635471,518.144159,2145.067394,7846.182985
5381.635793,888.247130,2451.505594,8142.265362
5381.636116,666.185348,2068.457845,8216.285956
5381.636438,1480.411884,2451.505594,10288.862594
5381.636761,0.000000,995.924147,9622.677246
5381.637084,592.164754,1838.629195,9696.697840
5381.637406,74.020594,1762.019645,9918.759623
5381.637729,222.061783,689.485948,9474.636058
5381.638052,888.247130,1072.533697,10732.986159
5381.638374,-888.247130,689.485948,9400.615463
5381.638697,-1332.370696,0.000000,9622.677246
5381.639020,-1258.350101,-153.219100,9474.636058
5381.639342,0.000000,612.876398,9252.574275
5381.639665,740.205942,1608.800546,9104.533087
5381.639988,-1554.432478,1072.533697,9178.553681
5381.640310,-2220.617826,-536.266849,9918.759623
5381.640633,-1332.370696,-383.047749,8216.285956
5381.640955,-444.123565,153.219100,7698.141797
5381.641278,-518.144159,842.705048,8364.327145
5381.641601,-1258.350101,-919.314598,9252.574275
5381.641923,-370.102971,-459.657299,9178.553681
5381.642246,1628.453072,459.657299,6513.812290
5381.642569,1924.535449,612.876398,7624.121203
5381.642891,1258.350101,536.266849,9178.553681
5381.643214,1184.329507,-306.438199,11695.253884
5381.643537,2146.597232,153.219100,11325.150913
5381.643859,3404.947333,1302.362347,8956.491898
5381.644182,2738.761985,919.314598,9696.697840
5381.644504,1628.453072,0.000000,10732.986159
5381.644827,888.247130,-689.485948,11325.150913
5381.645150,1332.370696,0.000000,9474.636058
5381.645472,1258.350101,-153.219100,8956.491898
5381.645795,-888.247130,-919.314598,9548.656652
5381.646118,-2294.638420,-1685.410096,10214.842000
5381.646440,-2886.803174,-2145.067394,9622.677246
5381.646763,-2812.782580,-995.924147,8290.306550
5381.647086,-2146.597232,-1072.533697,8956.491898
5381.647408,-2294.638420,-995.924147,10510.924376
5381.647731,-1924.535449,-689.485948,10436.903782
5381.648054,-1480.411884,-383.047749,8660.409521
5381.648376,-1258.350101,0.000000,9252.574275
5381.648699,-518.144159,459.657299,10066.800811
5381.649021,-148.041188,536.266849,10362.883188
5381.649344,814.226536,842.705048,9252.574275
5381.649667,1036.288319,1455.581446,9252.574275
5381.649989,888.247130,919.314598,8734.430116
5381.650312,1924.535449,1302.362347,9844.739029
5381.650635,1850.514855,2068.457845,9326.594869
5381.650957,1110.308913,2145.067394,9474.636058
5381.651280,518.144159,1838.629195,8512.368333
5381.651603,1702.473667,2374.896044,8882.471304
5381.651925,2146.597232,2911.162892,7846.182985
5381.652248,-740.205942,2451.505594,8512.368333
5381.652571,-2072.576638,1838.629195,9474.636058
5381.652893,-2294.638420,919.314598,9252.574275
5381.653216,-1850.514855,1225.752797,7476.080014
5381.653538,-1850.514855,1532.190996,7550.100608
5381.653861,-3627.009116,766.095498,8068.244768
5381.654184,-4737.318029,459.657299,9178.553681
5381.654506,-2146.597232,459.657299,8290.306550
5381.654829,-1480.411884,1149.143247,9252.574275
5381.655152,-2368.659014,1302.362347,8512.368333
5381.655474,-2368.659014,76.609550,11251.130318
5381.655797,-888.247130,919.314598,10066.800811
5381.656120,1332.370696,2528.115143,9474.636058
5381.656442,1554.432478,2068.457845,8808.450710
5381.656765,1332.370696,1455.581446,9992.780217
5381.657087,962.267725,1302.362347,10881.027347
5381.657410,2220.617826,1532.190996,8512.368333
5381.657733,3256.906145,1685.410096,8290.306550
5381.658055,1850.514855,1532.190996,9622.677246
5381.658378,592.164754,536.266849,10658.965565
5381.658701,666.185348,-306.438199,10362.883188
5381.659023,962.267725,766.095498,9326.594869
5381.659346,962.267725,1149.143247,9030.512492
5381.659669,518.144159,383.047749,9474.636058
5381.659991,518.144159,153.219100,9030.512492
5381.660314,666.185348,76.609550,8068.244768
5381.660637,148.041188,459.657299,6513.812290
5381.660959,370.102971,-153.219100,8882.471304
5381.661282,-814.226536,-383.047749,8512.368333
5381.661604,-1998.556043,-1532.190996,9104.533087
5381.661927,-1480.411884,-1915.238745,7920.203579
5381.662250,-2368.659014,-1915.238745,8660.409521
5381.662572,-1110.308913,-1838.629195,10436.903782
5381.662895,-888.247130,-1762.019645,9992.780217
5381.663218,-1036.288319,-1685.410096,9992.780217
5381.663540,-222.061783,-1149.143247,8882.471304
5381.663863,444.123565,-1225.752797,11473.192101
5381.664186,1776.494261,306.438199,11029.068536
5381.664508,1850.514855,459.657299,10214.842000
5381.664831,148.041188,-766.095498,10584.944971
5381.665153,1332.370696,-842.705048,9992.780217
5381.665476,1110.308913,153.219100,10510.924376
5381.665799,444.123565,459.657299,9992.780217
5381.666121,-888.247130,-919.314598,10955.047942
5381.666444,-2516.700203,-1225.752797,11177.109724
5381.666767,-1184.329507,-383.047749,10214.842000
5381.667089,1628.453072,612.876398,9548.656652
5381.667412,0.000000,1149.143247,9992.780217
5381.667735,-666.185348,383.047749,11473.192101
5381.668057,-888.247130,612.876398,11177.109724
5381.668380,1998.556043,2221.676944,8586.388927
5381.668703,1110.308913,2987.772442,8216.285956
5381.669025,-370.102971,2528.115143,8216.285956
5381.669348,-1480.411884,1532.190996,10658.965565
5381.669670,-888.247130,2145.067394,7624.121203
5381.669993,-296.082377,2681.334243,7328.038826
5381.670316,-1036.288319,2298.286494,7105.977043
5381.670638,-4367.215058,1072.533697,8956.491898
5381.670961,-3849.070898,1072.533697,8068.244768
5381.671284,-3552.988522,1685.410096,7105.977043
5381.671606,-2072.576638,2298.286494,5699.585753
5381.671929,-2294.638420,2221.676944,7105.977043
5381.672252,-1924.535449,1762.019645,7105.977043
5381.672574,0.000000,2757.943793,7402.059420
5381.672897,666.185348,3217.601092,5107.421000
5381.673220,1406.391290,2911.162892,8068.244768
5381.673542,1480.411884,2681.334243,9030.512492
5381.673865,962.267725,2451.505594,9844.739029
5381.674187,3256.906145,2757.943793,8660.409521
5381.674510,3108.864956,2068.457845,9400.615463
5381.674833,3108.864956,1762.019645,9992.780217
5381.675155,3404.947333,2068.457845,10955.047942
5381.675478,1628.453072,1685.410096,11473.192101
5381.675801,2294.638420,1455.581446,10510.924376
5381.676123,2368.659014,536.266849,11695.253884
5381.676446,2072.576638,689.485948,11843.295072
5381.676769,1924.535449,459.657299,11769.274478
5381.677091,-888.247130,76.609550,10584.944971
5381.677414,-444.123565,-459.657299,9844.739029
5381.677736,-592.164754,-1762.019645,10288.862594
5381.678059,-2368.659014,-1378.971896,9104.533087
5381.678382,-3256.906145,-1838.629195,9474.636058
5381.678704,-4737.318029,-2604.724693,9400.615463
5381.679027,-3182.885551,-2374.896044,8216.285956
5381.679350,-962.267725,-2221.676944,8216.285956
5381.679672,-2294.638420,-995.924147,8142.265362
5381.679995,-2886.803174,-1685.410096,10436.903782
5381.680318,-1184.329507,-1685.410096,9622.677246
5381.680640,814.226536,-1072.533697,8808.450710
5381.680963,2294.638420,0.000000,7846.182985
5381.681286,1406.391290,0.000000,9030.512492
5381.681608,740.205942,0.000000,10510.924376
5381.681931,1850.514855,536.266849,9104.533087
5381.682253,3330.926739,-459.657299,8364.327145
5381.682576,2220.617826,-459.657299,9326.594869
5381.682899,-2072.576638,-1608.800546,10881.027347
5381.683221,-1702.473667,-1991.848295,10510.924376
5381.683544,-296.082377,-1378.971896,8808.450710
5381.683867,-148.041188,-153.219100,8586.388927
5381.684189,-1184.329507,-612.876398,9104.533087
5381.684512,-2516.700203,-1225.752797,10510.924376
5381.684835,-1332.370696,76.609550,9252.574275
5381.685157,-444.123565,459.657299,7698.141797
5381.685480,-1036.288319,459.657299,9326.594869
5381.685802,-1850.514855,383.047749,11103.089130
5381.686125,-1850.514855,0.000000,10807.006753
5381.686448,-1554.432478,766.095498,8882.471304
5381.686770,-296.082377,153.219100,8956.491898
5381.687093,-1480.411884,153.219100,10362.883188
5381.687416,-1332.370696,0.000000,10436.903782
5381.687738,-962.267725,536.266849,10140.821405
5381.688061,-592.164754,1378.971896,8364.327145
5381.688384,74.020594,1685.410096,9326.594869
5381.688706,740.205942,1532.190996,9030.512492
5381.689029,1258.350101,2068.457845,8808.450710
5381.689352,-296.082377,2298.286494,7772.162391
5381.689674,1554.432478,2221.676944,7402.059420
5381.689997,1628.453072,1991.848295,8586.388927
5381.690319,740.205942,2374.896044,7994.224174
5381.690642,0.000000,2221.676944,8586.388927
5381.690965,-370.102971,2298.286494,7920.203579
5381.691287,666.185348,1915.238745,8364.327145
5381.691610,2072.576638,2145.067394,8882.471304
5381.691933,1036.288319,1685.410096,8512.368333
5381.692255,814.226536,1838.629195,10214.842000
5381.692578,740.205942,1532.190996,10658.965565
5381.692901,1702.473667,1455.581446,10658.965565
5381.693223,2886.803174,2528.115143,9474.636058
5381.693546,814.226536,2757.943793,11029.068536
5381.693869,0.000000,1915.238745,12509.480420
5381.694191,888.247130,1608.800546,10732.986159
5381.694514,814.226536,2374.896044,9474.636058
5381.694836,1258.350101,2451.505594,9178.553681
5381.695159,-2590.720797,1225.752797,11325.150913
5381.695482,-2664.741391,1302.362347,10732.986159
5381.695804,0.000000,1685.410096,9178.553681
5381.696127,370.102971,2068.457845,8586.388927
5381.696450,-1036.288319,2528.115143,8438.347739
5381.696772,-2368.659014,1378.971896,10362.883188
5381.697095,-1480.411884,1608.800546,8364.327145
5381.697418,-370.102971,1991.848295,7105.977043
5381.697740,-1036.288319,1762.019645,6587.832884
5381.698063,-2590.720797,919.314598,8956.491898
5381.698385,-2812.782580,919.314598,8364.327145
5381.698708,-1480.411884,1302.362347,5921.647536
5381.699031,222.061783,1455.581446,5107.421000
5381.699353,-1110.308913,1608.800546,6439.791695
5381.699676,-1332.370696,1302.362347,7624.121203
5381.699999,1628.453072,1455.581446,7031.956449
5381.700321,2516.700203,2451.505594,5181.441594
5381.700644,3997.112087,2528.115143,6291.750507
5381.700967,3923.091493,1225.752797,8364.327145
5381.701289,2664.741391,766.095498,9030.512492
5381.701612,2960.823768,766.095498,9178.553681
5381.701935,2590.720797,76.609550,9992.780217
5381.702257,1702.473667,-1072.533697,12435.459826
5381.702580,1184.329507,-1685.410096,12657.521608
5381.702902,-740.205942,-2374.896044,11991.336260
5381.703225,-444.123565,-2528.115143,11991.336260
5381.703548,-1924.535449,-3524.039291,12657.521608
5381.703870,-2072.576638,-3294.210641,13619.789333
5381.704193,-3034.844362,-3600.648841,12805.562797
5381.704516,-4589.276840,-3830.477490,12953.603985
5381.704838,-3775.050304,-3524.039291,10881.027347
5381.705161,-2516.700203,-4136.915689,11029.068536
5381.705484,-1776.494261,-2451.505594,10214.842000
5381.705806,-2664.741391,-2298.286494,10436.903782
5381.706129,-3330.926739,-3447.429741,11029.068536
5381.706451,-1702.473667,-2451.505594,9992.780217
5381.706774,-962.267725,-1991.848295,9030.512492
5381.707097,-592.164754,-1302.362347,9104.533087
5381.707419,-1998.556043,-2451.505594,10436.903782
5381.707742,-1258.350101,-1378.971896,9770.718434
5381.708065,1406.391290,-459.657299,8068.244768
5381.708387,2294.638420,612.876398,8142.265362
5381.708710,1110.308913,995.924147,7402.059420
5381.709033,814.226536,919.314598,9252.574275
5381.709355,2738.761985,1915.238745,7624.121203
5381.709678,4589.276840,2757.943793,5847.626942
5381.710001,3627.009116,3064.381992,5921.647536
5381.710323,1110.308913,2757.943793,8438.347739
5381.710646,-666.185348,2068.457845,8586.388927
5381.710968,-592.164754,2145.067394,7328.038826
5381.711291,0.000000,2451.505594,6587.832884
5381.711614,-2220.617826,1838.629195,7994.224174
5381.711936,-2886.803174,2145.067394,8734.430116
5381.712259,-3404.947333,1838.629195,9696.697840
5381.712582,-1702.473667,2911.162892,6661.853478
5381.712904,-1924.535449,2451.505594,9104.533087
5381.713227,-2960.823768,2451.505594,9548.656652
5381.713550,-2812.782580,2298.286494,11843.295072
5381.713872,-1258.350101,3140.991542,9474.636058
5381.714195,-148.041188,3140.991542,9474.636058
5381.714518,1776.494261,3370.820191,9770.718434
5381.714840,814.226536,3983.696590,10732.986159
5381.715163,740.205942,4519.963438,10362.883188
5381.715486,2442.679609,4749.792088,8734.430116
5381.715808,2368.659014,4060.306139,9252.574275
5381.716131,2886.803174,4366.744339,9400.615463
5381.716454,3034.844362,4290.134789,9696.697840
5381.716776,1776.494261,3064.381992,9474.636058
5381.717099,1628.453072,2834.553343,8512.368333
5381.717421,1776.494261,2221.676944,8660.409521
5381.717744,2590.720797,2681.334243,8512.368333
5381.718067,1998.556043,2604.724693,8068.244768
5381.718389,592.164754,1991.848295,8364.327145
5381.718712,1554.432478,1225.752797,7476.080014
5381.719035,1702.473667,1455.581446,7698.141797
5381.719357,592.164754,1685.410096,7550.100608
5381.719680,-1406.391290,0.000000,9104.533087
5381.720003,-2368.659014,-1225.752797,8808.450710
5381.720325,-962.267725,-1532.190996,8586.388927
5381.720648,-666.185348,-1149.143247,8438.347739
5381.720971,-2812.782580,-1762.019645,9400.615463
5381.721293,-4145.153275,-3217.601092,10658.965565
5381.721616,-2812.782580,-3983.696590,10658.965565
5381.721939,-666.185348,-2987.772442,9252.574275
5381.722261,-1036.288319,-2451.505594,9696.697840
5381.722584,-2442.679609,-3140.991542,11103.089130
5381.722906,-1850.514855,-3907.087040,11991.336260
5381.723229,-1110.308913,-3600.648841,10362.883188
5381.723552,888.247130,-1991.848295,9474.636058
5381.723874,444.123565,-2221.676944,11769.274478
5381.724197,-814.226536,-2298.286494,12065.356855
5381.724520,1184.329507,-2298.286494,13101.645173
5381.724842,2738.761985,-919.314598,9844.739029
5381.725165,2220.617826,-842.705048,11473.192101
5381.725488,962.267725,-1838.629195,10584.944971
5381.725810,444.123565,-2068.457845,12879.583391
5381.726133,1776.494261,-459.657299,9252.574275
5381.726456,1776.494261,76.609550,8734.430116
5381.726778,1184.329507,-612.876398,9104.533087
5381.727101,-222.061783,-1302.362347,9918.759623
5381.727424,-1628.453072,-1225.752797,8660.409521
5381.727746,-740.205942,0.000000,6513.812290
5381.728069,-1628.453072,306.438199,8068.244768
5381.728392,-2146.597232,1225.752797,8956.491898
5381.728714,-2664.741391,995.924147,9400.615463
5381.729037,-3330.926739,995.924147,7846.182985
5381.729359,-2516.700203,1608.800546,6291.750507
5381.729682,-1776.494261,1455.581446,7031.956449
5381.730005,-1036.288319,2221.676944,7624.121203
5381.730327,-1406.391290,2451.505594,7994.224174
5381.730650,-1332.370696,2987.772442,7476.080014
5381.730973,-444.123565,2374.896044,8216.285956
5381.731295,74.020594,3753.867940,8142.265362
5381.731618,148.041188,2834.553343,8882.471304
5381.731941,0.000000,2911.162892,9178.553681
5381.732263,-666.185348,2528.115143,9918.759623
5381.732586,518.144159,2681.334243,9992.780217
5381.732909,1480.411884,3370.820191,10658.965565
5381.733231,148.041188,3524.039291,8882.471304
5381.733554,-814.226536,3140.991542,10140.821405
5381.733877,888.247130,3677.258390,9474.636058
5381.734199,2664.741391,3830.477490,9474.636058
5381.734522,2368.659014,3907.087040,8808.450710
5381.734844,-592.164754,2987.772442,10288.862594
5381.735167,-1184.329507,2145.067394,10288.862594
5381.735490,0.000000,2681.334243,9104.533087
5381.735812,666.185348,2451.505594,8364.327145
5381.736135,370.102971,2298.286494,7846.182985
5381.736458,-1998.556043,612.876398,9696.697840
5381.736780,-2072.576638,229.828649,9178.553681
5381.737103,0.000000,459.657299,7772.162391
5381.737426,-222.061783,766.095498,7179.997637
5381.737748,-1850.514855,76.609550,8882.471304
5381.738071,-740.205942,-612.876398,10881.027347
5381.738394,0.000000,153.219100,8068.244768
5381.738716,1702.473667,766.095498,7476.080014
5381.739039,1332.370696,-229.828649,8364.327145
5381.739362,296.082377,-383.047749,10584.944971
5381.739684,518.144159,383.047749,9548.656652
5381.740007,1924.535449,-229.828649,7698.141797
5381.740330,2442.679609,-612.876398,8660.409521
5381.740652,370.102971,-842.705048,9326.594869
5381.740975,-1184.329507,-1991.848295,11103.089130
5381.741297,-444.123565,-2298.286494,9844.739029
5381.741620,-518.144159,-2298.286494,9104.533087
5381.741943,296.082377,-2451.505594,9770.718434
5381.742265,962.267725,-1991.848295,11029.068536
5381.742588,444.123565,-842.705048,11473.192101
5381.742911,0.000000,-1378.971896,10362.883188
5381.743233,222.061783,-2145.067394,10140.821405
5381.743556,1184.329507,-1915.238745,10214.842000
5381.743879,370.102971,-1149.143247,10214.842000
5381.744201,-296.082377,-612.876398,11177.109724
5381.744524,-888.247130,-383.047749,10436.903782
5381.744847,518.144159,-995.924147,10955.047942
5381.745169,444.123565,-229.828649,9474.636058
5381.745492,-666.185348,0.000000,9104.533087
5381.745815,-1332.370696,-306.438199,10140.821405
5381.746137,-592.164754,0.000000,9992.780217
5381.746460,444.123565,459.657299,10288.862594
5381.746783,592.164754,1455.581446,8586.388927
5381.747105,-2072.576638,612.876398,10732.986159
5381.747428,-2516.700203,612.876398,9918.759623
5381.747750,-2368.659014,306.438199,9030.512492
5381.748073,-1110.308913,1149.143247,7624.121203
5381.748396,-1998.556043,1455.581446,8142.265362
5381.748718,-3849.070898,383.047749,9252.574275
5381.749041,-3701.029710,842.705048,8586.388927
5381.749364,-1332.370696,1608.800546,6661.853478
5381.749686,-1258.350101,2068.457845,5921.647536
5381.750009,-1776.494261,1762.019645,8290.306550
5381.750332,-2294.638420,1915.238745,10362.883188
5381.750654,-222.061783,2757.943793,9400.615463
5381.750977,1258.350101,3064.381992,7846.182985
5381.751300,370.102971,2145.067394,7994.224174
5381.751622,-592.164754,1838.629195,9622.677246
5381.751945,0.000000,2451.505594,9844.739029
5381.752268,1850.514855,2451.505594,8586.388927
5381.752590,3108.864956,2834.553343,8068.244768
5381.752913,888.247130,1991.848295,9400.615463
5381.753235,222.061783,1455.581446,10510.924376
5381.753558,222.061783,1838.629195,9770.718434
5381.753881,666.185348,2681.334243,7994.224174
5381.754203,-592.164754,1838.629195,8586.388927
5381.754526,0.000000,1149.143247,9474.636058
5381.754849,148.041188,1685.410096,9622.677246
5381.755171,370.102971,1838.629195,7254.018232
5381.755494,1110.308913,842.705048,7846.182985
5381.755817,1184.329507,612.876398,9104.533087
5381.756139,518.144159,383.047749,9918.759623
5381.756462,518.144159,306.438199,10584.944971
5381.756785,-296.082377,76.609550,8956.491898
5381.757107,296.082377,-229.828649,9622.677246
5381.757430,1924.535449,-153.219100,9474.636058
5381.757753,1110.308913,153.219100,9992.780217
5381.758075,1184.329507,612.876398,9548.656652
5381.758398,1924.535449,0.000000,10066.800811
5381.758721,2516.700203,306.438199,9696.697840
5381.759043,1850.514855,766.095498,9326.594869
5381.759366,740.205942,-383.047749,10140.821405
5381.759688,-370.102971,-1378.971896,9770.718434
5381.760011,148.041188,-1149.143247,10214.842000
5381.760334,148.041188,-842.705048,9918.759623
5381.760656,-1036.288319,-689.485948,9770.718434
5381.760979,-2738.761985,-1225.752797,11769.274478
5381.761302,-2442.679609,-1532.190996,9326.594869
5381.761624,-740.205942,-1532.190996,9104.533087
5381.761947,-222.061783,-383.047749,7105.977043
5381.762270,-1628.453072,-459.657299,9622.677246
5381.762592,-2738.761985,-689.485948,10066.800811
5381.762915,-518.144159,-153.219100,9548.656652
5381.763238,1480.411884,0.000000,6513.812290
5381.763560,0.000000,459.657299,8068.244768
5381.763883,-1036.288319,-306.438199,10658.965565
5381.764206,-444.123565,0.000000,11251.130318
5381.764528,2368.659014,919.314598,8068.244768
5381.764851,1924.535449,1685.410096,10066.800811
5381.765173,-518.144159,153.219100,9770.718434
5381.765496,-2368.659014,-919.314598,11473.192101
5381.765819,-1554.432478,229.828649,9474.636058
5381.766141,-1036.288319,536.266849,8586.388927
5381.766464,-1776.494261,76.609550,8216.285956
5381.766787,-3552.988522,-459.657299,9770.718434
5381.767109,-2886.803174,153.219100,9992.780217
5381.767432,-2368.659014,689.485948,7550.100608
5381.767755,-3108.864956,536.266849,7179.997637
5381.768077,-1850.514855,0.000000,9178.553681
5381.768400,-3256.906145,76.609550,9770.718434
5381.768723,-2738.761985,766.095498,9252.574275
5381.769045,-370.102971,1455.581446,7920.203579
5381.769368,-1184.329507,1378.971896,8660.409521
5381.769691,0.000000,1532.190996,9474.636058
5381.770013,740.205942,1762.019645,8586.388927
5381.770336,1554.432478,2374.896044,7994.224174
5381.770659,3182.885551,2451.505594,7772.162391
5381.770981,3182.885551,2604.724693,10362.883188
5381.771304,3034.844362,2757.943793,9918.759623
5381.771626,2146.597232,2528.115143,10140.821405
5381.771949,814.226536,1455.581446,9918.759623
5381.772272,2442.679609,1915.238745,9474.636058
5381.772594,2516.700203,2145.067394,9696.697840
5381.772917,2664.741391,2834.553343,9770.718434
5381.773240,518.144159,1762.019645,10510.924376
5381.773562,-370.102971,1072.533697,8512.368333
5381.773885,814.226536,1378.971896,8734.430116
5381.774208,0.000000,1762.019645,7772.162391
5381.774530,-1628.453072,1455.581446,8734.430116
5381.774853,-2294.638420,1149.143247,9918.759623
5381.775176,-1036.288319,919.314598,9178.553681
5381.775498,0.000000,1149.143247,8068.244768
5381.775821,-1184.329507,995.924147,7476.080014
5381.776144,-2368.659014,-153.219100,9992.780217
5381.776466,-1628.453072,229.828649,10140.821405
5381.776789,592.164754,919.314598,8364.327145
5381.777112,2960.823768,1455.581446,7772.162391
5381.777434,888.247130,919.314598,9326.594869
5381.777757,-1258.350101,-153.219100,10510.924376
5381.778079,444.123565,0.000000,9844.739029
5381.778402,2146.597232,766.095498,8734.430116
5381.778725,2146.597232,842.705048,10288.862594
5381.779047,148.041188,229.828649,11547.212695
5381.779370,296.082377,153.219100,11843.295072
5381.779693,2220.617826,1072.533697,8660.409521
5381.780015,1998.556043,1225.752797,7105.977043
5381.780338,888.247130,-383.047749,8586.388927
5381.780661,-1406.391290,-689.485948,10214.842000
5381.780983,-1924.535449,-383.047749,9844.739029
5381.781306,-1628.453072,-842.705048,7698.141797
5381.781629,-2146.597232,-2068.457845,7920.203579
5381.781951,-2516.700203,-2451.505594,9548.656652
5381.782274,-2886.803174,-1915.238745,10658.965565
5381.782597,-3182.885551,-612.876398,10066.800811
5381.782919,-1406.391290,-689.485948,9622.677246
5381.783242,-962.267725,-1149.143247,11251.130318
5381.783564,-962.267725,-1072.533697,10362.883188
5381.783887,0.000000,-229.828649,9844.739029
5381.784210,518.144159,-153.219100,9918.759623
5381.784532,1776.494261,76.609550,10436.903782
5381.784855,1628.453072,306.438199,10732.986159
5381.785178,592.164754,383.047749,9844.739029
5381.785500,1554.432478,1072.533697,10288.862594
5381.785823,962.267725,383.047749,9178.553681
5381.786146,1406.391290,229.828649,9770.718434
5381.786468,1998.556043,919.314598,9326.594869
5381.786791,-518.144159,919.314598,9696.697840
5381.787114,-1036.288319,689.485948,9474.636058
5381.787436,-2146.597232,459.657299,9918.759623
5381.787759,-1332.370696,766.095498,9104.533087
5381.788082,-1258.350101,919.314598,8216.285956
5381.788404,-3108.864956,0.000000,9474.636058
5381.788727,-2664.741391,229.828649,8882.471304
5381.789050,-2294.638420,0.000000,8734.430116
5381.789372,-1184.329507,995.924147,7476.080014
5381.789695,-1480.411884,1302.362347,9474.636058
5381.790017,-2664.741391,1072.533697,8734.430116
5381.790340,74.020594,1838.629195,8142.265362
5381.790663,1924.535449,2604.724693,6587.832884
5381.790985,2072.576638,3217.601092,6735.874072
5381.791308,518.144159,2374.896044,8512.368333
5381.791631,296.082377,2451.505594,9622.677246
5381.791953,2664.741391,2604.724693,8586.388927
5381.792276,2516.700203,2298.286494,7624.121203
5381.792599,1184.329507,1991.848295,9992.780217
5381.792921,74.020594,1149.143247,11029.068536
5381.793244,0.000000,919.314598,10955.047942
5381.793567,1258.350101,1608.800546,8438.347739
5381.793889,962.267725,1302.362347,9474.636058
5381.794212,0.000000,1072.533697,9844.739029
5381.794535,-592.164754,1149.143247,11251.130318
5381.794857,-888.247130,919.314598,9400.615463
5381.795180,296.082377,689.485948,7846.182985
5381.795502,-148.041188,229.828649,9178.553681
5381.795825,-1036.288319,-383.047749,9992.780217
5381.796148,-962.267725,0.000000,10214.842000
5381.796470,-2442.679609,-536.266849,8216.285956
5381.796793,-1184.329507,-995.924147,8216.285956
5381.797116,-1406.391290,-1149.143247,9030.512492
5381.797438,-740.205942,-995.924147,8956.491898
5381.797761,-518.144159,-842.705048,9400.615463
5381.798084,-444.123565,0.000000,9400.615463
5381.798406,222.061783,-459.657299,10140.821405
5381.798729,1628.453072,-76.609550,10658.965565
5381.799052,148.041188,306.438199,10510.924376
5381.799374,518.144159,0.000000,11029.068536
5381.799697,1036.288319,-76.609550,10584.944971
5381.800020,2738.761985,536.266849,10066.800811
5381.800342,2516.700203,1378.971896,8512.368333
5381.800665,888.247130,536.266849,9178.553681
5381.800988,296.082377,-459.657299,9474.636058
5381.801310,740.205942,153.219100,8956.491898
5381.801633,1850.514855,612.876398,8586.388927
5381.801955,888.247130,306.438199,9104.533087
5381.802278,-2664.741391,-459.657299,9992.780217
5381.802601,-2368.659014,-383.047749,9474.636058
5381.802923,0.000000,842.705048,8068.244768
5381.803246,-444.123565,1838.629195,8808.450710
5381.803569,-1036.288319,1378.971896,9770.718434
5381.803891,-1110.308913,76.609550,10658.965565
5381.804214,0.000000,1072.533697,9326.594869
5381.804537,148.041188,2145.067394,7624.121203
5381.804859,-518.144159,2068.457845,8956.491898
5381.805182,-1332.370696,1532.190996,9622.677246
5381.805505,-1702.473667,1685.410096,9844.739029
5381.805827,-592.164754,612.876398,6661.853478
5381.806150,-296.082377,536.266849,6957.935855
5381.806473,-3108.864956,612.876398,9474.636058
5381.806795,-3182.885551,306.438199,9252.574275
5381.807118,-1776.494261,0.000000,9622.677246
5381.807440,-1036.288319,919.314598,7179.997637
5381.807763,-370.102971,2068.457845,10362.883188
5381.808086,-740.205942,1455.581446,9918.759623
5381.808408,-222.061783,1149.143247,11695.253884
5381.808731,1036.288319,1532.190996,7994.224174
5381.809054,666.185348,1072.533697,7254.018232
5381.809376,1628.453072,995.924147,9400.615463
5381.809699,1110.308913,1685.410096,9400.615463
5381.810022,1258.350101,1915.238745,9474.636058
5381.810344,888.247130,1685.410096,8068.244768
5381.810667,888.247130,459.657299,9622.677246
5381.810990,962.267725,0.000000,10658.965565
5381.811312,-592.164754,536.266849,10436.903782
5381.811635,-1702.473667,0.000000,10807.006753
5381.811958,-1554.432478,-306.438199,9770.718434
5381.812280,-888.247130,-306.438199,10066.800811
5381.812603,1110.308913,612.876398,8142.265362
5381.812926,-148.041188,536.266849,9178.553681
5381.813248,-814.226536,229.828649,8512.368333
5381.813571,740.205942,229.828649,8586.388927
5381.813894,962.267725,306.438199,8586.388927
5381.814216,370.102971,919.314598,8660.409521
5381.814539,-1406.391290,229.828649,10732.986159
5381.814862,-1776.494261,-766.095498,9918.759623
5381.815184,814.226536,0.000000,9918.759623
5381.815507,222.061783,229.828649,9104.533087
5381.815830,-1258.350101,0.000000,10140.821405
5381.816152,-1776.494261,-689.485948,11029.068536
5381.816475,962.267725,-612.876398,8882.471304
5381.816798,2220.617826,76.609550,7328.038826
5381.817120,1184.329507,1302.362347,8142.265362
5381.817443,0.000000,76.609550,10214.842000
5381.817765,0.000000,229.828649,10436.903782
5381.818088,1110.308913,842.705048,8290.306550
5381.818411,1702.473667,766.095498,8808.450710
5381.818733,-666.185348,306.438199,9474.636058
5381.819056,-1480.411884,-612.876398,10807.006753
5381.819379,-592.164754,0.000000,10066.800811
5381.819701,1628.453072,1532.190996,7550.100608
5381.820024,-296.082377,536.266849,10140.821405
5381.820347,-1110.308913,153.219100,9844.739029
5381.820669,-1406.391290,-536.266849,10732.986159
5381.820992,0.000000,612.876398,7476.080014
5381.821315,222.061783,842.705048,8438.347739
5381.821637,0.000000,612.876398,10436.903782
5381.821960,-1776.494261,306.438199,10066.800811
5381.822283,-444.123565,1072.533697,9918.759623
5381.822605,-296.082377,1225.752797,7402.059420
5381.822928,-1332.370696,383.047749,9474.636058
5381.823251,-1480.411884,0.000000,9400.615463
5381.823573,-1258.350101,689.485948,9770.718434
5381.823896,-962.267725,1149.143247,7994.224174
5381.824219,-666.185348,1608.800546,7328.038826
5381.824541,370.102971,995.924147,7476.080014
5381.824864,1184.329507,1532.190996,8586.388927
5381.825187,-444.123565,2298.286494,8512.368333
5381.825509,518.144159,1991.848295,8956.491898
5381.825832,1332.370696,1991.848295,9844.739029
5381.826155,1332.370696,2528.115143,9918.759623
5381.826477,444.123565,1072.533697,9474.636058
5381.826800,0.000000,919.314598,9326.594869
5381.827123,-888.247130,689.485948,9770.718434
5381.827445,74.020594,153.219100,9548.656652
5381.827768,0.000000,536.266849,9030.512492
5381.828091,-2072.576638,459.657299,9548.656652
5381.828413,-2738.761985,76.609550,10066.800811
5381.828736,370.102971,-153.219100,8438.347739
5381.829059,1332.370696,689.485948,8956.491898
5381.829381,-666.185348,1685.410096,9252.574275
5381.829704,-2812.782580,536.266849,11917.315666
5381.830027,-1702.473667,306.438199,10732.986159
5381.830349,-370.102971,1072.533697,8734.430116
5381.830672,962.267725,1072.533697,6809.894666
5381.830994,-1258.350101,536.266849,8808.450710
5381.831317,-2294.638420,229.828649,9030.512492
5381.831640,-296.082377,153.219100,8808.450710
5381.831962,814.226536,153.219100,6661.853478
5381.832285,0.000000,-306.438199,6883.915261
5381.832608,-888.247130,-995.924147,8586.388927
5381.832930,-1110.308913,-383.047749,10436.903782
5381.833253,1258.350101,689.485948,7920.203579
5381.833576,1480.411884,-612.876398,7550.100608
5381.833898,888.247130,-1608.800546,7994.224174
5381.834221,-888.247130,-1302.362347,9844.739029
5381.834544,-962.267725,-1302.362347,10066.800811
5381.834866,-370.102971,-612.876398,8438.347739
5381.835189,-740.205942,-1532.190996,9918.759623
5381.835512,-2220.617826,-2145.067394,9474.636058
5381.835834,-3256.906145,-2834.553343,10732.986159
5381.836157,-3627.009116,-3140.991542,10436.903782
5381.836480,-4441.235652,-3524.039291,9992.780217
5381.836802,-4071.132681,-4060.306139,11769.274478
5381.837125,-3775.050304,-3370.820191,11547.212695
5381.837448,-3701.029710,-3294.210641,11251.130318
5381.837770,-4071.132681,-3370.820191,9992.780217
5381.838093,-3256.906145,-3907.087040,10436.903782
5381.838416,-2146.597232,-2604.724693,10584.944971
5381.838738,-1554.432478,-1378.971896,10807.006753
5381.839061,-666.185348,-1378.971896,11473.192101
5381.839384,-1850.514855,-1532.190996,11103.089130
5381.839706,-962.267725,-1838.629195,9992.780217
5381.840029,370.102971,-995.924147,9252.574275
5381.840352,0.000000,-229.828649,9178.553681
5381.840674,0.000000,-306.438199,10362.883188
5381.840997,-962.267725,-536.266849,10955.047942
5381.841320,74.020594,-153.219100,8216.285956
5381.841642,666.185348,-459.657299,7402.059420
5381.841965,-1554.432478,-383.047749,7550.100608
5381.842288,-2072.576638,-612.876398,8882.471304
5381.842610,-2146.597232,-306.438199,8956.491898
5381.842933,-2442.679609,1378.971896,8068.244768
5381.843255,-3108.864956,0.000000,6587.832884
5381.843578,-4515.256246,-842.705048,7105.977043
5381.843901,-3108.864956,-306.438199,6883.915261
5381.844223,-1850.514855,0.000000,6883.915261
5381.844546,-3034.844362,842.705048,7105.977043
5381.844869,-3997.112087,0.000000,8438.347739
5381.845191,-4663.297435,-919.314598,8660.409521
5381.845514,-4071.132681,-459.657299,7624.121203
5381.845837,-2590.720797,-536.266849,7994.224174
5381.846159,-3034.844362,-459.657299,9770.718434
5381.846482,-2590.720797,-766.095498,11917.315666
5381.846805,-1776.494261,-612.876398,11843.295072
5381.847127,-1776.494261,-459.657299,10584.944971
5381.847450,-2072.576638,383.047749,9918.759623
5381.847773,-1776.494261,153.219100,11399.171507
5381.848095,-592.164754,229.828649,11621.233289
5381.848418,444.123565,689.485948,9844.739029
5381.848741,0.000000,229.828649,9178.553681
5381.849063,-2146.597232,-459.657299,10362.883188
5381.849386,-2960.823768,-1532.190996,10732.986159
5381.849709,-2368.659014,-1149.143247,8660.409521
5381.850031,-2294.638420,-2068.457845,8586.388927
5381.850354,-2886.803174,-2451.505594,8956.491898
5381.850677,-3330.926739,-3064.381992,9400.615463
5381.850999,-3404.947333,-2604.724693,8956.491898
5381.851322,-3701.029710,-2681.334243,7846.182985
5381.851645,-4145.153275,-3064.381992,8142.265362
5381.851967,-3330.926739,-1991.848295,8290.306550
5381.852290,-1258.350101,-2604.724693,8734.430116
5381.852613,-1628.453072,-1225.752797,8512.368333
5381.852935,-1554.432478,-1838.629195,9104.533087
5381.853258,-1406.391290,-2298.286494,9696.697840
5381.853581,-740.205942,-2068.457845,10066.800811
5381.853903,-814.226536,-2681.334243,9104.533087
5381.854226,-1628.453072,-3140.991542,9030.512492
5381.854549,-1480.411884,-3677.258390,9474.636058
5381.854871,-1998.556043,-3753.867940,10066.800811
5381.855194,-2960.823768,-3600.648841,9326.594869
5381.855517,-2886.803174,-3907.087040,9178.553681
5381.855839,-3627.009116,-4213.525239,9178.553681
5381.856162,-3256.906145,-4290.134789,9622.677246
5381.856484,-3182.885551,-3600.648841,9992.780217
5381.856807,-3404.947333,-2834.553343,9918.759623
5381.857130,-2368.659014,-2681.334243,10584.944971
5381.857452,-2146.597232,-2834.553343,10584.944971
5381.857775,-1184.329507,-1838.629195,11251.130318
5381.858098,-222.061783,-995.924147,9844.739029
5381.858420,-1258.350101,-1838.629195,10436.903782
5381.858743,-1184.329507,-2757.943793,10658.965565
5381.859066,-2294.638420,-2911.162892,10881.027347
5381.859388,-2664.741391,-2528.115143,9400.615463
5381.859711,-2812.782580,-2987.772442,9178.553681
5381.860034,-3923.091493,-3447.429741,9030.512492
5381.860356,-3108.864956,-2757.943793,9030.512492
5381.860679,-3108.864956,-1608.800546,9548.656652
5381.861002,-2442.679609,-612.876398,8068.244768
5381.861324,-1184.329507,-842.705048,9326.594869
5381.861647,-1036.288319,-459.657299,9252.574275
5381.861970,-1110.308913,229.828649,9474.636058
5381.862292,-2516.700203,0.000000,8512.368333
5381.862615,-4145.153275,-1072.533697,9474.636058
5381.862938,-3849.070898,-1685.410096,8438.347739
5381.863260,-3182.885551,-1378.971896,7328.038826
5381.863583,-2442.679609,-612.876398,6439.791695
5381.863906,-2812.782580,-766.095498,7624.121203
5381.864228,-2886.803174,-1685.410096,7920.203579
5381.864551,-1998.556043,-1455.581446,8512.368333
5381.864874,-148.041188,-229.828649,8438.347739
5381.865196,-666.185348,612.876398,9622.677246
5381.865519,-666.185348,689.485948,11621.233289
5381.865842,518.144159,153.219100,12287.418637
5381.866164,1258.350101,1225.752797,10436.903782
5381.866487,-370.102971,0.000000,9400.615463
5381.866810,-2072.576638,0.000000,9474.636058
5381.867132,-1184.329507,-689.485948,9400.615463
5381.867455,-740.205942,-229.828649,7846.182985
5381.867778,-296.082377,383.047749,7328.038826
5381.868100,-1850.514855,-612.876398,7846.182985
5381.868423,-3627.009116,-1378.971896,9178.553681
5381.868746,-2812.782580,-995.924147,9992.780217
5381.869068,-3404.947333,-1149.143247,9770.718434
5381.869391,-3701.029710,-1302.362347,10584.944971
5381.869713,-4367.215058,-1685.410096,11621.233289
5381.870036,-3330.926739,-1608.800546,11177.109724
5381.870359,-2220.617826,-1685.410096,9400.615463
5381.870681,-3849.070898,-1991.848295,8364.327145
5381.871004,-4145.153275,-2145.067394,8364.327145
5381.871327,-3330.926739,-2681.334243,8068.244768
5381.871649,-1998.556043,-1608.800546,6883.915261
5381.871972,-1110.308913,-995.924147,6957.935855
5381.872295,-2146.597232,-1302.362347,7920.203579
5381.872617,-1924.535449,-919.314598,9992.780217
5381.872940,-444.123565,-612.876398,10140.821405
5381.873263,-1110.308913,-153.219100,9252.574275
5381.873585,-1110.308913,-766.095498,10436.903782
5381.873908,-1850.514855,-1991.848295,11917.315666
5381.874231,-1850.514855,-2834.553343,10955.047942
5381.874553,-1776.494261,-3140.991542,9252.574275
5381.874876,-3182.885551,-3294.210641,8512.368333
5381.875199,-3330.926739,-3830.477490,8364.327145
5381.875521,-3552.988522,-3907.087040,8142.265362
5381.875844,-2368.659014,-2681.334243,7328.038826
5381.876167,-814.226536,-2451.505594,7624.121203
5381.876489,-1776.494261,-1991.848295,9474.636058
5381.876812,-1406.391290,-1302.362347,10881.027347
5381.877135,-296.082377,-306.438199,11621.233289
5381.877457,-888.247130,-153.219100,11103.089130
5381.877780,-1702.473667,-459.657299,11621.233289
5381.878103,-2146.597232,-2604.724693,12213.398043
5381.878425,-3256.906145,-3140.991542,10881.027347
5381.878748,-3923.091493,-3600.648841,8734.430116
5381.879071,-5033.400406,-4596.572988,8142.265362
5381.879393,-5329.482782,-4749.792088,7920.203579
5381.879716,-4811.338623,-4519.963438,7179.997637
5381.880039,-3849.070898,-3600.648841,7031.956449
5381.880361,-3108.864956,-2298.286494,6957.935855
5381.880684,-2738.761985,-1685.410096,9104.533087
5381.881007,-1258.350101,-689.485948,10436.903782
5381.881329,0.000000,459.657299,10658.965565
5381.881652,-518.144159,536.266849,11251.130318
5381.881974,-740.205942,306.438199,11769.274478
5381.882297,-666.185348,-612.876398,11473.192101
5381.882620,-888.247130,-383.047749,10140.821405
5381.882942,-1406.391290,-689.485948,8956.491898
5381.883265,-2368.659014,-1838.629195,9252.574275
5381.883588,-2738.761985,-2298.286494,8882.471304
5381.883910,-2368.659014,-1838.629195,7698.141797
5381.884233,-888.247130,-1302.362347,6439.791695
5381.884556,-592.164754,-612.876398,7624.121203
5381.884878,-592.164754,0.000000,8956.491898
5381.885201,296.082377,1072.533697,10584.944971
5381.885524,296.082377,1685.410096,10510.924376
5381.885846,-370.102971,1915.238745,10807.006753
5381.886169,-296.082377,1608.800546,11917.315666
5381.886492,222.061783,995.924147,11473.192101
5381.886814,1110.308913,1302.362347,9400.615463
5381.887137,370.102971,995.924147,8068.244768
5381.887460,-1332.370696,153.219100,7550.100608
5381.887782,-1332.370696,-229.828649,6809.894666
5381.888105,-1110.308913,0.000000,5477.523971
5381.888428,-1110.308913,306.438199,5329.482782
5381.888750,-2072.576638,0.000000,6143.709319
5381.889073,-1776.494261,76.609550,7402.059420
5381.889396,-1036.288319,842.705048,8142.265362
5381.889718,-2368.659014,1149.143247,8882.471304
5381.890041,-3330.926739,995.924147,9992.780217
5381.890364,-3775.050304,0.000000,11547.212695
5381.890686,-3701.029710,0.000000,10658.965565
5381.891009,-3404.947333,0.000000,9104.533087
5381.891332,-4737.318029,-1532.190996,8216.285956
5381.891654,-5625.565159,-2528.115143,8290.306550
5381.891977,-5699.585753,-3217.601092,7328.038826
5381.892300,-5107.421000,-3447.429741,7105.977043
5381.892622,-4589.276840,-3524.039291,7031.956449
5381.892945,-5699.585753,-3907.087040,8808.450710
5381.893268,-5107.421000,-4060.306139,10066.800811
5381.893590,-3627.009116,-3217.601092,10510.924376
5381.893913,-4737.318029,-2528.115143,10955.047942
5381.894236,-3849.070898,-3294.210641,11917.315666
5381.894558,-3552.988522,-3447.429741,13323.706956
5381.894881,-2516.700203,-3217.601092,12583.501014
5381.895203,-2590.720797,-3524.039291,11473.192101
5381.895526,-3849.070898,-4596.572988,10955.047942
5381.895849,-4145.153275,-5898.935335,11029.068536
5381.896171,-4367.215058,-6052.154434,10362.883188
5381.896494,-3923.091493,-6128.763984,8808.450710
5381.896817,-4219.173869,-6205.373534,8216.285956
5381.897139,-4441.235652,-6741.640382,9252.574275
5381.897462,-2664.741391,-5745.716235,9400.615463
5381.897785,-666.185348,-4290.134789,9548.656652
5381.898107,-370.102971,-2911.162892,9844.739029
5381.898430,0.000000,-2145.067394,11103.089130
5381.898753,962.267725,-2451.505594,11843.295072
5381.899075,1776.494261,-2068.457845,11251.130318
5381.899398,1036.288319,-1608.800546,10214.842000
5381.899721,-814.226536,-2528.115143,10140.821405
5381.900043,0.000000,-2757.943793,9622.677246
5381.900366,0.000000,-2451.505594,8142.265362
5381.900689,-444.123565,-2221.676944,6735.874072
5381.901011,-814.226536,-2221.676944,6957.935855
5381.901334,-2442.679609,-2528.115143,7920.203579
5381.901657,-444.123565,-1072.533697,7846.182985
5381.901979,370.102971,689.485948,7550.100608
5381.902302,296.082377,1762.019645,8290.306550
5381.902625,148.041188,2528.115143,10658.965565
5381.902947,0.000000,2221.676944,11251.130318
5381.903270,370.102971,3064.381992,10362.883188
5381.903593,-1332.370696,2068.457845,9474.636058
5381.903915,-2738.761985,612.876398,9696.697840
5381.904238,-3701.029710,-612.876398,9548.656652
5381.904561,-3849.070898,0.000000,7994.224174
5381.904883,-3478.967927,229.828649,6661.853478
5381.905206,-4145.153275,153.219100,7105.977043
5381.905529,-4737.318029,306.438199,7254.018232
5381.905851,-2516.700203,2145.067394,7402.059420
5381.906174,-518.144159,2987.772442,8290.306550
5381.906497,-444.123565,4519.963438,9770.718434
5381.906819,-740.205942,4366.744339,12509.480420
5381.907142,-962.267725,3830.477490,12361.439231
5381.907465,-1036.288319,3370.820191,11621.233289
5381.907787,-2442.679609,2374.896044,9844.739029
5381.908110,-5255.462188,-536.266849,10732.986159
5381.908432,-6217.729913,-1762.019645,7920.203579
5381.908755,-6291.750507,-2374.896044,6513.812290
5381.909078,-5551.544565,-2681.334243,3923.091493
5381.909400,-5699.585753,-2757.943793,4663.297435
5381.909723,-4219.173869,-2374.896044,5033.400406
5381.910046,-2812.782580,-995.924147,7328.038826
5381.910368,-2294.638420,-306.438199,8734.430116
5381.910691,-1332.370696,0.000000,10510.924376
5381.911014,-740.205942,-459.657299,12509.480420
5381.911336,-296.082377,-612.876398,13619.789333
5381.911659,-888.247130,-1149.143247,12361.439231
5381.911982,-1554.432478,-2834.553343,10955.047942
5381.912304,-962.267725,-3753.867940,10288.862594
5381.912627,-1702.473667,-4979.620737,9326.594869
5381.912950,-2072.576638,-5362.668486,8068.244768
5381.913272,-2368.659014,-5898.935335,6957.935855
5381.913595,-2590.720797,-5975.544884,7550.100608
5381.913918,-2146.597232,-6281.983084,8586.388927
5381.914240,-1554.432478,-5515.887586,9400.615463
5381.914563,-1924.535449,-4443.353888,9992.780217
5381.914886,-1036.288319,-4213.525239,11843.295072
5381.915208,-222.061783,-3064.381992,13397.727550
5381.915531,444.123565,-2374.896044,13545.768739
5381.915854,296.082377,-2528.115143,11769.274478
5381.916176,-1036.288319,-3140.991542,11473.192101
5381.916499,-1702.473667,-3983.696590,10584.944971
5381.916822,-1702.473667,-4519.963438,9104.533087
5381.917144,-814.226536,-4290.134789,7476.080014
5381.917467,-2442.679609,-4596.572988,7179.997637
5381.917790,-5255.462188,-4903.011187,7846.182985
5381.918112,-4071.132681,-4903.011187,8142.265362
5381.918435,-3552.988522,-4290.134789,7328.038826
5381.918758,-4293.194464,-2834.553343,8512.368333
5381.919080,-4515.256246,-2987.772442,10807.006753
5381.919403,-3034.844362,-2145.067394,11547.212695
5381.919726,-1036.288319,-229.828649,10881.027347
5381.920048,-2072.576638,0.000000,10362.883188
5381.920371,-3108.864956,-842.705048,10510.924376
5381.920693,-2442.679609,-689.485948,10362.883188
5381.921016,-1998.556043,0.000000,8808.450710
5381.921339,-2294.638420,-459.657299,7624.121203
5381.921661,-2442.679609,383.047749,8068.244768
5381.921984,-4145.153275,-612.876398,8956.491898
5381.922307,-3701.029710,-1072.533697,7328.038826
5381.922629,-3182.885551,-919.314598,7254.018232
5381.922952,-3478.967927,-612.876398,7476.080014
5381.923275,-2368.659014,-383.047749,9548.656652
5381.923597,-2146.597232,76.609550,10066.800811
5381.923920,-1776.494261,1608.800546,9696.697840
5381.924243,-2738.761985,1225.752797,9696.697840
5381.924565,-2516.700203,-229.828649,9770.718434
5381.924888,-2590.720797,229.828649,9696.697840
5381.925211,-2368.659014,842.705048,8512.368333
5381.925533,-1036.288319,766.095498,7624.121203
5381.925856,-2146.597232,306.438199,8734.430116
5381.926179,-3478.967927,0.000000,8290.306550
5381.926501,-2738.761985,-536.266849,8512.368333
5381.926824,-2146.597232,-306.438199,7105.977043
5381.927147,-2368.659014,0.000000,8882.471304
5381.927469,-2812.782580,-766.095498,10436.903782
5381.927792,-2516.700203,-919.314598,11103.089130
5381.928115,-1850.514855,-306.438199,9104.533087
5381.928437,-2664.741391,-1378.971896,8956.491898
5381.928760,-2072.576638,-1532.190996,9844.739029
5381.929083,-1184.329507,-1378.971896,9252.574275
5381.929405,74.020594,-612.876398,8512.368333
5381.929728,518.144159,-612.876398,7846.182985
5381.930051,0.000000,-919.314598,7550.100608
5381.930373,814.226536,-459.657299,9326.594869
5381.930696,962.267725,919.314598,9770.718434
5381.931019,1258.350101,612.876398,10955.047942
5381.931341,1184.329507,229.828649,11769.274478
5381.931664,370.102971,-383.047749,11325.150913
5381.931987,1554.432478,-1225.752797,9992.780217
5381.932309,518.144159,-612.876398,9400.615463
5381.932632,-1036.288319,-842.705048,9622.677246
5381.932955,-1998.556043,-2145.067394,9844.739029
5381.933277,-2368.659014,-1991.848295,7698.141797
5381.933600,-1258.350101,-1685.410096,8512.368333
5381.933922,-1554.432478,-1762.019645,7920.203579
5381.934245,-4441.235652,-2451.505594,10214.842000
5381.934568,-3627.009116,-1991.848295,10510.924376
5381.934890,-3034.844362,-1378.971896,9696.697840
5381.935213,-1924.535449,-1072.533697,8216.285956
5381.935536,-1110.308913,-383.047749,9548.656652
5381.935858,-1184.329507,-995.924147,9696.697840
5381.936181,-296.082377,-536.266849,9770.718434
5381.936504,444.123565,-612.876398,7254.018232
5381.936826,444.123565,-1072.533697,7994.224174
5381.937149,-296.082377,-995.924147,9474.636058
5381.937472,-1480.411884,-1685.410096,10214.842000
5381.937794,-740.205942,-1455.581446,9474.636058
5381.938117,-666.185348,-1991.848295,9844.739029
5381.938440,148.041188,-1762.019645,10066.800811
5381.938762,444.123565,-1149.143247,11399.171507
5381.939085,-666.185348,-229.828649,10807.006753
5381.939408,-518.144159,153.219100,11103.089130
5381.939730,0.000000,229.828649,10288.862594
5381.940053,888.247130,766.095498,9474.636058
5381.940376,370.102971,0.000000,9030.512492
5381.940698,-1036.288319,-229.828649,8216.285956
5381.941021,-1332.370696,-536.266849,9400.615463
5381.941344,-2368.659014,-383.047749,8068.244768
5381.941666,-1998.556043,-612.876398,8734.430116
5381.941989,-2960.823768,-995.924147,7846.182985
5381.942312,-4145.153275,-842.705048,9326.594869
5381.942634,-2146.597232,-689.485948,9252.574275
5381.942957,-296.082377,0.000000,8586.388927
5381.943280,-370.102971,1378.971896,9548.656652
5381.943602,-1184.329507,1225.752797,10436.903782
5381.943925,-592.164754,842.705048,10658.965565
5381.944248,2516.700203,1991.848295,9104.533087
5381.944570,3034.844362,3064.381992,9252.574275
5381.944893,2294.638420,2911.162892,10214.842000
5381.945216,1036.288319,1838.629195,11399.171507
5381.945538,0.000000,1608.800546,10510.924376
5381.945861,2738.761985,2298.286494,6957.935855
5381.946184,3256.906145,2604.724693,6217.729913
5381.946506,-1036.288319,2604.724693,10362.883188
5381.946829,0.000000,2374.896044,7920.203579
5381.947151,814.226536,2451.505594,9030.512492
5381.947474,1702.473667,3907.087040,5033.400406
5381.947797,-222.061783,2911.162892,8142.265362
5381.948119,-592.164754,2681.334243,9030.512492
5381.948442,-444.123565,2911.162892,10584.944971
5381.948765,1184.329507,3907.087040,8438.347739
5381.949087,-222.061783,2145.067394,8882.471304
5381.949410,-1110.308913,1915.238745,9844.739029
5381.949733,-3182.885551,1302.362347,10362.883188
5381.950055,-1480.411884,1608.800546,7254.018232
5381.950378,-666.185348,1302.362347,7920.203579
5381.950701,-592.164754,1455.581446,7772.162391
5381.951023,-1036.288319,459.657299,10658.965565
5381.951346,-740.205942,1072.533697,8808.450710
5381.951669,-296.082377,1455.581446,10288.862594
5381.951991,0.000000,1608.800546,8734.430116
5381.952314,0.000000,689.485948,10658.965565
5381.952637,814.226536,1149.143247,10214.842000
5381.952960,0.000000,1302.362347,10584.944971
5381.953282,296.082377,536.266849,9992.780217
5381.953605,1258.350101,0.000000,9104.533087
5381.953928,1258.350101,-383.047749,8956.491898
5381.954251,148.041188,229.828649,9474.636058
5381.954573,-370.102971,0.000000,9918.759623
5381.954896,-222.061783,-842.705048,9696.697840
5381.955219,1628.453072,-459.657299,9548.656652
5381.955542,592.164754,-766.095498,9252.574275
5381.955864,-740.205942,-766.095498,9622.677246
5381.956187,-518.144159,-1149.143247,9844.739029
5381.956510,1036.288319,-536.266849,9474.636058
5381.956833,1554.432478,-919.314598,8142.265362
5381.957155,74.020594,0.000000,8660.409521
5381.957478,-1110.308913,-1072.533697,9326.594869
5381.957801,-740.205942,-1762.019645,9474.636058
