#time,accel_x,accel_y,accel_z
5032.323867,74.020594,766.095498,9178.553681
5032.324182,0.000000,919.314598,9104.533087
5032.324496,0.000000,612.876398,9178.553681
5032.324811,74.020594,842.705048,9326.594869
5032.325125,222.061783,919.314598,9474.636058
5032.325440,0.000000,919.314598,9400.615463
5032.325754,0.000000,689.485948,9326.594869
5032.326068,74.020594,536.266849,9030.512492
5032.326383,370.102971,306.438199,9474.636058
5032.326697,0.000000,536.266849,9178.553681
5032.327012,74.020594,153.219100,9474.636058
5032.327326,74.020594,689.485948,9474.636058
5032.327641,0.000000,766.095498,9400.615463
5032.327955,74.020594,689.485948,9474.636058
5032.328270,148.041188,1225.752797,9400.615463
5032.328584,148.041188,1149.143247,9400.615463
5032.328899,0.000000,842.705048,8882.471304
5032.329213,74.020594,536.266849,9252.574275
5032.329528,148.041188,995.924147,9474.636058
5032.329842,74.020594,1149.143247,9770.718434
5032.330156,0.000000,919.314598,9696.697840
5032.330471,0.000000,919.314598,9474.636058
5032.330785,148.041188,1072.533697,8956.491898
5032.331100,148.041188,1225.752797,9178.553681
5032.331414,-222.061783,919.314598,9030.512492
5032.331729,-444.123565,1072.533697,9030.512492
5032.332043,-148.041188,1378.971896,9178.553681
5032.332358,0.000000,1302.362347,9400.615463
5032.332672,0.000000,1225.752797,9400.615463
5032.332987,74.020594,1302.362347,9696.697840
5032.333301,-148.041188,1991.848295,9474.636058
5032.333616,-666.185348,1608.800546,9252.574275
5032.333930,-444.123565,1378.971896,9474.636058
5032.334245,-740.205942,1455.581446,9548.656652
5032.334559,-888.247130,1685.410096,9696.697840
5032.334873,-1406.391290,1838.629195,9844.739029
5032.335188,-1628.453072,1838.629195,9918.759623
5032.335502,-1702.473667,1685.410096,9992.780217
5032.335817,-1924.535449,2374.896044,9844.739029
5032.336131,-2220.617826,2451.505594,9770.718434
5032.336446,-2072.576638,2681.334243,9770.718434
5032.336760,-2368.659014,2757.943793,9400.615463
5032.337075,-2516.700203,3140.991542,9400.615463
5032.337389,-2664.741391,3140.991542,9326.594869
5032.337704,-3034.844362,3524.039291,9252.574275
5032.338018,-3108.864956,3907.087040,9030.512492
5032.338333,-3552.988522,3294.210641,9252.574275
5032.338647,-3182.885551,3677.258390,8882.471304
5032.338961,-3849.070898,3370.820191,8438.347739
5032.339276,-3701.029710,3907.087040,8882.471304
5032.339590,-3701.029710,4213.525239,8586.388927
5032.339905,-3478.967927,4366.744339,8586.388927
5032.340219,-2960.823768,4826.401637,8734.430116
5032.340534,-2960.823768,4519.963438,8660.409521
5032.340848,-2812.782580,4596.572988,8586.388927
5032.341163,-2294.638420,4366.744339,8512.368333
5032.341477,-2516.700203,4290.134789,8808.450710
5032.341792,-2368.659014,4290.134789,8808.450710
5032.342106,-2368.659014,3983.696590,8956.491898
5032.342421,-2072.576638,4060.306139,8956.491898
5032.342735,-1924.535449,3600.648841,9104.533087
5032.343049,-1554.432478,3447.429741,9326.594869
5032.343364,-1332.370696,3447.429741,9178.553681
5032.343678,-1036.288319,2757.943793,9030.512492
5032.343993,-888.247130,2451.505594,9252.574275
5032.344307,-592.164754,2374.896044,9474.636058
5032.344622,-148.041188,2145.067394,9400.615463
5032.344936,-444.123565,2298.286494,9474.636058
5032.345251,444.123565,1838.629195,9400.615463
5032.345565,592.164754,1762.019645,9548.656652
5032.345880,518.144159,1608.800546,9844.739029
5032.346194,0.000000,1302.362347,10658.965565
5032.346509,-740.205942,1378.971896,11399.171507
5032.346823,-1554.432478,1149.143247,11251.130318
5032.347138,-2294.638420,1302.362347,11769.274478
5032.347452,-2886.803174,1762.019645,11325.150913
5032.347766,-3404.947333,2145.067394,11103.089130
5032.348081,-3997.112087,2451.505594,10214.842000
5032.348395,-4145.153275,3370.820191,10140.821405
5032.348710,-4293.194464,3830.477490,9474.636058
5032.349024,-4071.132681,4673.182538,8882.471304
5032.349339,-3775.050304,4826.401637,7698.141797
5032.349653,-2664.741391,4749.792088,6587.832884
5032.349968,-1776.494261,4826.401637,6069.688724
5032.350282,-1110.308913,3677.258390,5625.565159
5032.350597,-888.247130,2757.943793,5773.606348
5032.350911,-1480.411884,2604.724693,7105.977043
5032.351226,-2220.617826,1532.190996,8586.388927
5032.351540,-2886.803174,842.705048,9474.636058
5032.351854,-2886.803174,76.609550,10214.842000
5032.352169,-2664.741391,0.000000,10881.027347
5032.352483,-2368.659014,1225.752797,10881.027347
5032.352798,-1850.514855,1455.581446,9992.780217
5032.353112,-888.247130,2834.553343,9622.677246
5032.353427,0.000000,4213.525239,8808.450710
5032.353741,814.226536,5362.668486,8142.265362
5032.354056,1702.473667,5669.106685,7846.182985
5032.354370,1702.473667,4749.792088,7402.059420
5032.354685,962.267725,3064.381992,8290.306550
5032.354999,-814.226536,536.266849,10066.800811
5032.355314,-2738.761985,-306.438199,12287.418637
5032.355628,-4589.276840,-1685.410096,13915.871710
5032.355943,-6365.771101,-3064.381992,14878.139434
5032.356257,-7031.956449,-2834.553343,15840.407159
5032.356571,-6883.915261,-1302.362347,14508.036463
5032.356886,-5551.544565,1302.362347,12139.377449
5032.357200,-3330.926739,3753.867940,9844.739029
5032.357515,-592.164754,6818.249932,7402.059420
5032.357829,1110.308913,9652.803275,5699.585753
5032.358144,1998.556043,10572.117872,4589.276840
5032.358458,2442.679609,10495.508323,3701.029710
5032.358773,1998.556043,9346.365076,4515.256246
5032.359087,1036.288319,6358.592633,5551.544565
5032.359402,-222.061783,3370.820191,6291.750507
5032.359716,-2146.597232,383.047749,7105.977043
5032.360031,-3404.947333,-1762.019645,8734.430116
5032.360345,-4737.318029,-2911.162892,9844.739029
5032.360659,-5255.462188,-2604.724693,10658.965565
5032.360974,-5403.503377,-2068.457845,11177.109724
5032.361288,-5181.441594,-76.609550,11621.233289
5032.361603,-4293.194464,1915.238745,11325.150913
5032.361917,-3478.967927,3753.867940,10807.006753
5032.362232,-2146.597232,7201.297681,10807.006753
5032.362546,-740.205942,7737.564530,10658.965565
5032.362861,1184.329507,8733.488677,8956.491898
5032.363175,1850.514855,9116.536426,8660.409521
5032.363490,1480.411884,8886.707777,9030.512492
5032.363804,1258.350101,7967.393179,9400.615463
5032.364119,296.082377,5975.544884,9252.574275
5032.364433,-666.185348,3064.381992,10066.800811
5032.364747,-1924.535449,0.000000,10066.800811
5032.365062,-2516.700203,-2374.896044,8660.409521
5032.365376,-3404.947333,-3753.867940,9104.533087
5032.365691,-4737.318029,-3524.039291,10658.965565
5032.366005,-5847.626942,-3677.258390,11029.068536
5032.366320,-6217.729913,-2911.162892,10881.027347
5032.366634,-5403.503377,-919.314598,10510.924376
5032.366949,-5847.626942,1608.800546,11769.274478
5032.367263,-4293.194464,4366.744339,10955.047942
5032.367578,-2146.597232,7354.516781,9474.636058
5032.367892,-962.267725,10112.460574,8216.285956
5032.368207,-666.185348,11644.651570,7328.038826
5032.368521,444.123565,12870.404366,4885.359217
5032.368836,2072.576638,11797.870669,2664.741391
5032.369150,1406.391290,11031.775171,2812.782580
5032.369464,666.185348,7354.516781,3627.009116
5032.369779,-592.164754,2451.505594,4737.318029
5032.370093,-2220.617826,-2451.505594,6883.915261
5032.370408,-4811.338623,-5822.325785,10658.965565
5032.370722,-7920.203579,-8044.002729,13175.665768
5032.371037,-8586.388927,-9806.022374,15174.221811
5032.371351,-8364.327145,-8503.660028,17394.839637
5032.371666,-5403.503377,-6511.811733,17542.880825
5032.371980,-2368.659014,-2528.115143,15174.221811
5032.372295,-1036.288319,1915.238745,13027.624579
5032.372609,1776.494261,7431.126331,10510.924376
5032.372924,5625.565159,12793.794817,7698.141797
5032.373238,8216.285956,14938.862211,5699.585753
5032.373552,9400.615463,13866.328514,4145.153275
5032.373867,8660.409521,11568.042020,3256.906145
5032.374181,4441.235652,8044.002729,5033.400406
5032.374496,1110.308913,3064.381992,6883.915261
5032.374810,-3182.885551,-2681.334243,9622.677246
5032.375125,-6809.894666,-7814.174080,13101.645173
5032.375439,-8956.491898,-10725.336972,14063.912898
5032.375754,-10140.821405,-11797.870669,13693.809927
5032.376068,-9992.780217,-11261.603821,13619.789333
5032.376383,-7624.121203,-7967.393179,10955.047942
5032.376697,-2738.761985,-2604.724693,8660.409521
5032.377012,1924.535449,2528.115143,7698.141797
5032.377326,5847.626942,7967.393179,5403.503377
5032.377641,9474.636058,10648.727422,2442.679609
5032.377955,11843.295072,11951.089769,2886.803174
5032.378269,11769.274478,13023.623466,5551.544565
5032.378584,9474.636058,10035.851024,8660.409521
5032.378898,5329.482782,5362.668486,10807.006753
5032.379212,888.247130,1149.143247,12065.356855
5032.379527,-2886.803174,-2681.334243,14434.015869
5032.379841,-6587.832884,-6971.469032,14211.954086
5032.380155,-8142.265362,-8427.050478,13249.686362
5032.380469,-9252.574275,-7201.297681,11695.253884
5032.380784,-8290.306550,-6435.202183,9474.636058
5032.381098,-6365.771101,-4749.792088,6217.729913
5032.381412,-3404.947333,-2834.553343,5329.482782
5032.381726,-296.082377,-766.095498,5625.565159
5032.382041,1998.556043,1915.238745,7179.997637
5032.382355,3404.947333,3064.381992,9326.594869
5032.382669,4367.215058,2987.772442,11843.295072
5032.382983,4663.297435,3370.820191,12731.542202
5032.383298,4737.318029,2911.162892,13101.645173
5032.383612,3775.050304,3600.648841,13693.809927
5032.383926,3627.009116,2681.334243,11843.295072
5032.384240,3404.947333,3370.820191,9844.739029
5032.384555,2590.720797,4213.525239,8142.265362
5032.384869,2146.597232,3983.696590,5625.565159
5032.385183,962.267725,3140.991542,2960.823768
5032.385497,-666.185348,1532.190996,4145.153275
5032.385812,-2368.659014,0.000000,5847.626942
5032.386126,-4219.173869,-1838.629195,7476.080014
5032.386440,-4589.276840,-4979.620737,9770.718434
5032.386754,-4737.318029,-5745.716235,10881.027347
5032.387069,-5107.421000,-5132.839837,11325.150913
5032.387383,-4293.194464,-2757.943793,13175.665768
5032.387697,-2812.782580,536.266849,12953.603985
5032.388011,222.061783,2834.553343,11103.089130
5032.388326,3997.112087,4903.011187,8808.450710
5032.388640,5033.400406,7584.345430,6661.853478
5032.388954,5773.606348,8656.879127,6883.915261
5032.389268,5773.606348,8120.612279,6883.915261
5032.389583,4589.276840,6205.373534,8956.491898
5032.389897,2146.597232,2298.286494,10510.924376
5032.390211,0.000000,-153.219100,11473.192101
5032.390525,-2368.659014,-3830.477490,11695.253884
5032.390839,-3701.029710,-5515.887586,11325.150913
5032.391154,-5033.400406,-4903.011187,11769.274478
5032.391468,-5403.503377,-4596.572988,12435.459826
5032.391782,-4219.173869,-2604.724693,10436.903782
5032.392096,-2220.617826,-383.047749,7846.182985
5032.392411,148.041188,1225.752797,5995.668130
5032.392725,1554.432478,3907.087040,5477.523971
5032.393039,2368.659014,4596.572988,5477.523971
5032.393353,3478.967927,5209.449386,6735.874072
5032.393668,2516.700203,5132.839837,9178.553681
5032.393982,1924.535449,3294.210641,10658.965565
5032.394296,1702.473667,2528.115143,10807.006753
5032.394610,1258.350101,1225.752797,11695.253884
5032.394925,518.144159,-1072.533697,11177.109724
5032.395239,518.144159,-612.876398,10584.944971
5032.395553,148.041188,76.609550,8956.491898
5032.395867,740.205942,689.485948,8068.244768
5032.396182,74.020594,689.485948,7476.080014
5032.396496,-296.082377,-1302.362347,5773.606348
5032.396810,-518.144159,-1225.752797,6587.832884
5032.397124,-1480.411884,-766.095498,8512.368333
5032.397439,-3182.885551,-1149.143247,10955.047942
5032.397753,-3108.864956,-2757.943793,11325.150913
5032.398067,-2368.659014,-2681.334243,10955.047942
5032.398381,-2146.597232,-1072.533697,11621.233289
5032.398696,-518.144159,536.266849,11991.336260
5032.399010,1184.329507,2145.067394,10658.965565
5032.399324,3182.885551,3524.039291,9474.636058
5032.399638,4589.276840,5056.230287,8956.491898
5032.399953,4885.359217,5132.839837,7328.038826
5032.400267,4589.276840,2911.162892,6661.853478
5032.400581,3478.967927,2221.676944,7624.121203
5032.400895,1184.329507,689.485948,10214.842000
5032.401210,-1036.288319,-2068.457845,11843.295072
5032.401524,-2886.803174,-3830.477490,11991.336260
5032.401838,-4145.153275,-5132.839837,11177.109724
5032.402152,-4367.215058,-4749.792088,10955.047942
5032.402467,-3404.947333,-2145.067394,10362.883188
5032.402781,-1924.535449,-306.438199,10140.821405
5032.403095,444.123565,2221.676944,8808.450710
5032.403409,2072.576638,3294.210641,6217.729913
5032.403724,3256.906145,3753.867940,4885.359217
5032.404038,3404.947333,5132.839837,4441.235652
5032.404352,2664.741391,5209.449386,6069.688724
5032.404666,1184.329507,4366.744339,8364.327145
5032.404981,148.041188,2757.943793,10584.944971
5032.405295,-444.123565,383.047749,11103.089130
5032.405609,-1554.432478,-1608.800546,11547.212695
5032.405923,-2960.823768,-3064.381992,10658.965565
5032.406238,-3034.844362,-2298.286494,10510.924376
5032.406552,-2294.638420,-1072.533697,10214.842000
5032.406866,-148.041188,0.000000,9548.656652
5032.407180,1850.514855,766.095498,7550.100608
5032.407495,2442.679609,76.609550,7031.956449
5032.407809,2812.782580,1838.629195,6883.915261
5032.408123,1628.453072,1991.848295,8142.265362
5032.408437,740.205942,1608.800546,10584.944971
5032.408752,814.226536,459.657299,12583.501014
5032.409066,222.061783,0.000000,13693.809927
5032.409380,-296.082377,-153.219100,12953.603985
5032.409694,-592.164754,0.000000,11991.336260
5032.410008,-666.185348,1225.752797,10807.006753
5032.410323,666.185348,2221.676944,8956.491898
5032.410637,1850.514855,3600.648841,7550.100608
5032.410951,2294.638420,3524.039291,5921.647536
5032.411265,1776.494261,3753.867940,5181.441594
5032.411580,518.144159,3064.381992,5255.462188
5032.411894,-1036.288319,689.485948,6883.915261
5032.412208,-2294.638420,-842.705048,9844.739029
5032.412522,-3404.947333,-1762.019645,11843.295072
5032.412837,-4145.153275,-2757.943793,11769.274478
5032.413151,-3849.070898,-3217.601092,10881.027347
5032.413465,-2886.803174,-1685.410096,10881.027347
5032.413779,-1258.350101,1225.752797,10288.862594
5032.414094,1110.308913,3753.867940,8438.347739
5032.414408,2516.700203,5286.058936,6143.709319
5032.414722,3552.988522,5669.106685,5181.441594
5032.415036,4219.173869,6128.763984,6143.709319
5032.415351,3701.029710,5439.278036,7105.977043
5032.415665,2146.597232,2834.553343,8808.450710
5032.415979,0.000000,76.609550,11103.089130
5032.416293,-2590.720797,-1608.800546,13175.665768
5032.416608,-4145.153275,-3600.648841,12583.501014
5032.416922,-4441.235652,-5592.497135,11621.233289
5032.417236,-4145.153275,-4136.915689,11769.274478
5032.417550,-3552.988522,-2374.896044,12139.377449
5032.417865,-1258.350101,612.876398,10066.800811
5032.418179,888.247130,1685.410096,7105.977043
5032.418493,2442.679609,2145.067394,5255.462188
5032.418807,2516.700203,4136.915689,5699.585753
5032.419122,2738.761985,4366.744339,7105.977043
5032.419436,2146.597232,2987.772442,7550.100608
5032.419750,814.226536,842.705048,10658.965565
5032.420064,-370.102971,-612.876398,13027.624579
5032.420379,-1258.350101,-842.705048,12287.418637
5032.420693,-1332.370696,-1455.581446,10955.047942
5032.421007,-1332.370696,-1608.800546,10362.883188
5032.421321,-222.061783,76.609550,9696.697840
5032.421636,888.247130,1685.410096,8586.388927
5032.421950,2442.679609,2604.724693,6587.832884
5032.422264,2368.659014,2374.896044,4811.338623
5032.422578,2368.659014,1608.800546,5551.544565
5032.422893,1924.535449,1685.410096,6883.915261
5032.423207,814.226536,919.314598,9178.553681
5032.423521,-222.061783,-612.876398,11843.295072
5032.423835,-1184.329507,-1302.362347,13471.748144
5032.424150,-1628.453072,-2145.067394,13471.748144
5032.424464,-1480.411884,-919.314598,12583.501014
5032.424778,-592.164754,0.000000,10881.027347
5032.425092,222.061783,1225.752797,9992.780217
5032.425407,2368.659014,3753.867940,8364.327145
5032.425721,4071.132681,4826.401637,5477.523971
5032.426035,3627.009116,4596.572988,5033.400406
5032.426349,2442.679609,3524.039291,6513.812290
5032.426664,1480.411884,2834.553343,8438.347739
5032.426978,-296.082377,919.314598,9696.697840
5032.427292,-2072.576638,-2221.676944,11325.150913
5032.427606,-3256.906145,-3524.039291,13619.789333
5032.427921,-3552.988522,-3370.820191,13175.665768
5032.428235,-2664.741391,-2834.553343,11621.233289
5032.428549,-1924.535449,-919.314598,10436.903782
5032.428863,-1406.391290,842.705048,8956.491898
5032.429177,444.123565,4060.306139,7402.059420
5032.429492,2960.823768,4979.620737,4367.215058
5032.429806,3108.864956,4903.011187,4293.194464
5032.430120,2664.741391,4443.353888,6291.750507
5032.430434,2220.617826,3907.087040,7920.203579
5032.430749,1406.391290,2451.505594,10214.842000
5032.431063,0.000000,0.000000,12287.418637
5032.431377,-1628.453072,-1685.410096,12657.521608
5032.431691,-2220.617826,-2374.896044,11991.336260
5032.432006,-2368.659014,-1149.143247,11991.336260
5032.432320,-1776.494261,-306.438199,10510.924376
5032.432634,-666.185348,766.095498,9104.533087
5032.432948,962.267725,2374.896044,7328.038826
5032.433263,1702.473667,3370.820191,5699.585753
5032.433577,1332.370696,2911.162892,5921.647536
5032.433891,888.247130,2757.943793,7179.997637
5032.434205,740.205942,919.314598,7624.121203
5032.434520,-962.267725,0.000000,10362.883188
5032.434834,-1998.556043,-1225.752797,12509.480420
5032.435148,-2368.659014,-1072.533697,12509.480420
5032.435462,-2220.617826,-689.485948,12731.542202
5032.435777,-962.267725,-612.876398,11547.212695
5032.436091,0.000000,1378.971896,10658.965565
5032.436405,1184.329507,2451.505594,8586.388927
5032.436719,3034.844362,3600.648841,6513.812290
5032.437034,3627.009116,4673.182538,5921.647536
5032.437348,2812.782580,2987.772442,6291.750507
5032.437662,1702.473667,1915.238745,7179.997637
5032.437976,222.061783,689.485948,9030.512492
5032.438291,-1776.494261,-919.314598,11029.068536
5032.438605,-3701.029710,-2451.505594,12065.356855
5032.438919,-4441.235652,-3600.648841,11695.253884
5032.439233,-3478.967927,-2681.334243,11547.212695
5032.439548,-2664.741391,-995.924147,10658.965565
5032.439862,-1036.288319,919.314598,9252.574275
5032.440176,1184.329507,2987.772442,6587.832884
5032.440490,3108.864956,4213.525239,4959.379811
5032.440805,4663.297435,4979.620737,5107.421000
5032.441119,3997.112087,4596.572988,6069.688724
5032.441433,3182.885551,2757.943793,7402.059420
5032.441747,1554.432478,1072.533697,10436.903782
5032.442062,-592.164754,-842.705048,12583.501014
5032.442376,-1110.308913,-2834.553343,13027.624579
5032.442690,-1776.494261,-4136.915689,13101.645173
5032.443004,-2368.659014,-3677.258390,12731.542202
5032.443319,-1480.411884,-2374.896044,11399.171507
5032.443633,-296.082377,-536.266849,9844.739029
5032.443947,1332.370696,1762.019645,8290.306550
5032.444261,2738.761985,3524.039291,6587.832884
5032.444576,3701.029710,3370.820191,5181.441594
5032.444890,3404.947333,2834.553343,5477.523971
5032.445204,2590.720797,2451.505594,7772.162391
5032.445518,444.123565,306.438199,9548.656652
5032.445833,-740.205942,306.438199,11843.295072
5032.446147,-1184.329507,-1455.581446,12879.583391
5032.446461,-1702.473667,-2068.457845,12361.439231
5032.446775,-1480.411884,-2221.676944,11769.274478
5032.447090,-592.164754,-229.828649,10288.862594
5032.447404,370.102971,2145.067394,8808.450710
5032.447718,1924.535449,2681.334243,6661.853478
5032.448032,2664.741391,2911.162892,5847.626942
5032.448346,2368.659014,2834.553343,5773.606348
5032.448661,1184.329507,2298.286494,6883.915261
5032.448975,0.000000,766.095498,7994.224174
5032.449289,-1110.308913,-842.705048,9992.780217
5032.449603,-2294.638420,-1991.848295,12435.459826
5032.449918,-3404.947333,-2528.115143,13249.686362
5032.450232,-3330.926739,-2221.676944,11917.315666
5032.450546,-3108.864956,-1302.362347,10955.047942
5032.450860,-1998.556043,689.485948,10214.842000
5032.451175,370.102971,2911.162892,8808.450710
5032.451489,3034.844362,3677.258390,6439.791695
5032.451803,4071.132681,4136.915689,5033.400406
5032.452117,3627.009116,3524.039291,5033.400406
5032.452432,2590.720797,2451.505594,6439.791695
5032.452746,1406.391290,1072.533697,9474.636058
5032.453060,0.000000,-612.876398,11991.336260
5032.453374,-1850.514855,-2374.896044,13545.768739
5032.453689,-2368.659014,-3830.477490,13175.665768
5032.454003,-2516.700203,-3600.648841,12509.480420
5032.454317,-1850.514855,-2451.505594,11399.171507
5032.454631,-814.226536,459.657299,10510.924376
5032.454946,148.041188,2834.553343,8512.368333
5032.455260,2368.659014,4443.353888,6365.771101
5032.455574,3034.844362,4826.401637,4663.297435
5032.455888,2590.720797,4366.744339,5477.523971
5032.456203,1924.535449,3370.820191,6661.853478
5032.456517,222.061783,2068.457845,9104.533087
5032.456831,-1776.494261,-383.047749,11621.233289
5032.457145,-3182.885551,-1991.848295,12509.480420
5032.457460,-3404.947333,-3140.991542,11843.295072
5032.457774,-3034.844362,-2834.553343,11547.212695
5032.458088,-2442.679609,-612.876398,11103.089130
5032.458402,-1184.329507,536.266849,9252.574275
5032.458717,444.123565,2145.067394,7402.059420
5032.459031,1924.535449,4136.915689,6587.832884
5032.459345,2960.823768,4213.525239,5921.647536
5032.459659,2812.782580,4060.306139,6143.709319
5032.459974,2146.597232,2374.896044,7031.956449
5032.460288,0.000000,1838.629195,10362.883188
5032.460602,-1480.411884,0.000000,12657.521608
5032.460916,-2368.659014,-1455.581446,12953.603985
5032.461231,-2738.761985,-1915.238745,12509.480420
5032.461545,-3034.844362,-1225.752797,11769.274478
5032.461859,-2072.576638,612.876398,10584.944971
5032.462173,-296.082377,1608.800546,9030.512492
5032.462488,1998.556043,3524.039291,7772.162391
5032.462802,2664.741391,4519.963438,6661.853478
5032.463116,2146.597232,4213.525239,5551.544565
5032.463430,1998.556043,2911.162892,5329.482782
5032.463745,1184.329507,1302.362347,6809.894666
5032.464059,-740.205942,229.828649,10510.924376
5032.464373,-1628.453072,-1378.971896,12805.562797
5032.464687,-1924.535449,-2451.505594,12731.542202
5032.465002,-1554.432478,-3064.381992,12139.377449
5032.465316,-1406.391290,-2221.676944,11251.130318
5032.465630,-666.185348,0.000000,10214.842000
5032.465944,1036.288319,2068.457845,8290.306550
5032.466259,3552.988522,4213.525239,7105.977043
5032.466573,4811.338623,4596.572988,5403.503377
5032.466887,4145.153275,3294.210641,4959.379811
5032.467201,3256.906145,3217.601092,6217.729913
5032.467516,1110.308913,1378.971896,8512.368333
5032.467830,-1110.308913,-306.438199,10881.027347
5032.468144,-1924.535449,-3370.820191,12731.542202
5032.468458,-3034.844362,-4749.792088,13323.706956
5032.468772,-3552.988522,-5056.230287,13101.645173
5032.469087,-2886.803174,-3524.039291,12065.356855
5032.469401,-1924.535449,-1455.581446,10584.944971
5032.469715,518.144159,0.000000,9178.553681
5032.470029,3034.844362,2145.067394,7624.121203
5032.470344,4441.235652,3217.601092,5995.668130
5032.470658,4293.194464,3294.210641,5847.626942
5032.470972,4293.194464,3524.039291,7476.080014
5032.471286,2294.638420,1915.238745,9474.636058
5032.471601,0.000000,306.438199,12065.356855
5032.471915,-1184.329507,-1225.752797,12805.562797
5032.472229,-2516.700203,-2757.943793,13027.624579
5032.472543,-3330.926739,-2451.505594,13027.624579
5032.472858,-2516.700203,-1608.800546,10584.944971
5032.473172,-962.267725,229.828649,8586.388927
5032.473486,740.205942,2374.896044,7698.141797
5032.473800,1628.453072,3753.867940,5551.544565
5032.474115,1850.514855,5132.839837,4293.194464
5032.474429,1776.494261,3600.648841,3849.070898
5032.474743,1628.453072,2451.505594,5699.585753
5032.475057,370.102971,1149.143247,8364.327145
5032.475372,-1184.329507,-459.657299,11843.295072
5032.475686,-1850.514855,-1225.752797,12731.542202
5032.476000,-2738.761985,-1991.848295,12657.521608
5032.476314,-2368.659014,-1915.238745,13249.686362
5032.476629,-592.164754,0.000000,12065.356855
5032.476943,666.185348,2221.676944,10288.862594
5032.477257,2664.741391,3217.601092,7624.121203
5032.477571,3923.091493,5209.449386,6143.709319
5032.477886,3923.091493,5056.230287,5403.503377
5032.478200,3552.988522,4060.306139,5847.626942
5032.478514,2072.576638,3140.991542,7254.018232
5032.478828,-666.185348,536.266849,9918.759623
5032.479143,-2442.679609,-842.705048,12879.583391
5032.479457,-3256.906145,-2374.896044,13101.645173
5032.479771,-3849.070898,-3447.429741,12805.562797
5032.480085,-3552.988522,-2528.115143,12509.480420
5032.480399,-3182.885551,-766.095498,10658.965565
5032.480714,-1554.432478,1685.410096,8438.347739
5032.481028,814.226536,4060.306139,6735.874072
5032.481342,2220.617826,5515.887586,5995.668130
5032.481656,2664.741391,4903.011187,5329.482782
5032.481970,2960.823768,3753.867940,4811.338623
5032.482284,2146.597232,2987.772442,6883.915261
5032.482599,-370.102971,1685.410096,10658.965565
5032.482913,-1332.370696,153.219100,12509.480420
5032.483227,-2368.659014,-1302.362347,12657.521608
5032.483541,-2886.803174,-1915.238745,12879.583391
5032.483855,-2294.638420,-2145.067394,12139.377449
5032.484170,-888.247130,0.000000,9992.780217
5032.484484,592.164754,1532.190996,7328.038826
5032.484798,2664.741391,3447.429741,6513.812290
5032.485112,3404.947333,4749.792088,5995.668130
5032.485426,3330.926739,4060.306139,5847.626942
5032.485741,3256.906145,2681.334243,5995.668130
5032.486055,1554.432478,689.485948,8142.265362
5032.486369,-1332.370696,-612.876398,11547.212695
5032.486683,-2590.720797,-2528.115143,12435.459826
5032.486997,-3478.967927,-3983.696590,12509.480420
5032.487311,-3552.988522,-3753.867940,13175.665768
5032.487626,-2590.720797,-2298.286494,13101.645173
5032.487940,-1702.473667,-383.047749,10510.924376
5032.488254,370.102971,995.924147,7328.038826
5032.488568,2220.617826,2987.772442,5477.523971
5032.488882,3182.885551,3677.258390,5921.647536
5032.489197,4071.132681,2987.772442,5773.606348
5032.489511,3330.926739,1915.238745,6587.832884
5032.489825,1406.391290,76.609550,9474.636058
5032.490139,-296.082377,-1225.752797,12435.459826
5032.490453,-740.205942,-2528.115143,12361.439231
5032.490767,-148.041188,-3753.867940,12583.501014
5032.491082,-1332.370696,-3217.601092,13471.748144
5032.491396,-1628.453072,-2604.724693,12361.439231
5032.491710,-444.123565,-612.876398,10066.800811
5032.492024,1924.535449,2221.676944,7698.141797
5032.492338,3552.988522,3983.696590,6957.935855
5032.492653,3923.091493,4290.134789,5403.503377
5032.492967,3775.050304,3983.696590,5107.421000
5032.493281,3256.906145,2528.115143,5921.647536
5032.493595,148.041188,2145.067394,8512.368333
5032.493909,-2442.679609,-612.876398,10881.027347
5032.494224,-3627.009116,-1225.752797,12731.542202
5032.494538,-3775.050304,-1915.238745,12879.583391
5032.494852,-4219.173869,-2987.772442,12657.521608
5032.495166,-3923.091493,-1762.019645,10881.027347
5032.495480,-2146.597232,-536.266849,8438.347739
5032.495794,148.041188,2911.162892,7328.038826
5032.496109,1924.535449,3907.087040,6217.729913
5032.496423,2220.617826,4136.915689,5625.565159
5032.496737,2516.700203,3907.087040,6217.729913
5032.497051,2146.597232,3217.601092,7254.018232
5032.497365,1110.308913,1608.800546,9474.636058
5032.497680,74.020594,-459.657299,11399.171507
5032.497994,-370.102971,-1915.238745,13397.727550
5032.498308,-740.205942,-1302.362347,13249.686362
5032.498622,-518.144159,-1149.143247,12287.418637
5032.498936,74.020594,153.219100,11399.171507
5032.499250,1036.288319,2604.724693,9770.718434
5032.499565,2960.823768,4290.134789,7624.121203
5032.499879,3775.050304,4519.963438,5033.400406
5032.500193,2812.782580,3983.696590,4811.338623
5032.500507,2960.823768,3064.381992,5625.565159
5032.500821,1332.370696,2528.115143,7105.977043
5032.501136,-1332.370696,383.047749,10214.842000
5032.501450,-3330.926739,-1302.362347,12435.459826
5032.501764,-3997.112087,-3140.991542,12065.356855
5032.502078,-3849.070898,-3370.820191,12435.459826
5032.502392,-3330.926739,-2221.676944,12139.377449
5032.502707,-2664.741391,-459.657299,10362.883188
5032.503021,-1110.308913,995.924147,8364.327145
5032.503335,1998.556043,2528.115143,6587.832884
5032.503649,3627.009116,4366.744339,5921.647536
5032.503963,4293.194464,4290.134789,5329.482782
5032.504277,4959.379811,3753.867940,5699.585753
5032.504592,3478.967927,2757.943793,8438.347739
5032.504906,148.041188,153.219100,11917.315666
5032.505220,-518.144159,-2451.505594,12657.521608
5032.505534,-1850.514855,-2604.724693,13249.686362
5032.505848,-3108.864956,-2987.772442,13693.809927
5032.506163,-2886.803174,-1608.800546,13767.830521
5032.506477,-1702.473667,-689.485948,9770.718434
5032.506791,0.000000,0.000000,7550.100608
5032.507105,2220.617826,3217.601092,6439.791695
5032.507419,1850.514855,4443.353888,4145.153275
5032.507734,2146.597232,3983.696590,3923.091493
5032.508048,1258.350101,3447.429741,5477.523971
5032.508362,-666.185348,1915.238745,9030.512492
5032.508676,-2960.823768,-1532.190996,11843.295072
5032.508990,-4071.132681,-3753.867940,11695.253884
5032.509304,-4885.359217,-4596.572988,12139.377449
5032.509619,-4441.235652,-3983.696590,12953.603985
5032.509933,-3627.009116,-2298.286494,12953.603985
5032.510247,-1406.391290,-1302.362347,10881.027347
5032.510561,814.226536,1532.190996,8068.244768
5032.510875,2960.823768,4290.134789,6513.812290
5032.511190,3849.070898,4213.525239,4663.297435
5032.511504,5403.503377,4290.134789,4663.297435
5032.511818,4589.276840,2987.772442,6883.915261
5032.512132,2294.638420,306.438199,9400.615463
5032.512446,740.205942,-76.609550,11621.233289
5032.512760,-740.205942,-1072.533697,14211.954086
5032.513075,-1998.556043,-2834.553343,13619.789333
5032.513389,-2072.576638,-2528.115143,12509.480420
5032.513703,-1332.370696,-2528.115143,11103.089130
5032.514017,-444.123565,0.000000,9622.677246
5032.514331,888.247130,3677.258390,8586.388927
5032.514646,1702.473667,3600.648841,5995.668130
5032.514960,2368.659014,4443.353888,4737.318029
5032.515274,2738.761985,3677.258390,4145.153275
5032.515588,1554.432478,2451.505594,6439.791695
5032.515902,-370.102971,1838.629195,9474.636058
5032.516217,-1850.514855,0.000000,11769.274478
5032.516531,-2072.576638,-1378.971896,13175.665768
5032.516845,-2368.659014,-2528.115143,12731.542202
5032.517159,-2738.761985,-2068.457845,12509.480420
5032.517473,-1702.473667,-612.876398,11103.089130
5032.517787,0.000000,2451.505594,9622.677246
5032.518102,2516.700203,4290.134789,7920.203579
5032.518416,3627.009116,5286.058936,6069.688724
5032.518730,3923.091493,4903.011187,4811.338623
5032.519044,3849.070898,4673.182538,5699.585753
5032.519358,1776.494261,4136.915689,7476.080014
5032.519673,-296.082377,1225.752797,10066.800811
5032.519987,-2072.576638,-995.924147,12213.398043
5032.520301,-3256.906145,-2681.334243,11991.336260
5032.520615,-4071.132681,-3294.210641,12213.398043
5032.520929,-4145.153275,-1685.410096,11843.295072
5032.521243,-2738.761985,-383.047749,10288.862594
5032.521558,-666.185348,1991.848295,8808.450710
5032.521872,1406.391290,3524.039291,7254.018232
5032.522186,2738.761985,4519.963438,5403.503377
5032.522500,3034.844362,4060.306139,4219.173869
5032.522814,2442.679609,3447.429741,5403.503377
5032.523129,1258.350101,2298.286494,8142.265362
5032.523443,-370.102971,76.609550,11325.150913
5032.523757,-1406.391290,-2068.457845,13249.686362
5032.524071,-2368.659014,-4596.572988,12953.603985
5032.524385,-3627.009116,-4673.182538,12287.418637
5032.524700,-3256.906145,-2834.553343,12805.562797
5032.525014,-2146.597232,-383.047749,11251.130318
5032.525328,0.000000,995.924147,9400.615463
5032.525642,2146.597232,1915.238745,7254.018232
5032.525956,3034.844362,3294.210641,5847.626942
5032.526270,3701.029710,3447.429741,5033.400406
5032.526585,3478.967927,3447.429741,5551.544565
5032.526899,1702.473667,1838.629195,7698.141797
5032.527213,-592.164754,0.000000,11843.295072
5032.527527,-1998.556043,-1762.019645,13249.686362
5032.527841,-2812.782580,-2834.553343,12583.501014
5032.528156,-3330.926739,-3217.601092,12509.480420
5032.528470,-2294.638420,-2451.505594,11029.068536
5032.528784,-1036.288319,0.000000,10510.924376
5032.529098,1110.308913,2374.896044,8438.347739
5032.529412,2072.576638,3447.429741,6365.771101
5032.529727,2442.679609,4060.306139,4589.276840
5032.530041,2812.782580,3983.696590,4441.235652
5032.530355,1924.535449,3294.210641,5995.668130
5032.530669,0.000000,1532.190996,9030.512492
5032.530983,-1628.453072,-766.095498,11251.130318
5032.531297,-2368.659014,-2145.067394,12139.377449
5032.531612,-2886.803174,-2451.505594,12065.356855
5032.531926,-3552.988522,-1991.848295,12731.542202
5032.532240,-2516.700203,-842.705048,11621.233289
5032.532554,-740.205942,459.657299,9474.636058
5032.532868,1110.308913,3140.991542,8438.347739
5032.533183,2738.761985,4903.011187,6513.812290
5032.533497,3627.009116,5056.230287,4811.338623
5032.533811,4219.173869,4596.572988,4737.318029
5032.534125,3256.906145,3447.429741,6809.894666
5032.534439,888.247130,2451.505594,10436.903782
5032.534753,-518.144159,-383.047749,11991.336260
5032.535068,-1628.453072,-2145.067394,12287.418637
5032.535382,-2442.679609,-2987.772442,12731.542202
5032.535696,-2812.782580,-2221.676944,12657.521608
5032.536010,-2294.638420,-995.924147,11251.130318
5032.536324,-296.082377,536.266849,10140.821405
5032.536639,1776.494261,3830.477490,8882.471304
5032.536953,3182.885551,3907.087040,6365.771101
5032.537267,2960.823768,3600.648841,4811.338623
5032.537581,1924.535449,3830.477490,4885.359217
5032.537895,1406.391290,3447.429741,5921.647536
5032.538210,148.041188,2451.505594,8808.450710
5032.538524,-962.267725,0.000000,11399.171507
5032.538838,-1702.473667,-1838.629195,12879.583391
5032.539152,-3034.844362,-2681.334243,12213.398043
5032.539466,-3404.947333,-2374.896044,11325.150913
5032.539780,-2146.597232,-995.924147,10584.944971
5032.540095,0.000000,459.657299,9474.636058
5032.540409,2072.576638,2911.162892,8142.265362
5032.540723,3182.885551,3524.039291,5921.647536
5032.541037,3478.967927,3600.648841,5255.462188
5032.541351,2368.659014,2987.772442,5403.503377
5032.541666,1480.411884,2451.505594,6957.935855
5032.541980,592.164754,766.095498,9474.636058
5032.542294,-1184.329507,-919.314598,11843.295072
5032.542608,-1850.514855,-2145.067394,11917.315666
5032.542922,-2368.659014,-3370.820191,12509.480420
5032.543236,-1776.494261,-3064.381992,13249.686362
5032.543551,-518.144159,-689.485948,11917.315666
5032.543865,888.247130,842.705048,10066.800811
5032.544179,2516.700203,1608.800546,7698.141797
5032.544493,4071.132681,2757.943793,5847.626942
5032.544807,4293.194464,2911.162892,5551.544565
5032.545122,2664.741391,1532.190996,6217.729913
5032.545436,296.082377,1532.190996,7920.203579
5032.545750,-1850.514855,-153.219100,10807.006753
5032.546064,-2072.576638,-2451.505594,12287.418637
5032.546378,-2960.823768,-3447.429741,12879.583391
5032.546693,-3034.844362,-4213.525239,11991.336260
5032.547007,-1258.350101,-3064.381992,9622.677246
5032.547321,-1628.453072,536.266849,9474.636058
5032.547635,518.144159,1991.848295,8956.491898
5032.547949,2294.638420,3983.696590,6513.812290
5032.548263,3997.112087,3907.087040,6439.791695
5032.548578,3775.050304,3140.991542,5403.503377
5032.548892,2664.741391,2911.162892,5995.668130
5032.549206,666.185348,1149.143247,8216.285956
5032.549520,-296.082377,0.000000,11325.150913
5032.549834,-1554.432478,-306.438199,13101.645173
5032.550149,-2590.720797,-2528.115143,12953.603985
5032.550463,-3627.009116,-2451.505594,11843.295072
5032.550777,-3330.926739,-995.924147,11325.150913
5032.551091,-1998.556043,0.000000,9918.759623
5032.551405,74.020594,2145.067394,8586.388927
5032.551720,1480.411884,3217.601092,7105.977043
5032.552034,3034.844362,4136.915689,5995.668130
5032.552348,3034.844362,4136.915689,6291.750507
5032.552662,1776.494261,3907.087040,7624.121203
5032.552976,296.082377,2681.334243,9326.594869
5032.553290,-962.267725,1149.143247,11177.109724
5032.553605,-1924.535449,-689.485948,12435.459826
5032.553919,-2516.700203,-1532.190996,12213.398043
5032.554233,-2812.782580,-1302.362347,12139.377449
5032.554547,-2516.700203,-306.438199,10807.006753
5032.554861,-2368.659014,1915.238745,9178.553681
5032.555176,148.041188,2757.943793,8142.265362
5032.555490,1850.514855,3600.648841,5625.565159
5032.555804,2294.638420,3524.039291,4737.318029
5032.556118,2516.700203,3447.429741,5477.523971
5032.556432,1480.411884,3524.039291,6957.935855
5032.556746,444.123565,2374.896044,9844.739029
5032.557061,148.041188,-306.438199,10955.047942
5032.557375,-592.164754,-1378.971896,11029.068536
5032.557689,-1036.288319,-1608.800546,11621.233289
5032.558003,-888.247130,-995.924147,10881.027347
5032.558317,-296.082377,306.438199,10436.903782
5032.558632,1332.370696,1608.800546,9992.780217
5032.558946,2516.700203,3064.381992,8290.306550
5032.559260,2516.700203,2681.334243,6883.915261
5032.559574,3034.844362,1762.019645,5329.482782
5032.559888,2294.638420,2221.676944,6957.935855
5032.560203,814.226536,1225.752797,10140.821405
5032.560517,-962.267725,-383.047749,11917.315666
5032.560831,-2146.597232,-2834.553343,12583.501014
5032.561145,-3182.885551,-3830.477490,13175.665768
5032.561459,-4293.194464,-2834.553343,12657.521608
5032.561773,-4071.132681,-2374.896044,11621.233289
5032.562088,-2368.659014,-766.095498,9992.780217
5032.562402,-296.082377,1149.143247,8364.327145
5032.562716,1184.329507,1838.629195,7624.121203
5032.563030,2294.638420,3524.039291,5477.523971
5032.563344,2886.803174,2911.162892,4737.318029
5032.563659,2590.720797,2911.162892,7105.977043
5032.563973,1406.391290,2298.286494,9030.512492
5032.564287,592.164754,0.000000,11251.130318
5032.564601,-222.061783,-995.924147,11547.212695
5032.564915,-1332.370696,-2451.505594,11621.233289
5032.565229,-2146.597232,-1762.019645,11029.068536
5032.565544,-1406.391290,-229.828649,10658.965565
5032.565858,-370.102971,1608.800546,9474.636058
5032.566172,666.185348,2681.334243,8068.244768
5032.566486,1702.473667,3064.381992,6661.853478
5032.566800,2368.659014,3140.991542,4737.318029
5032.567115,2590.720797,2911.162892,5033.400406
5032.567429,1480.411884,2451.505594,7550.100608
5032.567743,-444.123565,612.876398,9844.739029
5032.568057,-1998.556043,-1378.971896,11769.274478
5032.568371,-2886.803174,-2757.943793,12435.459826
5032.568686,-3701.029710,-2911.162892,11843.295072
5032.569000,-2960.823768,-2451.505594,12139.377449
5032.569314,-1702.473667,-766.095498,11621.233289
5032.569628,518.144159,1149.143247,10140.821405
5032.569942,1924.535449,2068.457845,9030.512492
5032.570256,3256.906145,2374.896044,6365.771101
5032.570571,3997.112087,2834.553343,5699.585753
5032.570885,3478.967927,3753.867940,7402.059420
5032.571199,3108.864956,3294.210641,9178.553681
5032.571513,1776.494261,842.705048,10658.965565
5032.571827,74.020594,-2145.067394,11621.233289
5032.572142,-592.164754,-2374.896044,12139.377449
5032.572456,-2368.659014,-1455.581446,12139.377449
5032.572770,-1850.514855,-689.485948,11621.233289
5032.573084,-296.082377,919.314598,10288.862594
5032.573398,296.082377,1991.848295,9474.636058
5032.573713,2072.576638,2681.334243,6735.874072
5032.574027,2960.823768,3983.696590,4293.194464
5032.574341,2664.741391,4443.353888,4293.194464
5032.574655,2146.597232,2834.553343,6513.812290
5032.574969,592.164754,2911.162892,8512.368333
5032.575283,-888.247130,0.000000,10214.842000
5032.575598,-2072.576638,-1685.410096,11843.295072
5032.575912,-3923.091493,-1991.848295,12065.356855
5032.576226,-4441.235652,-2374.896044,11621.233289
5032.576540,-3404.947333,-459.657299,11029.068536
5032.576854,-1776.494261,76.609550,9992.780217
5032.577169,-370.102971,1072.533697,9474.636058
5032.577483,962.267725,2911.162892,7254.018232
5032.577797,1406.391290,4290.134789,5847.626942
5032.578111,2368.659014,4136.915689,6069.688724
5032.578425,2812.782580,3064.381992,7105.977043
5032.578739,740.205942,1225.752797,9622.677246
5032.579054,-666.185348,-536.266849,11547.212695
5032.579368,-2220.617826,-1532.190996,12953.603985
5032.579682,-3108.864956,-2604.724693,12509.480420
5032.579996,-2960.823768,-2757.943793,11843.295072
5032.580310,-2442.679609,-1455.581446,11473.192101
5032.580625,-1480.411884,919.314598,10362.883188
5032.580939,444.123565,3140.991542,8216.285956
5032.581253,3034.844362,3677.258390,5773.606348
5032.581567,3627.009116,4596.572988,4885.359217
5032.581881,3256.906145,4290.134789,5699.585753
5032.582195,3034.844362,3294.210641,6587.832884
5032.582510,1702.473667,1762.019645,7550.100608
5032.582824,-666.185348,612.876398,11103.089130
5032.583138,-1332.370696,-1302.362347,12435.459826
5032.583452,-1554.432478,-1608.800546,11769.274478
5032.583766,-2220.617826,-2757.943793,10807.006753
5032.584081,-2368.659014,-1991.848295,11547.212695
5032.584395,-1480.411884,-229.828649,10066.800811
5032.584709,-296.082377,1685.410096,7402.059420
5032.585023,1554.432478,2604.724693,5921.647536
5032.585337,2294.638420,3064.381992,5921.647536
5032.585651,2220.617826,3370.820191,6365.771101
5032.585966,2516.700203,2374.896044,7179.997637
5032.586280,1332.370696,689.485948,10066.800811
5032.586594,740.205942,-689.485948,12657.521608
5032.586908,1036.288319,-1685.410096,13989.892304
5032.587222,222.061783,-1838.629195,12805.562797
5032.587537,-888.247130,-2221.676944,12509.480420
5032.587851,-666.185348,-995.924147,11473.192101
5032.588165,222.061783,1532.190996,10955.047942
5032.588479,1554.432478,2911.162892,8808.450710
5032.588793,2886.803174,2987.772442,6883.915261
5032.589107,2664.741391,2068.457845,5181.441594
5032.589422,2146.597232,1762.019645,6069.688724
5032.589736,1036.288319,2145.067394,7105.977043
5032.590050,-1702.473667,1302.362347,9030.512492
5032.590364,-2368.659014,-229.828649,10807.006753
5032.590678,-2516.700203,-1838.629195,11251.130318
5032.590992,-2960.823768,-1762.019645,11325.150913
5032.591307,-2442.679609,-2221.676944,11177.109724
5032.591621,-1850.514855,-536.266849,9474.636058
5032.591935,-740.205942,1149.143247,8808.450710
5032.592249,1480.411884,2451.505594,7179.997637
5032.592563,2664.741391,3907.087040,6291.750507
5032.592878,2812.782580,2221.676944,4959.379811
5032.593192,2368.659014,2451.505594,6809.894666
5032.593506,1776.494261,2145.067394,9030.512492
5032.593820,74.020594,0.000000,11325.150913
5032.594134,-814.226536,-1532.190996,12657.521608
5032.594448,-1406.391290,-2604.724693,12731.542202
5032.594763,-2368.659014,-2451.505594,12287.418637
5032.595077,-2294.638420,-1072.533697,11325.150913
5032.595391,-1702.473667,153.219100,10140.821405
5032.595705,74.020594,1455.581446,8808.450710
5032.596019,2220.617826,2987.772442,7402.059420
5032.596334,2812.782580,3753.867940,6513.812290
5032.596648,2516.700203,3524.039291,5551.544565
5032.596962,2368.659014,2987.772442,7031.956449
5032.597276,962.267725,1915.238745,8882.471304
5032.597590,-1110.308913,536.266849,11029.068536
5032.597904,-1776.494261,-1225.752797,12435.459826
5032.598219,-2368.659014,-2374.896044,12287.418637
5032.598533,-2368.659014,-1838.629195,11917.315666
5032.598847,-1924.535449,-995.924147,11473.192101
5032.599161,-1480.411884,536.266849,10066.800811
5032.599475,0.000000,2374.896044,7994.224174
5032.599789,2442.679609,3830.477490,6513.812290
5032.600104,2664.741391,4903.011187,5107.421000
5032.600418,2368.659014,4136.915689,5921.647536
5032.600732,1776.494261,3140.991542,6957.935855
5032.601046,0.000000,1072.533697,8660.409521
5032.601360,-1998.556043,-612.876398,10955.047942
5032.601675,-3182.885551,-1149.143247,12065.356855
5032.601989,-3627.009116,-1838.629195,11917.315666
5032.602303,-2516.700203,-1685.410096,10881.027347
5032.602617,-2072.576638,-76.609550,10658.965565
5032.602931,-1184.329507,842.705048,9770.718434
5032.603245,814.226536,2604.724693,7846.182985
5032.603560,1850.514855,3907.087040,6957.935855
5032.603874,3182.885551,3907.087040,6069.688724
5032.604188,3701.029710,3064.381992,6587.832884
5032.604502,2886.803174,2451.505594,8290.306550
5032.604816,1406.391290,1225.752797,9992.780217
5032.605131,444.123565,-153.219100,12361.439231
5032.605445,-740.205942,-1608.800546,13101.645173
5032.605759,-1998.556043,-2298.286494,12361.439231
5032.606073,-1998.556043,-1608.800546,11769.274478
5032.606387,-1332.370696,-842.705048,10732.986159
5032.606701,-666.185348,1302.362347,9400.615463
5032.607016,1036.288319,2374.896044,7698.141797
5032.607330,1776.494261,2757.943793,6439.791695
5032.607644,2220.617826,2911.162892,5551.544565
5032.607958,2146.597232,2374.896044,5921.647536
5032.608272,1036.288319,1532.190996,7402.059420
5032.608587,-296.082377,0.000000,9844.739029
5032.608901,-1628.453072,-459.657299,12287.418637
5032.609215,-1998.556043,-1608.800546,12657.521608
5032.609529,-2072.576638,-2221.676944,11843.295072
5032.609843,-1480.411884,-1762.019645,10732.986159
5032.610157,-148.041188,153.219100,10510.924376
5032.610472,666.185348,2374.896044,9178.553681
5032.610786,2738.761985,3294.210641,7402.059420
5032.611100,3108.864956,3600.648841,5921.647536
5032.611414,2960.823768,3140.991542,5773.606348
5032.611728,2812.782580,2757.943793,7402.059420
5032.612042,1776.494261,2145.067394,8808.450710
5032.612357,0.000000,-536.266849,10807.006753
5032.612671,-1554.432478,-1838.629195,12435.459826
5032.612985,-2516.700203,-3447.429741,11917.315666
5032.613299,-2886.803174,-2221.676944,11843.295072
5032.613613,-2368.659014,-1455.581446,10955.047942
5032.613928,-2442.679609,766.095498,10288.862594
5032.614242,-1258.350101,1532.190996,9252.574275
5032.614556,1036.288319,2834.553343,8290.306550
5032.614870,3182.885551,3524.039291,6291.750507
5032.615184,4663.297435,2604.724693,4811.338623
5032.615498,3182.885551,2681.334243,6809.894666
5032.615813,-148.041188,766.095498,9326.594869
5032.616127,-222.061783,0.000000,11621.233289
5032.616441,-1480.411884,-1072.533697,13249.686362
5032.616755,-2368.659014,-3370.820191,12583.501014
5032.617069,-1998.556043,-3217.601092,11103.089130
5032.617384,-1332.370696,-1762.019645,9474.636058
5032.617698,-444.123565,842.705048,10066.800811
5032.618012,148.041188,2374.896044,9104.533087
5032.618326,1924.535449,2604.724693,6143.709319
5032.618640,3404.947333,2681.334243,4959.379811
5032.618954,2886.803174,3370.820191,6587.832884
5032.619269,1110.308913,2528.115143,8512.368333
5032.619583,222.061783,76.609550,8956.491898
5032.619897,-740.205942,-1532.190996,11399.171507
5032.620211,-1628.453072,-2451.505594,13471.748144
5032.620525,-2812.782580,-2221.676944,12805.562797
5032.620839,-2590.720797,-1608.800546,11843.295072
5032.621154,-2146.597232,-459.657299,11177.109724
5032.621468,-592.164754,1915.238745,9918.759623
5032.621782,1628.453072,2604.724693,8142.265362
5032.622096,2960.823768,3294.210641,5699.585753
5032.622410,3108.864956,4443.353888,5329.482782
5032.622725,2220.617826,3447.429741,6587.832884
5032.623039,740.205942,3064.381992,7994.224174
5032.623353,0.000000,995.924147,9622.677246
5032.623667,-1332.370696,-919.314598,11621.233289
5032.623981,-2812.782580,-612.876398,12583.501014
5032.624295,-3330.926739,-1455.581446,10955.047942
5032.624610,-2960.823768,-995.924147,9844.739029
5032.624924,-2442.679609,229.828649,9622.677246
5032.625238,-666.185348,1378.971896,8808.450710
5032.625552,296.082377,3064.381992,7105.977043
5032.625866,1332.370696,4213.525239,5699.585753
5032.626181,2368.659014,5056.230287,5551.544565
5032.626495,3404.947333,3217.601092,6365.771101
5032.626809,2442.679609,2068.457845,8290.306550
5032.627123,1036.288319,842.705048,9770.718434
5032.627437,-888.247130,-612.876398,11399.171507
5032.627751,-1554.432478,-995.924147,10955.047942
5032.628066,-2294.638420,-1225.752797,12139.377449
5032.628380,-962.267725,-842.705048,12805.562797
5032.628694,814.226536,-536.266849,11399.171507
5032.629008,1258.350101,1608.800546,9622.677246
5032.629322,2738.761985,2681.334243,8216.285956
5032.629636,3775.050304,3370.820191,5699.585753
5032.629951,3701.029710,3064.381992,5921.647536
5032.630265,3923.091493,2221.676944,7402.059420
5032.630579,2072.576638,1608.800546,9474.636058
5032.630893,-1628.453072,-612.876398,11843.295072
5032.631207,-2516.700203,-2757.943793,11843.295072
5032.631522,-3404.947333,-2834.553343,12065.356855
5032.631836,-3182.885551,-4060.306139,12213.398043
5032.632150,-2960.823768,-2221.676944,11325.150913
5032.632464,-2146.597232,-689.485948,10066.800811
5032.632778,222.061783,1149.143247,8216.285956
5032.633092,2072.576638,3677.258390,6661.853478
5032.633407,2442.679609,3140.991542,4811.338623
5032.633721,2590.720797,3140.991542,5625.565159
5032.634035,2664.741391,1302.362347,6513.812290
5032.634349,1480.411884,229.828649,8660.409521
5032.634663,-222.061783,-995.924147,12065.356855
5032.634978,-1702.473667,-2451.505594,13101.645173
5032.635292,-2072.576638,-3064.381992,12509.480420
5032.635606,-2072.576638,-1915.238745,11843.295072
5032.635920,-2220.617826,-1225.752797,11325.150913
5032.636234,-1110.308913,153.219100,9548.656652
5032.636548,888.247130,1915.238745,6883.915261
5032.636863,2294.638420,3677.258390,5921.647536
5032.637177,2294.638420,4519.963438,5477.523971
5032.637491,1628.453072,3217.601092,5773.606348
5032.637805,1036.288319,1378.971896,7994.224174
5032.638119,-888.247130,766.095498,10140.821405
5032.638434,-2516.700203,-1302.362347,12139.377449
5032.638748,-2664.741391,-2528.115143,12361.439231
5032.639062,-3552.988522,-3294.210641,11325.150913
5032.639376,-2960.823768,-2298.286494,11843.295072
5032.639690,-2442.679609,76.609550,10955.047942
5032.640004,-1184.329507,2068.457845,8512.368333
5032.640319,888.247130,2681.334243,6957.935855
5032.640633,2738.761985,5056.230287,6069.688724
5032.640947,3034.844362,5362.668486,6735.874072
5032.641261,3997.112087,3600.648841,6217.729913
5032.641575,2590.720797,2221.676944,6957.935855
5032.641889,1184.329507,459.657299,10140.821405
5032.642204,-518.144159,919.314598,12065.356855
5032.642518,-1628.453072,0.000000,12435.459826
5032.642832,-1998.556043,-1302.362347,12435.459826
5032.643146,-1850.514855,-153.219100,11843.295072
5032.643460,-1332.370696,842.705048,11177.109724
5032.643775,0.000000,1838.629195,8290.306550
5032.644089,1184.329507,3600.648841,6069.688724
5032.644403,1998.556043,4136.915689,6217.729913
5032.644717,2294.638420,4519.963438,5995.668130
5032.645031,2146.597232,3677.258390,6291.750507
5032.645345,222.061783,1455.581446,7846.182985
5032.645660,-2072.576638,153.219100,10436.903782
5032.645974,-3330.926739,-919.314598,12139.377449
5032.646288,-3330.926739,-1455.581446,12509.480420
5032.646602,-3034.844362,-2221.676944,12509.480420
5032.646916,-2368.659014,-1532.190996,12361.439231
5032.647231,-1554.432478,459.657299,11029.068536
5032.647545,-296.082377,2374.896044,8364.327145
5032.647859,1628.453072,4673.182538,6069.688724
5032.648173,2590.720797,4749.792088,5551.544565
5032.648487,3775.050304,4443.353888,5847.626942
5032.648801,3478.967927,2757.943793,6735.874072
5032.649116,1628.453072,1455.581446,8290.306550
5032.649430,-1036.288319,153.219100,11473.192101
5032.649744,-1924.535449,-1532.190996,12657.521608
5032.650058,-1628.453072,-1991.848295,13101.645173
5032.650372,-1850.514855,-2681.334243,12213.398043
5032.650686,-1184.329507,-2221.676944,10955.047942
5032.651001,-370.102971,383.047749,9474.636058
5032.651315,814.226536,2451.505594,7328.038826
5032.651629,2516.700203,3447.429741,5477.523971
5032.651943,3552.988522,3907.087040,5329.482782
5032.652257,3997.112087,2757.943793,5107.421000
5032.652572,4145.153275,2757.943793,6365.771101
5032.652886,2442.679609,919.314598,7105.977043
5032.653200,222.061783,-1378.971896,10732.986159
5032.653514,-962.267725,-1915.238745,13545.768739
5032.653828,-1554.432478,-3447.429741,13175.665768
5032.654142,-2146.597232,-4060.306139,12879.583391
5032.654457,-2146.597232,-3600.648841,12287.418637
5032.654771,-1332.370696,-1225.752797,10140.821405
5032.655085,1036.288319,459.657299,8364.327145
5032.655399,3478.967927,1762.019645,6883.915261
5032.655713,3775.050304,2681.334243,6143.709319
5032.656028,4145.153275,1072.533697,6217.729913
5032.656342,3182.885551,919.314598,7179.997637
5032.656656,740.205942,76.609550,9918.759623
5032.656970,-1184.329507,-1915.238745,12435.459826
5032.657284,-2368.659014,-2374.896044,13471.748144
5032.657598,-2812.782580,-4903.011187,12435.459826
5032.657913,-2368.659014,-3370.820191,12139.377449
5032.658227,-1850.514855,-1455.581446,11251.130318
5032.658541,-1406.391290,306.438199,9400.615463
5032.658855,666.185348,3064.381992,6809.894666
5032.659169,1924.535449,3753.867940,5255.462188
5032.659483,2072.576638,3064.381992,4885.359217
5032.659798,2590.720797,3294.210641,5699.585753
5032.660112,962.267725,2374.896044,6217.729913
5032.660426,-814.226536,76.609550,8956.491898
5032.660740,-2738.761985,-995.924147,12287.418637
5032.661054,-3108.864956,-2528.115143,13101.645173
5032.661369,-3627.009116,-2757.943793,12583.501014
5032.661683,-3330.926739,-1149.143247,11843.295072
5032.661997,-1702.473667,229.828649,11473.192101
5032.662311,370.102971,3294.210641,8586.388927
5032.662625,2738.761985,4136.915689,6439.791695
5032.662939,3404.947333,4826.401637,5477.523971
5032.663254,3552.988522,5592.497135,5403.503377
5032.663568,2960.823768,4673.182538,6291.750507
5032.663882,1554.432478,3447.429741,7994.224174
5032.664196,148.041188,1455.581446,10362.883188
5032.664510,-1998.556043,-536.266849,13471.748144
5032.664825,-3034.844362,-1378.971896,12657.521608
5032.665139,-3478.967927,-1915.238745,11769.274478
5032.665453,-3182.885551,-766.095498,11843.295072
5032.665767,-2220.617826,842.705048,10881.027347
5032.666081,-296.082377,3217.601092,8734.430116
5032.666395,1258.350101,4673.182538,6587.832884
5032.666710,1998.556043,5362.668486,4959.379811
5032.667024,2442.679609,4903.011187,5033.400406
5032.667338,2664.741391,3907.087040,5625.565159
5032.667652,1850.514855,3217.601092,7476.080014
5032.667966,-296.082377,1838.629195,11251.130318
5032.668281,-2516.700203,0.000000,13101.645173
5032.668595,-3330.926739,-1072.533697,12731.542202
5032.668909,-3478.967927,-1685.410096,11177.109724
5032.669223,-3404.947333,-842.705048,11621.233289
5032.669537,-2664.741391,229.828649,9844.739029
5032.669851,-592.164754,2145.067394,7254.018232
5032.670166,1332.370696,3370.820191,6291.750507
5032.670480,2442.679609,4213.525239,5625.565159
5032.670794,2960.823768,3983.696590,5699.585753
5032.671108,2812.782580,2451.505594,6365.771101
5032.671422,1702.473667,1149.143247,7846.182985
5032.671736,-296.082377,0.000000,11325.150913
5032.672051,-1702.473667,-2604.724693,13027.624579
5032.672365,-1776.494261,-3217.601092,12509.480420
5032.672679,-1998.556043,-3064.381992,12879.583391
5032.672993,-1406.391290,-1915.238745,11917.315666
5032.673307,-148.041188,306.438199,10288.862594
5032.673622,1036.288319,1225.752797,8364.327145
5032.673936,3552.988522,2221.676944,6143.709319
5032.674250,3330.926739,2528.115143,4737.318029
5032.674564,2738.761985,1149.143247,5847.626942
5032.674878,2812.782580,0.000000,6883.915261
5032.675192,1110.308913,-919.314598,9474.636058
5032.675507,-962.267725,-3064.381992,13619.789333
5032.675821,-2072.576638,-3983.696590,13915.871710
5032.676135,-2368.659014,-4903.011187,12731.542202
5032.676449,-1850.514855,-4213.525239,12065.356855
5032.676763,-1924.535449,-2757.943793,10362.883188
5032.677078,0.000000,-995.924147,8660.409521
5032.677392,2072.576638,1608.800546,7105.977043
5032.677706,3775.050304,4443.353888,5773.606348
5032.678020,4145.153275,4060.306139,5625.565159
5032.678334,4367.215058,2298.286494,4441.235652
5032.678648,2886.803174,1378.971896,6439.791695
5032.678963,518.144159,0.000000,9400.615463
5032.679277,-1184.329507,-1302.362347,11843.295072
5032.679591,-2072.576638,-3524.039291,12953.603985
5032.679905,-2368.659014,-3830.477490,13619.789333
5032.680219,-2146.597232,-1685.410096,12509.480420
5032.680533,-1776.494261,-1072.533697,10881.027347
5032.680848,370.102971,995.924147,8364.327145
5032.681162,1924.535449,3217.601092,6439.791695
5032.681476,3182.885551,4213.525239,5847.626942
5032.681790,3478.967927,4596.572988,5773.606348
5032.682104,3182.885551,3294.210641,6365.771101
5032.682419,1702.473667,1915.238745,8512.368333
5032.682733,-518.144159,229.828649,10732.986159
5032.683047,-2368.659014,-1608.800546,12657.521608
5032.683361,-3404.947333,-2987.772442,13249.686362
5032.683676,-2960.823768,-1608.800546,13397.727550
5032.683990,-2442.679609,-766.095498,12657.521608
5032.684304,-2220.617826,1149.143247,10510.924376
5032.684619,-518.144159,3600.648841,8290.306550
5032.684933,1110.308913,4979.620737,6587.832884
5032.685248,2294.638420,6281.983084,5255.462188
5032.685562,2590.720797,5975.544884,5181.441594
5032.685876,2516.700203,4060.306139,5551.544565
5032.686191,888.247130,3064.381992,7476.080014
5032.686505,-1258.350101,1532.190996,10140.821405
5032.686820,-2960.823768,76.609550,12879.583391
5032.687134,-3552.988522,-919.314598,12509.480420
5032.687448,-4441.235652,-1608.800546,12139.377449
5032.687763,-3552.988522,-459.657299,12287.418637
5032.688077,-2368.659014,1685.410096,9992.780217
5032.688391,-740.205942,3447.429741,7550.100608
5032.688706,1776.494261,5056.230287,5329.482782
5032.689020,2960.823768,6435.202183,4811.338623
5032.689335,3552.988522,5822.325785,5625.565159
5032.689649,3552.988522,3830.477490,6291.750507
5032.689963,1110.308913,1915.238745,8364.327145
5032.690278,-1258.350101,0.000000,11399.171507
5032.690592,-2516.700203,-919.314598,13101.645173
5032.690907,-3330.926739,-2068.457845,13619.789333
5032.691221,-4145.153275,-3524.039291,13767.830521
5032.691535,-3478.967927,-2298.286494,13101.645173
5032.691850,-2368.659014,-766.095498,10214.842000
5032.692164,-444.123565,995.924147,7550.100608
5032.692479,1332.370696,3217.601092,6069.688724
5032.692793,2146.597232,4213.525239,6291.750507
5032.693107,3478.967927,3140.991542,5033.400406
5032.693422,3108.864956,1762.019645,6069.688724
5032.693736,1628.453072,-766.095498,8586.388927
5032.694050,-444.123565,-1532.190996,11769.274478
5032.694365,-1702.473667,-1685.410096,13989.892304
5032.694679,-2072.576638,-3600.648841,12879.583391
5032.694994,-2368.659014,-3600.648841,12953.603985
5032.695308,-1406.391290,-3064.381992,11695.253884
5032.695622,-296.082377,-383.047749,9030.512492
5032.695937,1850.514855,2451.505594,6957.935855
5032.696251,2812.782580,2911.162892,5477.523971
5032.696566,3182.885551,3524.039291,5477.523971
5032.696880,3997.112087,1838.629195,5403.503377
5032.697194,3256.906145,919.314598,6587.832884
5032.697509,1184.329507,-229.828649,9030.512492
5032.697823,-370.102971,-2374.896044,11177.109724
5032.698137,-1110.308913,-2757.943793,11621.233289
5032.698452,-1036.288319,-2911.162892,12509.480420
5032.698766,-666.185348,-2681.334243,13397.727550
5032.699081,0.000000,-612.876398,11843.295072
5032.699395,1332.370696,612.876398,9326.594869
5032.699709,3775.050304,2757.943793,7550.100608
5032.700024,4737.318029,3983.696590,6069.688724
5032.700338,5107.421000,3140.991542,6217.729913
5032.700653,4737.318029,2681.334243,6069.688724
5032.700967,2886.803174,2145.067394,8068.244768
5032.701281,-518.144159,0.000000,11103.089130
5032.701596,-2664.741391,-1225.752797,12953.603985
5032.701910,-3849.070898,-3600.648841,12879.583391
5032.702224,-4589.276840,-3600.648841,12583.501014
5032.702539,-4737.318029,-2528.115143,11843.295072
5032.702853,-3552.988522,-612.876398,10658.965565
5032.703168,-1554.432478,1072.533697,7994.224174
5032.703482,962.267725,4366.744339,6809.894666
5032.703796,1480.411884,5439.278036,5329.482782
5032.704111,2294.638420,4826.401637,4219.173869
5032.704425,2294.638420,3983.696590,4959.379811
5032.704740,1036.288319,2834.553343,7698.141797
5032.705054,-518.144159,766.095498,11177.109724
5032.705368,-2146.597232,-689.485948,12879.583391
5032.705683,-2516.700203,-2068.457845,13397.727550
5032.705997,-3182.885551,-1225.752797,13989.892304
5032.706312,-2368.659014,-536.266849,12953.603985
5032.706626,-1110.308913,1072.533697,9918.759623
5032.706940,888.247130,3600.648841,7179.997637
5032.707255,1924.535449,5592.497135,5625.565159
5032.707569,2664.741391,7201.297681,4959.379811
5032.707883,3108.864956,6511.811733,4885.359217
5032.708198,2590.720797,3217.601092,5181.441594
5032.708512,296.082377,1455.581446,8586.388927
5032.708827,-2368.659014,-689.485948,11103.089130
5032.709141,-3330.926739,-1378.971896,13323.706956
5032.709455,-3478.967927,-2757.943793,12879.583391
5032.709770,-4071.132681,-3217.601092,12953.603985
5032.710084,-3775.050304,-1685.410096,12065.356855
5032.710399,-1702.473667,1302.362347,9918.759623
5032.710713,0.000000,3370.820191,7476.080014
5032.711027,2220.617826,4290.134789,5699.585753
5032.711342,3775.050304,4826.401637,5033.400406
5032.711656,4737.318029,4443.353888,5255.462188
5032.711970,4367.215058,2911.162892,5995.668130
5032.712285,2368.659014,1455.581446,9252.574275
5032.712599,296.082377,-536.266849,12509.480420
5032.712914,-444.123565,-1149.143247,14285.974681
5032.713228,-814.226536,-2987.772442,13027.624579
5032.713542,-1554.432478,-3753.867940,12583.501014
5032.713857,-1924.535449,-2681.334243,12361.439231
5032.714171,-740.205942,459.657299,10584.944971
5032.714486,1110.308913,3064.381992,8438.347739
5032.714800,2960.823768,2681.334243,6365.771101
5032.715114,3256.906145,2374.896044,5403.503377
5032.715429,2368.659014,2221.676944,5329.482782
5032.715743,1554.432478,1685.410096,6439.791695
5032.716058,-296.082377,0.000000,7994.224174
5032.716372,-2368.659014,-2604.724693,11695.253884
5032.716686,-3034.844362,-3447.429741,12805.562797
5032.717001,-3182.885551,-3217.601092,12287.418637
5032.717315,-3182.885551,-3600.648841,12287.418637
5032.717629,-2072.576638,-1685.410096,11769.274478
5032.717944,222.061783,383.047749,9474.636058
5032.718258,2664.741391,2451.505594,7550.100608
5032.718573,3701.029710,3294.210641,5773.606348
5032.718887,3404.947333,3524.039291,4737.318029
5032.719201,3478.967927,3064.381992,5625.565159
5032.719516,2516.700203,2068.457845,7476.080014
5032.719830,444.123565,76.609550,9622.677246
5032.720145,-666.185348,-2374.896044,11917.315666
5032.720459,-2072.576638,-2604.724693,13101.645173
5032.720773,-3108.864956,-3064.381992,12879.583391
5032.721088,-2812.782580,-3370.820191,11843.295072
5032.721402,-1702.473667,-536.266849,11621.233289
5032.721716,518.144159,2068.457845,9696.697840
5032.722031,2738.761985,3524.039291,7031.956449
5032.722345,3849.070898,4290.134789,4515.256246
5032.722660,3849.070898,4213.525239,4885.359217
5032.722974,3997.112087,4136.915689,6291.750507
5032.723288,2516.700203,2451.505594,7624.121203
5032.723603,0.000000,-229.828649,10658.965565
5032.723917,-1776.494261,-1378.971896,12805.562797
5032.724232,-2886.803174,-1532.190996,13545.768739
5032.724546,-2960.823768,-2068.457845,12879.583391
5032.724860,-3404.947333,-1991.848295,12139.377449
5032.725175,-2516.700203,-766.095498,10807.006753
5032.725489,-222.061783,1991.848295,7846.182985
5032.725803,2368.659014,4519.963438,5181.441594
5032.726118,3627.009116,4903.011187,4663.297435
5032.726432,3256.906145,5439.278036,5181.441594
5032.726747,2812.782580,5362.668486,6661.853478
5032.727061,1406.391290,2911.162892,7698.141797
5032.727375,-1406.391290,229.828649,10436.903782
5032.727690,-2886.803174,-1302.362347,12361.439231
5032.728004,-4071.132681,-1991.848295,12435.459826
5032.728319,-3627.009116,-1915.238745,12435.459826
5032.728633,-2886.803174,-1302.362347,11621.233289
5032.728947,-2294.638420,0.000000,10732.986159
5032.729262,-888.247130,2298.286494,8956.491898
5032.729576,1406.391290,4060.306139,6661.853478
5032.729891,2368.659014,4826.401637,4737.318029
5032.730205,2664.741391,3830.477490,5921.647536
5032.730519,2738.761985,2834.553343,6587.832884
5032.730834,814.226536,1225.752797,8956.491898
5032.731148,-1110.308913,306.438199,11547.212695
5032.731462,-2886.803174,-1378.971896,12509.480420
5032.731777,-3701.029710,-1685.410096,13027.624579
5032.732091,-2886.803174,-2681.334243,12287.418637
5032.732406,-1776.494261,-1455.581446,11991.336260
5032.732720,-666.185348,459.657299,10584.944971
5032.733034,1036.288319,2068.457845,7846.182985
5032.733349,2368.659014,3907.087040,5847.626942
5032.733663,3256.906145,4290.134789,4737.318029
5032.733978,3775.050304,3753.867940,4885.359217
5032.734292,2368.659014,2451.505594,7179.997637
5032.734606,962.267725,612.876398,9400.615463
5032.734921,-518.144159,-766.095498,11103.089130
5032.735235,-1776.494261,-2451.505594,11843.295072
5032.735549,-2738.761985,-2834.553343,12509.480420
5032.735864,-2664.741391,-1685.410096,12657.521608
5032.736178,-1554.432478,-2068.457845,10955.047942
5032.736493,148.041188,153.219100,9474.636058
5032.736807,1184.329507,2145.067394,7698.141797
5032.737121,2812.782580,3447.429741,5995.668130
5032.737436,4071.132681,3983.696590,4441.235652
5032.737750,4071.132681,2911.162892,5699.585753
5032.738065,2664.741391,1762.019645,7698.141797
5032.738379,74.020594,-383.047749,10584.944971
5032.738693,-1554.432478,-842.705048,12953.603985
5032.739008,-2368.659014,-2451.505594,12657.521608
5032.739322,-3182.885551,-3370.820191,12435.459826
5032.739637,-3034.844362,-2834.553343,12731.542202
5032.739951,-1998.556043,-1302.362347,10807.006753
5032.740265,-222.061783,1532.190996,9326.594869
5032.740580,1036.288319,3064.381992,7476.080014
5032.740894,2072.576638,5132.839837,6069.688724
5032.741208,1850.514855,4213.525239,5329.482782
5032.741523,1776.494261,2451.505594,5477.523971
5032.741837,740.205942,1608.800546,7698.141797
5032.742152,-1036.288319,-306.438199,10881.027347
5032.742466,-1776.494261,-1225.752797,11917.315666
5032.742780,-1258.350101,-1685.410096,12139.377449
5032.743095,-2368.659014,-1762.019645,12805.562797
5032.743409,-2294.638420,-919.314598,12361.439231
5032.743724,-518.144159,76.609550,9326.594869
5032.744038,444.123565,2221.676944,7476.080014
5032.744352,2368.659014,3983.696590,7031.956449
5032.744667,2960.823768,4979.620737,5255.462188
5032.744981,3849.070898,4136.915689,5033.400406
5032.745295,4219.173869,2681.334243,6217.729913
5032.745610,1628.453072,2145.067394,9104.533087
5032.745924,-666.185348,-842.705048,11103.089130
5032.746239,-1258.350101,-2068.457845,11769.274478
5032.746553,-2368.659014,-1685.410096,12805.562797
5032.746867,-3478.967927,-2757.943793,14137.933492
5032.747182,-3108.864956,-1302.362347,12287.418637
5032.747496,-1184.329507,-536.266849,9326.594869
5032.747811,1110.308913,919.314598,7994.224174
5032.748125,1998.556043,4290.134789,7254.018232
5032.748439,2368.659014,3753.867940,5995.668130
5032.748754,3478.967927,3217.601092,5699.585753
5032.749068,3108.864956,2298.286494,7624.121203
5032.749382,444.123565,536.266849,10732.986159
5032.749697,-592.164754,-689.485948,11621.233289
5032.750011,-1110.308913,-1838.629195,11991.336260
5032.750326,-2738.761985,-1762.019645,12509.480420
5032.750640,-2368.659014,-1455.581446,12435.459826
5032.750954,-1480.411884,-229.828649,11103.089130
5032.751269,0.000000,842.705048,9104.533087
5032.751583,370.102971,3140.991542,6735.874072
5032.751898,1036.288319,4366.744339,5625.565159
5032.752212,1924.535449,3830.477490,4663.297435
5032.752526,2738.761985,3447.429741,4959.379811
5032.752841,2072.576638,1685.410096,6291.750507
5032.753155,-148.041188,-459.657299,7994.224174
5032.753470,-2442.679609,-612.876398,11029.068536
5032.753784,-3404.947333,-1915.238745,12435.459826
5032.754098,-3404.947333,-2451.505594,12879.583391
5032.754413,-2664.741391,-2451.505594,13027.624579
5032.754727,-1110.308913,-1838.629195,11399.171507
5032.755041,148.041188,1302.362347,9622.677246
5032.755356,2738.761985,2681.334243,7328.038826
5032.755670,3849.070898,4366.744339,6439.791695
5032.755985,4293.194464,4519.963438,6883.915261
5032.756299,4219.173869,3524.039291,7550.100608
5032.756613,2738.761985,1991.848295,8808.450710
5032.756928,296.082377,-612.876398,10436.903782
5032.757242,-814.226536,-766.095498,12287.418637
5032.757557,-1998.556043,-2451.505594,12361.439231
5032.757871,-2960.823768,-3140.991542,12435.459826
5032.758185,-2664.741391,-1991.848295,11991.336260
5032.758500,-3034.844362,-459.657299,10955.047942
5032.758814,-1998.556043,1685.410096,8734.430116
5032.759128,0.000000,2834.553343,6735.874072
5032.759443,1554.432478,3677.258390,4737.318029
5032.759757,2368.659014,3064.381992,4811.338623
5032.760072,2146.597232,2451.505594,5921.647536
5032.760386,1036.288319,919.314598,7624.121203
5032.760700,-814.226536,689.485948,10658.965565
5032.761015,-2072.576638,-229.828649,12287.418637
5032.761329,-2664.741391,-1149.143247,12583.501014
5032.761644,-2368.659014,-1455.581446,11621.233289
5032.761958,-962.267725,-1072.533697,10881.027347
5032.762272,-1332.370696,383.047749,10066.800811
5032.762587,148.041188,1762.019645,7772.162391
5032.762901,2368.659014,4290.134789,6883.915261
5032.763215,3108.864956,4826.401637,6661.853478
5032.763530,3997.112087,3677.258390,6587.832884
5032.763844,3775.050304,2681.334243,6587.832884
5032.764159,1776.494261,1225.752797,8364.327145
5032.764473,518.144159,459.657299,11029.068536
5032.764787,-1480.411884,-919.314598,13027.624579
5032.765102,-1998.556043,-2681.334243,13027.624579
5032.765416,-2368.659014,-1762.019645,12509.480420
5032.765731,-1702.473667,-1532.190996,11029.068536
5032.766045,-1480.411884,76.609550,10066.800811
5032.766359,518.144159,2757.943793,8216.285956
5032.766674,2072.576638,3600.648841,6217.729913
5032.766988,2294.638420,3064.381992,5403.503377
5032.767303,2146.597232,2604.724693,5551.544565
5032.767617,1406.391290,1685.410096,7179.997637
5032.767931,444.123565,842.705048,9104.533087
5032.768246,-962.267725,-842.705048,11103.089130
5032.768560,-2294.638420,-2145.067394,12509.480420
5032.768874,-2368.659014,-2604.724693,12657.521608
5032.769189,-1628.453072,-1762.019645,11547.212695
5032.769503,-1554.432478,-689.485948,10288.862594
5032.769818,148.041188,1838.629195,9252.574275
5032.770132,2590.720797,3677.258390,8808.450710
5032.770446,3997.112087,3677.258390,7105.977043
5032.770761,4367.215058,2911.162892,6069.688724
5032.771075,3256.906145,2374.896044,6217.729913
5032.771390,1554.432478,1072.533697,7698.141797
5032.771704,1036.288319,842.705048,9770.718434
5032.772018,-962.267725,-1072.533697,12435.459826
5032.772333,-2220.617826,-2068.457845,13175.665768
5032.772647,-3552.988522,-2298.286494,12583.501014
5032.772961,-3997.112087,-2145.067394,11621.233289
5032.773276,-3256.906145,-995.924147,9622.677246
5032.773590,-1406.391290,766.095498,9030.512492
5032.773905,74.020594,2374.896044,8586.388927
5032.774219,1776.494261,3217.601092,6735.874072
5032.774533,2220.617826,3064.381992,5329.482782
5032.774848,2368.659014,1838.629195,6069.688724
5032.775162,1480.411884,1455.581446,7624.121203
5032.775477,0.000000,536.266849,10288.862594
5032.775791,-1332.370696,-766.095498,11991.336260
5032.776105,-1332.370696,-1378.971896,12509.480420
5032.776420,-1628.453072,-2221.676944,12213.398043
5032.776734,-1554.432478,-1455.581446,11547.212695
5032.777049,-814.226536,0.000000,10214.842000
5032.777363,74.020594,2451.505594,9326.594869
5032.777677,1776.494261,3217.601092,7254.018232
5032.777992,2812.782580,3370.820191,5699.585753
5032.778306,2960.823768,3677.258390,5699.585753
5032.778620,2886.803174,2834.553343,6365.771101
5032.778935,1036.288319,1225.752797,7031.956449
5032.779249,-814.226536,0.000000,10140.821405
5032.779564,-2220.617826,-1378.971896,12583.501014
5032.779878,-3034.844362,-1608.800546,13175.665768
5032.780192,-3256.906145,-2528.115143,12583.501014
5032.780507,-2960.823768,-1532.190996,11325.150913
5032.780821,-2368.659014,306.438199,10436.903782
5032.781135,-518.144159,2221.676944,8882.471304
5032.781450,2294.638420,3907.087040,6735.874072
5032.781764,3108.864956,4136.915689,5773.606348
5032.782078,2590.720797,3907.087040,6365.771101
5032.782393,2072.576638,3064.381992,6809.894666
5032.782707,888.247130,2221.676944,7994.224174
5032.783021,-518.144159,383.047749,11399.171507
5032.783336,-1628.453072,-1532.190996,13027.624579
5032.783650,-2812.782580,-1455.581446,13397.727550
5032.783964,-2812.782580,-2068.457845,12435.459826
5032.784279,-2738.761985,-689.485948,11103.089130
5032.784593,-1480.411884,766.095498,9696.697840
5032.784907,592.164754,2374.896044,7476.080014
5032.785222,2072.576638,5209.449386,6291.750507
5032.785536,2294.638420,4366.744339,5329.482782
5032.785850,2146.597232,3753.867940,5699.585753
5032.786165,1480.411884,2451.505594,6957.935855
5032.786479,0.000000,766.095498,8660.409521
5032.786793,-1406.391290,-229.828649,11325.150913
5032.787108,-2368.659014,-1991.848295,12065.356855
5032.787422,-2368.659014,-2221.676944,12361.439231
5032.787736,-1998.556043,-1225.752797,11991.336260
5032.788051,-1702.473667,-612.876398,11103.089130
5032.788365,-666.185348,1455.581446,8808.450710
5032.788679,1110.308913,3140.991542,7624.121203
5032.788994,3034.844362,4519.963438,6513.812290
5032.789308,3775.050304,3370.820191,6439.791695
5032.789622,4293.194464,2068.457845,6809.894666
5032.789937,3256.906145,1378.971896,7846.182985
5032.790251,1628.453072,0.000000,9548.656652
5032.790565,-296.082377,-383.047749,12065.356855
5032.790880,-1406.391290,-2145.067394,12731.542202
5032.791194,-1184.329507,-1838.629195,12139.377449
5032.791508,-962.267725,-1225.752797,11473.192101
5032.791823,-444.123565,-1072.533697,10214.842000
5032.792137,518.144159,1149.143247,9326.594869
5032.792451,1480.411884,2911.162892,8512.368333
5032.792766,2664.741391,2911.162892,6587.832884
5032.793080,3330.926739,3064.381992,5255.462188
5032.793394,3034.844362,1455.581446,6661.853478
5032.793709,1998.556043,1378.971896,7698.141797
5032.794023,-444.123565,229.828649,9696.697840
5032.794337,-2072.576638,-1762.019645,11473.192101
5032.794652,-2960.823768,-2145.067394,12509.480420
5032.794966,-3552.988522,-2681.334243,12139.377449
5032.795280,-3330.926739,-2298.286494,11399.171507
5032.795595,-2368.659014,-919.314598,9548.656652
5032.795909,-1406.391290,1072.533697,8216.285956
5032.796223,296.082377,2757.943793,7476.080014
5032.796538,1628.453072,2911.162892,5921.647536
5032.796852,1998.556043,2145.067394,5625.565159
5032.797166,1628.453072,1762.019645,7105.977043
5032.797481,1110.308913,1455.581446,9400.615463
5032.797795,74.020594,-612.876398,10436.903782
5032.798109,-1036.288319,-1302.362347,13989.892304
5032.798424,-1332.370696,-995.924147,14063.912898
5032.798738,-1258.350101,-1302.362347,11991.336260
5032.799052,-740.205942,-459.657299,9992.780217
5032.799366,-222.061783,536.266849,8956.491898
5032.799681,666.185348,3064.381992,8142.265362
5032.799995,2072.576638,4749.792088,7476.080014
5032.800309,2294.638420,4596.572988,5773.606348
5032.800624,1702.473667,2757.943793,5995.668130
5032.800938,592.164754,995.924147,5625.565159
5032.801252,-222.061783,0.000000,7254.018232
5032.801567,-1776.494261,-612.876398,10584.944971
5032.801881,-2886.803174,-1302.362347,12731.542202
5032.802195,-2812.782580,-1532.190996,12731.542202
5032.802510,-2368.659014,-2681.334243,10955.047942
5032.802824,-1332.370696,-842.705048,10140.821405
5032.803138,222.061783,1685.410096,9178.553681
5032.803453,1776.494261,3064.381992,8068.244768
5032.803767,3701.029710,4213.525239,7550.100608
5032.804081,4885.359217,3830.477490,7402.059420
5032.804396,4737.318029,2757.943793,7402.059420
5032.804710,3404.947333,1072.533697,8068.244768
5032.805024,1184.329507,383.047749,9548.656652
5032.805339,-814.226536,-842.705048,11695.253884
5032.805653,-518.144159,-1685.410096,12805.562797
5032.805967,-1184.329507,-1838.629195,13027.624579
5032.806282,-2072.576638,-1762.019645,12731.542202
5032.806596,-2146.597232,153.219100,10881.027347
5032.806910,-1480.411884,2451.505594,8734.430116
5032.807225,444.123565,3294.210641,7105.977043
5032.807539,2294.638420,3983.696590,6217.729913
5032.807853,3108.864956,3370.820191,4515.256246
5032.808168,2146.597232,2681.334243,4737.318029
5032.808482,1258.350101,2221.676944,5773.606348
5032.808796,-962.267725,1838.629195,9918.759623
5032.809111,-2220.617826,0.000000,12731.542202
5032.809425,-1850.514855,-842.705048,13397.727550
5032.809739,-2146.597232,-2451.505594,12139.377449
5032.810054,-1850.514855,-2221.676944,11399.171507
5032.810368,-1998.556043,153.219100,9474.636058
5032.810682,-666.185348,1762.019645,7920.203579
5032.810997,814.226536,4060.306139,7105.977043
5032.811311,2368.659014,4826.401637,6365.771101
5032.811625,2368.659014,3907.087040,5773.606348
5032.811940,2368.659014,2068.457845,5625.565159
5032.812254,1184.329507,1302.362347,8068.244768
5032.812568,-1036.288319,0.000000,10436.903782
5032.812883,-2146.597232,-1991.848295,12509.480420
5032.813197,-3034.844362,-3294.210641,12879.583391
5032.813511,-3552.988522,-3140.991542,12953.603985
5032.813826,-3034.844362,-1915.238745,12435.459826
5032.814140,-962.267725,-766.095498,10807.006753
5032.814454,296.082377,689.485948,8438.347739
5032.814769,2072.576638,2145.067394,7624.121203
5032.815083,2886.803174,3830.477490,7105.977043
5032.815397,2886.803174,3753.867940,6809.894666
5032.815712,3256.906145,2145.067394,6439.791695
5032.816026,2072.576638,459.657299,7254.018232
5032.816340,222.061783,-919.314598,10288.862594
5032.816655,-1702.473667,-689.485948,13471.748144
5032.816969,-2146.597232,-995.924147,13175.665768
5032.817283,-2368.659014,-3753.867940,11695.253884
5032.817597,-2072.576638,-2528.115143,11695.253884
5032.817912,-1480.411884,-1072.533697,10584.944971
5032.818226,0.000000,1685.410096,8068.244768
5032.818540,1702.473667,2681.334243,6217.729913
5032.818855,2812.782580,2757.943793,5033.400406
5032.819169,3330.926739,3600.648841,5995.668130
5032.819483,3034.844362,2604.724693,6735.874072
5032.819798,1702.473667,1302.362347,7698.141797
5032.820112,-148.041188,-153.219100,11177.109724
5032.820426,-1332.370696,-1225.752797,13027.624579
5032.820741,-1110.308913,-842.705048,12583.501014
5032.821055,-1184.329507,-1532.190996,11769.274478
5032.821369,-1258.350101,-536.266849,10955.047942
5032.821684,-1036.288319,2068.457845,9992.780217
5032.821998,148.041188,3370.820191,7624.121203
5032.822312,2146.597232,3370.820191,5625.565159
5032.822627,2368.659014,3370.820191,5477.523971
5032.822941,1998.556043,2604.724693,6365.771101
5032.823255,1036.288319,2451.505594,6957.935855
5032.823570,-814.226536,842.705048,9252.574275
5032.823884,-2072.576638,-1225.752797,11991.336260
5032.824198,-2442.679609,-1991.848295,13545.768739
5032.824513,-2590.720797,-2221.676944,12879.583391
5032.824827,-2072.576638,-1225.752797,11695.253884
5032.825141,-1110.308913,306.438199,11029.068536
5032.825456,-666.185348,2068.457845,9844.739029
5032.825770,1628.453072,3677.258390,8068.244768
5032.826084,3108.864956,4673.182538,6439.791695
5032.826399,3775.050304,5515.887586,5773.606348
5032.826713,3923.091493,3983.696590,5921.647536
5032.827027,2368.659014,2987.772442,6809.894666
5032.827342,518.144159,0.000000,8956.491898
5032.827656,-1036.288319,-919.314598,11029.068536
5032.827970,-2960.823768,-1072.533697,12213.398043
5032.828285,-3997.112087,-1455.581446,12065.356855
5032.828599,-3330.926739,-689.485948,11621.233289
5032.828913,-2072.576638,612.876398,10732.986159
5032.829228,-740.205942,1302.362347,8660.409521
5032.829542,888.247130,2528.115143,6513.812290
5032.829856,1776.494261,3064.381992,4811.338623
5032.830171,1850.514855,3524.039291,6069.688724
5032.830485,1924.535449,3064.381992,7402.059420
5032.830799,740.205942,1149.143247,9178.553681
5032.831114,-370.102971,-1762.019645,10066.800811
5032.831428,-1554.432478,-2451.505594,11917.315666
5032.831742,-2664.741391,-2451.505594,13027.624579
5032.832057,-2368.659014,-1532.190996,13249.686362
5032.832371,-2220.617826,-1302.362347,13323.706956
5032.832685,-1110.308913,-842.705048,11769.274478
5032.833000,888.247130,919.314598,8586.388927
5032.833314,3034.844362,2451.505594,5625.565159
5032.833628,4663.297435,4060.306139,5329.482782
5032.833943,4737.318029,4673.182538,5847.626942
5032.834257,4737.318029,3524.039291,7105.977043
5032.834571,3330.926739,1225.752797,7920.203579
5032.834886,1036.288319,-459.657299,10288.862594
5032.835200,-740.205942,-1762.019645,11473.192101
5032.835514,-1850.514855,-1762.019645,11917.315666
5032.835829,-2738.761985,-1991.848295,12731.542202
5032.836143,-1998.556043,-2374.896044,11843.295072
5032.836457,-962.267725,-766.095498,10214.842000
5032.836771,-518.144159,1225.752797,7550.100608
5032.837086,74.020594,2451.505594,5329.482782
5032.837400,1332.370696,3677.258390,4293.194464
5032.837714,1776.494261,2911.162892,5181.441594
5032.838029,1480.411884,1685.410096,6439.791695
5032.838343,-518.144159,-229.828649,8216.285956
5032.838657,-1702.473667,-1915.238745,10658.965565
5032.838972,-3182.885551,-1991.848295,12361.439231
5032.839286,-3182.885551,-2528.115143,13397.727550
5032.839600,-2368.659014,-2757.943793,13989.892304
5032.839915,-518.144159,-1685.410096,12953.603985
5032.840229,1036.288319,76.609550,10955.047942
5032.840543,2368.659014,2834.553343,8882.471304
5032.840858,3552.988522,3753.867940,6735.874072
5032.841172,4515.256246,4519.963438,6143.709319
5032.841486,4515.256246,4290.134789,7179.997637
5032.841801,3478.967927,3140.991542,8660.409521
5032.842115,1036.288319,1225.752797,9326.594869
5032.842429,-1554.432478,-919.314598,10881.027347
5032.842744,-3552.988522,-1149.143247,12509.480420
5032.843058,-4441.235652,-1072.533697,12583.501014
5032.843372,-4071.132681,-2374.896044,11769.274478
5032.843687,-3701.029710,-689.485948,10807.006753
5032.844001,-2590.720797,842.705048,8734.430116
5032.844315,-1036.288319,2911.162892,5995.668130
5032.844630,592.164754,3983.696590,4367.215058
5032.844944,1850.514855,3907.087040,4293.194464
5032.845258,2220.617826,3753.867940,5847.626942
5032.845573,1776.494261,2528.115143,7105.977043
5032.845887,518.144159,612.876398,8660.409521
5032.846201,-666.185348,-306.438199,11325.150913
5032.846516,-962.267725,-1302.362347,12879.583391
5032.846830,-1110.308913,-842.705048,13027.624579
5032.847144,-518.144159,-1149.143247,12361.439231
5032.847459,0.000000,229.828649,11843.295072
5032.847773,1184.329507,1991.848295,9844.739029
5032.848087,2886.803174,3370.820191,6809.894666
5032.848402,3997.112087,4060.306139,5773.606348
5032.848716,3552.988522,3753.867940,6217.729913
5032.849030,2516.700203,2911.162892,7476.080014
5032.849345,1184.329507,689.485948,7698.141797
5032.849659,-666.185348,-1225.752797,9992.780217
5032.849973,-1258.350101,-2068.457845,13101.645173
5032.850288,-2368.659014,-1915.238745,13323.706956
5032.850602,-2664.741391,-1455.581446,12953.603985
5032.850916,-2072.576638,-1685.410096,11695.253884
5032.851231,-1406.391290,0.000000,10510.924376
5032.851545,296.082377,1302.362347,8142.265362
5032.851859,2220.617826,3217.601092,5995.668130
5032.852174,3627.009116,4519.963438,4885.359217
5032.852488,3775.050304,4290.134789,6069.688724
5032.852802,2442.679609,2834.553343,5995.668130
5032.853117,444.123565,842.705048,7994.224174
5032.853431,-1406.391290,-1149.143247,10288.862594
5032.853745,-3182.885551,-1302.362347,12583.501014
5032.854060,-3923.091493,-2681.334243,13101.645173
5032.854374,-3997.112087,-2911.162892,12361.439231
5032.854688,-3256.906145,-1302.362347,11621.233289
5032.855003,-2368.659014,459.657299,10066.800811
5032.855317,0.000000,3447.429741,7698.141797
5032.855631,2146.597232,4443.353888,5255.462188
5032.855945,2960.823768,4213.525239,5403.503377
5032.856260,3404.947333,3524.039291,5107.421000
5032.856574,2368.659014,1762.019645,6513.812290
5032.856888,444.123565,459.657299,9400.615463
5032.857203,-1924.535449,-536.266849,13027.624579
5032.857517,-3034.844362,-1915.238745,14211.954086
5032.857831,-2368.659014,-3064.381992,13397.727550
5032.858146,-1406.391290,-2987.772442,12879.583391
5032.858460,-740.205942,-1532.190996,12361.439231
5032.858774,-148.041188,1149.143247,10288.862594
5032.859089,1406.391290,3064.381992,7476.080014
5032.859403,2664.741391,4443.353888,5847.626942
5032.859717,2590.720797,5209.449386,5181.441594
5032.860032,3108.864956,3524.039291,4737.318029
5032.860346,2590.720797,2604.724693,5477.523971
5032.860660,222.061783,383.047749,8364.327145
5032.860975,-2072.576638,-1302.362347,11325.150913
5032.861289,-3330.926739,-2221.676944,12953.603985
5032.861603,-3552.988522,-2834.553343,12509.480420
5032.861918,-3256.906145,-2298.286494,11843.295072
5032.862232,-2516.700203,-1072.533697,11325.150913
5032.862546,-74.020594,0.000000,9918.759623
5032.862861,2664.741391,2834.553343,7476.080014
5032.863175,4959.379811,3983.696590,5773.606348
5032.863489,5181.441594,4213.525239,5403.503377
5032.863804,4663.297435,4213.525239,6957.935855
5032.864118,3478.967927,3064.381992,7105.977043
5032.864432,1924.535449,1378.971896,9104.533087
5032.864747,-666.185348,-1072.533697,11769.274478
5032.865061,-2368.659014,-2451.505594,13619.789333
5032.865375,-2368.659014,-2451.505594,13545.768739
5032.865690,-3775.050304,-2757.943793,12509.480420
5032.866004,-3627.009116,-1149.143247,12139.377449
5032.866318,-2294.638420,306.438199,9770.718434
5032.866633,888.247130,2451.505594,7772.162391
5032.866947,2368.659014,3524.039291,4515.256246
5032.867261,2590.720797,3677.258390,4293.194464
5032.867576,1628.453072,3064.381992,5477.523971
5032.867890,1628.453072,2145.067394,7179.997637
5032.868204,814.226536,689.485948,9178.553681
5032.868519,-444.123565,-1149.143247,12361.439231
5032.868833,-1554.432478,-1302.362347,14063.912898
5032.869147,-2442.679609,-1838.629195,12953.603985
5032.869462,-1776.494261,-1455.581446,12287.418637
5032.869776,-814.226536,-153.219100,10807.006753
5032.870090,370.102971,1608.800546,8660.409521
5032.870405,1406.391290,3447.429741,6587.832884
5032.870719,2590.720797,4749.792088,4885.359217
5032.871033,2886.803174,5056.230287,5699.585753
5032.871348,2886.803174,2528.115143,5847.626942
5032.871662,1184.329507,1225.752797,6957.935855
5032.871976,-1406.391290,-612.876398,9030.512492
5032.872291,-2812.782580,-612.876398,11473.192101
5032.872605,-3701.029710,-1455.581446,12731.542202
5032.872919,-3404.947333,-2681.334243,12879.583391
5032.873234,-2886.803174,-1838.629195,13175.665768
5032.873548,-2072.576638,-689.485948,11103.089130
5032.873862,-666.185348,1149.143247,8438.347739
5032.874177,1332.370696,2757.943793,6439.791695
5032.874491,2812.782580,3140.991542,5625.565159
5032.874805,3997.112087,4136.915689,7550.100608
5032.875119,3923.091493,2757.943793,7698.141797
5032.875434,2738.761985,995.924147,8586.388927
5032.875748,74.020594,-995.924147,11177.109724
5032.876062,-1702.473667,-1149.143247,12953.603985
5032.876377,-2294.638420,-1762.019645,13323.706956
5032.876691,-3182.885551,-2604.724693,12509.480420
5032.877005,-2664.741391,-2298.286494,11473.192101
5032.877320,-1998.556043,229.828649,9918.759623
5032.877634,-148.041188,2757.943793,7920.203579
5032.877948,2146.597232,4596.572988,4885.359217
5032.878263,3478.967927,4749.792088,3775.050304
5032.878577,4737.318029,4366.744339,4737.318029
5032.878891,3478.967927,4213.525239,5625.565159
5032.879206,1258.350101,2451.505594,7624.121203
5032.879520,-740.205942,153.219100,10140.821405
5032.879834,-2146.597232,-1455.581446,12139.377449
5032.880149,-2664.741391,-2451.505594,12879.583391
5032.880463,-3108.864956,-2681.334243,13693.809927
5032.880777,-2812.782580,-2604.724693,12731.542202
5032.881092,-1110.308913,-1149.143247,10140.821405
5032.881406,962.267725,2451.505594,9104.533087
5032.881720,2664.741391,3064.381992,6957.935855
5032.882035,3330.926739,3983.696590,5995.668130
5032.882349,3923.091493,3217.601092,5181.441594
5032.882663,2960.823768,2298.286494,6809.894666
5032.882978,666.185348,766.095498,9474.636058
5032.883292,-1110.308913,-1685.410096,12139.377449
5032.883606,-2516.700203,-2068.457845,13693.809927
5032.883921,-3330.926739,-2604.724693,14063.912898
5032.884235,-3701.029710,-2681.334243,13249.686362
5032.884549,-2664.741391,-1915.238745,11103.089130
5032.884863,-1110.308913,229.828649,8882.471304
5032.885178,1110.308913,2911.162892,7179.997637
5032.885492,2812.782580,4519.963438,5699.585753
5032.885806,3775.050304,4826.401637,4811.338623
5032.886121,4219.173869,4749.792088,5995.668130
5032.886435,3256.906145,3753.867940,7179.997637
5032.886749,2294.638420,1532.190996,9474.636058
5032.887064,370.102971,-383.047749,10955.047942
5032.887378,-1110.308913,-1455.581446,12361.439231
5032.887692,-2368.659014,-1378.971896,13249.686362
5032.888007,-2294.638420,-689.485948,12731.542202
5032.888321,-2072.576638,459.657299,10436.903782
5032.888635,-814.226536,1455.581446,9252.574275
5032.888950,814.226536,3447.429741,6587.832884
5032.889264,1776.494261,4443.353888,5255.462188
5032.889578,2072.576638,3830.477490,4589.276840
5032.889892,1554.432478,2834.553343,5477.523971
5032.890207,666.185348,1838.629195,7624.121203
5032.890521,-1110.308913,0.000000,10066.800811
5032.890835,-2886.803174,-1455.581446,12953.603985
5032.891150,-3478.967927,-3294.210641,13397.727550
5032.891464,-3478.967927,-3140.991542,13175.665768
5032.891778,-2812.782580,-1991.848295,12731.542202
5032.892093,-1702.473667,76.609550,11843.295072
5032.892407,0.000000,1762.019645,9918.759623
5032.892721,2738.761985,4060.306139,7402.059420
5032.893036,3627.009116,4979.620737,5921.647536
5032.893350,4071.132681,4366.744339,4959.379811
5032.893664,3997.112087,3140.991542,5477.523971
5032.893978,2886.803174,1991.848295,7105.977043
5032.894293,1258.350101,0.000000,9844.739029
5032.894607,-888.247130,-612.876398,12213.398043
5032.894921,-2442.679609,-2374.896044,13397.727550
5032.895236,-1924.535449,-3140.991542,12213.398043
5032.895550,-1480.411884,-1378.971896,11991.336260
5032.895864,-1258.350101,-229.828649,9844.739029
5032.896179,148.041188,1225.752797,8290.306550
5032.896493,1850.514855,3447.429741,5477.523971
5032.896807,3034.844362,3677.258390,4663.297435
5032.897122,3552.988522,3294.210641,4737.318029
5032.897436,2146.597232,1225.752797,6217.729913
5032.897750,0.000000,0.000000,8808.450710
5032.898065,-1628.453072,-995.924147,11621.233289
5032.898379,-2368.659014,-2451.505594,14508.036463
5032.898693,-3034.844362,-4443.353888,14211.954086
5032.899007,-3034.844362,-3907.087040,13619.789333
5032.899322,-2886.803174,-2757.943793,11917.315666
5032.899636,-1776.494261,229.828649,9992.780217
5032.899950,518.144159,3447.429741,8512.368333
5032.900265,2812.782580,3677.258390,5773.606348
5032.900579,3701.029710,3983.696590,5107.421000
5032.900893,3330.926739,2911.162892,6217.729913
5032.901208,2516.700203,2604.724693,7550.100608
5032.901522,1332.370696,536.266849,8512.368333
5032.901836,-222.061783,-1762.019645,11325.150913
5032.902151,-2368.659014,-1149.143247,13619.789333
5032.902465,-2960.823768,-1532.190996,13323.706956
5032.902779,-2960.823768,-1149.143247,11621.233289
5032.903093,-2960.823768,-229.828649,9918.759623
5032.903408,-2442.679609,1532.190996,9400.615463
5032.903722,-74.020594,3830.477490,7105.977043
5032.904036,1924.535449,4366.744339,4145.153275
5032.904351,2294.638420,4136.915689,3849.070898
5032.904665,2146.597232,4213.525239,5921.647536
5032.904979,1702.473667,3600.648841,7772.162391
5032.905294,370.102971,689.485948,9400.615463
5032.905608,-1628.453072,-1302.362347,10955.047942
5032.905922,-2664.741391,-1685.410096,13101.645173
5032.906237,-3034.844362,-1915.238745,13101.645173
5032.906551,-2516.700203,-1302.362347,12435.459826
5032.906865,-962.267725,0.000000,11473.192101
5032.907180,148.041188,1302.362347,10288.862594
5032.907494,2738.761985,3677.258390,8364.327145
5032.907808,4145.153275,4136.915689,4663.297435
5032.908122,4293.194464,4596.572988,5477.523971
5032.908437,3552.988522,3294.210641,6365.771101
5032.908751,3182.885551,2298.286494,7476.080014
5032.909065,814.226536,612.876398,10436.903782
5032.909380,-444.123565,-1149.143247,12731.542202
5032.909694,-2368.659014,-1762.019645,13027.624579
5032.910008,-2886.803174,-3677.258390,13027.624579
5032.910323,-2664.741391,-1225.752797,13397.727550
5032.910637,-2368.659014,-153.219100,11769.274478
5032.910951,296.082377,842.705048,8512.368333
5032.911266,2220.617826,2987.772442,5625.565159
5032.911580,2220.617826,4290.134789,5403.503377
5032.911894,1850.514855,4213.525239,4959.379811
5032.912209,1924.535449,2911.162892,6069.688724
5032.912523,444.123565,612.876398,7550.100608
5032.912837,-740.205942,-1762.019645,10732.986159
5032.913151,-1628.453072,-1915.238745,12731.542202
5032.913466,-2442.679609,-2145.067394,12657.521608
5032.913780,-2220.617826,-2298.286494,11843.295072
5032.914094,-2072.576638,-1455.581446,11399.171507
5032.914409,-518.144159,612.876398,9622.677246
5032.914723,1332.370696,3217.601092,7772.162391
5032.915037,2590.720797,4826.401637,5847.626942
5032.915352,2590.720797,4136.915689,5033.400406
5032.915666,3330.926739,2604.724693,5625.565159
5032.915980,2812.782580,1378.971896,6883.915261
5032.916295,962.267725,76.609550,8808.450710
5032.916609,-444.123565,-1378.971896,10881.027347
5032.916923,-2294.638420,-1532.190996,13027.624579
5032.917237,-3256.906145,-2681.334243,13397.727550
5032.917552,-2812.782580,-2911.162892,12879.583391
5032.917866,-2442.679609,-2834.553343,12287.418637
5032.918180,-1998.556043,-1072.533697,10955.047942
5032.918495,-148.041188,1685.410096,8882.471304
5032.918809,2442.679609,2374.896044,5477.523971
5032.919123,3552.988522,2374.896044,4737.318029
5032.919438,4589.276840,3217.601092,6587.832884
5032.919752,4293.194464,3907.087040,7624.121203
5032.920066,2368.659014,2145.067394,8660.409521
5032.920381,666.185348,0.000000,9992.780217
5032.920695,-222.061783,-1608.800546,10955.047942
5032.921009,-1998.556043,-1072.533697,12731.542202
5032.921324,-2368.659014,-919.314598,12361.439231
5032.921638,-1776.494261,-612.876398,10955.047942
5032.921952,-814.226536,995.924147,9326.594869
5032.922266,0.000000,1915.238745,7846.182985
5032.922581,1406.391290,3370.820191,6513.812290
5032.922895,2664.741391,3907.087040,5699.585753
5032.923209,3034.844362,3140.991542,5921.647536
5032.923524,1998.556043,2834.553343,8290.306550
5032.923838,370.102971,995.924147,10510.924376
5032.924152,-666.185348,0.000000,11251.130318
5032.924467,-1924.535449,0.000000,12065.356855
5032.924781,-3108.864956,-1302.362347,12213.398043
5032.925095,-2960.823768,-383.047749,12805.562797
5032.925410,-2368.659014,-383.047749,11029.068536
5032.925724,-1776.494261,459.657299,9474.636058
5032.926038,0.000000,2298.286494,7994.224174
5032.926352,444.123565,3217.601092,5995.668130
5032.926667,1776.494261,4060.306139,5699.585753
5032.926981,1850.514855,3064.381992,5921.647536
5032.927295,1554.432478,1762.019645,8290.306550
5032.927610,222.061783,229.828649,9326.594869
5032.927924,-1036.288319,0.000000,11029.068536
5032.928238,-2368.659014,-612.876398,12361.439231
5032.928553,-2146.597232,-995.924147,11843.295072
5032.928867,-1184.329507,-689.485948,11325.150913
5032.929181,-370.102971,0.000000,9992.780217
5032.929496,518.144159,1762.019645,8216.285956
5032.929810,1850.514855,2834.553343,7105.977043
5032.930124,2590.720797,3140.991542,5625.565159
5032.930439,2368.659014,2987.772442,6957.935855
5032.930753,1998.556043,1532.190996,8882.471304
5032.931067,1036.288319,153.219100,8882.471304
5032.931381,0.000000,-1072.533697,10436.903782
5032.931696,-1628.453072,-2374.896044,12065.356855
5032.932010,-2368.659014,-2221.676944,12065.356855
5032.932324,-2294.638420,-1991.848295,11695.253884
5032.932639,-1776.494261,-995.924147,10732.986159
5032.932953,-814.226536,1302.362347,10658.965565
5032.933267,0.000000,1149.143247,8882.471304
5032.933582,2294.638420,1378.971896,6957.935855
5032.933896,3701.029710,2068.457845,5847.626942
5032.934210,3775.050304,2145.067394,6809.894666
5032.934525,3182.885551,1455.581446,7550.100608
5032.934839,2072.576638,536.266849,8660.409521
5032.935153,296.082377,153.219100,11769.274478
5032.935468,-888.247130,-153.219100,12657.521608
5032.935782,-1924.535449,-1149.143247,11769.274478
5032.936096,-1554.432478,-1532.190996,11547.212695
5032.936410,-1480.411884,-1302.362347,10436.903782
5032.936725,-666.185348,459.657299,9252.574275
5032.937039,296.082377,1991.848295,8364.327145
5032.937353,1110.308913,3524.039291,7476.080014
5032.937668,1258.350101,3830.477490,6587.832884
5032.937982,1554.432478,2451.505594,5403.503377
5032.938296,1406.391290,995.924147,6291.750507
5032.938611,-370.102971,459.657299,8882.471304
5032.938925,-1036.288319,76.609550,10732.986159
5032.939239,-2294.638420,-689.485948,12731.542202
5032.939554,-2960.823768,-2451.505594,13175.665768
5032.939868,-2146.597232,-1915.238745,12509.480420
5032.940182,-2146.597232,-153.219100,10732.986159
5032.940496,-888.247130,689.485948,8734.430116
5032.940811,962.267725,3677.258390,7254.018232
5032.941125,2960.823768,3830.477490,6217.729913
5032.941439,3627.009116,3370.820191,6809.894666
5032.941754,3182.885551,3447.429741,7772.162391
5032.942068,1110.308913,2068.457845,9030.512492
5032.942382,222.061783,766.095498,9770.718434
5032.942697,-148.041188,0.000000,10658.965565
5032.943011,-1258.350101,-1762.019645,11029.068536
5032.943325,-1924.535449,-2987.772442,11251.130318
5032.943640,-2146.597232,0.000000,11251.130318
5032.943954,-2072.576638,612.876398,10288.862594
5032.944268,-1036.288319,1762.019645,9178.553681
5032.944583,148.041188,2068.457845,8068.244768
5032.944897,1776.494261,1532.190996,5773.606348
5032.945211,2368.659014,3370.820191,6587.832884
5032.945525,1406.391290,2068.457845,7254.018232
5032.945840,1036.288319,383.047749,8438.347739
5032.946154,74.020594,-383.047749,9844.739029
5032.946468,-1258.350101,-383.047749,12139.377449
5032.946783,-1554.432478,306.438199,12213.398043
5032.947097,-1702.473667,-689.485948,11843.295072
5032.947411,-1406.391290,-612.876398,11029.068536
5032.947726,-888.247130,536.266849,9474.636058
5032.948040,0.000000,1915.238745,8586.388927
5032.948354,1184.329507,2451.505594,6883.915261
5032.948669,2516.700203,3830.477490,7105.977043
5032.948983,2590.720797,2528.115143,7402.059420
5032.949297,2294.638420,1378.971896,7698.141797
5032.949611,814.226536,459.657299,8586.388927
5032.949926,-222.061783,-536.266849,10362.883188
5032.950240,-1332.370696,-919.314598,11473.192101
5032.950554,-1850.514855,-153.219100,12213.398043
5032.950869,-1850.514855,-1455.581446,12435.459826
5032.951183,-1776.494261,-536.266849,11029.068536
5032.951497,-444.123565,306.438199,8734.430116
5032.951812,1332.370696,1915.238745,6735.874072
5032.952126,2960.823768,3294.210641,5699.585753
5032.952440,3923.091493,3524.039291,5551.544565
5032.952755,3182.885551,2451.505594,7105.977043
5032.953069,3034.844362,612.876398,8142.265362
5032.953383,1998.556043,766.095498,10510.924376
5032.953698,-370.102971,-1455.581446,11473.192101
5032.954012,-1554.432478,-1762.019645,12805.562797
5032.954326,-2368.659014,-2374.896044,11843.295072
5032.954640,-2590.720797,-2298.286494,11251.130318
5032.954955,-2442.679609,-842.705048,10658.965565
5032.955269,-2146.597232,689.485948,8734.430116
5032.955583,-444.123565,2298.286494,8068.244768
5032.955898,1554.432478,3524.039291,6365.771101
5032.956212,1776.494261,3064.381992,6957.935855
5032.956526,1998.556043,1685.410096,7476.080014
5032.956841,2220.617826,459.657299,7624.121203
5032.957155,296.082377,-459.657299,8808.450710
5032.957469,-1628.453072,-842.705048,11103.089130
5032.957784,-2368.659014,-689.485948,12361.439231
5032.958098,-2146.597232,-689.485948,12805.562797
5032.958412,-1628.453072,-919.314598,11843.295072
5032.958727,-592.164754,76.609550,10584.944971
5032.959041,592.164754,1072.533697,8660.409521
5032.959355,888.247130,2757.943793,7476.080014
5032.959669,2368.659014,3140.991542,7105.977043
5032.959984,2812.782580,3524.039291,7179.997637
5032.960298,2590.720797,2451.505594,6883.915261
5032.960612,2072.576638,919.314598,7846.182985
5032.960927,0.000000,766.095498,9400.615463
5032.961241,-2146.597232,-383.047749,11621.233289
5032.961555,-2886.803174,-919.314598,11621.233289
5032.961870,-3330.926739,-153.219100,11177.109724
5032.962184,-2812.782580,-1378.971896,10955.047942
5032.962498,-1628.453072,995.924147,9992.780217
5032.962813,-666.185348,2911.162892,8586.388927
5032.963127,518.144159,2681.334243,6883.915261
5032.963441,1554.432478,3140.991542,5625.565159
5032.963755,2146.597232,2834.553343,5995.668130
5032.964070,2220.617826,2604.724693,7476.080014
5032.964384,1184.329507,1838.629195,8808.450710
5032.964698,148.041188,-1991.848295,10066.800811
5032.965013,0.000000,-2374.896044,11399.171507
5032.965327,-814.226536,-842.705048,13841.851115
5032.965641,-962.267725,-995.924147,13545.768739
5032.965956,-296.082377,-536.266849,11325.150913
5032.966270,-444.123565,0.000000,10584.944971
5032.966584,370.102971,2298.286494,9326.594869
5032.966899,3034.844362,3600.648841,6809.894666
5032.967213,3849.070898,3217.601092,6143.709319
5032.967527,3256.906145,2834.553343,5773.606348
5032.967842,1924.535449,2681.334243,7402.059420
5032.968156,0.000000,842.705048,8438.347739
5032.968470,-1554.432478,-536.266849,9696.697840
5032.968784,-2442.679609,-919.314598,12213.398043
5032.969099,-2664.741391,-1838.629195,12657.521608
5032.969413,-2442.679609,-1915.238745,11621.233289
5032.969727,-2072.576638,-766.095498,9992.780217
5032.970042,-1850.514855,0.000000,9104.533087
5032.970356,-370.102971,1991.848295,8216.285956
5032.970670,1998.556043,3907.087040,6957.935855
5032.970985,3108.864956,3830.477490,6291.750507
5032.971299,3923.091493,2068.457845,6365.771101
5032.971613,2960.823768,1149.143247,7402.059420
5032.971928,1258.350101,689.485948,8956.491898
5032.972242,-370.102971,383.047749,11029.068536
5032.972556,-1998.556043,-612.876398,12509.480420
5032.972870,-2368.659014,-2068.457845,12509.480420
5032.973185,-2146.597232,-1149.143247,12805.562797
5032.973499,-1258.350101,-612.876398,11695.253884
5032.973813,-370.102971,0.000000,8956.491898
5032.974128,1406.391290,1149.143247,6661.853478
5032.974442,2886.803174,3140.991542,6661.853478
5032.974756,3627.009116,4596.572988,6809.894666
5032.975071,3552.988522,2757.943793,7254.018232
5032.975385,2516.700203,1302.362347,8586.388927
5032.975699,1110.308913,0.000000,10066.800811
5032.976014,-444.123565,-766.095498,11547.212695
5032.976328,-1776.494261,-1685.410096,11547.212695
5032.976642,-2368.659014,-1762.019645,11991.336260
5032.976957,-2072.576638,-1225.752797,12065.356855
5032.977271,-1702.473667,-612.876398,10881.027347
5032.977585,-888.247130,1072.533697,8734.430116
5032.977899,-148.041188,2528.115143,7624.121203
5032.978214,1036.288319,2834.553343,5847.626942
5032.978528,1554.432478,3677.258390,5551.544565
5032.978842,2072.576638,1915.238745,6069.688724
5032.979157,1628.453072,1225.752797,7402.059420
5032.979471,0.000000,612.876398,9918.759623
5032.979785,-1628.453072,0.000000,10955.047942
5032.980100,-1998.556043,153.219100,11917.315666
5032.980414,-2368.659014,-766.095498,12435.459826
5032.980728,-2368.659014,306.438199,12361.439231
5032.981043,-962.267725,153.219100,10214.842000
5032.981357,814.226536,842.705048,8290.306550
5032.981671,1776.494261,3294.210641,7846.182985
5032.981985,2738.761985,3907.087040,7328.038826
5032.982300,3478.967927,3524.039291,6883.915261
5032.982614,3034.844362,1915.238745,7105.977043
5032.982928,1628.453072,1302.362347,8956.491898
5032.983243,148.041188,229.828649,10436.903782
5032.983557,-1998.556043,-459.657299,12213.398043
5032.983871,-2886.803174,-612.876398,12879.583391
5032.984186,-3478.967927,-1991.848295,11473.192101
5032.984500,-2738.761985,-1762.019645,10066.800811
5032.984814,-2590.720797,229.828649,9252.574275
5032.985129,-1554.432478,2528.115143,8734.430116
5032.985443,370.102971,3447.429741,6735.874072
5032.985757,1776.494261,2451.505594,4737.318029
5032.986071,3034.844362,2068.457845,5551.544565
5032.986386,1924.535449,1532.190996,6809.894666
5032.986700,888.247130,919.314598,8734.430116
5032.987014,0.000000,0.000000,10510.924376
5032.987329,-888.247130,-842.705048,13175.665768
5032.987643,-1702.473667,-1838.629195,14063.912898
5032.987957,-1924.535449,-2145.067394,12361.439231
5032.988272,-1184.329507,-1838.629195,9992.780217
5032.988586,-1110.308913,1072.533697,9178.553681
5032.988900,518.144159,2451.505594,8586.388927
5032.989214,2442.679609,2681.334243,7772.162391
5032.989529,3775.050304,3830.477490,6883.915261
5032.989843,3478.967927,3217.601092,6439.791695
5032.990157,2442.679609,1685.410096,6883.915261
5032.990472,1998.556043,995.924147,7994.224174
5032.990786,592.164754,-766.095498,10436.903782
5032.991100,-222.061783,-1762.019645,13175.665768
5032.991415,-1332.370696,-1991.848295,13175.665768
5032.991729,-2664.741391,-1762.019645,12657.521608
5032.992043,-2368.659014,0.000000,10955.047942
5032.992357,-1480.411884,919.314598,8290.306550
5032.992672,888.247130,1608.800546,7402.059420
5032.992986,1924.535449,2681.334243,6809.894666
5032.993300,1850.514855,2757.943793,6365.771101
5032.993615,2368.659014,1838.629195,6513.812290
5032.993929,1036.288319,1302.362347,7920.203579
5032.994243,-592.164754,383.047749,10214.842000
5032.994558,-1702.473667,-153.219100,11473.192101
5032.994872,-2072.576638,-995.924147,12435.459826
5032.995186,-1702.473667,-2145.067394,12065.356855
5032.995500,-2294.638420,-1302.362347,10955.047942
5032.995815,-1776.494261,229.828649,9844.739029
5032.996129,-1258.350101,2068.457845,8586.388927
5032.996443,814.226536,3830.477490,7772.162391
5032.996758,2294.638420,3830.477490,7550.100608
5032.997072,3108.864956,2451.505594,5625.565159
5032.997386,2442.679609,1915.238745,6365.771101
5032.997701,1406.391290,766.095498,7624.121203
5032.998015,-296.082377,766.095498,10584.944971
5032.998329,-1258.350101,-689.485948,13175.665768
5032.998643,-2516.700203,-1991.848295,13841.851115
5032.998958,-2664.741391,-2451.505594,12583.501014
5032.999272,-2368.659014,-2145.067394,10510.924376
5032.999586,-2220.617826,0.000000,9770.718434
5032.999901,-1036.288319,1991.848295,8808.450710
5033.000215,1702.473667,3217.601092,6957.935855
5033.000529,2960.823768,4596.572988,5551.544565
5033.000844,3849.070898,3677.258390,6143.709319
5033.001158,3478.967927,3600.648841,6587.832884
5033.001472,3034.844362,2068.457845,7179.997637
5033.001786,1110.308913,153.219100,9474.636058
5033.002101,-666.185348,-995.924147,12139.377449
5033.002415,-2220.617826,-1225.752797,12805.562797
5033.002729,-2220.617826,-1532.190996,11917.315666
5033.003044,-1554.432478,-689.485948,11695.253884
5033.003358,-740.205942,-229.828649,10140.821405
5033.003672,370.102971,1455.581446,9104.533087
5033.003987,2072.576638,2681.334243,6587.832884
5033.004301,3330.926739,3370.820191,5329.482782
5033.004615,3627.009116,3600.648841,6365.771101
5033.004929,2516.700203,2451.505594,6957.935855
5033.005244,1702.473667,2068.457845,8808.450710
5033.005558,-888.247130,76.609550,11029.068536
5033.005872,-2368.659014,-1378.971896,13397.727550
5033.006187,-2960.823768,-2221.676944,12805.562797
5033.006501,-3108.864956,-2298.286494,11843.295072
5033.006815,-3108.864956,-1532.190996,11547.212695
5033.007130,-2738.761985,153.219100,10214.842000
5033.007444,-444.123565,1149.143247,8660.409521
5033.007758,2294.638420,2757.943793,7105.977043
5033.008072,3108.864956,3294.210641,7031.956449
5033.008387,3256.906145,2451.505594,6883.915261
5033.008701,2960.823768,1149.143247,7179.997637
5033.009015,2072.576638,1149.143247,9178.553681
5033.009330,592.164754,0.000000,11177.109724
5033.009644,-888.247130,-766.095498,11917.315666
5033.009958,-2146.597232,-1608.800546,11695.253884
5033.010273,-2368.659014,0.000000,11547.212695
5033.010587,-2442.679609,383.047749,10436.903782
5033.010901,-1776.494261,536.266849,8512.368333
5033.011216,-222.061783,1838.629195,6883.915261
5033.011530,1184.329507,3217.601092,4885.359217
5033.011844,2072.576638,4213.525239,4811.338623
5033.012158,1702.473667,3447.429741,5551.544565
5033.012473,888.247130,1149.143247,7476.080014
5033.012787,0.000000,-306.438199,10510.924376
5033.013101,-1184.329507,-1149.143247,12213.398043
5033.013416,-2442.679609,-1915.238745,13323.706956
5033.013730,-2960.823768,-2451.505594,12805.562797
5033.014044,-2294.638420,-612.876398,11769.274478
5033.014359,-1184.329507,0.000000,10510.924376
5033.014673,-666.185348,1685.410096,9104.533087
5033.014987,740.205942,3600.648841,8438.347739
5033.015301,1924.535449,3677.258390,5699.585753
5033.015616,1998.556043,3830.477490,6143.709319
5033.015930,1480.411884,2145.067394,7328.038826
5033.016244,370.102971,1608.800546,8660.409521
5033.016559,-370.102971,-383.047749,9770.718434
5033.016873,-1924.535449,-766.095498,11991.336260
5033.017187,-2738.761985,-689.485948,13471.748144
5033.017502,-2812.782580,-1378.971896,12435.459826
5033.017816,-2294.638420,-536.266849,10658.965565
5033.018130,-1332.370696,1225.752797,9992.780217
5033.018444,0.000000,2834.553343,8882.471304
5033.018759,2812.782580,4213.525239,6883.915261
5033.019073,5181.441594,4366.744339,3775.050304
5033.019387,5033.400406,4749.792088,5329.482782
5033.019702,3997.112087,3370.820191,6587.832884
5033.020016,2960.823768,2681.334243,8586.388927
5033.020330,1480.411884,306.438199,9918.759623
5033.020645,-518.144159,-1685.410096,11917.315666
5033.020959,-2294.638420,-2221.676944,12435.459826
5033.021273,-2516.700203,-2374.896044,11991.336260
5033.021587,-2294.638420,-919.314598,11103.089130
5033.021902,-1258.350101,-306.438199,9474.636058
5033.022216,-444.123565,919.314598,8142.265362
5033.022530,1036.288319,2374.896044,6439.791695
5033.022845,1850.514855,3907.087040,5255.462188
5033.023159,1998.556043,2681.334243,5847.626942
5033.023473,2368.659014,919.314598,7698.141797
5033.023788,1480.411884,-612.876398,9548.656652
5033.024102,296.082377,-2221.676944,11399.171507
5033.024416,-1480.411884,-2221.676944,12731.542202
5033.024730,-2146.597232,-2834.553343,13175.665768
5033.025045,-1924.535449,-1838.629195,13841.851115
5033.025359,-74.020594,-1302.362347,12509.480420
5033.025673,740.205942,-459.657299,10732.986159
5033.025988,1628.453072,1225.752797,8512.368333
5033.026302,3330.926739,2757.943793,5921.647536
5033.026616,3330.926739,4060.306139,5033.400406
5033.026931,4441.235652,2757.943793,5329.482782
5033.027245,3478.967927,1838.629195,7624.121203
5033.027559,1258.350101,919.314598,9548.656652
5033.027873,-1554.432478,-306.438199,10732.986159
5033.028188,-2960.823768,-1378.971896,11843.295072
5033.028502,-3923.091493,-2451.505594,11251.130318
5033.028816,-3923.091493,-2068.457845,11177.109724
5033.029131,-3923.091493,-306.438199,10140.821405
5033.029445,-3256.906145,612.876398,8956.491898
5033.029759,-1480.411884,1685.410096,7031.956449
5033.030074,222.061783,2451.505594,6069.688724
5033.030388,1184.329507,2681.334243,5477.523971
5033.030702,888.247130,2757.943793,5699.585753
5033.031016,1258.350101,1532.190996,7698.141797
5033.031331,296.082377,995.924147,10732.986159
5033.031645,-592.164754,0.000000,12583.501014
5033.031959,-1406.391290,-919.314598,13101.645173
5033.032274,-2146.597232,-1685.410096,11991.336260
5033.032588,-2146.597232,-306.438199,11917.315666
5033.032902,-666.185348,2221.676944,11695.253884
5033.033217,592.164754,3140.991542,8882.471304
5033.033531,2590.720797,2987.772442,7179.997637
5033.033845,3404.947333,3830.477490,6365.771101
5033.034159,3627.009116,4826.401637,5773.606348
5033.034474,3404.947333,3907.087040,6809.894666
5033.034788,1998.556043,1762.019645,8586.388927
5033.035102,444.123565,306.438199,10807.006753
5033.035417,-1036.288319,-536.266849,12139.377449
5033.035731,-2294.638420,-1072.533697,11843.295072
5033.036045,-3552.988522,-1762.019645,11547.212695
5033.036360,-2960.823768,153.219100,11843.295072
5033.036674,-1110.308913,1915.238745,10584.944971
5033.036988,592.164754,2298.286494,8142.265362
5033.037303,1998.556043,2987.772442,6735.874072
5033.037617,2664.741391,4136.915689,5255.462188
5033.037931,2738.761985,4903.011187,4293.194464
5033.038245,3330.926739,2681.334243,5625.565159
5033.038560,1850.514855,1608.800546,9696.697840
5033.038874,0.000000,153.219100,11769.274478
5033.039188,-1850.514855,-1225.752797,12361.439231
5033.039503,-3256.906145,-2221.676944,11991.336260
5033.039817,-4145.153275,-2451.505594,12139.377449
5033.040131,-3552.988522,-1225.752797,11843.295072
5033.040446,-2072.576638,153.219100,9326.594869
5033.040760,-1110.308913,2068.457845,8586.388927
5033.041074,444.123565,2145.067394,6587.832884
5033.041388,2516.700203,3524.039291,5625.565159
5033.041703,3330.926739,3064.381992,5847.626942
5033.042017,3256.906145,1838.629195,7402.059420
5033.042331,2368.659014,-153.219100,9696.697840
5033.042646,814.226536,-2068.457845,11473.192101
5033.042960,-888.247130,-1378.971896,13915.871710
5033.043274,-2368.659014,-2451.505594,13249.686362
5033.043589,-2368.659014,-2451.505594,11843.295072
5033.043903,-1480.411884,-1991.848295,10955.047942
5033.044217,-444.123565,229.828649,9992.780217
5033.044531,444.123565,1608.800546,8512.368333
5033.044846,2368.659014,1455.581446,5699.585753
5033.045160,2960.823768,3064.381992,4885.359217
5033.045474,2664.741391,2451.505594,5551.544565
5033.045789,1258.350101,1762.019645,7254.018232
5033.046103,518.144159,76.609550,8660.409521
5033.046417,-888.247130,-1685.410096,10955.047942
5033.046732,-1776.494261,-2145.067394,12805.562797
5033.047046,-2960.823768,-2604.724693,12361.439231
5033.047360,-3108.864956,-1838.629195,11399.171507
5033.047674,-1998.556043,153.219100,9918.759623
5033.047989,-666.185348,1455.581446,8882.471304
5033.048303,592.164754,2145.067394,7624.121203
5033.048617,2294.638420,3370.820191,6291.750507
5033.048932,2738.761985,3524.039291,5995.668130
5033.049246,2590.720797,2451.505594,6217.729913
5033.049560,1628.453072,919.314598,8216.285956
5033.049875,370.102971,229.828649,10732.986159
5033.050189,-1036.288319,-995.924147,11621.233289
5033.050503,-1258.350101,-1685.410096,12731.542202
5033.050817,-2738.761985,-766.095498,13101.645173
5033.051132,-2590.720797,153.219100,12879.583391
5033.051446,-1924.535449,919.314598,10584.944971
5033.051760,-370.102971,1149.143247,7920.203579
5033.052075,1554.432478,3064.381992,6809.894666
5033.052389,3034.844362,4290.134789,5625.565159
5033.052703,3997.112087,4903.011187,5625.565159
5033.053018,3034.844362,3830.477490,6143.709319
5033.053332,1184.329507,2068.457845,7994.224174
5033.053646,-370.102971,842.705048,9474.636058
5033.053960,-1998.556043,-459.657299,11769.274478
5033.054275,-2812.782580,-1762.019645,12657.521608
5033.054589,-2886.803174,-1685.410096,12583.501014
5033.054903,-1702.473667,-383.047749,12509.480420
5033.055218,-1110.308913,76.609550,10362.883188
5033.055532,0.000000,1915.238745,8808.450710
5033.055846,1406.391290,3217.601092,7031.956449
5033.056161,2590.720797,4673.182538,5921.647536
5033.056475,3182.885551,4060.306139,5329.482782
5033.056789,3034.844362,1608.800546,6513.812290
5033.057103,2146.597232,612.876398,8142.265362
5033.057418,-370.102971,-383.047749,10066.800811
5033.057732,-2960.823768,-1608.800546,12065.356855
5033.058046,-3627.009116,-2298.286494,13397.727550
5033.058361,-3775.050304,-2145.067394,13175.665768
5033.058675,-2664.741391,-2221.676944,12139.377449
5033.058989,-814.226536,-842.705048,9696.697840
5033.059304,444.123565,2068.457845,8512.368333
5033.059618,2220.617826,3907.087040,7624.121203
5033.059932,3330.926739,5132.839837,6069.688724
5033.060246,4145.153275,3677.258390,5551.544565
5033.060561,3701.029710,1608.800546,6439.791695
5033.060875,2442.679609,153.219100,8216.285956
5033.061189,-444.123565,-536.266849,10658.965565
5033.061504,-2220.617826,-766.095498,12953.603985
5033.061818,-2516.700203,-1838.629195,12139.377449
5033.062132,-2960.823768,-2604.724693,12805.562797
5033.062447,-3182.885551,-1455.581446,12361.439231
5033.062761,-2738.761985,229.828649,9178.553681
5033.063075,-1406.391290,1225.752797,6291.750507
5033.063389,444.123565,1991.848295,5403.503377
5033.063704,1628.453072,3294.210641,6143.709319
5033.064018,1924.535449,2528.115143,6587.832884
5033.064332,1480.411884,1149.143247,6809.894666
5033.064647,666.185348,-383.047749,9104.533087
5033.064961,-888.247130,-1455.581446,12213.398043
5033.065275,-1258.350101,-1378.971896,13693.809927
5033.065590,-1480.411884,-1762.019645,13693.809927
5033.065904,-2072.576638,-1455.581446,13545.768739
5033.066218,-1480.411884,-689.485948,11991.336260
5033.066533,148.041188,919.314598,9104.533087
5033.066847,2368.659014,3064.381992,7031.956449
5033.067161,4441.235652,3830.477490,4811.338623
5033.067475,4737.318029,4826.401637,5181.441594
5033.067790,4515.256246,4596.572988,6883.915261
5033.068104,3775.050304,3140.991542,7772.162391
5033.068418,1702.473667,229.828649,9326.594869
5033.068733,-962.267725,-1378.971896,11029.068536
5033.069047,-2368.659014,-1685.410096,12583.501014
5033.069361,-3034.844362,-1378.971896,12287.418637
5033.069676,-3330.926739,-1608.800546,11473.192101
5033.069990,-2738.761985,-1225.752797,10510.924376
5033.070304,-1776.494261,995.924147,8660.409521
5033.070618,0.000000,3677.258390,6809.894666
5033.070933,2294.638420,4826.401637,5551.544565
5033.071247,3182.885551,4136.915689,5403.503377
5033.071561,3701.029710,3447.429741,6587.832884
5033.071876,3552.988522,2374.896044,7698.141797
5033.072190,1850.514855,919.314598,9770.718434
5033.072504,296.082377,0.000000,11991.336260
5033.072819,-962.267725,0.000000,13841.851115
5033.073133,-1258.350101,-383.047749,14137.933492
5033.073447,-1184.329507,-689.485948,13027.624579
5033.073761,-814.226536,-536.266849,10436.903782
5033.074076,-222.061783,1685.410096,9030.512492
5033.074390,222.061783,3830.477490,6957.935855
5033.074704,1924.535449,4213.525239,5033.400406
5033.075019,2072.576638,3447.429741,5107.421000
5033.075333,1850.514855,2221.676944,6365.771101
5033.075647,518.144159,1302.362347,8068.244768
5033.075962,-1850.514855,-459.657299,9326.594869
5033.076276,-2812.782580,-1532.190996,11473.192101
5033.076590,-3627.009116,-2145.067394,12435.459826
5033.076904,-4145.153275,-2221.676944,12879.583391
5033.077219,-3627.009116,-2068.457845,11621.233289
5033.077533,-2146.597232,-1149.143247,9770.718434
5033.077847,-962.267725,689.485948,8586.388927
5033.078162,740.205942,2681.334243,7179.997637
5033.078476,2960.823768,3294.210641,5995.668130
5033.078790,3478.967927,2145.067394,5625.565159
5033.079105,3404.947333,1149.143247,6883.915261
5033.079419,2220.617826,229.828649,8660.409521
5033.079733,518.144159,-766.095498,11029.068536
5033.080047,0.000000,-1685.410096,12805.562797
5033.080362,-888.247130,-1915.238745,13175.665768
5033.080676,-1702.473667,-2068.457845,13249.686362
5033.080990,-1110.308913,-1302.362347,12065.356855
5033.081305,-666.185348,0.000000,9178.553681
5033.081619,814.226536,1532.190996,7402.059420
5033.081933,1998.556043,2911.162892,6217.729913
5033.082248,2442.679609,3524.039291,5995.668130
5033.082562,2368.659014,2068.457845,5477.523971
5033.082876,1554.432478,995.924147,7105.977043
5033.083191,0.000000,383.047749,9844.739029
5033.083505,-1258.350101,-1149.143247,11029.068536
5033.083819,-2516.700203,-1685.410096,11917.315666
5033.084134,-3182.885551,-2681.334243,11843.295072
5033.084448,-3701.029710,-1915.238745,11843.295072
5033.084763,-2664.741391,-383.047749,11621.233289
5033.085077,-1110.308913,1302.362347,9696.697840
5033.085391,1184.329507,3064.381992,7476.080014
5033.085706,2886.803174,3600.648841,5625.565159
5033.086020,3775.050304,4060.306139,5403.503377
5033.086334,4071.132681,4136.915689,6217.729913
5033.086649,3478.967927,2451.505594,6883.915261
5033.086963,2146.597232,919.314598,10214.842000
5033.087278,-518.144159,-383.047749,13323.706956
5033.087592,-1184.329507,-1762.019645,12361.439231
5033.087906,-2516.700203,-2451.505594,11769.274478
5033.088221,-3552.988522,-1532.190996,12361.439231
5033.088535,-2960.823768,229.828649,11251.130318
5033.088850,-1332.370696,2145.067394,9252.574275
5033.089164,444.123565,2451.505594,6809.894666
5033.089478,2072.576638,3370.820191,4959.379811
5033.089793,2368.659014,3447.429741,4219.173869
5033.090107,2368.659014,3217.601092,5403.503377
5033.090421,2368.659014,2757.943793,7328.038826
5033.090736,1184.329507,995.924147,9918.759623
5033.091050,-740.205942,-919.314598,12213.398043
5033.091365,-1554.432478,-1915.238745,12583.501014
5033.091679,-2368.659014,-1762.019645,13101.645173
5033.091993,-2220.617826,-1455.581446,12731.542202
5033.092308,-1554.432478,-459.657299,11917.315666
5033.092622,-222.061783,536.266849,10140.821405
5033.092937,1184.329507,2911.162892,8068.244768
5033.093251,2960.823768,3600.648841,5329.482782
5033.093565,3701.029710,3447.429741,4959.379811
5033.093880,3849.070898,3830.477490,6957.935855
5033.094194,2664.741391,3064.381992,8882.471304
5033.094508,592.164754,766.095498,10584.944971
5033.094823,-1628.453072,-1838.629195,11621.233289
5033.095137,-3108.864956,-2374.896044,12287.418637
5033.095452,-4515.256246,-1532.190996,12435.459826
5033.095766,-4145.153275,0.000000,12139.377449
5033.096080,-3330.926739,-153.219100,9696.697840
5033.096395,-1924.535449,612.876398,7772.162391
5033.096709,0.000000,2528.115143,6883.915261
5033.097024,1258.350101,3830.477490,4515.256246
5033.097338,2146.597232,4290.134789,4811.338623
