#time,accel_x,accel_y,accel_z
1934.073134,-1036.288319,306.438199,9844.739029
1934.073456,-814.226536,229.828649,9326.594869
1934.073777,0.000000,76.609550,8660.409521
1934.074099,-370.102971,383.047749,8364.327145
1934.074421,-666.185348,919.314598,9252.574275
1934.074743,518.144159,612.876398,9252.574275
1934.075064,1184.329507,842.705048,8882.471304
1934.075386,370.102971,766.095498,8734.430116
1934.075708,-296.082377,842.705048,9252.574275
1934.076030,74.020594,919.314598,9474.636058
1934.076352,296.082377,995.924147,9030.512492
1934.076673,370.102971,76.609550,9252.574275
1934.076995,-814.226536,383.047749,9474.636058
1934.077317,-740.205942,536.266849,9622.677246
1934.077639,148.041188,383.047749,9474.636058
1934.077960,0.000000,536.266849,9104.533087
1934.078282,-740.205942,536.266849,9474.636058
1934.078604,148.041188,153.219100,9844.739029
1934.078926,1332.370696,1608.800546,9548.656652
1934.079247,814.226536,1149.143247,9474.636058
1934.079569,0.000000,1378.971896,9030.512492
1934.079891,518.144159,1455.581446,9844.739029
1934.080213,888.247130,1838.629195,9326.594869
1934.080535,1628.453072,1762.019645,8734.430116
1934.080856,518.144159,1608.800546,8882.471304
1934.081178,296.082377,1532.190996,9030.512492
1934.081500,1332.370696,1991.848295,8882.471304
1934.081822,2146.597232,1685.410096,8734.430116
1934.082143,1702.473667,2221.676944,9400.615463
1934.082465,1258.350101,2528.115143,9252.574275
1934.082787,2442.679609,2528.115143,9918.759623
1934.083109,4071.132681,3447.429741,9252.574275
1934.083431,2738.761985,3294.210641,9252.574275
1934.083752,2368.659014,3064.381992,10362.883188
1934.084074,3478.967927,3600.648841,9622.677246
1934.084396,4145.153275,3294.210641,9474.636058
1934.084718,3923.091493,3600.648841,9178.553681
1934.085039,2738.761985,3983.696590,9104.533087
1934.085361,2886.803174,3600.648841,9178.553681
1934.085683,3849.070898,3830.477490,8734.430116
1934.086005,3404.947333,3370.820191,8734.430116
1934.086326,2072.576638,3600.648841,8882.471304
1934.086648,1480.411884,3907.087040,8660.409521
1934.086970,3256.906145,3677.258390,8660.409521
1934.087292,3034.844362,3217.601092,8660.409521
1934.087614,1702.473667,3983.696590,8882.471304
1934.087935,1036.288319,3217.601092,9474.636058
1934.088257,1924.535449,3370.820191,8882.471304
1934.088579,2072.576638,2911.162892,9178.553681
1934.088901,296.082377,2451.505594,9400.615463
1934.089222,-1036.288319,2451.505594,9326.594869
1934.089544,74.020594,2298.286494,9030.512492
1934.089866,1110.308913,2145.067394,9104.533087
1934.090188,518.144159,2834.553343,8956.491898
1934.090510,74.020594,2911.162892,8956.491898
1934.090831,1998.556043,3600.648841,9474.636058
1934.091153,4219.173869,3753.867940,9178.553681
1934.091475,3997.112087,3753.867940,9474.636058
1934.091797,2886.803174,3600.648841,9400.615463
1934.092118,2590.720797,3447.429741,9992.780217
1934.092440,2812.782580,2528.115143,9844.739029
1934.092762,592.164754,1455.581446,9548.656652
1934.093084,-1258.350101,0.000000,10066.800811
1934.093405,-2146.597232,0.000000,9918.759623
1934.093727,-1702.473667,-306.438199,9252.574275
1934.094049,-518.144159,0.000000,8956.491898
1934.094371,-740.205942,1225.752797,9104.533087
1934.094693,444.123565,2221.676944,8142.265362
1934.095014,2960.823768,3140.991542,8586.388927
1934.095336,4071.132681,3217.601092,7698.141797
1934.095658,3478.967927,2911.162892,8068.244768
1934.095980,3256.906145,3217.601092,9030.512492
1934.096301,4071.132681,3140.991542,8734.430116
1934.096623,4441.235652,2604.724693,8660.409521
1934.096945,2516.700203,1915.238745,9104.533087
1934.097267,1332.370696,1532.190996,10807.006753
1934.097589,444.123565,612.876398,10140.821405
1934.097910,1406.391290,459.657299,10510.924376
1934.098232,592.164754,0.000000,10658.965565
1934.098554,-296.082377,459.657299,10584.944971
1934.098876,148.041188,1149.143247,9844.739029
1934.099197,2368.659014,1225.752797,9548.656652
1934.099519,2368.659014,2374.896044,8734.430116
1934.099841,1480.411884,2451.505594,8438.347739
1934.100163,3256.906145,3370.820191,8512.368333
1934.100484,5773.606348,4596.572988,8512.368333
1934.100806,6217.729913,4903.011187,8586.388927
1934.101128,4811.338623,4903.011187,9104.533087
1934.101450,3552.988522,4903.011187,8734.430116
1934.101772,3627.009116,3447.429741,7994.224174
1934.102093,3552.988522,3064.381992,9252.574275
1934.102415,1332.370696,1608.800546,10658.965565
1934.102737,-1554.432478,1915.238745,11251.130318
1934.103059,-1628.453072,1455.581446,10288.862594
1934.103380,-592.164754,842.705048,8882.471304
1934.103702,-1258.350101,1762.019645,8364.327145
1934.104024,-1258.350101,3064.381992,9252.574275
1934.104346,814.226536,4366.744339,9992.780217
1934.104668,3775.050304,4903.011187,8438.347739
1934.104989,4737.318029,5515.887586,7698.141797
1934.105311,4219.173869,6511.811733,8660.409521
1934.105633,3404.947333,6435.202183,9252.574275
1934.105955,4219.173869,5132.839837,8734.430116
1934.106276,4737.318029,4596.572988,8290.306550
1934.106598,2368.659014,4290.134789,8734.430116
1934.106920,888.247130,3907.087040,8808.450710
1934.107242,1332.370696,2451.505594,9474.636058
1934.107564,814.226536,1532.190996,9178.553681
1934.107885,-222.061783,1455.581446,9992.780217
1934.108207,-1110.308913,1532.190996,10140.821405
1934.108529,-1036.288319,1762.019645,9770.718434
1934.108851,148.041188,1378.971896,9400.615463
1934.109172,888.247130,1608.800546,9548.656652
1934.109494,962.267725,3447.429741,9696.697840
1934.109816,1998.556043,4443.353888,9326.594869
1934.110138,3923.091493,4443.353888,8068.244768
1934.110459,4737.318029,4903.011187,8586.388927
1934.110781,2960.823768,4826.401637,8734.430116
1934.111103,1998.556043,3370.820191,7920.203579
1934.111425,2738.761985,1685.410096,7624.121203
1934.111747,1850.514855,842.705048,8734.430116
1934.112068,0.000000,153.219100,11103.089130
1934.112390,-1406.391290,-459.657299,12139.377449
1934.112712,-740.205942,-1149.143247,9770.718434
1934.113034,0.000000,-766.095498,8882.471304
1934.113355,-1406.391290,-995.924147,9770.718434
1934.113677,-1258.350101,0.000000,9696.697840
1934.113999,1184.329507,766.095498,8956.491898
1934.114321,2812.782580,1915.238745,8956.491898
1934.114643,2220.617826,2681.334243,9770.718434
1934.114964,1850.514855,2528.115143,9770.718434
1934.115286,3404.947333,2681.334243,8290.306550
1934.115608,3478.967927,2528.115143,7402.059420
1934.115930,1480.411884,1149.143247,9030.512492
1934.116251,-666.185348,0.000000,8956.491898
1934.116573,0.000000,-383.047749,9770.718434
1934.116895,-518.144159,-1302.362347,10140.821405
1934.117217,-3108.864956,-2221.676944,10732.986159
1934.117538,-3108.864956,-1685.410096,11399.171507
1934.117860,-2220.617826,-1455.581446,10807.006753
1934.118182,-1332.370696,-1149.143247,9696.697840
1934.118504,-740.205942,-612.876398,9474.636058
1934.118826,-148.041188,766.095498,9104.533087
1934.119147,666.185348,2145.067394,9104.533087
1934.119469,2294.638420,1838.629195,8142.265362
1934.119791,1480.411884,2068.457845,8068.244768
1934.120113,592.164754,2374.896044,8216.285956
1934.120434,-1184.329507,1455.581446,8068.244768
1934.120756,-222.061783,612.876398,7698.141797
1934.121078,-444.123565,-459.657299,8808.450710
1934.121400,-2886.803174,-842.705048,9178.553681
1934.121722,-4885.359217,-2221.676944,9030.512492
1934.122043,-3256.906145,-2298.286494,9474.636058
1934.122365,-2590.720797,-2451.505594,10510.924376
1934.122687,-3478.967927,-1608.800546,10881.027347
1934.123009,-1924.535449,-919.314598,10066.800811
1934.123330,1258.350101,1378.971896,11177.109724
1934.123652,2812.782580,1915.238745,10362.883188
1934.123974,2072.576638,1762.019645,9474.636058
1934.124296,1702.473667,2757.943793,9474.636058
1934.124617,2590.720797,3677.258390,9474.636058
1934.124939,3478.967927,1608.800546,8142.265362
1934.125261,2812.782580,1225.752797,7550.100608
1934.125583,888.247130,1685.410096,9104.533087
1934.125904,-1036.288319,536.266849,9696.697840
1934.126226,-1480.411884,-1072.533697,9178.553681
1934.126548,-1406.391290,-1225.752797,9474.636058
1934.126869,-3256.906145,-995.924147,9474.636058
1934.127191,-2886.803174,-1149.143247,9104.533087
1934.127512,-444.123565,306.438199,9178.553681
1934.127834,2072.576638,2145.067394,9770.718434
1934.128156,1332.370696,2145.067394,9474.636058
1934.128477,666.185348,2451.505594,9030.512492
1934.128799,2960.823768,3677.258390,8512.368333
1934.129121,3256.906145,4060.306139,8068.244768
1934.129442,2442.679609,2374.896044,8364.327145
1934.129764,1480.411884,3370.820191,8364.327145
1934.130085,1184.329507,2068.457845,8586.388927
1934.130407,296.082377,1072.533697,8290.306550
1934.130729,-1036.288319,76.609550,9104.533087
1934.131050,-2664.741391,0.000000,9918.759623
1934.131372,-3108.864956,0.000000,9622.677246
1934.131693,-592.164754,0.000000,8956.491898
1934.132015,666.185348,306.438199,9178.553681
1934.132337,-518.144159,1608.800546,9400.615463
1934.132658,0.000000,1762.019645,9992.780217
1934.132980,1406.391290,1762.019645,9474.636058
1934.133302,222.061783,1762.019645,9326.594869
1934.133623,-148.041188,919.314598,9400.615463
1934.133945,-888.247130,1455.581446,8956.491898
1934.134266,-592.164754,1072.533697,8142.265362
1934.134588,-740.205942,0.000000,8364.327145
1934.134910,-2442.679609,-1685.410096,8808.450710
1934.135231,-3701.029710,-1149.143247,9326.594869
1934.135553,-3256.906145,-1149.143247,9770.718434
1934.135874,-1554.432478,-1608.800546,9474.636058
1934.136196,-1036.288319,-1455.581446,9696.697840
1934.136518,-1850.514855,229.828649,9918.759623
1934.136839,-962.267725,0.000000,10658.965565
1934.137161,-222.061783,0.000000,9622.677246
1934.137483,-370.102971,-536.266849,9696.697840
1934.137804,-1406.391290,0.000000,10140.821405
1934.138126,-1258.350101,-536.266849,9104.533087
1934.138447,370.102971,-383.047749,8438.347739
1934.138769,592.164754,-306.438199,8586.388927
1934.139091,-1480.411884,-612.876398,8512.368333
1934.139412,-1850.514855,-995.924147,8438.347739
1934.139734,-740.205942,-995.924147,8364.327145
1934.140055,-296.082377,-1532.190996,8216.285956
1934.140377,-888.247130,-2298.286494,8734.430116
1934.140699,0.000000,-842.705048,10066.800811
1934.141020,1110.308913,-76.609550,10510.924376
1934.141342,1554.432478,-459.657299,9548.656652
1934.141664,1110.308913,-612.876398,9178.553681
1934.141985,74.020594,76.609550,9622.677246
1934.142307,592.164754,689.485948,10066.800811
1934.142628,1332.370696,153.219100,9474.636058
1934.142950,1184.329507,76.609550,9548.656652
1934.143272,-666.185348,842.705048,9474.636058
1934.143593,-296.082377,536.266849,9030.512492
1934.143915,962.267725,0.000000,9326.594869
1934.144236,0.000000,383.047749,7994.224174
1934.144558,-962.267725,459.657299,8808.450710
1934.144880,222.061783,536.266849,9178.553681
1934.145201,1036.288319,919.314598,9104.533087
1934.145523,814.226536,1072.533697,8808.450710
1934.145845,148.041188,689.485948,8438.347739
1934.146166,-222.061783,1915.238745,9548.656652
1934.146488,74.020594,1149.143247,9622.677246
1934.146809,518.144159,612.876398,9474.636058
1934.147131,0.000000,1302.362347,9770.718434
1934.147453,-1258.350101,1685.410096,9400.615463
1934.147774,-888.247130,1225.752797,8956.491898
1934.148096,0.000000,536.266849,7994.224174
1934.148417,-222.061783,1072.533697,8734.430116
1934.148739,-2072.576638,995.924147,9178.553681
1934.149061,-444.123565,919.314598,9622.677246
1934.149382,888.247130,995.924147,9622.677246
1934.149704,444.123565,1149.143247,10214.842000
1934.150026,-1110.308913,1302.362347,10288.862594
1934.150347,-592.164754,1149.143247,9474.636058
1934.150669,0.000000,1455.581446,9622.677246
1934.150990,-518.144159,76.609550,9178.553681
1934.151312,-1776.494261,-153.219100,9992.780217
1934.151634,-1480.411884,306.438199,9548.656652
1934.151955,-148.041188,306.438199,9548.656652
1934.152277,-1480.411884,-306.438199,8660.409521
1934.152598,-3330.926739,-995.924147,8216.285956
1934.152920,-2442.679609,-1072.533697,8438.347739
1934.153242,-1924.535449,-689.485948,7698.141797
1934.153563,0.000000,-1072.533697,7772.162391
1934.153885,370.102971,383.047749,8438.347739
1934.154207,666.185348,1455.581446,9474.636058
1934.154528,1776.494261,995.924147,8956.491898
1934.154850,3256.906145,1455.581446,9474.636058
1934.155171,2368.659014,1608.800546,10436.903782
1934.155493,2368.659014,919.314598,10362.883188
1934.155815,2590.720797,1149.143247,10362.883188
1934.156136,4293.194464,1532.190996,10658.965565
1934.156458,1702.473667,383.047749,10362.883188
1934.156779,0.000000,-306.438199,9844.739029
1934.157101,-444.123565,-229.828649,10584.944971
1934.157423,-296.082377,-383.047749,9474.636058
1934.157744,-444.123565,-536.266849,8660.409521
1934.158066,-296.082377,0.000000,8142.265362
1934.158388,-1110.308913,1915.238745,8882.471304
1934.158709,222.061783,1685.410096,7994.224174
1934.159031,222.061783,919.314598,8068.244768
1934.159352,-444.123565,1838.629195,8808.450710
1934.159674,-2072.576638,1532.190996,8438.347739
1934.159996,-444.123565,1072.533697,7994.224174
1934.160317,0.000000,919.314598,8364.327145
1934.160639,-2294.638420,229.828649,10214.842000
1934.160960,-3182.885551,-459.657299,9696.697840
1934.161282,-2072.576638,-229.828649,9252.574275
1934.161604,-740.205942,0.000000,9622.677246
1934.161925,-1776.494261,76.609550,9770.718434
1934.162247,-1406.391290,919.314598,9178.553681
1934.162569,296.082377,2068.457845,9548.656652
1934.162890,1776.494261,2451.505594,9474.636058
1934.163212,1480.411884,1991.848295,9474.636058
1934.163533,370.102971,2451.505594,9622.677246
1934.163855,222.061783,2374.896044,9622.677246
1934.164177,740.205942,919.314598,9252.574275
1934.164498,-222.061783,76.609550,9622.677246
1934.164820,-1628.453072,536.266849,9770.718434
1934.165141,-2664.741391,-612.876398,9770.718434
1934.165463,-2516.700203,-1455.581446,8438.347739
1934.165785,-2146.597232,-1455.581446,8808.450710
1934.166106,-3182.885551,-1072.533697,9400.615463
1934.166428,-2812.782580,-995.924147,8956.491898
1934.166749,0.000000,0.000000,8512.368333
1934.167071,1924.535449,459.657299,8956.491898
1934.167393,1184.329507,1455.581446,9252.574275
1934.167714,1258.350101,1608.800546,9252.574275
1934.168036,2146.597232,1991.848295,9252.574275
1934.168358,2368.659014,1225.752797,9030.512492
1934.168679,1554.432478,76.609550,9178.553681
1934.169001,592.164754,0.000000,9622.677246
1934.169322,0.000000,612.876398,9992.780217
1934.169644,0.000000,-1915.238745,9178.553681
1934.169966,-1702.473667,-1991.848295,9548.656652
1934.170287,-3182.885551,-1608.800546,9178.553681
1934.170609,-1924.535449,-766.095498,9252.574275
1934.170930,888.247130,-459.657299,9030.512492
1934.171252,1776.494261,995.924147,9770.718434
1934.171574,1776.494261,2221.676944,9770.718434
1934.171895,2738.761985,2451.505594,9104.533087
1934.172217,3775.050304,2681.334243,7846.182985
1934.172539,3034.844362,1915.238745,8216.285956
1934.172860,592.164754,1378.971896,9918.759623
1934.173182,444.123565,842.705048,9548.656652
1934.173503,518.144159,536.266849,10584.944971
1934.173825,-592.164754,0.000000,9400.615463
1934.174147,-2590.720797,-1149.143247,9474.636058
1934.174468,-4293.194464,-383.047749,8882.471304
1934.174790,-3108.864956,-1302.362347,9104.533087
1934.175111,-2220.617826,-689.485948,9474.636058
1934.175433,-1184.329507,459.657299,9474.636058
1934.175755,-1036.288319,1762.019645,10658.965565
1934.176076,74.020594,2068.457845,9178.553681
1934.176398,1850.514855,1685.410096,8586.388927
1934.176720,1406.391290,2987.772442,9474.636058
1934.177041,-962.267725,2298.286494,9326.594869
1934.177363,-370.102971,766.095498,8216.285956
1934.177684,666.185348,536.266849,8290.306550
1934.178006,-296.082377,306.438199,9178.553681
1934.178328,-2220.617826,-383.047749,9178.553681
1934.178649,-2886.803174,-1072.533697,9622.677246
1934.178971,-1332.370696,536.266849,9252.574275
1934.179292,-666.185348,-306.438199,9326.594869
1934.179614,-740.205942,-766.095498,8808.450710
1934.179936,296.082377,1072.533697,9770.718434
1934.180257,2368.659014,2451.505594,10807.006753
1934.180579,2960.823768,1915.238745,9844.739029
1934.180901,1776.494261,1225.752797,9474.636058
1934.181222,740.205942,1532.190996,10214.842000
1934.181544,1406.391290,1455.581446,9252.574275
1934.181865,1998.556043,0.000000,9474.636058
1934.182187,0.000000,0.000000,9696.697840
1934.182509,-2368.659014,-229.828649,9918.759623
1934.182830,-2738.761985,-1378.971896,8956.491898
1934.183152,-1036.288319,-1455.581446,9030.512492
1934.183473,-2368.659014,-459.657299,9178.553681
1934.183795,-2072.576638,-306.438199,9548.656652
1934.184117,370.102971,536.266849,8808.450710
1934.184438,3034.844362,1915.238745,8808.450710
1934.184760,2368.659014,2068.457845,8438.347739
1934.185082,1036.288319,1991.848295,9104.533087
1934.185403,1850.514855,2221.676944,8734.430116
1934.185725,1850.514855,2298.286494,9326.594869
1934.186046,1110.308913,1072.533697,8512.368333
1934.186368,-444.123565,383.047749,8290.306550
1934.186690,-1554.432478,842.705048,9178.553681
1934.187011,-2368.659014,-383.047749,8586.388927
1934.187333,-2590.720797,-995.924147,9178.553681
1934.187654,-2812.782580,-229.828649,9622.677246
1934.187976,-3256.906145,-612.876398,9400.615463
1934.188298,-1110.308913,-1149.143247,9400.615463
1934.188619,1184.329507,842.705048,9770.718434
1934.188941,1036.288319,1608.800546,10807.006753
1934.189263,370.102971,1455.581446,10510.924376
1934.189584,592.164754,1378.971896,10140.821405
1934.189906,1480.411884,1608.800546,9474.636058
1934.190227,592.164754,1072.533697,9474.636058
1934.190549,-518.144159,76.609550,8956.491898
1934.190871,-444.123565,0.000000,9104.533087
1934.191192,-1332.370696,76.609550,9104.533087
1934.191514,-2368.659014,-1608.800546,8882.471304
1934.191835,-3478.967927,-1762.019645,8512.368333
1934.192157,-3923.091493,-1149.143247,7846.182985
1934.192479,-1628.453072,-459.657299,8882.471304
1934.192800,222.061783,76.609550,8882.471304
1934.193122,0.000000,995.924147,10288.862594
1934.193444,74.020594,459.657299,9548.656652
1934.193765,592.164754,919.314598,9178.553681
1934.194087,1110.308913,842.705048,9400.615463
1934.194408,0.000000,536.266849,10510.924376
1934.194730,0.000000,-306.438199,9696.697840
1934.195052,0.000000,0.000000,9474.636058
1934.195373,0.000000,0.000000,9252.574275
1934.195695,-1554.432478,-1225.752797,9326.594869
1934.196016,-2886.803174,-1608.800546,9326.594869
1934.196338,-1406.391290,-612.876398,9474.636058
1934.196660,370.102971,-229.828649,9622.677246
1934.196981,962.267725,-766.095498,8290.306550
1934.197303,1998.556043,1225.752797,9696.697840
1934.197625,2368.659014,2681.334243,9400.615463
1934.197946,2664.741391,1608.800546,9622.677246
1934.198268,2590.720797,1915.238745,8660.409521
1934.198589,1776.494261,1838.629195,9844.739029
1934.198911,296.082377,1302.362347,9474.636058
1934.199233,0.000000,0.000000,8068.244768
1934.199554,0.000000,0.000000,8290.306550
1934.199876,-2516.700203,-383.047749,8660.409521
1934.200197,-3552.988522,-1302.362347,9252.574275
1934.200519,-3034.844362,-1072.533697,8734.430116
1934.200841,-2072.576638,-1072.533697,8734.430116
1934.201162,-1776.494261,0.000000,8586.388927
1934.201484,-1258.350101,76.609550,9030.512492
1934.201805,888.247130,1762.019645,9844.739029
1934.202127,2812.782580,2374.896044,9770.718434
1934.202449,2664.741391,2528.115143,9104.533087
1934.202770,1702.473667,1838.629195,9474.636058
1934.203092,1184.329507,2604.724693,9844.739029
1934.203414,1406.391290,1149.143247,8734.430116
1934.203735,962.267725,459.657299,8734.430116
1934.204057,-1110.308913,306.438199,10140.821405
1934.204378,-2886.803174,306.438199,9992.780217
1934.204700,-1776.494261,-689.485948,9030.512492
1934.205022,-1850.514855,-919.314598,9400.615463
1934.205343,-2664.741391,-689.485948,9400.615463
1934.205665,-1998.556043,-689.485948,9548.656652
1934.205986,888.247130,612.876398,9252.574275
1934.206308,2368.659014,2221.676944,9548.656652
1934.206630,1776.494261,2451.505594,9104.533087
1934.206951,1406.391290,2298.286494,9104.533087
1934.207273,1332.370696,2145.067394,8216.285956
1934.207595,1184.329507,2145.067394,9326.594869
1934.207916,814.226536,459.657299,9400.615463
1934.208238,-518.144159,153.219100,9400.615463
1934.208559,-1850.514855,0.000000,10214.842000
1934.208881,-1850.514855,-1378.971896,9770.718434
1934.209203,-2590.720797,-2451.505594,9326.594869
1934.209524,-3108.864956,-1915.238745,9474.636058
1934.209846,-2886.803174,-1685.410096,9474.636058
1934.210167,-222.061783,-766.095498,8956.491898
1934.210489,962.267725,536.266849,9326.594869
1934.210811,1184.329507,1072.533697,9104.533087
1934.211132,888.247130,1072.533697,9326.594869
1934.211454,1332.370696,1915.238745,8956.491898
1934.211776,2368.659014,2451.505594,9326.594869
1934.212097,1110.308913,1072.533697,8438.347739
1934.212419,592.164754,536.266849,9104.533087
1934.212740,370.102971,842.705048,8216.285956
1934.213062,-518.144159,-229.828649,8512.368333
1934.213384,-1628.453072,-919.314598,9030.512492
1934.213705,-2516.700203,-919.314598,9992.780217
1934.214027,-1924.535449,-689.485948,9992.780217
1934.214348,-1776.494261,-229.828649,9770.718434
1934.214670,0.000000,-1225.752797,10510.924376
1934.214992,444.123565,1149.143247,10066.800811
1934.215313,1110.308913,1838.629195,10510.924376
1934.215635,1554.432478,1838.629195,9474.636058
1934.215957,1184.329507,1838.629195,9844.739029
1934.216278,222.061783,1915.238745,9400.615463
1934.216600,74.020594,1685.410096,9104.533087
1934.216921,962.267725,1532.190996,8216.285956
1934.217243,-592.164754,536.266849,8882.471304
1934.217565,-2886.803174,0.000000,9030.512492
1934.217886,-3108.864956,-459.657299,8512.368333
1934.218208,-2368.659014,-612.876398,8142.265362
1934.218529,-2664.741391,-459.657299,7846.182985
1934.218851,-2516.700203,-383.047749,8882.471304
1934.219173,-1406.391290,842.705048,9844.739029
1934.219494,962.267725,1378.971896,9844.739029
1934.219816,1702.473667,1608.800546,9770.718434
1934.220138,1406.391290,2374.896044,9918.759623
1934.220459,1184.329507,2528.115143,10066.800811
1934.220781,2516.700203,2145.067394,9400.615463
1934.221102,3256.906145,1532.190996,9178.553681
1934.221424,1924.535449,1685.410096,9844.739029
1934.221746,-814.226536,1378.971896,9992.780217
1934.222067,-1110.308913,229.828649,9474.636058
1934.222389,-962.267725,-459.657299,8956.491898
1934.222710,-2368.659014,-689.485948,8808.450710
1934.223032,-3108.864956,-459.657299,8956.491898
1934.223354,-1924.535449,0.000000,9326.594869
1934.223675,814.226536,995.924147,9252.574275
1934.223997,888.247130,306.438199,8956.491898
1934.224319,-222.061783,1149.143247,9030.512492
1934.224640,222.061783,2374.896044,9770.718434
1934.224962,1628.453072,1915.238745,8882.471304
1934.225283,1702.473667,842.705048,8216.285956
1934.225605,666.185348,1225.752797,8290.306550
1934.225926,-444.123565,1072.533697,8956.491898
1934.226248,-666.185348,153.219100,8734.430116
1934.226569,-296.082377,-1378.971896,8660.409521
1934.226890,-2146.597232,-919.314598,9474.636058
1934.227212,-2294.638420,-612.876398,9400.615463
1934.227533,-962.267725,-919.314598,8882.471304
1934.227855,1258.350101,306.438199,9252.574275
1934.228176,592.164754,1072.533697,10066.800811
1934.228497,0.000000,536.266849,10214.842000
1934.228819,1036.288319,1455.581446,9844.739029
1934.229140,2960.823768,2298.286494,10214.842000
1934.229462,1628.453072,919.314598,10066.800811
1934.229783,518.144159,229.828649,9844.739029
1934.230105,-592.164754,536.266849,9252.574275
1934.230426,-592.164754,0.000000,8882.471304
1934.230747,-1850.514855,-1225.752797,8956.491898
1934.231069,-2368.659014,-2757.943793,8438.347739
1934.231390,-2294.638420,-1149.143247,9030.512492
1934.231712,-1554.432478,-1302.362347,8290.306550
1934.232033,296.082377,-995.924147,9030.512492
1934.232354,518.144159,536.266849,10140.821405
1934.232676,74.020594,1378.971896,9918.759623
1934.232997,1850.514855,766.095498,9474.636058
1934.233319,1998.556043,766.095498,9252.574275
1934.233640,222.061783,612.876398,9474.636058
1934.233961,-666.185348,306.438199,10881.027347
1934.234283,0.000000,153.219100,9400.615463
1934.234604,0.000000,-383.047749,9326.594869
1934.234926,-2146.597232,-1225.752797,8586.388927
1934.235247,-3923.091493,-1302.362347,9918.759623
1934.235569,-3552.988522,-995.924147,9178.553681
1934.235890,-2368.659014,-1225.752797,8216.285956
1934.236211,-962.267725,-383.047749,8438.347739
1934.236533,-444.123565,1072.533697,9474.636058
1934.236854,1332.370696,2681.334243,9696.697840
1934.237176,3330.926739,2221.676944,9104.533087
1934.237497,3256.906145,2604.724693,9178.553681
1934.237818,1258.350101,3217.601092,9326.594869
1934.238140,888.247130,1991.848295,9326.594869
1934.238461,2072.576638,995.924147,8364.327145
1934.238783,1924.535449,1455.581446,8882.471304
1934.239104,-740.205942,1302.362347,10214.842000
1934.239425,-2590.720797,76.609550,9178.553681
1934.239747,-1702.473667,-689.485948,8438.347739
1934.240068,-1480.411884,229.828649,8660.409521
1934.240390,-2146.597232,689.485948,8956.491898
1934.240711,-1924.535449,1225.752797,9178.553681
1934.241033,888.247130,1991.848295,9918.759623
1934.241354,2368.659014,2681.334243,9104.533087
1934.241675,1258.350101,2681.334243,8808.450710
1934.241997,222.061783,2834.553343,9770.718434
1934.242318,814.226536,2681.334243,9770.718434
1934.242640,1258.350101,1532.190996,8290.306550
1934.242961,222.061783,612.876398,8956.491898
1934.243282,-2072.576638,995.924147,9918.759623
1934.243604,-3552.988522,0.000000,9326.594869
1934.243925,-2516.700203,-842.705048,7846.182985
1934.244247,-2368.659014,-995.924147,8438.347739
1934.244568,-2960.823768,0.000000,9326.594869
1934.244889,-2294.638420,-153.219100,8808.450710
1934.245211,1480.411884,612.876398,8956.491898
1934.245532,1924.535449,1915.238745,9548.656652
1934.245854,666.185348,1225.752797,9770.718434
1934.246175,518.144159,1302.362347,10584.944971
1934.246497,1258.350101,1991.848295,10066.800811
1934.246818,1258.350101,842.705048,9252.574275
1934.247139,814.226536,76.609550,8660.409521
1934.247461,-814.226536,76.609550,8734.430116
1934.247782,-888.247130,-383.047749,9400.615463
1934.248104,-1554.432478,-1378.971896,9252.574275
1934.248425,-2220.617826,-1685.410096,10066.800811
1934.248746,-2886.803174,-1685.410096,10140.821405
1934.249068,-2294.638420,-2145.067394,9252.574275
1934.249389,1036.288319,-766.095498,9178.553681
1934.249711,1776.494261,0.000000,10288.862594
1934.250032,2294.638420,1225.752797,9696.697840
1934.250353,2368.659014,536.266849,8882.471304
1934.250675,3404.947333,1455.581446,9474.636058
1934.250996,1998.556043,1225.752797,9178.553681
1934.251318,1480.411884,76.609550,9030.512492
1934.251639,370.102971,-229.828649,8216.285956
1934.251961,74.020594,689.485948,8660.409521
1934.252282,-1480.411884,-1225.752797,7328.038826
1934.252603,-2960.823768,-1838.629195,7476.080014
1934.252925,-4441.235652,-1685.410096,9474.636058
1934.253246,-3330.926739,-1302.362347,8586.388927
1934.253568,-1480.411884,-1378.971896,9178.553681
1934.253889,0.000000,-229.828649,9474.636058
1934.254210,-444.123565,766.095498,11325.150913
1934.254532,814.226536,766.095498,10732.986159
1934.254853,1702.473667,306.438199,9918.759623
1934.255175,1258.350101,995.924147,9548.656652
1934.255496,592.164754,995.924147,9844.739029
1934.255817,1036.288319,612.876398,9474.636058
1934.256139,1850.514855,612.876398,9030.512492
1934.256460,222.061783,689.485948,9178.553681
1934.256782,-962.267725,689.485948,9474.636058
1934.257103,-1406.391290,0.000000,9104.533087
1934.257425,-518.144159,153.219100,8364.327145
1934.257746,-1036.288319,-459.657299,8290.306550
1934.258067,-1406.391290,0.000000,9178.553681
1934.258389,-1184.329507,1149.143247,9548.656652
1934.258710,-444.123565,1149.143247,8734.430116
1934.259032,0.000000,1072.533697,8734.430116
1934.259353,-1110.308913,1302.362347,9178.553681
1934.259674,-1998.556043,842.705048,9696.697840
1934.259996,-1332.370696,153.219100,9030.512492
1934.260317,-148.041188,153.219100,9178.553681
1934.260639,-1628.453072,459.657299,9548.656652
1934.260960,-2590.720797,0.000000,9326.594869
1934.261281,-1776.494261,-153.219100,8808.450710
1934.261603,222.061783,153.219100,8956.491898
1934.261924,-296.082377,306.438199,9770.718434
1934.262246,-222.061783,153.219100,9548.656652
1934.262567,1776.494261,919.314598,9844.739029
1934.262889,3775.050304,2068.457845,10066.800811
1934.263210,2812.782580,1685.410096,9474.636058
1934.263531,2442.679609,1532.190996,10288.862594
1934.263853,1628.453072,2451.505594,10510.924376
1934.264174,1776.494261,1838.629195,8586.388927
1934.264496,1776.494261,612.876398,8290.306550
1934.264817,666.185348,459.657299,8290.306550
1934.265138,-1184.329507,689.485948,8808.450710
1934.265460,-888.247130,459.657299,8586.388927
1934.265781,-74.020594,-306.438199,9400.615463
1934.266103,-1480.411884,0.000000,8808.450710
1934.266424,-2294.638420,-306.438199,8808.450710
1934.266745,0.000000,153.219100,8438.347739
1934.267067,2072.576638,1455.581446,9622.677246
1934.267388,1110.308913,2298.286494,10955.047942
1934.267710,74.020594,1455.581446,9770.718434
1934.268031,666.185348,1149.143247,9622.677246
1934.268353,592.164754,2145.067394,8808.450710
1934.268674,-592.164754,689.485948,9178.553681
1934.268995,-2146.597232,-766.095498,9252.574275
1934.269317,-2516.700203,0.000000,9030.512492
1934.269638,-1776.494261,-536.266849,8660.409521
1934.269960,-3108.864956,-1378.971896,8734.430116
1934.270281,-4663.297435,-1149.143247,8364.327145
1934.270602,-4293.194464,-1149.143247,8586.388927
1934.270924,-1998.556043,-1149.143247,8216.285956
1934.271245,666.185348,0.000000,9474.636058
1934.271567,592.164754,1072.533697,10214.842000
1934.271888,592.164754,1608.800546,9474.636058
1934.272209,2220.617826,1915.238745,9178.553681
1934.272531,2368.659014,1991.848295,9696.697840
1934.272852,1036.288319,1455.581446,10510.924376
1934.273174,1184.329507,383.047749,10066.800811
1934.273495,740.205942,536.266849,10955.047942
1934.273817,1036.288319,0.000000,10214.842000
1934.274138,-740.205942,-1455.581446,10214.842000
1934.274459,-3256.906145,-1225.752797,10881.027347
1934.274781,-2516.700203,-1225.752797,10362.883188
1934.275102,-2220.617826,-1455.581446,8808.450710
1934.275424,-444.123565,-995.924147,8512.368333
1934.275745,-1184.329507,612.876398,9918.759623
1934.276066,-444.123565,1455.581446,9918.759623
1934.276388,518.144159,1072.533697,8364.327145
1934.276709,888.247130,1149.143247,8290.306550
1934.277031,-592.164754,1838.629195,9030.512492
1934.277352,-1110.308913,842.705048,8734.430116
1934.277673,1332.370696,842.705048,7031.956449
1934.277995,1332.370696,919.314598,8290.306550
1934.278316,-1480.411884,0.000000,8956.491898
1934.278638,-1628.453072,-306.438199,9104.533087
1934.278959,-518.144159,0.000000,8882.471304
1934.279281,148.041188,536.266849,9696.697840
1934.279602,296.082377,306.438199,9548.656652
1934.279923,1554.432478,1455.581446,9474.636058
1934.280245,3775.050304,2911.162892,9622.677246
1934.280566,3775.050304,2987.772442,9474.636058
1934.280888,2960.823768,2987.772442,9844.739029
1934.281209,1776.494261,3294.210641,10436.903782
1934.281530,1406.391290,2604.724693,9622.677246
1934.281852,2442.679609,1608.800546,8808.450710
1934.282173,814.226536,1532.190996,9104.533087
1934.282495,-1480.411884,1072.533697,9400.615463
1934.282816,-3034.844362,-612.876398,8808.450710
1934.283137,-3034.844362,-1149.143247,8068.244768
1934.283459,-3330.926739,-766.095498,8586.388927
1934.283780,-4293.194464,-1149.143247,8586.388927
1934.284102,-3108.864956,-1378.971896,8512.368333
1934.284423,-296.082377,689.485948,9474.636058
1934.284745,814.226536,1072.533697,9770.718434
1934.285066,0.000000,842.705048,10584.944971
1934.285387,296.082377,1302.362347,10066.800811
1934.285709,1110.308913,1685.410096,10214.842000
1934.286030,1036.288319,842.705048,9622.677246
1934.286352,148.041188,-306.438199,9030.512492
1934.286673,-518.144159,229.828649,9326.594869
1934.286994,-1258.350101,0.000000,9474.636058
1934.287316,-592.164754,-1225.752797,8882.471304
1934.287637,-2368.659014,-1455.581446,9474.636058
1934.287959,-3034.844362,-766.095498,9770.718434
1934.288280,-1776.494261,-1225.752797,9474.636058
1934.288601,740.205942,-842.705048,8438.347739
1934.288923,1406.391290,689.485948,9104.533087
1934.289244,370.102971,919.314598,9844.739029
1934.289566,1406.391290,1532.190996,9696.697840
1934.289887,2442.679609,1532.190996,9548.656652
1934.290209,1554.432478,1072.533697,9178.553681
1934.290530,444.123565,0.000000,7920.203579
1934.290851,444.123565,0.000000,8660.409521
1934.291173,1110.308913,229.828649,9252.574275
1934.291494,74.020594,-1149.143247,9400.615463
1934.291816,-2294.638420,-1378.971896,8808.450710
1934.292137,-3034.844362,-995.924147,8808.450710
1934.292458,-2516.700203,-1378.971896,8586.388927
1934.292780,222.061783,-536.266849,9474.636058
1934.293101,1036.288319,842.705048,11399.171507
1934.293423,740.205942,2068.457845,11325.150913
1934.293744,1998.556043,1915.238745,9918.759623
1934.294065,4145.153275,2068.457845,9252.574275
1934.294387,2294.638420,2834.553343,9622.677246
1934.294708,0.000000,1608.800546,9252.574275
1934.295030,296.082377,919.314598,9326.594869
1934.295351,888.247130,1149.143247,9104.533087
1934.295673,-1258.350101,383.047749,9326.594869
1934.295994,-2812.782580,-459.657299,8586.388927
1934.296315,-3256.906145,-919.314598,7476.080014
1934.296637,-3256.906145,0.000000,7698.141797
1934.296958,-1998.556043,-459.657299,7920.203579
1934.297280,-1480.411884,536.266849,9030.512492
1934.297601,0.000000,2298.286494,9326.594869
1934.297922,1480.411884,2451.505594,9548.656652
1934.298244,2368.659014,2987.772442,8586.388927
1934.298565,1258.350101,2757.943793,10066.800811
1934.298887,74.020594,2834.553343,10066.800811
1934.299208,592.164754,1378.971896,9178.553681
1934.299529,962.267725,1072.533697,9252.574275
1934.299851,-1554.432478,536.266849,9474.636058
1934.300172,-3701.029710,-612.876398,9992.780217
1934.300494,-3701.029710,-1455.581446,8660.409521
1934.300815,-2072.576638,-1072.533697,9548.656652
1934.301137,-3182.885551,-1225.752797,9622.677246
1934.301458,-2220.617826,-766.095498,9326.594869
1934.301779,74.020594,612.876398,9178.553681
1934.302101,2516.700203,1225.752797,9178.553681
1934.302422,1776.494261,1149.143247,9400.615463
1934.302744,1110.308913,1838.629195,9844.739029
1934.303065,1406.391290,2068.457845,10436.903782
1934.303386,2220.617826,919.314598,9326.594869
1934.303708,1628.453072,-383.047749,7476.080014
1934.304029,740.205942,0.000000,8586.388927
1934.304351,-1332.370696,-229.828649,9326.594869
1934.304672,-1184.329507,-1455.581446,8512.368333
1934.304993,-1406.391290,-1915.238745,8142.265362
1934.305315,-2738.761985,-1225.752797,9104.533087
1934.305636,-2294.638420,-919.314598,8882.471304
1934.305958,814.226536,-612.876398,9030.512492
1934.306279,3108.864956,1149.143247,9696.697840
1934.306601,1998.556043,1608.800546,9992.780217
1934.306922,1184.329507,919.314598,10658.965565
1934.307243,1776.494261,1685.410096,9844.739029
1934.307565,2294.638420,1149.143247,9252.574275
1934.307886,1258.350101,0.000000,9844.739029
1934.308208,-666.185348,689.485948,9474.636058
1934.308529,-1406.391290,-306.438199,9844.739029
1934.308850,-1480.411884,-1378.971896,8364.327145
1934.309172,-2368.659014,-1838.629195,8142.265362
1934.309493,-3923.091493,-842.705048,9178.553681
1934.309815,-4219.173869,-1072.533697,8290.306550
1934.310136,-888.247130,-842.705048,8142.265362
1934.310457,1184.329507,459.657299,8660.409521
1934.310779,814.226536,1991.848295,10658.965565
1934.311100,-296.082377,1455.581446,10362.883188
1934.311422,1628.453072,1072.533697,9770.718434
1934.311743,2220.617826,1685.410096,9918.759623
1934.312065,0.000000,1072.533697,10140.821405
1934.312386,-1184.329507,689.485948,9474.636058
1934.312707,-1184.329507,76.609550,8660.409521
1934.313029,-1110.308913,383.047749,8882.471304
1934.313350,-2516.700203,-1685.410096,8586.388927
1934.313672,-3404.947333,-1532.190996,8956.491898
1934.313993,-2368.659014,0.000000,9178.553681
1934.314314,0.000000,-459.657299,9178.553681
1934.314636,1110.308913,-306.438199,8808.450710
1934.314957,1554.432478,2221.676944,10140.821405
1934.315279,1998.556043,1915.238745,9770.718434
1934.315600,3182.885551,1838.629195,8808.450710
1934.315921,3701.029710,2298.286494,9104.533087
1934.316243,1924.535449,2298.286494,9992.780217
1934.316564,740.205942,1608.800546,9400.615463
1934.316886,962.267725,919.314598,8660.409521
1934.317207,740.205942,459.657299,8364.327145
1934.317529,-1998.556043,-306.438199,8438.347739
1934.317850,-2516.700203,-612.876398,9400.615463
1934.318171,-2294.638420,-383.047749,9548.656652
1934.318493,-1702.473667,-306.438199,8438.347739
1934.318814,-1258.350101,-919.314598,8364.327145
1934.319136,0.000000,766.095498,9696.697840
1934.319457,1110.308913,2298.286494,11399.171507
1934.319778,2220.617826,2068.457845,9770.718434
1934.320100,3108.864956,2451.505594,9400.615463
1934.320421,1480.411884,3217.601092,10436.903782
1934.320743,1036.288319,2374.896044,9474.636058
1934.321064,1776.494261,842.705048,7698.141797
1934.321385,1554.432478,919.314598,7994.224174
1934.321707,-1406.391290,1225.752797,9548.656652
1934.322028,-2294.638420,-612.876398,8586.388927
1934.322350,-592.164754,-995.924147,8512.368333
1934.322671,-1554.432478,-919.314598,8808.450710
1934.322993,-3552.988522,-612.876398,9474.636058
1934.323314,-2146.597232,-1225.752797,9030.512492
1934.323635,222.061783,229.828649,9548.656652
1934.323957,1036.288319,1072.533697,9474.636058
1934.324278,1036.288319,1378.971896,9326.594869
1934.324600,148.041188,1762.019645,9992.780217
1934.324921,814.226536,1838.629195,9622.677246
1934.325242,148.041188,689.485948,8290.306550
1934.325564,0.000000,536.266849,9252.574275
1934.325885,-1776.494261,76.609550,10066.800811
1934.326207,-1924.535449,-153.219100,9252.574275
1934.326528,-1332.370696,-1149.143247,10066.800811
1934.326849,-2516.700203,-1149.143247,9696.697840
1934.327171,-4441.235652,-1225.752797,9474.636058
1934.327492,-3182.885551,-1991.848295,9400.615463
1934.327814,0.000000,-1072.533697,9030.512492
1934.328135,1110.308913,536.266849,10510.924376
1934.328456,518.144159,229.828649,10288.862594
1934.328778,740.205942,1149.143247,9548.656652
1934.329099,1628.453072,2374.896044,8586.388927
1934.329420,1554.432478,1225.752797,8808.450710
1934.329741,740.205942,919.314598,8586.388927
1934.330063,1036.288319,1225.752797,8438.347739
1934.330384,1258.350101,1302.362347,8882.471304
1934.330705,222.061783,229.828649,8512.368333
1934.331027,-444.123565,-612.876398,8216.285956
1934.331348,-2442.679609,-995.924147,8660.409521
1934.331669,-2368.659014,-766.095498,7994.224174
1934.331990,148.041188,-689.485948,8956.491898
1934.332312,1110.308913,383.047749,10658.965565
1934.332633,-296.082377,689.485948,10955.047942
1934.332954,518.144159,536.266849,9992.780217
1934.333276,1776.494261,612.876398,9548.656652
1934.333597,444.123565,1532.190996,10066.800811
1934.333918,-74.020594,842.705048,10362.883188
1934.334239,296.082377,1072.533697,8882.471304
1934.334561,1406.391290,1455.581446,7994.224174
1934.334882,-296.082377,383.047749,7846.182985
1934.335203,-2368.659014,-536.266849,8142.265362
1934.335524,-3256.906145,-919.314598,8808.450710
1934.335846,-2442.679609,-689.485948,8882.471304
1934.336167,-2368.659014,-919.314598,8290.306550
1934.336488,-1110.308913,-919.314598,9474.636058
1934.336810,-592.164754,842.705048,10066.800811
1934.337131,518.144159,1302.362347,9918.759623
1934.337452,1332.370696,766.095498,9474.636058
1934.337773,222.061783,2221.676944,10288.862594
1934.338095,-74.020594,1838.629195,10732.986159
1934.338416,1184.329507,995.924147,9474.636058
1934.338737,2220.617826,1378.971896,9918.759623
1934.339059,0.000000,1149.143247,9918.759623
1934.339380,-1850.514855,-153.219100,9178.553681
1934.339701,-1628.453072,-612.876398,9030.512492
1934.340022,-1184.329507,76.609550,8290.306550
1934.340344,-2442.679609,-612.876398,7920.203579
1934.340665,-1480.411884,-306.438199,8216.285956
1934.340986,-814.226536,536.266849,9252.574275
1934.341307,1036.288319,1225.752797,9326.594869
1934.341629,1480.411884,689.485948,9104.533087
1934.341950,962.267725,1915.238745,9918.759623
1934.342271,666.185348,2451.505594,10140.821405
1934.342593,1924.535449,1378.971896,8882.471304
1934.342914,1998.556043,459.657299,7402.059420
1934.343235,296.082377,1072.533697,9030.512492
1934.343556,-1332.370696,536.266849,9252.574275
1934.343878,-962.267725,-612.876398,9696.697840
1934.344199,0.000000,-1072.533697,9474.636058
1934.344520,-2368.659014,-383.047749,9622.677246
1934.344842,-2664.741391,-612.876398,8660.409521
1934.345163,296.082377,-536.266849,8882.471304
1934.345484,2072.576638,1532.190996,10214.842000
1934.345805,1924.535449,1991.848295,10436.903782
1934.346127,1258.350101,1838.629195,10214.842000
1934.346448,2368.659014,2451.505594,10288.862594
1934.346769,3034.844362,2298.286494,9622.677246
1934.347090,2072.576638,1302.362347,9030.512492
1934.347412,1480.411884,1455.581446,9696.697840
1934.347733,0.000000,1455.581446,8586.388927
1934.348054,-666.185348,0.000000,8364.327145
1934.348376,-1554.432478,-459.657299,8068.244768
1934.348697,-2886.803174,0.000000,8290.306550
1934.349018,-3478.967927,-383.047749,7920.203579
1934.349339,-1036.288319,153.219100,7698.141797
1934.349661,0.000000,689.485948,8438.347739
1934.349982,-518.144159,1915.238745,9474.636058
1934.350303,-1406.391290,1225.752797,9474.636058
1934.350625,148.041188,1685.410096,9474.636058
1934.350946,888.247130,2298.286494,9844.739029
1934.351267,-444.123565,1532.190996,10214.842000
1934.351588,-962.267725,612.876398,9696.697840
1934.351910,-222.061783,995.924147,8956.491898
1934.352231,-666.185348,76.609550,9770.718434
1934.352552,-2812.782580,-995.924147,9400.615463
1934.352873,-3627.009116,-1762.019645,9844.739029
1934.353195,-3552.988522,-1455.581446,8808.450710
1934.353516,-1998.556043,-1302.362347,8734.430116
1934.353837,-814.226536,-536.266849,9474.636058
1934.354159,-370.102971,689.485948,10807.006753
1934.354480,0.000000,689.485948,9400.615463
1934.354801,2146.597232,0.000000,8734.430116
1934.355122,2442.679609,1762.019645,9474.636058
1934.355444,592.164754,1685.410096,10362.883188
1934.355765,444.123565,306.438199,9548.656652
1934.356086,1998.556043,459.657299,8808.450710
1934.356408,1554.432478,459.657299,8734.430116
1934.356729,-370.102971,0.000000,8956.491898
1934.357050,-1924.535449,-766.095498,9474.636058
1934.357371,-1184.329507,-689.485948,8142.265362
1934.357693,-1406.391290,-1149.143247,9030.512492
1934.358014,-1924.535449,-995.924147,9474.636058
1934.358335,-1184.329507,-536.266849,9178.553681
1934.358656,888.247130,1225.752797,9400.615463
1934.358978,2812.782580,1685.410096,9918.759623
1934.359299,1628.453072,1302.362347,10214.842000
1934.359620,740.205942,1685.410096,10066.800811
1934.359942,1258.350101,536.266849,9030.512492
1934.360263,1998.556043,766.095498,8068.244768
1934.360584,1184.329507,1072.533697,8364.327145
1934.360905,-592.164754,383.047749,9178.553681
1934.361227,-2294.638420,0.000000,8438.347739
1934.361548,-518.144159,-459.657299,8586.388927
1934.361869,-962.267725,0.000000,8290.306550
1934.362190,-2294.638420,-229.828649,9400.615463
1934.362512,-962.267725,-76.609550,9474.636058
1934.362833,1332.370696,1302.362347,10510.924376
1934.363154,2072.576638,1762.019645,10510.924376
1934.363476,666.185348,536.266849,10732.986159
1934.363797,0.000000,1455.581446,10881.027347
1934.364118,814.226536,1302.362347,10140.821405
1934.364439,1776.494261,766.095498,9252.574275
1934.364761,1554.432478,536.266849,9770.718434
1934.365082,-370.102971,919.314598,10288.862594
1934.365403,-1332.370696,76.609550,9400.615463
1934.365725,-1184.329507,-229.828649,8808.450710
1934.366046,-2072.576638,-612.876398,7105.977043
1934.366367,-2664.741391,-536.266849,8734.430116
1934.366688,-2368.659014,229.828649,7698.141797
1934.367010,444.123565,153.219100,8364.327145
1934.367331,1110.308913,1149.143247,9326.594869
1934.367652,-1184.329507,689.485948,9030.512492
1934.367973,-962.267725,306.438199,8956.491898
1934.368295,222.061783,842.705048,9400.615463
1934.368616,148.041188,842.705048,10066.800811
1934.368937,-296.082377,76.609550,9400.615463
1934.369259,-1332.370696,459.657299,9696.697840
1934.369580,-814.226536,0.000000,8364.327145
1934.369901,-592.164754,-1302.362347,8956.491898
1934.370222,-1406.391290,0.000000,9844.739029
1934.370544,-1036.288319,-229.828649,9548.656652
1934.370865,0.000000,-76.609550,10288.862594
1934.371186,2812.782580,612.876398,9992.780217
1934.371508,2368.659014,689.485948,10362.883188
1934.371829,1776.494261,1455.581446,10140.821405
1934.372150,1998.556043,1455.581446,9844.739029
1934.372471,2664.741391,1455.581446,9622.677246
1934.372793,2072.576638,1838.629195,9844.739029
1934.373114,0.000000,459.657299,9400.615463
1934.373435,-370.102971,-153.219100,8216.285956
1934.373756,-370.102971,229.828649,7698.141797
1934.374078,-1184.329507,-306.438199,9178.553681
1934.374399,-2886.803174,-383.047749,8660.409521
1934.374720,-2368.659014,-536.266849,8586.388927
1934.375042,-1480.411884,459.657299,7846.182985
1934.375363,-444.123565,153.219100,7624.121203
1934.375684,-296.082377,536.266849,9252.574275
1934.376005,518.144159,1302.362347,9474.636058
1934.376327,1628.453072,2068.457845,9474.636058
1934.376648,2590.720797,1915.238745,9178.553681
1934.376969,222.061783,1762.019645,10881.027347
1934.377291,-1702.473667,842.705048,10288.862594
1934.377612,0.000000,612.876398,9104.533087
1934.377933,444.123565,1378.971896,10066.800811
1934.378254,-148.041188,536.266849,9622.677246
1934.378576,-2664.741391,0.000000,9992.780217
1934.378897,-1628.453072,229.828649,8882.471304
1934.379218,-814.226536,459.657299,8512.368333
1934.379539,-1036.288319,0.000000,8142.265362
1934.379861,-1702.473667,383.047749,8734.430116
1934.380182,814.226536,1915.238745,9548.656652
1934.380503,2072.576638,2068.457845,9252.574275
1934.380825,1036.288319,1378.971896,9178.553681
1934.381146,-444.123565,1149.143247,9178.553681
1934.381467,-1406.391290,1455.581446,9992.780217
1934.381788,-444.123565,76.609550,8142.265362
1934.382110,-148.041188,-459.657299,8734.430116
1934.382431,-1258.350101,229.828649,10288.862594
1934.382752,-3330.926739,-612.876398,10140.821405
1934.383074,-2590.720797,-1149.143247,9104.533087
1934.383395,-962.267725,-995.924147,9326.594869
1934.383716,-2072.576638,-689.485948,8956.491898
1934.384037,-1998.556043,-689.485948,8956.491898
1934.384359,296.082377,919.314598,9770.718434
1934.384680,2590.720797,1302.362347,9548.656652
1934.385001,2368.659014,1455.581446,9844.739029
1934.385322,962.267725,995.924147,9326.594869
1934.385644,740.205942,842.705048,9548.656652
1934.385965,1110.308913,689.485948,9400.615463
1934.386286,1332.370696,0.000000,9622.677246
1934.386608,0.000000,0.000000,9474.636058
1934.386929,-740.205942,-229.828649,9178.553681
1934.387250,0.000000,-383.047749,8438.347739
1934.387571,0.000000,-1225.752797,8438.347739
1934.387893,-1258.350101,-383.047749,9548.656652
1934.388214,-1702.473667,-306.438199,9992.780217
1934.388535,74.020594,383.047749,9400.615463
1934.388857,2590.720797,919.314598,8956.491898
1934.389178,1702.473667,1762.019645,9400.615463
1934.389499,296.082377,1685.410096,9474.636058
1934.389820,1332.370696,2145.067394,9474.636058
1934.390142,814.226536,1532.190996,9474.636058
1934.390463,370.102971,612.876398,9622.677246
1934.390784,-1036.288319,76.609550,8956.491898
1934.391105,-1110.308913,842.705048,8882.471304
1934.391427,-370.102971,-229.828649,9326.594869
1934.391748,-1850.514855,-383.047749,8586.388927
1934.392069,-2442.679609,153.219100,9474.636058
1934.392391,-2294.638420,153.219100,9474.636058
1934.392712,-962.267725,0.000000,8438.347739
1934.393033,148.041188,229.828649,8734.430116
1934.393354,-74.020594,1608.800546,9696.697840
1934.393676,296.082377,1608.800546,9844.739029
1934.393997,1850.514855,1838.629195,8290.306550
1934.394318,1554.432478,1378.971896,8734.430116
1934.394640,0.000000,1608.800546,9918.759623
1934.394961,-592.164754,689.485948,9474.636058
1934.395282,592.164754,612.876398,9474.636058
1934.395603,518.144159,536.266849,9400.615463
1934.395925,-1702.473667,-229.828649,10066.800811
1934.396246,-2590.720797,-766.095498,10066.800811
1934.396567,-1332.370696,0.000000,9474.636058
1934.396888,-370.102971,-153.219100,8734.430116
1934.397210,-444.123565,0.000000,8512.368333
1934.397531,0.000000,1072.533697,9622.677246
1934.397852,814.226536,1915.238745,10362.883188
1934.398174,1702.473667,1378.971896,9474.636058
1934.398495,962.267725,995.924147,8734.430116
1934.398816,74.020594,1838.629195,9474.636058
1934.399137,-888.247130,766.095498,8586.388927
1934.399459,740.205942,153.219100,7846.182985
1934.399780,962.267725,306.438199,8290.306550
1934.400101,-1406.391290,229.828649,8956.491898
1934.400423,-2590.720797,-842.705048,9178.553681
1934.400744,-1036.288319,-1225.752797,8660.409521
1934.401065,-518.144159,-1072.533697,9030.512492
1934.401386,-740.205942,-383.047749,9252.574275
1934.401708,-296.082377,459.657299,10066.800811
1934.402029,1924.535449,995.924147,9844.739029
1934.402350,2738.761985,1762.019645,10436.903782
1934.402671,2368.659014,1455.581446,10362.883188
1934.402993,1406.391290,1762.019645,11177.109724
1934.403314,1776.494261,2068.457845,9696.697840
1934.403635,3034.844362,1149.143247,9622.677246
1934.403957,1850.514855,612.876398,8956.491898
1934.404278,-444.123565,766.095498,9770.718434
1934.404599,-1998.556043,229.828649,8438.347739
1934.404920,-1776.494261,-842.705048,7328.038826
1934.405242,-2516.700203,-612.876398,8068.244768
1934.405563,-3034.844362,-689.485948,8808.450710
1934.405884,-3256.906145,-383.047749,8734.430116
1934.406206,-592.164754,-383.047749,8734.430116
1934.406527,0.000000,842.705048,9252.574275
1934.406848,-1480.411884,1225.752797,9474.636058
1934.407169,-1184.329507,1532.190996,9918.759623
1934.407491,518.144159,2145.067394,9474.636058
1934.407812,1110.308913,2451.505594,8956.491898
1934.408133,370.102971,766.095498,8512.368333
1934.408454,-1184.329507,842.705048,9252.574275
1934.408776,-1110.308913,995.924147,9918.759623
1934.409097,-1110.308913,-612.876398,9326.594869
1934.409418,-1850.514855,-766.095498,9104.533087
1934.409740,-1850.514855,0.000000,9252.574275
1934.410061,-1776.494261,-229.828649,9548.656652
1934.410382,1554.432478,612.876398,8882.471304
1934.410703,962.267725,1455.581446,9770.718434
1934.411025,888.247130,1608.800546,10066.800811
1934.411346,666.185348,1685.410096,10066.800811
1934.411667,2960.823768,2298.286494,9252.574275
1934.411989,2368.659014,1762.019645,9474.636058
1934.412310,0.000000,842.705048,8216.285956
1934.412631,-666.185348,229.828649,8290.306550
1934.412952,-740.205942,-612.876398,8660.409521
1934.413274,-1554.432478,-842.705048,8808.450710
1934.413595,-3108.864956,-2145.067394,9400.615463
1934.413916,-3701.029710,-1225.752797,9252.574275
1934.414237,-2368.659014,-1532.190996,9030.512492
1934.414559,0.000000,-1225.752797,8586.388927
1934.414880,518.144159,459.657299,9770.718434
1934.415201,1184.329507,2298.286494,10807.006753
1934.415523,2220.617826,1915.238745,10214.842000
1934.415844,4589.276840,1685.410096,9844.739029
1934.416165,3256.906145,1915.238745,10288.862594
1934.416486,1184.329507,1532.190996,10510.924376
1934.416808,740.205942,842.705048,9474.636058
1934.417129,1628.453072,0.000000,8808.450710
1934.417450,-444.123565,76.609550,8142.265362
1934.417772,-2442.679609,-919.314598,9104.533087
1934.418093,-3627.009116,-1991.848295,8438.347739
1934.418414,-3034.844362,-1225.752797,8290.306550
1934.418735,-2146.597232,-1225.752797,8438.347739
1934.419057,-2146.597232,-689.485948,8882.471304
1934.419378,-592.164754,536.266849,9326.594869
1934.419699,888.247130,1532.190996,9548.656652
1934.420020,1776.494261,1072.533697,9252.574275
1934.420342,740.205942,1302.362347,9696.697840
1934.420663,0.000000,1149.143247,9696.697840
1934.420984,1628.453072,1072.533697,9548.656652
1934.421306,2368.659014,689.485948,8734.430116
1934.421627,592.164754,536.266849,9548.656652
1934.421948,-1554.432478,0.000000,9844.739029
1934.422269,-2886.803174,-689.485948,8734.430116
1934.422591,-962.267725,-1149.143247,6957.935855
1934.422912,-2368.659014,-1149.143247,8956.491898
1934.423233,-3034.844362,-612.876398,9622.677246
1934.423554,-1702.473667,-383.047749,9992.780217
1934.423876,1554.432478,766.095498,9474.636058
1934.424197,592.164754,383.047749,9696.697840
1934.424518,-222.061783,383.047749,9844.739029
1934.424840,-444.123565,919.314598,11029.068536
1934.425161,814.226536,612.876398,9696.697840
1934.425482,1036.288319,-153.219100,9622.677246
1934.425803,0.000000,0.000000,9622.677246
1934.426125,-2220.617826,0.000000,10140.821405
1934.426446,-1406.391290,-612.876398,8586.388927
1934.426767,-518.144159,-1149.143247,7994.224174
1934.427089,-1258.350101,0.000000,8734.430116
1934.427410,-1628.453072,383.047749,9326.594869
1934.427731,592.164754,536.266849,8882.471304
1934.428052,4145.153275,1532.190996,9400.615463
1934.428374,2664.741391,2757.943793,10658.965565
1934.428695,2072.576638,2834.553343,9696.697840
1934.429016,2442.679609,2451.505594,10140.821405
1934.429337,2886.803174,3447.429741,9104.533087
1934.429659,1702.473667,1762.019645,8660.409521
1934.429980,962.267725,1532.190996,8364.327145
1934.430301,-888.247130,1378.971896,8364.327145
1934.430623,-1110.308913,612.876398,7994.224174
1934.430944,-1702.473667,-612.876398,7476.080014
1934.431261,-2738.761985,1072.533697,7624.121203
1934.431582,-3478.967927,689.485948,7624.121203
1934.431904,-1258.350101,229.828649,8068.244768
1934.432225,1110.308913,842.705048,8142.265362
1934.432546,0.000000,1455.581446,9844.739029
1934.432868,-1406.391290,1685.410096,10436.903782
1934.433189,296.082377,1532.190996,9844.739029
1934.433510,1110.308913,2221.676944,10288.862594
1934.433831,-666.185348,1072.533697,10807.006753
1934.434153,-962.267725,0.000000,10955.047942
1934.434474,-740.205942,536.266849,9548.656652
1934.434795,-74.020594,153.219100,9326.594869
1934.435116,-2072.576638,-766.095498,9326.594869
1934.435438,-3330.926739,-459.657299,9474.636058
1934.435759,-2738.761985,-383.047749,8364.327145
1934.436080,-814.226536,-383.047749,8438.347739
1934.436401,0.000000,0.000000,9252.574275
1934.436723,0.000000,689.485948,9992.780217
1934.437044,1406.391290,1532.190996,10214.842000
1934.437365,1628.453072,1072.533697,8512.368333
1934.437686,1554.432478,1225.752797,9178.553681
1934.438008,444.123565,1608.800546,9918.759623
1934.438329,-222.061783,459.657299,9178.553681
1934.438650,296.082377,229.828649,8068.244768
1934.438971,444.123565,0.000000,8882.471304
1934.439293,-1480.411884,-689.485948,9252.574275
1934.439614,-2590.720797,-1225.752797,9252.574275
1934.439935,-2220.617826,-1302.362347,9178.553681
1934.440256,-1332.370696,-766.095498,8734.430116
1934.440578,-1628.453072,-1762.019645,8216.285956
1934.440899,-666.185348,-459.657299,8734.430116
1934.441220,666.185348,766.095498,9918.759623
1934.441541,1850.514855,1225.752797,10214.842000
1934.441863,2072.576638,995.924147,10140.821405
1934.442184,1036.288319,1378.971896,10288.862594
1934.442505,518.144159,536.266849,10214.842000
1934.442826,1850.514855,383.047749,9030.512492
1934.443148,1554.432478,-229.828649,8660.409521
1934.443469,-370.102971,76.609550,9474.636058
1934.443790,-2072.576638,-153.219100,8956.491898
1934.444111,-444.123565,-689.485948,8586.388927
1934.444433,-148.041188,-689.485948,8808.450710
1934.444754,-1554.432478,-766.095498,8808.450710
1934.445075,-1480.411884,-536.266849,9400.615463
1934.445397,740.205942,919.314598,8808.450710
1934.445718,2368.659014,1685.410096,9548.656652
1934.446039,888.247130,1762.019645,9622.677246
1934.446360,148.041188,1378.971896,9992.780217
1934.446682,74.020594,1532.190996,9696.697840
1934.447003,444.123565,766.095498,9474.636058
1934.447324,0.000000,0.000000,9104.533087
1934.447645,-444.123565,612.876398,9400.615463
1934.447967,-2072.576638,1072.533697,9252.574275
1934.448288,-1110.308913,-766.095498,9104.533087
1934.448609,-1702.473667,-612.876398,8586.388927
1934.448930,-2886.803174,-306.438199,8438.347739
1934.449252,-2294.638420,-383.047749,8438.347739
1934.449573,0.000000,0.000000,8290.306550
1934.449894,1110.308913,1302.362347,9474.636058
1934.450215,518.144159,1225.752797,9844.739029
1934.450537,370.102971,995.924147,9992.780217
1934.450858,814.226536,1532.190996,9622.677246
1934.451179,74.020594,1072.533697,9770.718434
1934.451500,-296.082377,612.876398,9770.718434
1934.451822,0.000000,459.657299,9548.656652
1934.452143,518.144159,1149.143247,9622.677246
1934.452464,0.000000,-459.657299,9104.533087
1934.452785,-1480.411884,-689.485948,9030.512492
1934.453107,-2368.659014,-1072.533697,9474.636058
1934.453428,-1776.494261,-229.828649,9178.553681
1934.453749,0.000000,-306.438199,7772.162391
1934.454070,1258.350101,536.266849,9474.636058
1934.454392,444.123565,1302.362347,10584.944971
1934.454713,1036.288319,1072.533697,9844.739029
1934.455034,1628.453072,1685.410096,9844.739029
1934.455355,1184.329507,2145.067394,9696.697840
1934.455677,148.041188,1532.190996,9918.759623
1934.455998,518.144159,842.705048,8734.430116
1934.456319,1924.535449,1149.143247,8734.430116
1934.456641,222.061783,536.266849,8586.388927
1934.456962,-1184.329507,-306.438199,8364.327145
1934.457283,-2072.576638,-153.219100,8438.347739
1934.457604,-1628.453072,0.000000,8142.265362
1934.457926,-1036.288319,0.000000,8734.430116
1934.458247,-518.144159,229.828649,9400.615463
1934.458568,-148.041188,1149.143247,9770.718434
1934.458889,0.000000,1302.362347,9844.739029
1934.459211,1110.308913,1149.143247,9104.533087
1934.459532,1110.308913,2757.943793,10066.800811
1934.459853,-444.123565,2298.286494,10881.027347
1934.460174,-518.144159,1072.533697,9918.759623
1934.460496,1036.288319,1072.533697,9844.739029
1934.460817,0.000000,995.924147,9474.636058
1934.461138,-2146.597232,76.609550,8734.430116
1934.461459,-2368.659014,0.000000,8438.347739
1934.461781,-1406.391290,0.000000,8734.430116
1934.462102,-1480.411884,-383.047749,8142.265362
1934.462423,-1924.535449,-536.266849,8512.368333
1934.462744,-740.205942,689.485948,8956.491898
1934.463066,1776.494261,1608.800546,9252.574275
1934.463387,1702.473667,1378.971896,9474.636058
1934.463708,222.061783,1915.238745,9770.718434
1934.464029,74.020594,1608.800546,10140.821405
1934.464351,740.205942,1378.971896,9030.512492
1934.464672,1258.350101,153.219100,8512.368333
1934.464993,148.041188,306.438199,9844.739029
1934.465314,-1258.350101,306.438199,10214.842000
1934.465636,-592.164754,-383.047749,9992.780217
1934.465957,-666.185348,-612.876398,9474.636058
1934.466278,-2072.576638,-536.266849,8586.388927
1934.466599,-2738.761985,-766.095498,9030.512492
1934.466921,-666.185348,0.000000,9400.615463
1934.467242,1184.329507,612.876398,9252.574275
1934.467563,1110.308913,1149.143247,9474.636058
1934.467884,-222.061783,995.924147,9104.533087
1934.468206,444.123565,1302.362347,9326.594869
1934.468527,1184.329507,995.924147,8660.409521
1934.468848,666.185348,0.000000,8364.327145
1934.469170,-814.226536,306.438199,9474.636058
1934.469491,-814.226536,0.000000,10288.862594
1934.469812,-592.164754,-689.485948,9252.574275
1934.470133,-370.102971,-995.924147,8586.388927
1934.470455,-1850.514855,-306.438199,8438.347739
1934.470776,-2220.617826,-306.438199,7772.162391
1934.471097,0.000000,0.000000,7772.162391
1934.471418,2072.576638,842.705048,8660.409521
1934.471740,1036.288319,2145.067394,9400.615463
1934.472061,444.123565,1915.238745,10214.842000
1934.472382,1332.370696,1378.971896,10140.821405
1934.472703,2812.782580,1915.238745,10510.924376
1934.473025,1258.350101,1378.971896,9400.615463
1934.473346,148.041188,766.095498,9252.574275
1934.473667,0.000000,995.924147,9474.636058
1934.473988,444.123565,229.828649,8660.409521
1934.474310,-1554.432478,-1225.752797,9474.636058
1934.474631,-3849.070898,-1532.190996,9400.615463
1934.474952,-4219.173869,-1149.143247,9400.615463
1934.475273,-2146.597232,-1302.362347,8142.265362
1934.475595,-222.061783,-229.828649,9326.594869
1934.475916,-814.226536,1072.533697,9696.697840
1934.476237,-962.267725,689.485948,8808.450710
1934.476558,888.247130,1302.362347,8438.347739
1934.476880,1998.556043,1532.190996,9400.615463
1934.477201,518.144159,1302.362347,10214.842000
1934.477522,-444.123565,383.047749,10140.821405
1934.477843,888.247130,0.000000,9400.615463
1934.478165,1110.308913,-153.219100,9696.697840
1934.478486,-888.247130,-689.485948,11177.109724
1934.478807,-2664.741391,-1302.362347,9622.677246
1934.479128,-2146.597232,-919.314598,9326.594869
1934.479450,-518.144159,-689.485948,8660.409521
1934.479771,-148.041188,-1072.533697,9252.574275
1934.480092,444.123565,766.095498,9252.574275
1934.480413,1628.453072,1149.143247,9992.780217
1934.480735,3478.967927,2221.676944,9400.615463
1934.481056,3552.988522,2221.676944,9474.636058
1934.481377,1850.514855,2221.676944,9622.677246
1934.481699,1332.370696,1532.190996,8808.450710
1934.482020,1702.473667,1225.752797,8290.306550
1934.482341,666.185348,459.657299,8586.388927
1934.482662,-1554.432478,0.000000,9474.636058
1934.482984,-3404.947333,-459.657299,8142.265362
1934.483305,-2368.659014,-842.705048,8216.285956
1934.483626,-2146.597232,-766.095498,9400.615463
1934.483947,-3108.864956,-536.266849,9104.533087
1934.484269,-1850.514855,0.000000,9474.636058
1934.484590,592.164754,1991.848295,9622.677246
1934.484911,2368.659014,3064.381992,9030.512492
1934.485232,2072.576638,2068.457845,8956.491898
1934.485554,1332.370696,2604.724693,10066.800811
1934.485875,1406.391290,3370.820191,10584.944971
1934.486196,1850.514855,1685.410096,9474.636058
1934.486517,888.247130,919.314598,8956.491898
1934.486839,-740.205942,1302.362347,9622.677246
1934.487160,-2516.700203,689.485948,9400.615463
1934.487481,-2146.597232,-842.705048,8808.450710
1934.487802,-1998.556043,-842.705048,8068.244768
1934.488124,-3701.029710,-459.657299,8364.327145
1934.488445,-3034.844362,0.000000,8438.347739
1934.488766,0.000000,459.657299,8808.450710
1934.489087,1184.329507,1532.190996,9770.718434
1934.489409,0.000000,1608.800546,9844.739029
1934.489730,-444.123565,1455.581446,10288.862594
1934.490051,148.041188,1685.410096,9474.636058
1934.490372,0.000000,383.047749,9104.533087
1934.490694,-592.164754,-306.438199,9474.636058
1934.491015,-1554.432478,0.000000,9918.759623
1934.491336,-1850.514855,-383.047749,9474.636058
1934.491657,-1406.391290,-1378.971896,8512.368333
1934.491979,-1628.453072,-1455.581446,9326.594869
1934.492300,-3256.906145,-612.876398,9696.697840
1934.492621,-1110.308913,-919.314598,9400.615463
1934.492942,2220.617826,0.000000,8734.430116
1934.493264,3034.844362,1302.362347,9622.677246
1934.493585,2294.638420,1762.019645,10436.903782
1934.493906,2516.700203,919.314598,9918.759623
1934.494228,3256.906145,1685.410096,9326.594869
1934.494549,1998.556043,766.095498,9696.697840
1934.494870,592.164754,229.828649,9548.656652
1934.495191,0.000000,-383.047749,8808.450710
1934.495513,592.164754,153.219100,8364.327145
1934.495834,0.000000,-306.438199,9104.533087
1934.496155,-2368.659014,-1149.143247,9400.615463
1934.496476,-2220.617826,-995.924147,9326.594869
1934.496798,-1406.391290,-153.219100,8364.327145
1934.497119,370.102971,-229.828649,7920.203579
1934.497440,444.123565,919.314598,8956.491898
1934.497761,592.164754,1685.410096,10436.903782
1934.498083,1480.411884,1608.800546,10436.903782
1934.498404,1850.514855,1378.971896,9770.718434
1934.498725,518.144159,1762.019645,10732.986159
1934.499046,-888.247130,1838.629195,10214.842000
1934.499368,-1110.308913,-229.828649,8586.388927
1934.499689,-296.082377,0.000000,7624.121203
1934.500010,-1554.432478,0.000000,8956.491898
1934.500331,-3034.844362,-689.485948,8956.491898
1934.500653,-2960.823768,-842.705048,8512.368333
1934.500974,-1110.308913,-153.219100,7402.059420
1934.501295,-666.185348,0.000000,7920.203579
1934.501616,-814.226536,306.438199,8512.368333
1934.501938,888.247130,1149.143247,9548.656652
1934.502259,1702.473667,2068.457845,9548.656652
1934.502580,2368.659014,1378.971896,9030.512492
1934.502901,666.185348,1225.752797,10362.883188
1934.503223,-296.082377,1455.581446,10955.047942
1934.503544,148.041188,153.219100,10214.842000
1934.503865,444.123565,-919.314598,9326.594869
1934.504186,-592.164754,153.219100,10066.800811
1934.504508,-2516.700203,-459.657299,10807.006753
1934.504829,-2442.679609,-1225.752797,9474.636058
1934.505150,-888.247130,-1149.143247,9474.636058
1934.505472,-1776.494261,-766.095498,8882.471304
1934.505793,-1998.556043,-1302.362347,9030.512492
1934.506114,0.000000,-306.438199,8882.471304
1934.506435,2220.617826,919.314598,9770.718434
1934.506757,1702.473667,1532.190996,9844.739029
1934.507078,1036.288319,612.876398,9770.718434
1934.507399,444.123565,1378.971896,9992.780217
1934.507720,222.061783,1072.533697,8364.327145
1934.508042,666.185348,0.000000,7476.080014
1934.508363,370.102971,612.876398,8808.450710
1934.508684,-1110.308913,459.657299,9918.759623
1934.509005,-814.226536,-153.219100,9474.636058
1934.509327,296.082377,-536.266849,8586.388927
1934.509648,-1110.308913,0.000000,8734.430116
1934.509969,-1702.473667,536.266849,9696.697840
1934.510290,444.123565,459.657299,8290.306550
1934.510612,3701.029710,1378.971896,8438.347739
1934.510933,2886.803174,2068.457845,9474.636058
1934.511254,1554.432478,2604.724693,9770.718434
1934.511575,1702.473667,2604.724693,9844.739029
1934.511897,1924.535449,2528.115143,9622.677246
1934.512218,888.247130,1608.800546,9030.512492
1934.512539,-444.123565,995.924147,9326.594869
1934.512860,-814.226536,1685.410096,8734.430116
1934.513182,-296.082377,536.266849,7772.162391
1934.513503,-2294.638420,-383.047749,7328.038826
1934.513824,-4071.132681,-229.828649,8216.285956
1934.514145,-3997.112087,-306.438199,8808.450710
1934.514467,-2664.741391,-536.266849,8956.491898
1934.514788,0.000000,76.609550,9178.553681
1934.515109,-592.164754,459.657299,9104.533087
1934.515430,-1628.453072,2068.457845,10362.883188
1934.515752,-370.102971,1302.362347,9252.574275
1934.516073,1628.453072,1225.752797,9770.718434
1934.516394,444.123565,1915.238745,11251.130318
1934.516715,0.000000,1149.143247,10140.821405
1934.517037,592.164754,459.657299,10362.883188
1934.517358,1776.494261,153.219100,10214.842000
1934.517679,-518.144159,-229.828649,9474.636058
1934.518001,-1776.494261,-1455.581446,9104.533087
1934.518322,-2368.659014,-842.705048,8882.471304
1934.518643,-1332.370696,-995.924147,7772.162391
1934.518964,-814.226536,-1072.533697,8586.388927
1934.519286,-740.205942,0.000000,9252.574275
1934.519607,-592.164754,766.095498,10066.800811
1934.519928,962.267725,306.438199,8216.285956
1934.520249,1628.453072,459.657299,9030.512492
1934.520571,0.000000,1532.190996,10362.883188
1934.520892,-740.205942,536.266849,9622.677246
1934.521213,740.205942,-153.219100,8142.265362
1934.521534,962.267725,0.000000,8586.388927
1934.521856,-74.020594,153.219100,9400.615463
1934.522177,-1702.473667,-842.705048,9622.677246
1934.522498,-962.267725,-612.876398,9400.615463
1934.522819,-444.123565,-306.438199,8882.471304
1934.523141,-962.267725,-1072.533697,8882.471304
1934.523462,-962.267725,-612.876398,9178.553681
1934.523783,814.226536,919.314598,8956.491898
1934.524104,2146.597232,1762.019645,10066.800811
1934.524426,1850.514855,1762.019645,10955.047942
1934.524747,518.144159,1532.190996,11547.212695
1934.525068,1184.329507,2221.676944,10214.842000
1934.525389,2368.659014,612.876398,8882.471304
1934.525711,1258.350101,689.485948,8438.347739
1934.526032,-962.267725,689.485948,9696.697840
1934.526353,-1850.514855,0.000000,8956.491898
1934.526674,-1480.411884,-689.485948,7476.080014
1934.526996,-962.267725,-689.485948,6957.935855
1934.527317,-2220.617826,0.000000,8068.244768
1934.527638,-1850.514855,306.438199,8068.244768
1934.527959,962.267725,842.705048,9548.656652
1934.528281,2220.617826,1915.238745,9918.759623
1934.528602,592.164754,1991.848295,10584.944971
1934.528923,444.123565,2068.457845,10214.842000
1934.529244,1628.453072,1915.238745,10214.842000
1934.529566,2294.638420,2221.676944,10066.800811
1934.529887,1258.350101,1072.533697,10807.006753
1934.530208,-888.247130,0.000000,10732.986159
1934.530530,-1258.350101,-459.657299,9548.656652
1934.530851,-1554.432478,-1302.362347,8512.368333
1934.531172,-2664.741391,-1455.581446,9030.512492
1934.531494,-3997.112087,-919.314598,9178.553681
1934.531815,-3256.906145,-689.485948,7846.182985
1934.532136,-296.082377,-842.705048,7254.018232
1934.532458,592.164754,842.705048,8438.347739
1934.532779,666.185348,1149.143247,9622.677246
1934.533101,1258.350101,1685.410096,9992.780217
1934.533422,2368.659014,1915.238745,10214.842000
1934.533743,1702.473667,1608.800546,10584.944971
1934.534065,518.144159,689.485948,9770.718434
1934.534386,0.000000,76.609550,9030.512492
1934.534707,518.144159,153.219100,9030.512492
1934.535029,-1036.288319,76.609550,9474.636058
1934.535350,-1998.556043,-1455.581446,9474.636058
1934.535672,-2664.741391,-995.924147,9400.615463
1934.535993,-2368.659014,-766.095498,7994.224174
1934.536314,-370.102971,-383.047749,8068.244768
1934.536636,1036.288319,612.876398,9252.574275
1934.536957,1332.370696,2604.724693,9844.739029
1934.537278,1998.556043,2911.162892,9548.656652
1934.537600,4293.194464,2298.286494,9622.677246
1934.537921,2368.659014,2681.334243,10288.862594
1934.538243,666.185348,1915.238745,9252.574275
1934.538564,592.164754,689.485948,9178.553681
1934.538885,888.247130,842.705048,9178.553681
1934.539207,-740.205942,459.657299,9474.636058
1934.539528,-2960.823768,-1149.143247,8438.347739
1934.539849,-3923.091493,-1149.143247,7846.182985
1934.540171,-2960.823768,-612.876398,7624.121203
1934.540492,-2442.679609,-842.705048,8068.244768
1934.540814,-2368.659014,0.000000,8586.388927
1934.541135,-888.247130,1225.752797,9474.636058
1934.541456,1258.350101,1838.629195,10288.862594
1934.541778,2294.638420,1455.581446,9474.636058
1934.542099,814.226536,2374.896044,9696.697840
1934.542420,0.000000,2987.772442,11473.192101
1934.542742,888.247130,1455.581446,9992.780217
1934.543063,1776.494261,842.705048,8956.491898
1934.543385,592.164754,1455.581446,9622.677246
1934.543706,-1924.535449,459.657299,9696.697840
1934.544027,-2368.659014,-612.876398,8956.491898
1934.544349,-1036.288319,-1378.971896,8290.306550
1934.544670,-1406.391290,-536.266849,8512.368333
1934.544992,-2220.617826,-306.438199,9474.636058
1934.545313,-1036.288319,229.828649,9400.615463
1934.545634,2220.617826,919.314598,9474.636058
1934.545956,3034.844362,1685.410096,9918.759623
1934.546277,740.205942,1608.800546,10288.862594
1934.546598,296.082377,1455.581446,10732.986159
1934.546920,1332.370696,1072.533697,9622.677246
1934.547241,1184.329507,0.000000,8956.491898
1934.547563,-666.185348,-459.657299,10140.821405
1934.547884,-2368.659014,-383.047749,9992.780217
1934.548205,-1998.556043,-1455.581446,8734.430116
1934.548527,-1036.288319,-919.314598,8586.388927
1934.548848,-2886.803174,-612.876398,9548.656652
1934.549169,-3775.050304,-1608.800546,8290.306550
1934.549491,-1332.370696,-459.657299,7328.038826
1934.549812,2368.659014,612.876398,7920.203579
1934.550134,2368.659014,1532.190996,9992.780217
1934.550455,1480.411884,1302.362347,9918.759623
1934.550776,2442.679609,1608.800546,10214.842000
1934.551098,2960.823768,1915.238745,9770.718434
1934.551419,1554.432478,612.876398,9548.656652
1934.551740,814.226536,306.438199,9474.636058
1934.552062,222.061783,766.095498,8956.491898
1934.552383,-296.082377,76.609550,7846.182985
1934.552705,-518.144159,-689.485948,7846.182985
1934.553026,-2146.597232,-612.876398,9252.574275
1934.553347,-4219.173869,-383.047749,8290.306550
1934.553669,-1924.535449,-919.314598,7254.018232
1934.553990,222.061783,-536.266849,7994.224174
1934.554311,0.000000,1225.752797,10288.862594
1934.554633,-518.144159,1225.752797,11325.150913
1934.554954,444.123565,1532.190996,10066.800811
1934.555276,1036.288319,1225.752797,9104.533087
1934.555597,0.000000,1532.190996,10362.883188
1934.555918,-1628.453072,612.876398,10584.944971
1934.556240,-666.185348,-306.438199,10066.800811
1934.556561,-296.082377,153.219100,9844.739029
1934.556882,-1998.556043,-689.485948,9326.594869
1934.557204,-3775.050304,-1378.971896,9252.574275
1934.557525,-3330.926739,-1378.971896,7994.224174
1934.557847,-1480.411884,-1378.971896,7105.977043
1934.558168,-740.205942,0.000000,7624.121203
1934.558489,-148.041188,536.266849,9326.594869
1934.558811,666.185348,1455.581446,10288.862594
1934.559132,1924.535449,995.924147,8734.430116
1934.559454,2368.659014,919.314598,9326.594869
1934.559775,962.267725,1455.581446,10732.986159
1934.560096,0.000000,1225.752797,10658.965565
1934.560418,1850.514855,306.438199,9474.636058
1934.560739,1924.535449,383.047749,10732.986159
1934.561060,-518.144159,229.828649,9844.739029
1934.561382,-2368.659014,-995.924147,8882.471304
1934.561703,-1480.411884,-612.876398,9030.512492
1934.562025,444.123565,-459.657299,9400.615463
1934.562346,-1036.288319,-612.876398,8364.327145
1934.562667,-1036.288319,0.000000,8808.450710
1934.562989,296.082377,536.266849,9400.615463
1934.563310,1850.514855,995.924147,9400.615463
1934.563631,1406.391290,1225.752797,8956.491898
1934.563953,1036.288319,1991.848295,9770.718434
1934.564274,222.061783,1532.190996,9474.636058
1934.564596,1036.288319,995.924147,8734.430116
1934.564917,1406.391290,1149.143247,9030.512492
1934.565238,-592.164754,1225.752797,9030.512492
1934.565560,-1554.432478,612.876398,8660.409521
1934.565881,-370.102971,153.219100,7846.182985
1934.566202,222.061783,919.314598,8438.347739
1934.566524,-1258.350101,766.095498,7550.100608
1934.566845,-888.247130,689.485948,8216.285956
1934.567167,1036.288319,1149.143247,8808.450710
1934.567488,1850.514855,2451.505594,9252.574275
1934.567809,1702.473667,1838.629195,11103.089130
1934.568131,592.164754,1838.629195,10140.821405
1934.568452,444.123565,1685.410096,10140.821405
1934.568773,148.041188,1455.581446,9992.780217
1934.569095,74.020594,995.924147,10510.924376
1934.569416,-1184.329507,1072.533697,10066.800811
1934.569738,-1628.453072,842.705048,9548.656652
1934.570059,-1184.329507,0.000000,7920.203579
1934.570380,-1776.494261,0.000000,8586.388927
1934.570702,-2960.823768,0.000000,8808.450710
1934.571023,-2516.700203,-306.438199,8438.347739
1934.571344,-888.247130,-153.219100,7772.162391
1934.571666,518.144159,1072.533697,9104.533087
1934.571987,-962.267725,1302.362347,9918.759623
1934.572309,-1480.411884,536.266849,9622.677246
1934.572630,0.000000,1149.143247,10214.842000
1934.572951,-148.041188,842.705048,9252.574275
1934.573273,-888.247130,689.485948,9918.759623
1934.573594,-666.185348,689.485948,9548.656652
1934.573916,74.020594,306.438199,9474.636058
1934.574237,370.102971,-153.219100,9474.636058
1934.574558,-1184.329507,-536.266849,9400.615463
1934.574880,-2146.597232,-459.657299,9252.574275
1934.575201,-1332.370696,-995.924147,8660.409521
1934.575522,888.247130,-766.095498,7994.224174
1934.575844,2072.576638,0.000000,9104.533087
1934.576165,370.102971,1302.362347,10362.883188
1934.576487,888.247130,1072.533697,9548.656652
1934.576808,1998.556043,689.485948,9030.512492
1934.577129,1702.473667,995.924147,9030.512492
1934.577451,296.082377,689.485948,9770.718434
1934.577772,222.061783,536.266849,9474.636058
1934.578093,2442.679609,459.657299,9178.553681
1934.578415,1406.391290,383.047749,9474.636058
1934.578736,-814.226536,-842.705048,8586.388927
1934.579058,-1924.535449,-919.314598,9622.677246
1934.579379,-888.247130,-766.095498,9030.512492
1934.579700,0.000000,-1455.581446,8882.471304
1934.580022,-222.061783,-536.266849,9696.697840
1934.580343,-370.102971,1072.533697,10140.821405
1934.580664,740.205942,842.705048,8734.430116
1934.580986,1332.370696,1149.143247,8660.409521
1934.581307,1036.288319,1072.533697,9696.697840
1934.581629,-592.164754,1072.533697,10362.883188
1934.581950,-444.123565,842.705048,9696.697840
1934.582271,1702.473667,689.485948,9104.533087
1934.582593,296.082377,536.266849,9326.594869
1934.582914,-2146.597232,-229.828649,8882.471304
1934.583235,-2664.741391,-766.095498,7994.224174
1934.583557,-1480.411884,-536.266849,7624.121203
1934.583878,-1480.411884,-459.657299,8290.306550
1934.584200,-1924.535449,-459.657299,9104.533087
1934.584521,-1406.391290,0.000000,9030.512492
1934.584842,370.102971,1149.143247,9326.594869
1934.585164,1036.288319,612.876398,9918.759623
1934.585485,0.000000,612.876398,10214.842000
1934.585806,0.000000,842.705048,11251.130318
1934.586128,1036.288319,1149.143247,10066.800811
1934.586449,2146.597232,459.657299,9696.697840
1934.586771,592.164754,612.876398,9918.759623
1934.587092,-1184.329507,842.705048,11103.089130
1934.587413,-1110.308913,-306.438199,9696.697840
1934.587735,-444.123565,-689.485948,9474.636058
1934.588056,-740.205942,-306.438199,9178.553681
1934.588378,-2220.617826,-306.438199,9252.574275
1934.588699,-1480.411884,0.000000,8956.491898
1934.589020,592.164754,306.438199,9104.533087
1934.589342,592.164754,1302.362347,9400.615463
1934.589663,0.000000,1149.143247,9104.533087
1934.589984,-222.061783,1762.019645,8956.491898
1934.590306,1184.329507,1838.629195,8068.244768
1934.590627,1110.308913,1302.362347,7994.224174
1934.590949,74.020594,1149.143247,8956.491898
1934.591270,-370.102971,1225.752797,9400.615463
1934.591591,74.020594,536.266849,7994.224174
1934.591913,148.041188,153.219100,7846.182985
1934.592234,-962.267725,689.485948,8660.409521
1934.592555,-1554.432478,459.657299,8660.409521
1934.592877,148.041188,689.485948,8068.244768
1934.593198,2072.576638,919.314598,8290.306550
1934.593520,1850.514855,2374.896044,10214.842000
1934.593841,666.185348,2221.676944,9992.780217
1934.594162,1850.514855,2528.115143,9844.739029
1934.594484,3182.885551,3140.991542,10584.944971
1934.594805,1628.453072,2451.505594,9844.739029
1934.595126,74.020594,383.047749,8956.491898
1934.595448,74.020594,1378.971896,9326.594869
1934.595769,-518.144159,1072.533697,9770.718434
1934.596091,-1776.494261,-306.438199,9400.615463
1934.596412,-3478.967927,-995.924147,9770.718434
1934.596733,-4219.173869,-689.485948,9030.512492
1934.597055,-2664.741391,-612.876398,8068.244768
1934.597376,-1036.288319,-919.314598,7772.162391
1934.597697,-1554.432478,1072.533697,9400.615463
1934.598019,-1110.308913,1225.752797,10955.047942
1934.598340,296.082377,1302.362347,10066.800811
1934.598662,1036.288319,689.485948,9770.718434
1934.598983,0.000000,536.266849,9992.780217
1934.599304,-1184.329507,0.000000,9844.739029
1934.599626,-222.061783,0.000000,9548.656652
1934.599947,888.247130,-383.047749,9918.759623
1934.600268,-1480.411884,-842.705048,9252.574275
1934.600590,-2960.823768,-1608.800546,9178.553681
1934.600911,-2294.638420,-1072.533697,9104.533087
1934.601233,-1184.329507,-1302.362347,8068.244768
1934.601554,-370.102971,-1302.362347,9030.512492
1934.601875,222.061783,153.219100,9844.739029
1934.602197,814.226536,1072.533697,9400.615463
1934.602518,2886.803174,842.705048,8512.368333
1934.602840,2294.638420,766.095498,9030.512492
1934.603161,222.061783,842.705048,9548.656652
1934.603482,-222.061783,229.828649,9844.739029
1934.603804,444.123565,-995.924147,8438.347739
1934.604125,1258.350101,-689.485948,8882.471304
1934.604446,-1480.411884,-229.828649,9474.636058
1934.604768,-3034.844362,-1225.752797,9178.553681
1934.605089,-2368.659014,-1838.629195,8734.430116
1934.605411,-1258.350101,-1149.143247,8882.471304
1934.605732,-1850.514855,-766.095498,9326.594869
1934.606053,-1258.350101,-229.828649,9326.594869
1934.606375,888.247130,459.657299,9474.636058
1934.606696,3478.967927,2068.457845,9622.677246
1934.607017,1998.556043,2221.676944,9918.759623
1934.607339,592.164754,1608.800546,9844.739029
1934.607660,1332.370696,1302.362347,9474.636058
1934.607982,1480.411884,842.705048,8808.450710
1934.608303,518.144159,459.657299,9030.512492
1934.608624,-740.205942,459.657299,9252.574275
1934.608946,-1702.473667,-153.219100,8808.450710
1934.609267,-1332.370696,-536.266849,7846.182985
1934.609588,-814.226536,-306.438199,8142.265362
1934.609910,-2368.659014,459.657299,8882.471304
1934.610231,-1776.494261,612.876398,9104.533087
1934.610553,1184.329507,1455.581446,8808.450710
1934.610874,2590.720797,2145.067394,9770.718434
1934.611195,2072.576638,2757.943793,9992.780217
1934.611517,1110.308913,2604.724693,10658.965565
1934.611838,1702.473667,2834.553343,10436.903782
1934.612159,1110.308913,1455.581446,9844.739029
1934.612481,-222.061783,383.047749,9252.574275
1934.612802,-1554.432478,383.047749,9548.656652
1934.613124,-1776.494261,459.657299,9400.615463
1934.613445,-1998.556043,-536.266849,9104.533087
1934.613766,-2960.823768,-1072.533697,8882.471304
1934.614088,-3552.988522,-995.924147,9326.594869
1934.614409,-3034.844362,-306.438199,8586.388927
1934.614730,0.000000,-306.438199,8586.388927
1934.615052,1554.432478,919.314598,9178.553681
1934.615373,444.123565,1225.752797,9844.739029
1934.615695,0.000000,2145.067394,9992.780217
1934.616016,2442.679609,1915.238745,8364.327145
1934.616337,2368.659014,1225.752797,8882.471304
1934.616659,370.102971,689.485948,9326.594869
1934.616980,0.000000,842.705048,9030.512492
1934.617301,740.205942,612.876398,9474.636058
1934.617623,814.226536,153.219100,9104.533087
1934.617944,-518.144159,-459.657299,8586.388927
1934.618266,-2146.597232,76.609550,9326.594869
1934.618587,-962.267725,0.000000,8512.368333
1934.618908,1702.473667,0.000000,9474.636058
1934.619230,1776.494261,229.828649,9622.677246
1934.619551,1332.370696,1532.190996,11103.089130
1934.619873,1406.391290,1838.629195,10288.862594
1934.620194,2664.741391,1149.143247,9474.636058
1934.620515,1776.494261,1991.848295,9844.739029
1934.620837,222.061783,1302.362347,9548.656652
1934.621158,-1850.514855,153.219100,7994.224174
1934.621479,-888.247130,0.000000,7254.018232
1934.621801,-1776.494261,-459.657299,8512.368333
1934.622122,-4219.173869,-1149.143247,8734.430116
1934.622444,-4737.318029,-1455.581446,7698.141797
1934.622765,-3034.844362,-995.924147,8512.368333
1934.623086,-2442.679609,-1149.143247,8216.285956
1934.623408,-2072.576638,-1302.362347,9178.553681
1934.623729,-1258.350101,306.438199,10881.027347
1934.624050,1184.329507,1302.362347,10066.800811
1934.624372,2072.576638,919.314598,10214.842000
1934.624693,2368.659014,1838.629195,11103.089130
1934.625015,814.226536,2374.896044,10658.965565
1934.625336,962.267725,1762.019645,9474.636058
1934.625657,2072.576638,1072.533697,9178.553681
1934.625979,1110.308913,919.314598,9474.636058
1934.626300,-1036.288319,306.438199,10436.903782
1934.626621,-1776.494261,-383.047749,8882.471304
1934.626943,-444.123565,-383.047749,7920.203579
1934.627264,-1332.370696,-459.657299,8512.368333
1934.627586,-2294.638420,-689.485948,8512.368333
1934.627907,-1554.432478,-766.095498,8586.388927
1934.628228,666.185348,612.876398,9104.533087
1934.628550,592.164754,1149.143247,10066.800811
1934.628871,-222.061783,689.485948,10066.800811
1934.629192,-888.247130,919.314598,10436.903782
1934.629514,370.102971,1685.410096,9326.594869
1934.629835,370.102971,0.000000,8290.306550
1934.630157,-740.205942,0.000000,8660.409521
1934.630478,-962.267725,459.657299,9474.636058
1934.630799,-444.123565,0.000000,9326.594869
1934.631120,0.000000,-612.876398,8586.388927
1934.631442,-814.226536,-536.266849,9104.533087
1934.631763,-518.144159,306.438199,9474.636058
1934.632084,444.123565,766.095498,9474.636058
1934.632405,2516.700203,1072.533697,9178.553681
1934.632727,2886.803174,1608.800546,10140.821405
1934.633048,1258.350101,2374.896044,10140.821405
1934.633369,1628.453072,1762.019645,9918.759623
1934.633691,2590.720797,2451.505594,9326.594869
1934.634012,1998.556043,1225.752797,9178.553681
1934.634333,222.061783,1455.581446,8882.471304
1934.634654,-148.041188,689.485948,8364.327145
1934.634976,444.123565,1378.971896,8068.244768
1934.635297,-1110.308913,-229.828649,7698.141797
1934.635618,-2738.761985,-612.876398,8068.244768
1934.635939,-3034.844362,0.000000,8734.430116
1934.636261,-1702.473667,0.000000,8512.368333
1934.636582,0.000000,536.266849,8512.368333
1934.636903,-518.144159,689.485948,9770.718434
1934.637224,-1258.350101,2298.286494,10881.027347
1934.637546,-666.185348,919.314598,9474.636058
1934.637867,518.144159,919.314598,10436.903782
1934.638188,-1184.329507,995.924147,10584.944971
1934.638510,-2146.597232,459.657299,10436.903782
1934.638831,-1258.350101,0.000000,9548.656652
1934.639152,148.041188,-153.219100,8956.491898
1934.639473,-1406.391290,-612.876398,9326.594869
1934.639795,-2590.720797,-995.924147,9474.636058
1934.640116,-2294.638420,-995.924147,9326.594869
1934.640437,-888.247130,-1072.533697,7846.182985
1934.640758,0.000000,-842.705048,7994.224174
1934.641080,444.123565,153.219100,9104.533087
1934.641401,518.144159,459.657299,10066.800811
1934.641722,2368.659014,919.314598,9918.759623
1934.642043,2960.823768,689.485948,10066.800811
1934.642365,592.164754,1455.581446,10881.027347
1934.642686,0.000000,383.047749,9548.656652
1934.643007,1110.308913,-76.609550,8660.409521
1934.643329,1332.370696,76.609550,8956.491898
1934.643650,-666.185348,-536.266849,9326.594869
1934.643971,-1702.473667,-1149.143247,8882.471304
1934.644292,-1184.329507,-612.876398,8660.409521
1934.644614,-814.226536,-766.095498,8216.285956
1934.644935,-1332.370696,-1302.362347,8216.285956
1934.645256,-962.267725,-766.095498,8734.430116
1934.645577,814.226536,919.314598,9474.636058
1934.645899,2072.576638,2068.457845,9548.656652
1934.646220,1924.535449,536.266849,9696.697840
1934.646541,814.226536,1838.629195,10584.944971
1934.646863,518.144159,1608.800546,9918.759623
1934.647184,1480.411884,995.924147,8956.491898
1934.647505,1776.494261,766.095498,8734.430116
1934.647826,370.102971,1149.143247,9474.636058
1934.648148,-370.102971,229.828649,9622.677246
1934.648469,-814.226536,-153.219100,7624.121203
1934.648790,-962.267725,-919.314598,8364.327145
1934.649111,-1924.535449,0.000000,8956.491898
1934.649433,-2368.659014,76.609550,9178.553681
1934.649754,148.041188,689.485948,9326.594869
1934.650075,1406.391290,2068.457845,9992.780217
1934.650396,518.144159,2451.505594,9622.677246
1934.650718,-296.082377,2145.067394,10140.821405
1934.651039,370.102971,2911.162892,11177.109724
1934.651360,1554.432478,1532.190996,9474.636058
1934.651682,370.102971,1378.971896,8808.450710
1934.652003,-518.144159,1762.019645,9696.697840
1934.652324,-1036.288319,1225.752797,9918.759623
1934.652645,-1332.370696,153.219100,8808.450710
1934.652967,-2146.597232,536.266849,7402.059420
1934.653288,-3552.988522,-229.828649,8438.347739
1934.653609,-4145.153275,0.000000,7772.162391
1934.653930,-1702.473667,842.705048,7476.080014
1934.654252,0.000000,842.705048,8586.388927
1934.654573,-1110.308913,1532.190996,9918.759623
1934.654894,-1258.350101,1072.533697,9400.615463
1934.655215,1332.370696,1838.629195,9918.759623
1934.655537,1036.288319,2528.115143,9992.780217
1934.655858,370.102971,1378.971896,9400.615463
1934.656179,-222.061783,536.266849,9548.656652
1934.656501,592.164754,689.485948,9548.656652
1934.656822,666.185348,-459.657299,8586.388927
1934.657143,-1036.288319,-995.924147,9030.512492
1934.657464,-1628.453072,-306.438199,10066.800811
1934.657786,-1036.288319,-536.266849,8956.491898
1934.658107,962.267725,-689.485948,8216.285956
1934.658428,1332.370696,153.219100,8660.409521
1934.658749,1258.350101,1532.190996,10955.047942
1934.659071,1776.494261,1532.190996,10214.842000
1934.659392,3627.009116,1149.143247,9474.636058
1934.659713,2886.803174,1532.190996,9918.759623
1934.660034,1332.370696,1225.752797,10066.800811
1934.660356,518.144159,536.266849,9770.718434
1934.660677,2072.576638,995.924147,7994.224174
1934.660998,296.082377,-76.609550,8734.430116
1934.661320,-2368.659014,-1149.143247,8216.285956
1934.661641,-3478.967927,-1302.362347,8734.430116
1934.661962,-2738.761985,-1149.143247,7920.203579
1934.662283,-2516.700203,-1838.629195,8142.265362
1934.662605,-2220.617826,-1225.752797,8512.368333
1934.662926,-1702.473667,-383.047749,8364.327145
1934.663247,296.082377,459.657299,9548.656652
1934.663568,2516.700203,1378.971896,9770.718434
1934.663890,1184.329507,1225.752797,10658.965565
1934.664211,0.000000,1302.362347,11177.109724
1934.664532,0.000000,459.657299,9548.656652
1934.664853,2368.659014,383.047749,8586.388927
1934.665175,1924.535449,1072.533697,9326.594869
1934.665496,-962.267725,766.095498,9252.574275
1934.665817,-2368.659014,-842.705048,8660.409521
1934.666139,-1332.370696,-995.924147,7846.182985
1934.666460,-962.267725,-995.924147,8364.327145
1934.666781,-2368.659014,-766.095498,8956.491898
1934.667102,-1258.350101,0.000000,8882.471304
1934.667424,1036.288319,306.438199,9104.533087
1934.667745,1776.494261,1838.629195,9474.636058
1934.668066,-148.041188,383.047749,10510.924376
1934.668387,-962.267725,842.705048,10881.027347
1934.668709,-222.061783,995.924147,10436.903782
1934.669030,888.247130,0.000000,9548.656652
1934.669351,148.041188,-306.438199,10140.821405
1934.669672,-1776.494261,0.000000,10807.006753
1934.669994,-2146.597232,-1532.190996,8808.450710
1934.670315,-1406.391290,-1608.800546,7846.182985
1934.670636,-2590.720797,-1072.533697,9400.615463
1934.670958,-3849.070898,-689.485948,9030.512492
1934.671279,-1702.473667,0.000000,9030.512492
1934.671600,2220.617826,995.924147,8438.347739
1934.671921,1554.432478,1991.848295,9474.636058
1934.672243,148.041188,1762.019645,9548.656652
1934.672564,1406.391290,1685.410096,9474.636058
1934.672885,1998.556043,1762.019645,9178.553681
1934.673206,740.205942,1225.752797,8660.409521
1934.673528,-222.061783,919.314598,9400.615463
1934.673849,222.061783,1762.019645,9030.512492
1934.674170,740.205942,1225.752797,7920.203579
1934.674492,1036.288319,536.266849,7328.038826
1934.674813,-222.061783,1225.752797,8142.265362
1934.675134,-740.205942,1991.848295,8660.409521
1934.675455,518.144159,1762.019645,7624.121203
1934.675777,2960.823768,1991.848295,7698.141797
1934.676098,1850.514855,2604.724693,9400.615463
1934.676419,888.247130,2528.115143,11103.089130
1934.676740,814.226536,2221.676944,11251.130318
1934.677062,1998.556043,2145.067394,9696.697840
1934.677383,-1036.288319,1072.533697,10584.944971
1934.677704,-2664.741391,689.485948,10658.965565
1934.678025,-2664.741391,-306.438199,9474.636058
1934.678347,-1480.411884,0.000000,9030.512492
1934.678668,-2664.741391,-536.266849,8512.368333
1934.678989,-3997.112087,-1378.971896,8808.450710
1934.679311,-3849.070898,153.219100,8586.388927
1934.679632,-592.164754,-383.047749,7624.121203
1934.679953,518.144159,0.000000,8808.450710
1934.680274,0.000000,1225.752797,9474.636058
1934.680596,740.205942,1762.019645,10881.027347
1934.680917,2738.761985,1455.581446,9770.718434
1934.681238,2960.823768,1302.362347,9326.594869
1934.681559,1184.329507,1608.800546,11177.109724
1934.681881,0.000000,1149.143247,10140.821405
1934.682202,444.123565,-229.828649,9400.615463
1934.682523,1628.453072,-153.219100,10066.800811
1934.682844,-666.185348,-153.219100,10584.944971
1934.683166,-2516.700203,-1225.752797,8586.388927
1934.683487,-2072.576638,-1225.752797,7994.224174
1934.683808,-666.185348,-1149.143247,7994.224174
1934.684130,-1258.350101,-1225.752797,7920.203579
1934.684451,-1480.411884,-689.485948,8216.285956
1934.684772,0.000000,306.438199,9326.594869
1934.685093,444.123565,536.266849,9104.533087
1934.685415,148.041188,0.000000,9104.533087
1934.685736,-148.041188,1149.143247,9474.636058
1934.686057,-1258.350101,153.219100,8660.409521
1934.686378,0.000000,0.000000,7698.141797
1934.686700,592.164754,-459.657299,8808.450710
1934.687021,-962.267725,-536.266849,9844.739029
1934.687342,-1998.556043,-1302.362347,9474.636058
1934.687663,-962.267725,-995.924147,9474.636058
1934.687985,-148.041188,-459.657299,9696.697840
1934.688306,-888.247130,-306.438199,9844.739029
1934.688627,-444.123565,-76.609550,10288.862594
1934.688949,1776.494261,0.000000,8956.491898
1934.689270,2664.741391,1532.190996,9548.656652
1934.689591,1628.453072,1608.800546,10140.821405
1934.689912,740.205942,1455.581446,11177.109724
1934.690234,962.267725,1685.410096,10066.800811
1934.690555,592.164754,459.657299,8142.265362
1934.690876,0.000000,612.876398,8438.347739
1934.691197,-1184.329507,536.266849,8956.491898
1934.691519,-2146.597232,459.657299,9326.594869
1934.691840,-888.247130,-306.438199,7624.121203
1934.692161,-1554.432478,-229.828649,7476.080014
1934.692482,-2664.741391,536.266849,7772.162391
1934.692804,-2368.659014,306.438199,8512.368333
1934.693125,444.123565,229.828649,7772.162391
1934.693446,1554.432478,1685.410096,9918.759623
1934.693768,296.082377,1991.848295,10807.006753
1934.694089,148.041188,1455.581446,10436.903782
1934.694410,1480.411884,1532.190996,9548.656652
1934.694731,1480.411884,1685.410096,10807.006753
1934.695053,0.000000,1762.019645,9770.718434
1934.695374,-518.144159,842.705048,9844.739029
1934.695695,888.247130,919.314598,9844.739029
1934.696016,888.247130,0.000000,8882.471304
1934.696338,-666.185348,0.000000,9400.615463
1934.696659,-2368.659014,153.219100,10362.883188
1934.696980,-1258.350101,-306.438199,9326.594869
1934.697301,222.061783,-459.657299,8364.327145
1934.697623,1332.370696,919.314598,9030.512492
1934.697944,666.185348,995.924147,10066.800811
1934.698265,370.102971,1072.533697,8660.409521
1934.698587,1628.453072,1378.971896,9474.636058
1934.698908,1924.535449,1915.238745,9992.780217
1934.699229,-444.123565,1072.533697,9548.656652
1934.699550,222.061783,1072.533697,8438.347739
1934.699872,1332.370696,1532.190996,8512.368333
1934.700193,592.164754,2451.505594,7994.224174
1934.700514,-1332.370696,76.609550,8068.244768
1934.700835,-2220.617826,-383.047749,9548.656652
1934.701157,-1776.494261,383.047749,8808.450710
1934.701478,-962.267725,-842.705048,8068.244768
1934.701799,-592.164754,-153.219100,8734.430116
1934.702120,-444.123565,1455.581446,9622.677246
1934.702442,0.000000,1149.143247,9918.759623
1934.702763,1184.329507,1455.581446,9178.553681
1934.703084,148.041188,1532.190996,10066.800811
1934.703406,-814.226536,1532.190996,10066.800811
1934.703727,-814.226536,612.876398,8956.491898
1934.704048,962.267725,153.219100,8734.430116
1934.704369,-666.185348,383.047749,9030.512492
1934.704691,-1554.432478,76.609550,8734.430116
1934.705012,-2738.761985,-919.314598,9326.594869
1934.705333,-1924.535449,-1225.752797,7994.224174
1934.705654,-2220.617826,-995.924147,8290.306550
1934.705976,-1924.535449,-1072.533697,8216.285956
1934.706297,-1480.411884,0.000000,9326.594869
1934.706618,888.247130,1072.533697,10436.903782
1934.706940,1628.453072,766.095498,11399.171507
1934.707261,1110.308913,1455.581446,10881.027347
1934.707582,-370.102971,1378.971896,11399.171507
1934.707903,222.061783,229.828649,10066.800811
1934.708225,1332.370696,0.000000,9400.615463
1934.708546,592.164754,153.219100,9622.677246
1934.708867,-1628.453072,0.000000,9844.739029
1934.709188,-1924.535449,-766.095498,9104.533087
1934.709510,-370.102971,-1072.533697,9474.636058
1934.709831,-1924.535449,-995.924147,8956.491898
1934.710152,-2960.823768,-1302.362347,8512.368333
1934.710473,-1480.411884,-995.924147,8512.368333
1934.710795,888.247130,229.828649,8142.265362
1934.711116,962.267725,536.266849,9844.739029
1934.711437,-592.164754,919.314598,9918.759623
1934.711759,74.020594,766.095498,9992.780217
1934.712080,1406.391290,1149.143247,9104.533087
1934.712401,1628.453072,76.609550,8438.347739
1934.712722,518.144159,766.095498,9474.636058
1934.713044,222.061783,995.924147,10066.800811
1934.713365,296.082377,-306.438199,8364.327145
1934.713686,296.082377,-536.266849,7772.162391
1934.714007,-1332.370696,766.095498,9696.697840
1934.714329,-1776.494261,306.438199,9326.594869
1934.714650,-296.082377,-229.828649,8364.327145
1934.714971,1850.514855,612.876398,8660.409521
1934.715292,1998.556043,2528.115143,10066.800811
1934.715614,370.102971,2451.505594,10732.986159
1934.715935,1332.370696,2451.505594,9844.739029
1934.716256,1850.514855,2451.505594,9326.594869
1934.716578,1184.329507,2987.772442,8660.409521
1934.716899,-666.185348,1455.581446,8660.409521
1934.717220,-148.041188,766.095498,8142.265362
1934.717541,-888.247130,459.657299,8068.244768
1934.717863,-2146.597232,76.609550,7772.162391
1934.718184,-3701.029710,-306.438199,8512.368333
1934.718505,-3552.988522,-612.876398,8068.244768
1934.718826,-2590.720797,-689.485948,7254.018232
1934.719148,0.000000,383.047749,8142.265362
1934.719469,296.082377,1685.410096,10510.924376
1934.719790,148.041188,1762.019645,10955.047942
1934.720111,2220.617826,1991.848295,10584.944971
1934.720433,2368.659014,2298.286494,10362.883188
1934.720754,1184.329507,1762.019645,10584.944971
1934.721075,-370.102971,1225.752797,10288.862594
1934.721397,296.082377,0.000000,10140.821405
1934.721718,1406.391290,0.000000,9474.636058
1934.722039,-1554.432478,-1302.362347,9030.512492
1934.722360,-3404.947333,-2068.457845,9548.656652
1934.722682,-3034.844362,-1685.410096,9474.636058
1934.723003,-1480.411884,-995.924147,9252.574275
1934.723324,-962.267725,-1072.533697,8290.306550
1934.723645,-666.185348,-153.219100,9030.512492
1934.723967,1036.288319,1455.581446,9474.636058
1934.724288,3034.844362,1762.019645,9178.553681
1934.724609,2960.823768,1302.362347,8512.368333
1934.724930,1110.308913,1762.019645,9696.697840
1934.725252,222.061783,1762.019645,9474.636058
1934.725573,1406.391290,306.438199,9400.615463
1934.725894,1702.473667,-306.438199,7994.224174
1934.726216,222.061783,-383.047749,8290.306550
1934.726537,-2738.761985,-766.095498,9918.759623
1934.726858,-2812.782580,-1532.190996,9844.739029
1934.727179,-1332.370696,-1838.629195,9252.574275
1934.727501,-962.267725,-842.705048,8216.285956
1934.727822,-1924.535449,0.000000,9474.636058
1934.728143,1332.370696,1532.190996,9770.718434
1934.728464,3256.906145,1991.848295,10214.842000
1934.728786,3701.029710,2528.115143,9844.739029
1934.729107,1554.432478,2374.896044,10140.821405
1934.729428,1998.556043,3140.991542,9548.656652
1934.729749,2220.617826,1532.190996,8142.265362
1934.730071,1924.535449,76.609550,9178.553681
1934.730392,-1036.288319,1072.533697,9474.636058
1934.730713,-3256.906145,0.000000,8438.347739
1934.731035,-3034.844362,-612.876398,7179.997637
1934.731356,-3108.864956,-1532.190996,7031.956449
1934.731677,-5033.400406,-1072.533697,7846.182985
1934.731998,-4737.318029,-766.095498,8512.368333
1934.732320,-2072.576638,0.000000,8586.388927
1934.732641,148.041188,459.657299,9696.697840
1934.732962,-444.123565,1378.971896,10658.965565
1934.733284,-296.082377,1991.848295,10584.944971
1934.733605,1110.308913,2145.067394,9918.759623
1934.733926,2146.597232,2145.067394,9030.512492
1934.734247,962.267725,1302.362347,9400.615463
1934.734569,962.267725,1915.238745,10362.883188
1934.734890,296.082377,1302.362347,9622.677246
1934.735211,518.144159,383.047749,8808.450710
1934.735533,-888.247130,-459.657299,9474.636058
1934.735854,-2294.638420,-612.876398,10066.800811
1934.736175,-2442.679609,-612.876398,9178.553681
1934.736496,518.144159,-612.876398,8586.388927
1934.736818,888.247130,76.609550,9622.677246
1934.737139,148.041188,766.095498,9252.574275
1934.737460,-740.205942,1072.533697,10436.903782
1934.737782,1332.370696,1378.971896,10140.821405
1934.738103,666.185348,1685.410096,10066.800811
1934.738424,-370.102971,536.266849,9474.636058
1934.738745,-1036.288319,153.219100,8586.388927
1934.739067,-370.102971,383.047749,7698.141797
1934.739388,-370.102971,-459.657299,7550.100608
1934.739709,-1702.473667,-1149.143247,7624.121203
1934.740031,-2368.659014,153.219100,8586.388927
1934.740352,-962.267725,-229.828649,8660.409521
1934.740673,296.082377,-689.485948,8586.388927
1934.740994,1480.411884,0.000000,9252.574275
1934.741316,1258.350101,1762.019645,10362.883188
1934.741637,2294.638420,2068.457845,10214.842000
1934.741958,3256.906145,1378.971896,9474.636058
1934.742280,3404.947333,1915.238745,9918.759623
1934.742601,962.267725,1915.238745,10140.821405
1934.742922,-296.082377,919.314598,9252.574275
1934.743243,370.102971,459.657299,8438.347739
1934.743565,370.102971,153.219100,8660.409521
1934.743886,-1702.473667,76.609550,8660.409521
1934.744207,-3330.926739,-229.828649,8068.244768
1934.744528,-1776.494261,0.000000,7994.224174
1934.744850,-1480.411884,-842.705048,7031.956449
1934.745171,-1998.556043,-459.657299,7994.224174
1934.745492,-1850.514855,76.609550,9918.759623
1934.745814,222.061783,1378.971896,10436.903782
1934.746135,1554.432478,919.314598,10436.903782
1934.746456,666.185348,1455.581446,11843.295072
1934.746777,-1036.288319,919.314598,11473.192101
1934.747099,-1332.370696,-536.266849,10066.800811
1934.747420,-296.082377,-459.657299,8808.450710
1934.747741,-518.144159,536.266849,9918.759623
1934.748063,-2220.617826,0.000000,10140.821405
1934.748384,-1702.473667,-689.485948,8586.388927
1934.748705,444.123565,0.000000,7772.162391
1934.749026,-370.102971,229.828649,7624.121203
1934.749348,-1258.350101,-459.657299,8734.430116
1934.749669,0.000000,76.609550,8660.409521
1934.749990,1998.556043,1225.752797,9400.615463
1934.750312,2442.679609,1455.581446,9474.636058
1934.750633,1184.329507,536.266849,9400.615463
1934.750954,1332.370696,1378.971896,10658.965565
1934.751275,666.185348,1149.143247,10066.800811
1934.751597,666.185348,-153.219100,9178.553681
1934.751918,-518.144159,-306.438199,9918.759623
1934.752239,-1184.329507,0.000000,9844.739029
1934.752561,-1110.308913,-536.266849,9326.594869
1934.752882,-370.102971,-1072.533697,8364.327145
1934.753203,-1554.432478,-306.438199,9104.533087
1934.753524,-2442.679609,0.000000,8660.409521
1934.753846,-888.247130,0.000000,8142.265362
1934.754167,1998.556043,612.876398,8660.409521
1934.754488,1924.535449,1838.629195,9918.759623
1934.754810,666.185348,2451.505594,10658.965565
1934.755131,1184.329507,1838.629195,9992.780217
1934.755452,2738.761985,2374.896044,8808.450710
1934.755773,2072.576638,1532.190996,8512.368333
1934.756095,518.144159,1991.848295,8438.347739
1934.756416,0.000000,1762.019645,9770.718434
1934.756737,1110.308913,1072.533697,8364.327145
1934.757059,74.020594,-383.047749,8068.244768
1934.757380,-1850.514855,0.000000,7994.224174
1934.757701,-3182.885551,229.828649,8808.450710
1934.758022,-2294.638420,0.000000,7846.182985
1934.758344,0.000000,0.000000,8438.347739
1934.758665,0.000000,1302.362347,10140.821405
1934.758986,-1554.432478,1915.238745,10510.924376
1934.759307,-666.185348,1149.143247,9992.780217
1934.759629,814.226536,1455.581446,9918.759623
1934.759950,-518.144159,2068.457845,10732.986159
1934.760271,-1554.432478,1378.971896,10436.903782
1934.760593,-592.164754,1455.581446,9474.636058
1934.760914,1036.288319,1378.971896,8734.430116
1934.761235,-592.164754,689.485948,8438.347739
1934.761556,-2442.679609,0.000000,8512.368333
1934.761878,-2220.617826,0.000000,9400.615463
1934.762199,-1110.308913,-383.047749,8586.388927
1934.762520,-1184.329507,-383.047749,8438.347739
1934.762842,-1036.288319,76.609550,9326.594869
1934.763163,-1036.288319,995.924147,9474.636058
1934.763484,-222.061783,1225.752797,9548.656652
1934.763805,296.082377,0.000000,9474.636058
1934.764127,-222.061783,995.924147,10584.944971
1934.764448,-740.205942,842.705048,9918.759623
1934.764769,444.123565,459.657299,9178.553681
1934.765091,1110.308913,1225.752797,8734.430116
1934.765412,444.123565,0.000000,9030.512492
1934.765733,-1850.514855,-1532.190996,8882.471304
1934.766054,-1406.391290,-995.924147,8216.285956
1934.766376,-814.226536,-689.485948,8586.388927
1934.766697,-1258.350101,-1532.190996,8068.244768
1934.767018,0.000000,-1072.533697,8956.491898
1934.767340,148.041188,76.609550,10140.821405
1934.767661,2368.659014,766.095498,9918.759623
1934.767982,1850.514855,536.266849,9548.656652
1934.768303,3182.885551,1378.971896,10732.986159
1934.768625,1924.535449,1685.410096,11325.150913
1934.768946,3404.947333,1302.362347,8956.491898
1934.769267,3034.844362,689.485948,8956.491898
1934.769589,1036.288319,919.314598,9326.594869
1934.769910,-1184.329507,229.828649,9622.677246
1934.770231,-740.205942,-1762.019645,8586.388927
1934.770552,-2368.659014,-1532.190996,8882.471304
1934.770874,-3701.029710,-1608.800546,8586.388927
1934.771195,-4663.297435,-2068.457845,7550.100608
1934.771516,-2220.617826,-1455.581446,8142.265362
1934.771838,-444.123565,383.047749,9474.636058
1934.772159,-1258.350101,919.314598,9548.656652
1934.772480,-814.226536,1378.971896,9622.677246
1934.772801,444.123565,1915.238745,9770.718434
1934.773123,1850.514855,2221.676944,9696.697840
1934.773444,1776.494261,1685.410096,9252.574275
1934.773765,444.123565,1838.629195,9252.574275
1934.774086,1406.391290,1762.019645,9104.533087
1934.774408,0.000000,536.266849,8882.471304
1934.774729,0.000000,766.095498,8438.347739
1934.775050,-2146.597232,0.000000,9548.656652
1934.775372,-1924.535449,-1225.752797,7624.121203
1934.775693,0.000000,-536.266849,8882.471304
1934.776014,814.226536,919.314598,9770.718434
1934.776335,-148.041188,1149.143247,11547.212695
1934.776657,-444.123565,536.266849,10362.883188
1934.776978,1184.329507,1608.800546,10732.986159
1934.777299,1924.535449,2145.067394,10584.944971
1934.777621,-1036.288319,842.705048,9474.636058
1934.777942,-518.144159,995.924147,10066.800811
1934.778263,0.000000,1225.752797,9474.636058
1934.778584,0.000000,612.876398,8660.409521
1934.778906,-2590.720797,-919.314598,8438.347739
1934.779227,-3849.070898,-689.485948,8734.430116
1934.779548,-3923.091493,-1072.533697,7698.141797
1934.779870,-1110.308913,-1225.752797,7031.956449
1934.780191,-296.082377,229.828649,9030.512492
1934.780512,0.000000,1302.362347,9548.656652
1934.780833,1258.350101,1608.800546,9770.718434
1934.781155,3627.009116,1762.019645,9400.615463
1934.781476,2960.823768,2298.286494,10362.883188
1934.781797,1554.432478,2374.896044,10066.800811
1934.782119,2220.617826,919.314598,9918.759623
1934.782440,3552.988522,1762.019645,8882.471304
1934.782761,2442.679609,1608.800546,9400.615463
1934.783082,222.061783,306.438199,9104.533087
1934.783404,-1554.432478,-383.047749,8438.347739
1934.783725,-1258.350101,-229.828649,8290.306550
1934.784046,-592.164754,-995.924147,8068.244768
1934.784368,-2368.659014,-1149.143247,7550.100608
1934.784689,-1480.411884,229.828649,9992.780217
1934.785010,-148.041188,995.924147,10807.006753
1934.785331,444.123565,689.485948,10436.903782
1934.785653,0.000000,689.485948,10362.883188
1934.785974,-1480.411884,766.095498,10732.986159
1934.786295,-666.185348,842.705048,9474.636058
1934.786617,0.000000,-306.438199,8882.471304
1934.786938,-666.185348,229.828649,9696.697840
1934.787259,-2516.700203,0.000000,9844.739029
1934.787580,-3701.029710,-995.924147,8216.285956
1934.787902,-2072.576638,-1225.752797,7550.100608
1934.788223,-1850.514855,0.000000,7994.224174
1934.788544,-2294.638420,76.609550,8364.327145
1934.788865,-888.247130,459.657299,8660.409521
1934.789187,1850.514855,1455.581446,8660.409521
1934.789508,2738.761985,1838.629195,9696.697840
1934.789829,888.247130,1225.752797,10066.800811
1934.790151,1110.308913,1378.971896,11621.233289
1934.790472,1998.556043,1532.190996,10584.944971
1934.790793,1776.494261,0.000000,8808.450710
1934.791114,1036.288319,459.657299,10584.944971
1934.791436,-518.144159,995.924147,11103.089130
1934.791757,-1406.391290,0.000000,8660.409521
1934.792078,-962.267725,-1072.533697,8438.347739
1934.792400,-2146.597232,-229.828649,9030.512492
1934.792721,-2960.823768,-995.924147,8734.430116
1934.793042,-1406.391290,-689.485948,8660.409521
1934.793363,1628.453072,766.095498,9548.656652
1934.793685,814.226536,1685.410096,9696.697840
1934.794006,-444.123565,919.314598,9474.636058
1934.794327,74.020594,1072.533697,9770.718434
1934.794649,1332.370696,1378.971896,8882.471304
1934.794970,592.164754,612.876398,8142.265362
1934.795291,-370.102971,1072.533697,9104.533087
1934.795612,-740.205942,766.095498,9252.574275
1934.795934,74.020594,919.314598,8364.327145
1934.796255,-222.061783,0.000000,7994.224174
1934.796576,-1332.370696,153.219100,8512.368333
1934.796898,-1850.514855,536.266849,8882.471304
1934.797219,444.123565,229.828649,8512.368333
1934.797540,2220.617826,229.828649,8734.430116
1934.797861,1850.514855,1532.190996,9844.739029
1934.798183,444.123565,1838.629195,10436.903782
1934.798504,1406.391290,2068.457845,10584.944971
1934.798825,2590.720797,919.314598,9770.718434
1934.799147,1702.473667,1455.581446,9474.636058
1934.799468,74.020594,1302.362347,10362.883188
1934.799789,-444.123565,919.314598,9326.594869
1934.800110,0.000000,383.047749,7846.182985
1934.800432,-518.144159,153.219100,8364.327145
1934.800753,-3108.864956,-1378.971896,8438.347739
1934.801074,-3552.988522,-229.828649,9252.574275
1934.801395,-1924.535449,-1149.143247,8660.409521
1934.801717,-1036.288319,-1302.362347,7920.203579
1934.802038,-1406.391290,-766.095498,9252.574275
1934.802359,-1776.494261,0.000000,10066.800811
1934.802681,-666.185348,-306.438199,9474.636058
1934.803002,296.082377,76.609550,9992.780217
1934.803323,0.000000,153.219100,11029.068536
1934.803644,-1406.391290,306.438199,10658.965565
1934.803966,-370.102971,-229.828649,8956.491898
1934.804287,1036.288319,153.219100,8808.450710
1934.804608,0.000000,689.485948,9622.677246
1934.804930,-1924.535449,0.000000,9178.553681
1934.805251,-740.205942,-383.047749,9474.636058
1934.805572,666.185348,0.000000,8808.450710
1934.805893,0.000000,-383.047749,8734.430116
1934.806215,-296.082377,0.000000,9474.636058
1934.806536,740.205942,919.314598,10436.903782
1934.806857,2072.576638,1149.143247,9844.739029
1934.807179,2294.638420,689.485948,9474.636058
1934.807500,814.226536,995.924147,10807.006753
1934.807821,0.000000,1838.629195,9548.656652
1934.808142,74.020594,0.000000,8364.327145
1934.808464,74.020594,612.876398,8364.327145
1934.808785,-814.226536,1149.143247,9474.636058
1934.809106,-2294.638420,459.657299,8734.430116
1934.809428,-592.164754,-536.266849,7402.059420
1934.809749,-1184.329507,383.047749,7994.224174
1934.810070,-1924.535449,612.876398,8290.306550
1934.810391,-1776.494261,306.438199,9326.594869
1934.810713,666.185348,842.705048,8808.450710
1934.811034,1628.453072,1762.019645,9474.636058
1934.811355,592.164754,1532.190996,9252.574275
1934.811677,-148.041188,1455.581446,10066.800811
1934.811998,814.226536,2068.457845,10288.862594
1934.812319,1406.391290,1378.971896,8660.409521
1934.812640,1406.391290,1608.800546,9030.512492
1934.812962,444.123565,2068.457845,9844.739029
1934.813283,0.000000,1915.238745,8882.471304
1934.813604,740.205942,459.657299,8068.244768
1934.813926,-666.185348,536.266849,8512.368333
1934.814247,-1480.411884,459.657299,8808.450710
1934.814568,-1480.411884,229.828649,9030.512492
1934.814889,666.185348,0.000000,9104.533087
1934.815211,962.267725,612.876398,10066.800811
1934.815532,-370.102971,1149.143247,11103.089130
1934.815853,-1554.432478,995.924147,9918.759623
1934.816174,-148.041188,842.705048,9696.697840
1934.816496,518.144159,612.876398,9770.718434
1934.816817,-1924.535449,306.438199,8660.409521
1934.817138,-1036.288319,536.266849,9548.656652
1934.817460,-370.102971,1072.533697,10436.903782
1934.817781,-222.061783,153.219100,9326.594869
1934.818102,-2146.597232,-842.705048,9104.533087
1934.818423,-2590.720797,153.219100,9400.615463
1934.818745,-2368.659014,76.609550,8808.450710
1934.819066,222.061783,-689.485948,7624.121203
1934.819387,888.247130,0.000000,8956.491898
1934.819709,666.185348,1685.410096,10807.006753
1934.820030,222.061783,229.828649,9992.780217
1934.820351,1924.535449,229.828649,9622.677246
1934.820672,1628.453072,842.705048,10066.800811
1934.820994,370.102971,995.924147,9992.780217
1934.821315,518.144159,-459.657299,9252.574275
1934.821636,2220.617826,612.876398,8512.368333
1934.821958,1258.350101,536.266849,8734.430116
1934.822279,-814.226536,76.609550,7254.018232
1934.822600,-1850.514855,-153.219100,8216.285956
1934.822921,-666.185348,229.828649,8290.306550
1934.823243,-518.144159,-536.266849,8734.430116
1934.823564,-1480.411884,-612.876398,9622.677246
1934.823885,-592.164754,153.219100,10881.027347
1934.824207,0.000000,766.095498,10362.883188
1934.824528,592.164754,0.000000,9474.636058
1934.824849,74.020594,1072.533697,9992.780217
1934.825170,-740.205942,1072.533697,10510.924376
1934.825492,-370.102971,536.266849,9104.533087
1934.825813,1628.453072,536.266849,9030.512492
1934.826134,962.267725,1149.143247,9400.615463
1934.826456,-1184.329507,842.705048,8660.409521
1934.826777,-1332.370696,-383.047749,7846.182985
1934.827098,-370.102971,383.047749,8068.244768
1934.827419,-518.144159,306.438199,8512.368333
1934.827741,-740.205942,-229.828649,8290.306550
1934.828062,-592.164754,153.219100,8438.347739
1934.828383,1036.288319,1225.752797,9252.574275
1934.828705,1184.329507,842.705048,9622.677246
1934.829026,-296.082377,383.047749,9696.697840
1934.829347,-962.267725,1302.362347,11251.130318
1934.829668,0.000000,766.095498,9474.636058
1934.829990,888.247130,-229.828649,8586.388927
1934.830311,0.000000,459.657299,9474.636058
1934.830632,-1850.514855,383.047749,11029.068536
1934.830953,-1998.556043,-842.705048,9252.574275
1934.831275,-1036.288319,-1302.362347,8586.388927
1934.831596,-2368.659014,-536.266849,9400.615463
1934.831917,-2220.617826,-459.657299,9622.677246
1934.832239,-1406.391290,-995.924147,9030.512492
1934.832560,1406.391290,229.828649,9252.574275
1934.832881,1406.391290,1072.533697,10584.944971
1934.833202,-296.082377,766.095498,10362.883188
1934.833524,0.000000,995.924147,10066.800811
1934.833845,1998.556043,1532.190996,8808.450710
1934.834166,1036.288319,229.828649,7846.182985
1934.834488,-222.061783,459.657299,8216.285956
1934.834809,-518.144159,766.095498,9696.697840
1934.835130,0.000000,229.828649,8586.388927
1934.835451,-370.102971,-1225.752797,7476.080014
1934.835773,-1628.453072,-1149.143247,8586.388927
1934.836094,-2590.720797,0.000000,8216.285956
1934.836415,-740.205942,-306.438199,8512.368333
1934.836736,1628.453072,459.657299,9252.574275
1934.837058,1406.391290,1991.848295,10955.047942
1934.837379,666.185348,1915.238745,10436.903782
1934.837700,2146.597232,1378.971896,9622.677246
1934.838022,3552.988522,2298.286494,10288.862594
1934.838343,2220.617826,1991.848295,10214.842000
1934.838664,370.102971,1072.533697,9770.718434
1934.838985,740.205942,1225.752797,9030.512492
1934.839307,740.205942,1149.143247,8512.368333
1934.839628,-1406.391290,0.000000,8438.347739
1934.839949,-3404.947333,-536.266849,8512.368333
1934.840271,-4441.235652,-689.485948,8438.347739
1934.840592,-3404.947333,-995.924147,7772.162391
1934.840913,-2146.597232,0.000000,7772.162391
1934.841234,-2516.700203,1149.143247,9326.594869
1934.841556,-1776.494261,1762.019645,10066.800811
1934.841877,222.061783,1378.971896,8660.409521
1934.842198,1850.514855,1915.238745,8956.491898
1934.842519,666.185348,2911.162892,9696.697840
1934.842841,222.061783,2298.286494,9030.512492
1934.843162,1480.411884,1608.800546,8586.388927
1934.843483,2368.659014,1532.190996,9104.533087
1934.843805,74.020594,1149.143247,9030.512492
1934.844126,-1998.556043,-153.219100,9474.636058
1934.844447,-1776.494261,0.000000,9474.636058
1934.844768,0.000000,-766.095498,8586.388927
1934.845090,-444.123565,-1225.752797,9252.574275
1934.845411,-740.205942,229.828649,10881.027347
1934.845732,-148.041188,612.876398,11029.068536
1934.846053,2812.782580,1149.143247,9548.656652
1934.846375,2442.679609,766.095498,10214.842000
1934.846696,814.226536,1838.629195,10214.842000
1934.847017,148.041188,995.924147,9400.615463
1934.847339,1628.453072,76.609550,7920.203579
1934.847660,1332.370696,229.828649,8956.491898
1934.847981,-444.123565,0.000000,8956.491898
1934.848302,-2516.700203,-1149.143247,9030.512492
1934.848624,-1924.535449,-1838.629195,8438.347739
1934.848945,-1258.350101,-1838.629195,9252.574275
1934.849266,-2664.741391,-1532.190996,9326.594869
1934.849588,-2738.761985,-1455.581446,9770.718434
1934.849909,444.123565,-229.828649,9474.636058
1934.850230,2368.659014,1149.143247,10140.821405
1934.850551,1406.391290,766.095498,10066.800811
1934.850873,592.164754,1072.533697,10658.965565
1934.851194,1850.514855,2068.457845,10732.986159
1934.851515,2442.679609,1302.362347,8734.430116
1934.851836,1776.494261,919.314598,7698.141797
1934.852158,-148.041188,766.095498,7846.182985
1934.852479,-1406.391290,612.876398,7846.182985
1934.852800,-1850.514855,-306.438199,6513.812290
1934.853122,-2072.576638,-1072.533697,7550.100608
1934.853443,-2738.761985,-459.657299,8068.244768
1934.853764,-3034.844362,-459.657299,8586.388927
1934.854085,-148.041188,0.000000,8586.388927
1934.854407,370.102971,689.485948,9696.697840
1934.854728,592.164754,1455.581446,10140.821405
1934.855049,0.000000,1378.971896,10658.965565
1934.855370,1628.453072,1608.800546,10436.903782
1934.855692,1924.535449,1608.800546,10732.986159
1934.856013,1110.308913,689.485948,10436.903782
1934.856334,-296.082377,919.314598,10140.821405
1934.856656,0.000000,612.876398,9918.759623
1934.856977,0.000000,0.000000,9696.697840
1934.857298,-1554.432478,0.000000,9770.718434
1934.857619,-3552.988522,-612.876398,9548.656652
1934.857941,-2812.782580,-919.314598,9030.512492
1934.858262,-962.267725,-842.705048,8142.265362
1934.858583,-1036.288319,-306.438199,9474.636058
1934.858904,-1628.453072,383.047749,9992.780217
1934.859226,-814.226536,612.876398,10584.944971
1934.859547,74.020594,536.266849,9326.594869
1934.859868,0.000000,1149.143247,9696.697840
1934.860190,-962.267725,1072.533697,9622.677246
1934.860511,-1480.411884,0.000000,7476.080014
1934.860832,148.041188,383.047749,7624.121203
1934.861153,0.000000,306.438199,7846.182985
1934.861475,-1406.391290,229.828649,8512.368333
1934.861796,-1036.288319,536.266849,8660.409521
1934.862117,148.041188,383.047749,8290.306550
1934.862439,1850.514855,383.047749,8660.409521
1934.862760,2294.638420,919.314598,9400.615463
1934.863081,2590.720797,1915.238745,11769.274478
1934.863402,3404.947333,2068.457845,11103.089130
1934.863724,4589.276840,2221.676944,10807.006753
1934.864045,3182.885551,2068.457845,10807.006753
1934.864366,1776.494261,2374.896044,10807.006753
1934.864687,444.123565,612.876398,9252.574275
1934.865009,1480.411884,995.924147,8956.491898
1934.865330,518.144159,1225.752797,9178.553681
1934.865651,-2442.679609,1302.362347,9252.574275
1934.865973,-2886.803174,-766.095498,7550.100608
1934.866294,-2516.700203,76.609550,7105.977043
1934.866615,-1998.556043,919.314598,7624.121203
1934.866936,-2442.679609,-689.485948,7105.977043
1934.867258,-1554.432478,766.095498,8734.430116
1934.867579,-222.061783,2298.286494,9696.697840
1934.867900,518.144159,2145.067394,9548.656652
1934.868221,-666.185348,306.438199,9770.718434
1934.868543,-1258.350101,2145.067394,10881.027347
1934.868864,-740.205942,1608.800546,10584.944971
1934.869185,222.061783,766.095498,8364.327145
1934.869507,148.041188,1225.752797,9326.594869
1934.869828,-592.164754,1378.971896,9474.636058
1934.870149,-1258.350101,842.705048,8142.265362
1934.870470,-296.082377,383.047749,7624.121203
1934.870792,0.000000,0.000000,8512.368333
1934.871113,-666.185348,459.657299,8882.471304
1934.871434,370.102971,459.657299,9252.574275
1934.871755,2442.679609,1762.019645,9622.677246
1934.872077,1850.514855,1685.410096,10066.800811
1934.872398,592.164754,612.876398,9548.656652
1934.872719,0.000000,1302.362347,9474.636058
1934.873041,222.061783,995.924147,9844.739029
1934.873362,74.020594,-153.219100,9326.594869
1934.873683,-1184.329507,-1149.143247,9474.636058
1934.874004,-1776.494261,-612.876398,10288.862594
1934.874326,-2072.576638,-612.876398,10214.842000
1934.874647,-1924.535449,-1915.238745,8956.491898
1934.874968,-2812.782580,-1991.848295,8882.471304
1934.875290,-3775.050304,-689.485948,9474.636058
1934.875611,-2368.659014,-2145.067394,8734.430116
1934.875932,-222.061783,-1378.971896,8216.285956
1934.876253,814.226536,0.000000,10362.883188
1934.876575,0.000000,536.266849,11103.089130
1934.876896,518.144159,0.000000,10362.883188
1934.877217,1998.556043,536.266849,9844.739029
1934.877538,1702.473667,1225.752797,8956.491898
1934.877860,666.185348,306.438199,8290.306550
1934.878181,1258.350101,1072.533697,8142.265362
1934.878502,2442.679609,459.657299,8216.285956
1934.878824,888.247130,-229.828649,8068.244768
1934.879145,-888.247130,-383.047749,8438.347739
1934.879466,-1184.329507,-229.828649,8734.430116
1934.879787,-666.185348,229.828649,7624.121203
1934.880109,222.061783,-459.657299,7550.100608
1934.880430,0.000000,0.000000,9400.615463
1934.880751,-814.226536,1149.143247,10584.944971
1934.881072,0.000000,459.657299,9770.718434
1934.881394,222.061783,229.828649,9992.780217
1934.881715,-592.164754,995.924147,10584.944971
1934.882036,-1628.453072,689.485948,9992.780217
