#time,accel_x,accel_y,accel_z
5623.074547,-1110.308913,1838.629195,6957.935855
5623.074871,-1036.288319,766.095498,8660.409521
5623.075194,-1776.494261,766.095498,9252.574275
5623.075518,-2960.823768,1378.971896,9992.780217
5623.075841,-4145.153275,766.095498,11621.233289
5623.076165,-4145.153275,842.705048,13249.686362
5623.076488,-3182.885551,1685.410096,11843.295072
5623.076812,-1480.411884,2298.286494,10066.800811
5623.077135,-1702.473667,1915.238745,8734.430116
5623.077459,-1184.329507,1915.238745,7994.224174
5623.077783,-222.061783,2298.286494,7105.977043
5623.078106,-666.185348,2604.724693,5921.647536
5623.078430,148.041188,2681.334243,5329.482782
5623.078753,0.000000,1532.190996,6587.832884
5623.079077,592.164754,1072.533697,7698.141797
5623.079400,814.226536,1532.190996,8142.265362
5623.079724,-518.144159,1991.848295,9474.636058
5623.080048,-1036.288319,1455.581446,12213.398043
5623.080371,-1702.473667,1608.800546,12731.542202
5623.080695,-1110.308913,3447.429741,12287.418637
5623.081018,-1036.288319,2987.772442,12065.356855
5623.081342,-2516.700203,2681.334243,13323.706956
5623.081665,-2368.659014,2987.772442,12731.542202
5623.081989,-2294.638420,2681.334243,11621.233289
5623.082312,-3034.844362,3370.820191,10066.800811
5623.082636,-3849.070898,2987.772442,9474.636058
5623.082960,-4737.318029,1455.581446,9474.636058
5623.083283,-3701.029710,2911.162892,7920.203579
5623.083607,-4367.215058,3677.258390,7624.121203
5623.083930,-5255.462188,3447.429741,7846.182985
5623.084254,-5921.647536,3447.429741,9622.677246
5623.084577,-5699.585753,4060.306139,9770.718434
5623.084901,-4959.379811,5515.887586,9474.636058
5623.085225,-4811.338623,5056.230287,9178.553681
5623.085548,-5477.523971,4903.011187,9474.636058
5623.085872,-4885.359217,4596.572988,8956.491898
5623.086195,-3627.009116,5439.278036,7550.100608
5623.086519,-3923.091493,5362.668486,6217.729913
5623.086842,-4959.379811,4596.572988,6587.832884
5623.087166,-5329.482782,3907.087040,7031.956449
5623.087489,-4663.297435,4749.792088,6439.791695
5623.087813,-4737.318029,5209.449386,5477.523971
5623.088137,-4885.359217,4903.011187,6513.812290
5623.088460,-3997.112087,5209.449386,7920.203579
5623.088784,-2368.659014,6052.154434,8216.285956
5623.089107,-666.185348,6588.421283,7105.977043
5623.089431,0.000000,5975.544884,7254.018232
5623.089754,-666.185348,4979.620737,8734.430116
5623.090078,-296.082377,3983.696590,9400.615463
5623.090402,-444.123565,2757.943793,8882.471304
5623.090725,-2072.576638,1762.019645,8438.347739
5623.091049,-3108.864956,459.657299,9918.759623
5623.091372,-2960.823768,0.000000,11029.068536
5623.091696,-1850.514855,536.266849,10436.903782
5623.092019,-1406.391290,1072.533697,10066.800811
5623.092343,0.000000,1225.752797,11325.150913
5623.092666,740.205942,1915.238745,11917.315666
5623.092990,1702.473667,2834.553343,11547.212695
5623.093314,3108.864956,3140.991542,10658.965565
5623.093637,2886.803174,2834.553343,10955.047942
5623.093961,3182.885551,1532.190996,10362.883188
5623.094284,3701.029710,-229.828649,9178.553681
5623.094608,2590.720797,-1072.533697,8364.327145
5623.094931,592.164754,-2451.505594,8216.285956
5623.095255,-1184.329507,-3830.477490,10140.821405
5623.095579,-1924.535449,-4443.353888,11325.150913
5623.095902,-3404.947333,-3140.991542,11251.130318
5623.096226,-3552.988522,-2451.505594,11769.274478
5623.096549,-2664.741391,-1915.238745,12583.501014
5623.096873,-1258.350101,-536.266849,12657.521608
5623.097196,518.144159,1608.800546,10362.883188
5623.097520,888.247130,1915.238745,9400.615463
5623.097843,666.185348,2068.457845,9178.553681
5623.098167,1110.308913,1608.800546,7624.121203
5623.098490,1924.535449,689.485948,5921.647536
5623.098813,1924.535449,0.000000,4293.194464
5623.099137,222.061783,-1532.190996,4737.318029
5623.099460,-1406.391290,-2834.553343,6291.750507
5623.099783,-2442.679609,-3983.696590,7772.162391
5623.100106,-3775.050304,-3217.601092,9474.636058
5623.100430,-5847.626942,-2681.334243,11177.109724
5623.100753,-5847.626942,-1915.238745,13471.748144
5623.101076,-4515.256246,612.876398,13323.706956
5623.101399,-2368.659014,2604.724693,12287.418637
5623.101723,-1258.350101,3830.477490,11769.274478
5623.102046,-1702.473667,4136.915689,11769.274478
5623.102369,-444.123565,4826.401637,10362.883188
5623.102692,1628.453072,4673.182538,7772.162391
5623.103016,2220.617826,4136.915689,5033.400406
5623.103339,1998.556043,2298.286494,4885.359217
5623.103662,2146.597232,995.924147,5477.523971
5623.103986,444.123565,0.000000,5921.647536
5623.104309,-1924.535449,229.828649,7105.977043
5623.104632,-4071.132681,-766.095498,10510.924376
5623.104955,-4885.359217,-459.657299,12805.562797
5623.105279,-4515.256246,766.095498,13545.768739
5623.105602,-2072.576638,2528.115143,13027.624579
5623.105925,-1628.453072,4290.134789,12435.459826
5623.106248,-1702.473667,5669.106685,12435.459826
5623.106572,666.185348,5822.325785,11029.068536
5623.106895,2072.576638,6128.763984,7550.100608
5623.107218,3701.029710,5745.716235,4885.359217
5623.107542,4663.297435,4673.182538,4293.194464
5623.107865,5181.441594,2834.553343,2886.803174
5623.108188,4515.256246,2145.067394,2738.761985
5623.108511,1850.514855,383.047749,4367.215058
5623.108835,222.061783,-536.266849,7550.100608
5623.109158,-888.247130,-842.705048,10066.800811
5623.109481,-814.226536,0.000000,10436.903782
5623.109804,-370.102971,842.705048,11843.295072
5623.110128,-666.185348,1225.752797,12953.603985
5623.110451,296.082377,2451.505594,13989.892304
5623.110774,1110.308913,3447.429741,12953.603985
5623.111097,1702.473667,3447.429741,10732.986159
5623.111421,2886.803174,3064.381992,8660.409521
5623.111744,3182.885551,1762.019645,7624.121203
5623.112067,3997.112087,76.609550,6439.791695
5623.112391,2960.823768,-1532.190996,5773.606348
5623.112714,666.185348,-2681.334243,7254.018232
5623.113037,-1332.370696,-3753.867940,9622.677246
5623.113360,-2368.659014,-4290.134789,10955.047942
5623.113684,-2442.679609,-3677.258390,11621.233289
5623.114007,-3034.844362,-3217.601092,12361.439231
5623.114330,-3478.967927,-2834.553343,13989.892304
5623.114653,-2368.659014,-1838.629195,14359.995275
5623.114977,-1554.432478,-459.657299,12953.603985
5623.115300,-592.164754,842.705048,11325.150913
5623.115623,74.020594,612.876398,8660.409521
5623.115946,1702.473667,-153.219100,7698.141797
5623.116270,3256.906145,-229.828649,5921.647536
5623.116593,2442.679609,-1149.143247,4885.359217
5623.116916,444.123565,-2987.772442,6217.729913
5623.117240,-962.267725,-3370.820191,7698.141797
5623.117563,-2072.576638,-2987.772442,8364.327145
5623.117886,-962.267725,-2451.505594,9474.636058
5623.118209,-2294.638420,-2451.505594,11325.150913
5623.118533,-3034.844362,-1991.848295,12509.480420
5623.118856,-1628.453072,-919.314598,13175.665768
5623.119179,-962.267725,1149.143247,12065.356855
5623.119502,-666.185348,2068.457845,10288.862594
5623.119826,-592.164754,1915.238745,8734.430116
5623.120149,1036.288319,1532.190996,7402.059420
5623.120472,2738.761985,1378.971896,5625.565159
5623.120796,1110.308913,536.266849,4811.338623
5623.121119,0.000000,-766.095498,6661.853478
5623.121442,-1184.329507,-1532.190996,7624.121203
5623.121765,-1776.494261,-1532.190996,7994.224174
5623.122089,-666.185348,76.609550,8438.347739
5623.122412,-1850.514855,0.000000,11103.089130
5623.122735,-1554.432478,0.000000,13545.768739
5623.123058,148.041188,1378.971896,13471.748144
5623.123382,1036.288319,2987.772442,13175.665768
5623.123705,1184.329507,3830.477490,12065.356855
5623.124028,2072.576638,3753.867940,11621.233289
5623.124351,3552.988522,3677.258390,8956.491898
5623.124675,4515.256246,3600.648841,6291.750507
5623.124998,2960.823768,2298.286494,6143.709319
5623.125321,1480.411884,919.314598,7105.977043
5623.125645,-74.020594,76.609550,7624.121203
5623.125968,-370.102971,306.438199,7105.977043
5623.126291,-888.247130,842.705048,7550.100608
5623.126614,-1776.494261,1225.752797,9548.656652
5623.126938,-1702.473667,1685.410096,11103.089130
5623.127261,-888.247130,2911.162892,11103.089130
5623.127584,-222.061783,3830.477490,10510.924376
5623.127907,222.061783,4136.915689,10214.842000
5623.128231,888.247130,3677.258390,9696.697840
5623.128554,1998.556043,3064.381992,7994.224174
5623.128877,1776.494261,2451.505594,5995.668130
5623.129200,148.041188,459.657299,5699.585753
5623.129524,-1554.432478,-459.657299,7179.997637
5623.129847,-2368.659014,-1302.362347,7772.162391
5623.130170,-2368.659014,-1302.362347,7698.141797
5623.130494,-2442.679609,-1378.971896,8068.244768
5623.130817,-3034.844362,-1225.752797,9844.739029
5623.131140,-2072.576638,-383.047749,11029.068536
5623.131463,-1110.308913,612.876398,11029.068536
5623.131787,-592.164754,2451.505594,10658.965565
5623.132110,518.144159,2298.286494,11029.068536
5623.132433,1924.535449,1915.238745,10214.842000
5623.132756,2886.803174,1838.629195,8438.347739
5623.133080,2294.638420,842.705048,7105.977043
5623.133403,888.247130,-1455.581446,7846.182985
5623.133726,-1406.391290,-2604.724693,9030.512492
5623.134050,-2590.720797,-3064.381992,9548.656652
5623.134373,-2368.659014,-3140.991542,9548.656652
5623.134696,-3330.926739,-3447.429741,10436.903782
5623.135019,-3404.947333,-2681.334243,11991.336260
5623.135343,-2368.659014,-1532.190996,12657.521608
5623.135666,-1258.350101,306.438199,12435.459826
5623.135989,-740.205942,1455.581446,11621.233289
5623.136312,1036.288319,1072.533697,10955.047942
5623.136636,3108.864956,995.924147,9770.718434
5623.136959,3923.091493,1608.800546,7402.059420
5623.137282,2812.782580,459.657299,6439.791695
5623.137605,1776.494261,-1072.533697,7476.080014
5623.137929,0.000000,-2068.457845,8068.244768
5623.138252,-1184.329507,-2298.286494,7624.121203
5623.138575,-1628.453072,-2451.505594,7550.100608
5623.138899,-2812.782580,-2298.286494,9326.594869
5623.139222,-1924.535449,-1991.848295,10584.944971
5623.139545,-1332.370696,-612.876398,11399.171507
5623.139868,-888.247130,689.485948,11473.192101
5623.140192,0.000000,2374.896044,11177.109724
5623.140515,1628.453072,2911.162892,10584.944971
5623.140838,4293.194464,3217.601092,9622.677246
5623.141161,4515.256246,3370.820191,6291.750507
5623.141485,3478.967927,1685.410096,6143.709319
5623.141808,1850.514855,459.657299,6809.894666
5623.142131,518.144159,-766.095498,7254.018232
5623.142454,-888.247130,-1149.143247,7179.997637
5623.142778,-1998.556043,-1685.410096,7698.141797
5623.143101,-3701.029710,-1302.362347,9104.533087
5623.143424,-2516.700203,-689.485948,11103.089130
5623.143748,-1850.514855,612.876398,12435.459826
5623.144071,-1776.494261,2068.457845,11843.295072
5623.144394,-1258.350101,2834.553343,12213.398043
5623.144717,296.082377,2911.162892,11991.336260
5623.145041,2960.823768,4366.744339,9548.656652
5623.145364,3256.906145,4366.744339,6883.915261
5623.145687,2146.597232,2451.505594,7105.977043
5623.146010,814.226536,1302.362347,7402.059420
5623.146334,-1110.308913,76.609550,7772.162391
5623.146657,-1850.514855,0.000000,7550.100608
5623.146980,-3034.844362,-842.705048,8364.327145
5623.147304,-4293.194464,-383.047749,10436.903782
5623.147627,-3552.988522,689.485948,11029.068536
5623.147950,-2368.659014,1455.581446,11547.212695
5623.148273,-2368.659014,2987.772442,11251.130318
5623.148597,-1924.535449,3064.381992,11695.253884
5623.148920,444.123565,3830.477490,10807.006753
5623.149243,2516.700203,4749.792088,7846.182985
5623.149566,2590.720797,4213.525239,5403.503377
5623.149890,1628.453072,2757.943793,5625.565159
5623.150213,740.205942,1378.971896,6513.812290
5623.150536,-888.247130,536.266849,6069.688724
5623.150859,-1554.432478,0.000000,7105.977043
5623.151183,-3182.885551,-766.095498,8882.471304
5623.151506,-3923.091493,-689.485948,10807.006753
5623.151829,-2738.761985,-229.828649,11399.171507
5623.152153,-1924.535449,536.266849,11399.171507
5623.152476,-1924.535449,1915.238745,11695.253884
5623.152799,-1258.350101,2145.067394,12657.521608
5623.153122,814.226536,2604.724693,11917.315666
5623.153446,2220.617826,2987.772442,8290.306550
5623.153769,1998.556043,2451.505594,6883.915261
5623.154092,1776.494261,689.485948,7105.977043
5623.154415,222.061783,-459.657299,6957.935855
5623.154739,-518.144159,-766.095498,6735.874072
5623.155062,-1258.350101,-2145.067394,7772.162391
5623.155385,-3182.885551,-2528.115143,9474.636058
5623.155708,-2368.659014,-2451.505594,10881.027347
5623.156032,-962.267725,-1149.143247,11843.295072
5623.156355,-666.185348,76.609550,12213.398043
5623.156678,-222.061783,1838.629195,13323.706956
5623.157002,666.185348,2298.286494,13323.706956
5623.157325,3701.029710,2451.505594,11695.253884
5623.157648,4589.276840,2834.553343,8290.306550
5623.157971,3849.070898,2068.457845,7105.977043
5623.158295,3923.091493,689.485948,7179.997637
5623.158618,2220.617826,-459.657299,6735.874072
5623.158941,962.267725,-995.924147,6439.791695
5623.159264,-666.185348,-2145.067394,7105.977043
5623.159588,-3182.885551,-2604.724693,8660.409521
5623.159911,-2516.700203,-2068.457845,9696.697840
5623.160234,-1776.494261,-536.266849,10658.965565
5623.160558,-1924.535449,306.438199,10807.006753
5623.160881,-1998.556043,689.485948,12139.377449
5623.161204,-666.185348,1762.019645,11917.315666
5623.161527,1924.535449,2987.772442,10288.862594
5623.161851,2590.720797,2911.162892,7105.977043
5623.162174,1554.432478,1455.581446,6809.894666
5623.162497,1406.391290,76.609550,7179.997637
5623.162820,296.082377,-459.657299,6957.935855
5623.163144,-444.123565,-612.876398,6809.894666
5623.163467,-2146.597232,-1991.848295,8142.265362
5623.163790,-3034.844362,-2528.115143,9918.759623
5623.164113,-2442.679609,-1072.533697,11103.089130
5623.164437,-1110.308913,229.828649,11399.171507
5623.164760,-1332.370696,1225.752797,11917.315666
5623.165083,-962.267725,2068.457845,13471.748144
5623.165407,814.226536,2834.553343,13101.645173
5623.165730,2442.679609,3600.648841,10066.800811
5623.166053,3108.864956,4443.353888,7105.977043
5623.166376,3182.885551,2757.943793,7179.997637
5623.166700,1924.535449,995.924147,7550.100608
5623.167023,1110.308913,536.266849,6291.750507
5623.167346,-518.144159,-306.438199,6143.709319
5623.167669,-3034.844362,-1762.019645,7920.203579
5623.167993,-4145.153275,-1915.238745,9400.615463
5623.168316,-3182.885551,-1225.752797,10066.800811
5623.168639,-2368.659014,919.314598,10584.944971
5623.168962,-2738.761985,1608.800546,11399.171507
5623.169286,-1332.370696,1838.629195,12879.583391
5623.169609,444.123565,3217.601092,12287.418637
5623.169932,2294.638420,4136.915689,9326.594869
5623.170256,2442.679609,4060.306139,7254.018232
5623.170579,2812.782580,2451.505594,7105.977043
5623.170902,2220.617826,1378.971896,6439.791695
5623.171225,1480.411884,995.924147,5329.482782
5623.171549,-518.144159,-1072.533697,6291.750507
5623.171872,-3034.844362,-1991.848295,7105.977043
5623.172195,-3256.906145,-1991.848295,9252.574275
5623.172518,-2294.638420,-1685.410096,9770.718434
5623.172842,-1776.494261,-306.438199,10807.006753
5623.173165,-1702.473667,766.095498,11843.295072
5623.173488,-740.205942,1685.410096,13471.748144
5623.173812,1258.350101,2834.553343,12435.459826
5623.174135,2886.803174,3064.381992,10066.800811
5623.174458,2812.782580,2528.115143,8660.409521
5623.174781,3108.864956,1532.190996,8438.347739
5623.175105,2886.803174,766.095498,7254.018232
5623.175428,1850.514855,-229.828649,6587.832884
5623.175751,0.000000,-1378.971896,7328.038826
5623.176074,-2812.782580,-2451.505594,9104.533087
5623.176398,-3108.864956,-2604.724693,9770.718434
5623.176721,-2368.659014,-1991.848295,10658.965565
5623.177044,-2368.659014,-1378.971896,10732.986159
5623.177367,-2368.659014,-383.047749,12731.542202
5623.177691,-1110.308913,229.828649,13545.768739
5623.178014,1332.370696,2145.067394,12361.439231
5623.178337,1702.473667,2681.334243,9548.656652
5623.178661,1776.494261,2145.067394,8438.347739
5623.178984,2368.659014,842.705048,8290.306550
5623.179307,1702.473667,536.266849,6735.874072
5623.179630,1258.350101,-306.438199,6143.709319
5623.179954,-962.267725,-1762.019645,7105.977043
5623.180277,-3108.864956,-2451.505594,9104.533087
5623.180600,-2590.720797,-1915.238745,8808.450710
5623.180923,-1702.473667,-1302.362347,9104.533087
5623.181247,-1924.535449,-689.485948,9844.739029
5623.181570,-1850.514855,76.609550,11917.315666
5623.181893,-518.144159,919.314598,12435.459826
5623.182216,888.247130,2681.334243,10288.862594
5623.182540,1480.411884,3370.820191,8882.471304
5623.182863,1924.535449,2757.943793,7550.100608
5623.183186,2368.659014,1608.800546,6883.915261
5623.183510,2442.679609,536.266849,5995.668130
5623.183833,1258.350101,0.000000,5699.585753
5623.184156,-1702.473667,-1685.410096,7254.018232
5623.184479,-3108.864956,-2451.505594,8364.327145
5623.184803,-2516.700203,-2068.457845,9474.636058
5623.185126,-1998.556043,-1149.143247,9474.636058
5623.185449,-1924.535449,0.000000,11547.212695
5623.185772,-1184.329507,689.485948,12805.562797
5623.186096,888.247130,1762.019645,13323.706956
5623.186419,1776.494261,3370.820191,11325.150913
5623.186742,2516.700203,3677.258390,10214.842000
5623.187066,3256.906145,2681.334243,9400.615463
5623.187389,3404.947333,2221.676944,7698.141797
5623.187712,2886.803174,1225.752797,6587.832884
5623.188035,1406.391290,153.219100,7254.018232
5623.188359,-1628.453072,-1608.800546,8364.327145
5623.188682,-2664.741391,-2374.896044,9252.574275
5623.189005,-2368.659014,-2298.286494,9104.533087
5623.189328,-2368.659014,-1072.533697,9770.718434
5623.189652,-2368.659014,-612.876398,11325.150913
5623.189975,-1998.556043,459.657299,12879.583391
5623.190298,0.000000,1762.019645,12583.501014
5623.190621,0.000000,3294.210641,10140.821405
5623.190945,740.205942,3140.991542,9400.615463
5623.191268,2072.576638,2298.286494,8364.327145
5623.191591,2294.638420,1991.848295,6661.853478
5623.191915,2368.659014,1532.190996,4737.318029
5623.192238,-148.041188,-229.828649,5699.585753
5623.192561,-2368.659014,-1608.800546,7105.977043
5623.192884,-2738.761985,-2298.286494,8586.388927
5623.193208,-2146.597232,-1685.410096,8882.471304
5623.193531,-2516.700203,-689.485948,9548.656652
5623.193854,-2294.638420,-459.657299,11473.192101
5623.194177,-222.061783,153.219100,12953.603985
5623.194501,1480.411884,2068.457845,12213.398043
5623.194824,1480.411884,2987.772442,10658.965565
5623.195147,2442.679609,3140.991542,10066.800811
5623.195470,2886.803174,2374.896044,9030.512492
5623.195794,2886.803174,1991.848295,7105.977043
5623.196117,2516.700203,689.485948,6069.688724
5623.196440,-370.102971,-612.876398,6883.915261
5623.196764,-2368.659014,-2145.067394,8364.327145
5623.197087,-2664.741391,-3447.429741,9622.677246
5623.197410,-2886.803174,-2451.505594,9844.739029
5623.197733,-2738.761985,-1532.190996,10362.883188
5623.198057,-3404.947333,-766.095498,12731.542202
5623.198380,-1776.494261,229.828649,13027.624579
5623.198703,-296.082377,1838.629195,12287.418637
5623.199026,-296.082377,2757.943793,10214.842000
5623.199349,1110.308913,2451.505594,10288.862594
5623.199672,2220.617826,2298.286494,8586.388927
5623.199996,2146.597232,2145.067394,6809.894666
5623.200319,2294.638420,842.705048,5403.503377
5623.200642,-814.226536,-1149.143247,6661.853478
5623.200965,-2220.617826,-1762.019645,7328.038826
5623.201288,-1554.432478,-2681.334243,8660.409521
5623.201611,-2886.803174,-1455.581446,8364.327145
5623.201935,-2294.638420,229.828649,10214.842000
5623.202258,-2072.576638,383.047749,11399.171507
5623.202581,0.000000,1685.410096,11991.336260
5623.202904,592.164754,3370.820191,11399.171507
5623.203227,74.020594,4060.306139,10732.986159
5623.203550,1702.473667,3830.477490,10288.862594
5623.203873,2516.700203,2834.553343,8882.471304
5623.204197,2516.700203,2911.162892,6587.832884
5623.204520,1776.494261,1378.971896,5995.668130
5623.204843,-1258.350101,-766.095498,6735.874072
5623.205166,-2442.679609,-1532.190996,7254.018232
5623.205489,-3034.844362,-1608.800546,7994.224174
5623.205812,-3701.029710,-1378.971896,8438.347739
5623.206136,-3552.988522,-306.438199,10140.821405
5623.206459,-1850.514855,459.657299,12361.439231
5623.206782,-296.082377,1532.190996,12361.439231
5623.207105,74.020594,3064.381992,11621.233289
5623.207428,518.144159,3447.429741,11251.130318
5623.207751,2294.638420,3064.381992,10807.006753
5623.208074,2812.782580,3294.210641,8660.409521
5623.208398,3330.926739,2757.943793,6143.709319
5623.208721,2664.741391,995.924147,6883.915261
5623.209044,-222.061783,-919.314598,7328.038826
5623.209367,-1036.288319,-1685.410096,8586.388927
5623.209690,-1480.411884,-1685.410096,8660.409521
5623.210013,-2294.638420,-1225.752797,9178.553681
5623.210337,-1702.473667,-689.485948,11251.130318
5623.210660,-888.247130,306.438199,11917.315666
5623.210983,888.247130,1685.410096,12435.459826
5623.211306,444.123565,2911.162892,11177.109724
5623.211629,740.205942,3064.381992,11325.150913
5623.211952,1850.514855,3064.381992,9992.780217
5623.212276,2590.720797,2911.162892,7550.100608
5623.212599,2664.741391,2068.457845,5477.523971
5623.212922,1258.350101,842.705048,5847.626942
5623.213245,-592.164754,-689.485948,7031.956449
5623.213568,-1480.411884,-1838.629195,7031.956449
5623.213891,-2516.700203,-2221.676944,7476.080014
5623.214214,-3478.967927,-1915.238745,8660.409521
5623.214538,-3034.844362,-1302.362347,10807.006753
5623.214861,-1184.329507,-383.047749,11991.336260
5623.215184,0.000000,1302.362347,11917.315666
5623.215507,-814.226536,1685.410096,11917.315666
5623.215830,592.164754,2374.896044,12065.356855
5623.216153,1850.514855,2298.286494,10732.986159
5623.216477,2812.782580,2834.553343,7698.141797
5623.216800,3108.864956,1455.581446,6883.915261
5623.217123,1036.288319,76.609550,6809.894666
5623.217446,-148.041188,-1225.752797,7624.121203
5623.217769,-888.247130,-2068.457845,7846.182985
5623.218092,-1850.514855,-2757.943793,8438.347739
5623.218416,-3034.844362,-2145.067394,9622.677246
5623.218739,-2516.700203,-919.314598,11695.253884
5623.219062,-740.205942,229.828649,12213.398043
5623.219385,0.000000,1685.410096,11399.171507
5623.219708,0.000000,1915.238745,12065.356855
5623.220031,888.247130,2298.286494,11843.295072
5623.220354,2220.617826,2528.115143,10436.903782
5623.220678,2960.823768,3140.991542,7624.121203
5623.221001,2738.761985,1762.019645,6809.894666
5623.221324,370.102971,153.219100,7105.977043
5623.221647,-296.082377,-536.266849,7328.038826
5623.221970,-1110.308913,-1225.752797,7254.018232
5623.222293,-2368.659014,-1915.238745,6735.874072
5623.222617,-3256.906145,-1149.143247,8734.430116
5623.222940,-1850.514855,-689.485948,10066.800811
5623.223263,-592.164754,536.266849,10066.800811
5623.223586,-518.144159,2221.676944,10140.821405
5623.223909,-666.185348,2068.457845,11399.171507
5623.224232,592.164754,2374.896044,11103.089130
5623.224555,2072.576638,3140.991542,9104.533087
5623.224879,3256.906145,3294.210641,7105.977043
5623.225202,2072.576638,1838.629195,6957.935855
5623.225525,962.267725,306.438199,7624.121203
5623.225848,0.000000,-689.485948,8142.265362
5623.226171,-888.247130,-1072.533697,8216.285956
5623.226494,-2294.638420,-1302.362347,9104.533087
5623.226818,-2368.659014,-1378.971896,10510.924376
5623.227141,-962.267725,-536.266849,12065.356855
5623.227464,-518.144159,919.314598,11621.233289
5623.227787,0.000000,1991.848295,11769.274478
5623.228110,74.020594,2221.676944,12953.603985
5623.228433,518.144159,2757.943793,11843.295072
5623.228757,2220.617826,3294.210641,9400.615463
5623.229080,2812.782580,2834.553343,7031.956449
5623.229403,1184.329507,1455.581446,6735.874072
5623.229726,148.041188,0.000000,6661.853478
5623.230049,-296.082377,-995.924147,6809.894666
5623.230372,-2146.597232,-1149.143247,6957.935855
5623.230695,-3627.009116,-1608.800546,8216.285956
5623.231019,-3108.864956,-1838.629195,9400.615463
5623.231342,-1924.535449,-536.266849,10140.821405
5623.231665,-962.267725,1225.752797,10362.883188
5623.231988,-1332.370696,1072.533697,12139.377449
5623.232311,-814.226536,1991.848295,11843.295072
5623.232634,888.247130,2987.772442,11029.068536
5623.232958,2368.659014,3294.210641,8216.285956
5623.233281,2812.782580,2528.115143,6883.915261
5623.233604,1850.514855,1302.362347,6513.812290
5623.233927,1110.308913,-153.219100,7105.977043
5623.234250,148.041188,-1378.971896,7031.956449
5623.234573,-1628.453072,-1608.800546,7031.956449
5623.234896,-3034.844362,-1991.848295,8882.471304
5623.235220,-2664.741391,-2145.067394,10955.047942
5623.235543,-962.267725,-842.705048,11473.192101
5623.235866,-814.226536,383.047749,11621.233289
5623.236189,-296.082377,689.485948,12583.501014
5623.236512,296.082377,1838.629195,13323.706956
5623.236835,1554.432478,2681.334243,11695.253884
5623.237159,3182.885551,2987.772442,9178.553681
5623.237482,2812.782580,2068.457845,7624.121203
5623.237805,1554.432478,842.705048,7550.100608
5623.238128,1258.350101,-229.828649,7624.121203
5623.238451,370.102971,-1072.533697,6513.812290
5623.238774,-1702.473667,-2145.067394,7179.997637
5623.239098,-2886.803174,-2528.115143,9030.512492
5623.239421,-2368.659014,-2451.505594,10510.924376
5623.239744,-1332.370696,-919.314598,10584.944971
5623.240067,-1258.350101,229.828649,10584.944971
5623.240390,-814.226536,919.314598,11991.336260
5623.240713,0.000000,1762.019645,12139.377449
5623.241036,592.164754,3064.381992,10066.800811
5623.241360,3034.844362,3447.429741,8586.388927
5623.241683,2368.659014,2298.286494,6883.915261
5623.242006,1924.535449,995.924147,6661.853478
5623.242329,1628.453072,0.000000,6291.750507
5623.242652,74.020594,-842.705048,6365.771101
5623.242975,-1258.350101,-1072.533697,7550.100608
5623.243299,-2368.659014,-2451.505594,9252.574275
5623.243622,-2368.659014,-1915.238745,9770.718434
5623.243945,-888.247130,-459.657299,10807.006753
5623.244268,-1110.308913,459.657299,11695.253884
5623.244591,-962.267725,612.876398,12953.603985
5623.244914,0.000000,1915.238745,12805.562797
5623.245238,1036.288319,3140.991542,10584.944971
5623.245561,1776.494261,2987.772442,8512.368333
5623.245884,1554.432478,2298.286494,8216.285956
5623.246207,1332.370696,842.705048,6587.832884
5623.246530,1184.329507,0.000000,6365.771101
5623.246853,-888.247130,-842.705048,6365.771101
5623.247176,-2590.720797,-1762.019645,7920.203579
5623.247500,-3330.926739,-2298.286494,9696.697840
5623.247823,-2442.679609,-1685.410096,10436.903782
5623.248146,-1776.494261,-383.047749,9992.780217
5623.248469,-1850.514855,153.219100,11917.315666
5623.248792,-1332.370696,612.876398,13175.665768
5623.249115,74.020594,1991.848295,12953.603985
5623.249439,1036.288319,3447.429741,10732.986159
5623.249762,1628.453072,2911.162892,8808.450710
5623.250085,1258.350101,2451.505594,7476.080014
5623.250408,1924.535449,536.266849,6735.874072
5623.250731,1850.514855,229.828649,6439.791695
5623.251054,-370.102971,-459.657299,5995.668130
5623.251377,-2590.720797,-1762.019645,7846.182985
5623.251701,-2664.741391,-1838.629195,9104.533087
5623.252024,-1850.514855,-842.705048,9474.636058
5623.252347,-1850.514855,612.876398,9474.636058
5623.252670,-1036.288319,0.000000,11843.295072
5623.252993,-1184.329507,1608.800546,12139.377449
5623.253316,0.000000,2757.943793,11769.274478
5623.253640,962.267725,3907.087040,9992.780217
5623.253963,1480.411884,3600.648841,8586.388927
5623.254286,1110.308913,2451.505594,8216.285956
5623.254609,1406.391290,2145.067394,6883.915261
5623.254932,1036.288319,1072.533697,5699.585753
5623.255255,-962.267725,-383.047749,6365.771101
5623.255579,-2960.823768,-1455.581446,8586.388927
5623.255902,-3108.864956,-2221.676944,9474.636058
5623.256225,-2516.700203,-1149.143247,9474.636058
5623.256548,-2146.597232,0.000000,10288.862594
5623.256871,-1628.453072,612.876398,11473.192101
5623.257194,-1184.329507,1302.362347,13101.645173
5623.257517,0.000000,2451.505594,11991.336260
5623.257841,814.226536,3294.210641,9844.739029
5623.258164,1184.329507,2834.553343,9548.656652
5623.258487,1850.514855,2374.896044,8068.244768
5623.258810,2220.617826,1225.752797,7031.956449
5623.259133,1554.432478,0.000000,5847.626942
5623.259456,0.000000,-995.924147,6735.874072
5623.259780,-1110.308913,-1225.752797,8586.388927
5623.260103,-1924.535449,-1608.800546,9474.636058
5623.260426,-1258.350101,-1225.752797,9252.574275
5623.260749,-1406.391290,-459.657299,10732.986159
5623.261072,-1036.288319,0.000000,12287.418637
5623.261395,-222.061783,1149.143247,13471.748144
5623.261718,888.247130,2604.724693,11621.233289
5623.262042,1406.391290,2757.943793,10510.924376
5623.262365,1110.308913,2451.505594,9326.594869
5623.262688,2294.638420,1685.410096,8068.244768
5623.263011,2146.597232,995.924147,6069.688724
5623.263334,962.267725,153.219100,5773.606348
5623.263657,-962.267725,-1072.533697,6883.915261
5623.263981,-1924.535449,-2451.505594,7846.182985
5623.264304,-1924.535449,-1685.410096,8438.347739
5623.264627,-2590.720797,-1302.362347,9030.512492
5623.264950,-2738.761985,-1378.971896,11103.089130
5623.265273,-2072.576638,-689.485948,12657.521608
5623.265596,-1406.391290,459.657299,13249.686362
5623.265920,0.000000,2221.676944,11769.274478
5623.266243,222.061783,2757.943793,10584.944971
5623.266566,962.267725,2451.505594,9104.533087
5623.266889,2442.679609,2068.457845,7846.182985
5623.267212,2368.659014,1685.410096,5847.626942
5623.267535,1258.350101,229.828649,5921.647536
5623.267858,-666.185348,-1149.143247,7179.997637
5623.268182,-1554.432478,-1762.019645,8512.368333
5623.268505,-1332.370696,-1225.752797,8438.347739
5623.268828,-1554.432478,-919.314598,9104.533087
5623.269151,-1628.453072,-306.438199,10881.027347
5623.269474,-1776.494261,459.657299,12805.562797
5623.269797,-518.144159,2145.067394,12435.459826
5623.270121,592.164754,3217.601092,11769.274478
5623.270444,1184.329507,3294.210641,10362.883188
5623.270767,962.267725,3064.381992,9474.636058
5623.271090,2368.659014,2757.943793,7402.059420
5623.271413,1924.535449,2221.676944,5995.668130
5623.271736,888.247130,229.828649,5625.565159
5623.272060,-666.185348,-612.876398,7772.162391
5623.272383,-1554.432478,-1149.143247,8438.347739
5623.272706,-2072.576638,-1149.143247,8364.327145
5623.273029,-2368.659014,-919.314598,9104.533087
5623.273352,-1628.453072,-229.828649,10955.047942
5623.273675,-1480.411884,612.876398,12287.418637
5623.273998,148.041188,1532.190996,12583.501014
5623.274322,518.144159,3217.601092,11473.192101
5623.274645,444.123565,2987.772442,10584.944971
5623.274968,2664.741391,3140.991542,9178.553681
5623.275291,2960.823768,3294.210641,7105.977043
5623.275614,2516.700203,1991.848295,5033.400406
5623.275937,1480.411884,76.609550,5995.668130
5623.276261,148.041188,-306.438199,7179.997637
5623.276584,-148.041188,-995.924147,8438.347739
5623.276907,-1554.432478,-1225.752797,8586.388927
5623.277230,-2368.659014,-1225.752797,10288.862594
5623.277553,-2368.659014,-842.705048,12065.356855
5623.277876,-1258.350101,383.047749,12583.501014
5623.278199,-888.247130,1991.848295,11991.336260
5623.278523,-666.185348,2451.505594,11991.336260
5623.278846,0.000000,2451.505594,11177.109724
5623.279169,1850.514855,2681.334243,8956.491898
5623.279492,2146.597232,2451.505594,6661.853478
5623.279815,1480.411884,1225.752797,5403.503377
5623.280138,296.082377,0.000000,6661.853478
5623.280462,-740.205942,-1991.848295,7328.038826
5623.280785,-1036.288319,-1685.410096,7920.203579
5623.281108,-2368.659014,-1762.019645,8216.285956
5623.281431,-3034.844362,-1838.629195,10214.842000
5623.281754,-2664.741391,-1225.752797,11917.315666
5623.282077,-1628.453072,0.000000,12139.377449
5623.282401,-222.061783,842.705048,12213.398043
5623.282724,-518.144159,1991.848295,11251.130318
5623.283047,0.000000,2374.896044,10955.047942
5623.283370,2368.659014,2604.724693,9178.553681
5623.283693,2812.782580,2604.724693,6883.915261
5623.284016,2146.597232,1378.971896,6217.729913
5623.284339,962.267725,-383.047749,7105.977043
5623.284663,222.061783,-1378.971896,7402.059420
5623.284986,-888.247130,-1149.143247,7105.977043
5623.285309,-2294.638420,-1838.629195,8586.388927
5623.285632,-2072.576638,-1532.190996,10732.986159
5623.285955,-1850.514855,-995.924147,11843.295072
5623.286278,-962.267725,689.485948,11843.295072
5623.286602,0.000000,1685.410096,11991.336260
5623.286925,-296.082377,2451.505594,11917.315666
5623.287248,370.102971,2604.724693,10955.047942
5623.287571,1998.556043,2911.162892,8956.491898
5623.287894,2590.720797,2681.334243,6513.812290
5623.288217,1924.535449,1455.581446,6291.750507
5623.288540,814.226536,-153.219100,6957.935855
5623.288864,0.000000,-1149.143247,7550.100608
5623.289187,-888.247130,-1302.362347,7772.162391
5623.289510,-2220.617826,-1378.971896,9030.512492
5623.289833,-2072.576638,-1378.971896,10881.027347
5623.290156,-1406.391290,-766.095498,11843.295072
5623.290479,-518.144159,612.876398,11917.315666
5623.290803,0.000000,1455.581446,11843.295072
5623.291126,-444.123565,2451.505594,11843.295072
5623.291449,1258.350101,2757.943793,10288.862594
5623.291772,2738.761985,3370.820191,8364.327145
5623.292095,2664.741391,2451.505594,5995.668130
5623.292418,2442.679609,766.095498,6217.729913
5623.292742,1036.288319,-306.438199,7105.977043
5623.293065,518.144159,-919.314598,7476.080014
5623.293388,-888.247130,-1302.362347,7624.121203
5623.293711,-2442.679609,-1838.629195,9104.533087
5623.294034,-2146.597232,-1608.800546,10955.047942
5623.294357,-1258.350101,76.609550,11547.212695
5623.294680,-518.144159,1302.362347,11843.295072
5623.295004,-888.247130,1685.410096,12361.439231
5623.295327,-1036.288319,1915.238745,12361.439231
5623.295650,592.164754,2604.724693,10881.027347
5623.295973,1776.494261,2757.943793,8290.306550
5623.296296,1702.473667,1915.238745,6661.853478
5623.296619,296.082377,689.485948,6217.729913
5623.296943,0.000000,-766.095498,7031.956449
5623.297266,-962.267725,-1455.581446,6809.894666
5623.297589,-2812.782580,-1991.848295,7031.956449
5623.297912,-3923.091493,-2451.505594,9030.512492
5623.298235,-3256.906145,-1915.238745,10584.944971
5623.298558,-2516.700203,-612.876398,10955.047942
5623.298882,-1258.350101,919.314598,11251.130318
5623.299205,-1332.370696,1072.533697,11843.295072
5623.299528,-444.123565,1838.629195,11843.295072
5623.299851,1258.350101,2681.334243,9696.697840
5623.300175,2664.741391,2987.772442,8290.306550
5623.300498,2516.700203,2145.067394,6661.853478
5623.300821,2072.576638,919.314598,7254.018232
5623.301144,1480.411884,-306.438199,7254.018232
5623.301467,444.123565,-766.095498,6809.894666
5623.301791,-1184.329507,-1532.190996,8142.265362
5623.302114,-2072.576638,-2221.676944,9400.615463
5623.302437,-2294.638420,-1762.019645,10658.965565
5623.302760,-1258.350101,-459.657299,11029.068536
5623.303084,-1332.370696,383.047749,11473.192101
5623.303407,-2146.597232,919.314598,12657.521608
5623.303730,-1406.391290,2068.457845,12139.377449
5623.304053,666.185348,2451.505594,9992.780217
5623.304376,1628.453072,3064.381992,8068.244768
5623.304700,2072.576638,2298.286494,7476.080014
5623.305023,1480.411884,612.876398,7698.141797
5623.305346,1036.288319,229.828649,7550.100608
5623.305669,0.000000,-919.314598,7402.059420
5623.305993,-1776.494261,-2145.067394,9104.533087
5623.306316,-2664.741391,-1762.019645,9992.780217
5623.306639,-2516.700203,-1149.143247,10732.986159
5623.306962,-1036.288319,-383.047749,11029.068536
5623.307285,-888.247130,612.876398,11177.109724
5623.307609,-1110.308913,1302.362347,12139.377449
5623.307932,296.082377,2528.115143,11547.212695
5623.308255,2146.597232,3140.991542,9474.636058
5623.308578,2590.720797,3447.429741,7031.956449
5623.308902,2368.659014,2451.505594,6735.874072
5623.309225,2442.679609,1072.533697,6809.894666
5623.309548,1850.514855,153.219100,6291.750507
5623.309871,0.000000,-689.485948,6217.729913
5623.310195,-1924.535449,-1455.581446,8364.327145
5623.310518,-2664.741391,-1838.629195,9696.697840
5623.310841,-2442.679609,-1225.752797,10066.800811
5623.311164,-1776.494261,229.828649,10584.944971
5623.311487,-2220.617826,919.314598,11103.089130
5623.311811,-2146.597232,1455.581446,12287.418637
5623.312134,-518.144159,2528.115143,11695.253884
5623.312457,592.164754,3217.601092,9326.594869
5623.312780,1332.370696,3294.210641,7402.059420
5623.313104,1406.391290,2145.067394,7105.977043
5623.313427,1184.329507,842.705048,6809.894666
5623.313750,1110.308913,153.219100,6365.771101
5623.314073,-1332.370696,-1072.533697,6957.935855
5623.314396,-2368.659014,-1915.238745,8956.491898
5623.314720,-3330.926739,-2145.067394,10362.883188
5623.315043,-2294.638420,-995.924147,10584.944971
5623.315366,-1258.350101,0.000000,11473.192101
5623.315689,-1628.453072,766.095498,12065.356855
5623.316013,-814.226536,1915.238745,13249.686362
5623.316336,666.185348,2374.896044,11917.315666
5623.316659,1702.473667,2911.162892,9548.656652
5623.316982,2516.700203,2757.943793,8216.285956
5623.317305,2368.659014,1762.019645,7698.141797
5623.317629,2664.741391,229.828649,6883.915261
5623.317952,1554.432478,-306.438199,6217.729913
5623.318275,-444.123565,-1302.362347,6809.894666
5623.318598,-1776.494261,-2757.943793,9178.553681
5623.318922,-2516.700203,-2145.067394,9918.759623
5623.319245,-2072.576638,-1225.752797,10436.903782
5623.319568,-1702.473667,-306.438199,10732.986159
5623.319891,-2220.617826,0.000000,11843.295072
5623.320214,-888.247130,766.095498,11695.253884
5623.320538,370.102971,2528.115143,11177.109724
5623.320861,1332.370696,2911.162892,9104.533087
5623.321184,1998.556043,2451.505594,7698.141797
5623.321507,2368.659014,1608.800546,6957.935855
5623.321831,2664.741391,919.314598,6439.791695
5623.322154,1332.370696,76.609550,6069.688724
5623.322477,-1036.288319,-1225.752797,7476.080014
5623.322800,-1924.535449,-1991.848295,9326.594869
5623.323123,-1924.535449,-1838.629195,10214.842000
5623.323447,-888.247130,-689.485948,10288.862594
5623.323770,-1036.288319,229.828649,11325.150913
5623.324093,-1554.432478,536.266849,12509.480420
5623.324416,0.000000,1762.019645,12435.459826
5623.324740,1628.453072,2987.772442,10955.047942
5623.325063,1924.535449,3524.039291,8660.409521
5623.325386,2368.659014,2528.115143,8438.347739
5623.325709,2738.761985,1991.848295,7328.038826
5623.326033,2812.782580,1302.362347,6291.750507
5623.326356,888.247130,76.609550,5847.626942
5623.326679,-1702.473667,-1225.752797,7846.182985
5623.327002,-3256.906145,-2068.457845,9474.636058
5623.327325,-2664.741391,-1762.019645,9548.656652
5623.327649,-1924.535449,-766.095498,9992.780217
5623.327972,-2738.761985,0.000000,11473.192101
5623.328295,-2960.823768,383.047749,13175.665768
5623.328618,-1332.370696,1532.190996,12657.521608
5623.328942,0.000000,2911.162892,10658.965565
5623.329265,1258.350101,3370.820191,8660.409521
5623.329588,1776.494261,2604.724693,8808.450710
5623.329911,2368.659014,1532.190996,7105.977043
5623.330234,2368.659014,1302.362347,5995.668130
5623.330558,740.205942,153.219100,5847.626942
5623.330881,-1110.308913,-1225.752797,7994.224174
5623.331204,-2368.659014,-1608.800546,9400.615463
5623.331527,-2368.659014,-1072.533697,9178.553681
5623.331851,-1184.329507,0.000000,9918.759623
5623.332174,-2072.576638,0.000000,11547.212695
5623.332497,-1110.308913,536.266849,12213.398043
5623.332820,0.000000,2145.067394,12657.521608
5623.333143,592.164754,3447.429741,10658.965565
5623.333467,1776.494261,3370.820191,9400.615463
5623.333790,2886.803174,2221.676944,7846.182985
5623.334113,3404.947333,2221.676944,6365.771101
5623.334436,2442.679609,1685.410096,5107.421000
5623.334760,814.226536,-153.219100,6365.771101
5623.335083,-1110.308913,-1532.190996,8142.265362
5623.335406,-2590.720797,-2145.067394,9696.697840
5623.335729,-2664.741391,-1378.971896,9474.636058
5623.336052,-2664.741391,-995.924147,10807.006753
5623.336376,-2886.803174,-306.438199,11621.233289
5623.336699,-1554.432478,1072.533697,12361.439231
5623.337022,-592.164754,2145.067394,12065.356855
5623.337345,-148.041188,3294.210641,10510.924376
5623.337669,962.267725,3294.210641,9400.615463
5623.337992,2220.617826,2451.505594,7846.182985
5623.338315,3997.112087,2451.505594,5995.668130
5623.338638,2886.803174,1532.190996,5625.565159
5623.338961,888.247130,0.000000,6735.874072
5623.339285,-1628.453072,-1532.190996,8364.327145
5623.339608,-2294.638420,-1608.800546,9474.636058
5623.339931,-1776.494261,-995.924147,9326.594869
5623.340254,-2220.617826,-919.314598,10881.027347
5623.340578,-2146.597232,153.219100,11917.315666
5623.340901,-1258.350101,842.705048,12657.521608
5623.341224,444.123565,2451.505594,11621.233289
5623.341547,740.205942,2834.553343,10510.924376
5623.341871,1184.329507,2911.162892,9474.636058
5623.342194,2886.803174,2528.115143,8364.327145
5623.342517,3701.029710,1991.848295,5477.523971
5623.342840,2368.659014,995.924147,4959.379811
5623.343163,148.041188,-766.095498,6217.729913
5623.343487,-1554.432478,-2298.286494,8512.368333
5623.343810,-2442.679609,-2145.067394,9030.512492
5623.344133,-2516.700203,-1685.410096,9474.636058
5623.344456,-3256.906145,-1455.581446,10955.047942
5623.344780,-3552.988522,-1149.143247,12509.480420
5623.345103,-1850.514855,306.438199,12953.603985
5623.345426,-814.226536,1991.848295,12139.377449
5623.345749,0.000000,2834.553343,10658.965565
5623.346072,1110.308913,2451.505594,9918.759623
5623.346396,2590.720797,2145.067394,8364.327145
5623.346719,3182.885551,2145.067394,6143.709319
5623.347042,1924.535449,612.876398,5921.647536
5623.347365,444.123565,-1149.143247,7105.977043
5623.347689,-1258.350101,-2221.676944,8734.430116
5623.348012,-1332.370696,-2145.067394,8586.388927
5623.348335,-2146.597232,-1608.800546,9326.594869
5623.348658,-2812.782580,-1225.752797,11103.089130
5623.348981,-1924.535449,-536.266849,12213.398043
5623.349305,-888.247130,612.876398,12065.356855
5623.349628,148.041188,2221.676944,11473.192101
5623.349951,740.205942,2834.553343,10732.986159
5623.350274,2368.659014,4060.306139,9474.636058
5623.350598,3923.091493,3447.429741,7550.100608
5623.350921,3330.926739,2451.505594,5995.668130
5623.351244,2368.659014,689.485948,5921.647536
5623.351567,370.102971,-1072.533697,7031.956449
5623.351890,-962.267725,-1762.019645,8512.368333
5623.352214,-1702.473667,-1762.019645,9030.512492
5623.352537,-2664.741391,-1685.410096,9622.677246
5623.352860,-3552.988522,-1685.410096,11769.274478
5623.353183,-2442.679609,-919.314598,12583.501014
5623.353507,-1776.494261,459.657299,12361.439231
5623.353830,-1628.453072,2221.676944,11843.295072
5623.354153,-592.164754,2834.553343,11399.171507
5623.354476,1406.391290,2757.943793,9696.697840
5623.354799,3330.926739,2757.943793,7105.977043
5623.355123,2590.720797,1838.629195,5107.421000
5623.355446,1184.329507,766.095498,6513.812290
5623.355769,0.000000,-689.485948,7550.100608
5623.356092,-1258.350101,-1302.362347,8068.244768
5623.356416,-1628.453072,-1532.190996,8216.285956
5623.356739,-2812.782580,-1762.019645,9474.636058
5623.357062,-2738.761985,-383.047749,11843.295072
5623.357385,-1184.329507,459.657299,11843.295072
5623.357709,-296.082377,1685.410096,11769.274478
5623.358032,-296.082377,2911.162892,11399.171507
5623.358355,370.102971,3064.381992,11177.109724
5623.358678,2072.576638,3370.820191,9252.574275
5623.359001,3552.988522,3064.381992,6587.832884
5623.359325,2812.782580,2834.553343,4663.297435
5623.359648,1702.473667,536.266849,6365.771101
5623.359971,-444.123565,-536.266849,7031.956449
5623.360294,-2220.617826,-1378.971896,7328.038826
5623.360618,-2960.823768,-2298.286494,8068.244768
5623.360941,-4589.276840,-2221.676944,10214.842000
5623.361264,-4293.194464,-1378.971896,11843.295072
5623.361587,-3182.885551,-229.828649,11843.295072
5623.361910,-2146.597232,919.314598,11695.253884
5623.362234,-1998.556043,1455.581446,11843.295072
5623.362557,-148.041188,2374.896044,12065.356855
5623.362880,1924.535449,2757.943793,9548.656652
5623.363203,3552.988522,2911.162892,6809.894666
5623.363527,3256.906145,1991.848295,6069.688724
5623.363850,1776.494261,0.000000,7105.977043
5623.364173,518.144159,-153.219100,7179.997637
5623.364496,-370.102971,-1762.019645,7994.224174
5623.364819,-1184.329507,-2221.676944,9104.533087
5623.365143,-2146.597232,-2221.676944,10436.903782
5623.365466,-1258.350101,-1225.752797,11843.295072
5623.365789,-444.123565,0.000000,11621.233289
5623.366112,0.000000,1455.581446,11843.295072
5623.366436,0.000000,1915.238745,11843.295072
5623.366759,1554.432478,2987.772442,11251.130318
5623.367082,3182.885551,3140.991542,8956.491898
5623.367405,3775.050304,3064.381992,6069.688724
5623.367728,2368.659014,1838.629195,5921.647536
5623.368052,1258.350101,0.000000,6661.853478
5623.368375,-814.226536,-1532.190996,6661.853478
5623.368698,-1554.432478,-1608.800546,7476.080014
5623.369021,-4293.194464,-2757.943793,9252.574275
5623.369345,-4737.318029,-2681.334243,10214.842000
5623.369668,-3849.070898,-1915.238745,11917.315666
5623.369991,-2368.659014,-536.266849,11695.253884
5623.370314,-2294.638420,689.485948,12213.398043
5623.370637,-1554.432478,2374.896044,12435.459826
5623.370961,1036.288319,2298.286494,11251.130318
5623.371284,3775.050304,3524.039291,8586.388927
5623.371607,3849.070898,2987.772442,6069.688724
5623.371930,3108.864956,2145.067394,6883.915261
5623.372254,2294.638420,612.876398,7179.997637
5623.372577,1184.329507,-153.219100,7179.997637
5623.372900,0.000000,-919.314598,6809.894666
5623.373223,-2368.659014,-1302.362347,9178.553681
5623.373547,-2960.823768,-1532.190996,10732.986159
5623.373870,-1998.556043,-1072.533697,11473.192101
5623.374193,-1776.494261,153.219100,11251.130318
5623.374516,-1258.350101,1378.971896,11695.253884
5623.374839,-1184.329507,2374.896044,12361.439231
5623.375163,444.123565,2757.943793,10881.027347
5623.375486,2664.741391,3370.820191,7846.182985
5623.375809,2590.720797,3753.867940,6143.709319
5623.376132,1850.514855,1685.410096,6587.832884
5623.376456,592.164754,383.047749,6735.874072
5623.376779,-1110.308913,-612.876398,6735.874072
5623.377102,-1850.514855,-1378.971896,6957.935855
5623.377425,-4219.173869,-1991.848295,8808.450710
5623.377748,-4219.173869,-2298.286494,9844.739029
5623.378072,-3034.844362,-689.485948,10955.047942
5623.378395,-2220.617826,612.876398,11029.068536
5623.378718,-1480.411884,1149.143247,11991.336260
5623.379041,-370.102971,2068.457845,12509.480420
5623.379365,2072.576638,3447.429741,10955.047942
5623.379688,3923.091493,3907.087040,7846.182985
5623.380011,3552.988522,3600.648841,6957.935855
5623.380334,3775.050304,2068.457845,7328.038826
5623.380657,2812.782580,536.266849,6957.935855
5623.380981,1554.432478,-383.047749,7105.977043
5623.381304,0.000000,-1225.752797,7920.203579
5623.381627,-2516.700203,-2374.896044,9696.697840
5623.381950,-2368.659014,-1838.629195,10510.924376
5623.382274,-1998.556043,-536.266849,11177.109724
5623.382597,-1554.432478,306.438199,11547.212695
5623.382920,-1850.514855,766.095498,12287.418637
5623.383243,-888.247130,1455.581446,11917.315666
5623.383566,1332.370696,2681.334243,9992.780217
5623.383890,1776.494261,2911.162892,7328.038826
5623.384213,1554.432478,2145.067394,6735.874072
5623.384536,1628.453072,612.876398,7179.997637
5623.384859,666.185348,-612.876398,6587.832884
5623.385183,-592.164754,-995.924147,6809.894666
5623.385506,-2886.803174,-2145.067394,7994.224174
5623.385829,-3997.112087,-2681.334243,10288.862594
5623.386152,-3108.864956,-2145.067394,11473.192101
5623.386476,-1702.473667,-612.876398,11399.171507
5623.386799,-2072.576638,0.000000,11325.150913
5623.387122,-1628.453072,1302.362347,12657.521608
5623.387445,518.144159,2528.115143,12361.439231
5623.387768,2590.720797,4060.306139,9622.677246
5623.388092,3256.906145,4213.525239,7179.997637
5623.388415,3182.885551,2528.115143,7105.977043
5623.388738,2368.659014,1455.581446,6809.894666
5623.389061,1628.453072,1072.533697,6513.812290
5623.389385,740.205942,-383.047749,6365.771101
5623.389708,-2220.617826,-1149.143247,8438.347739
5623.390031,-3775.050304,-2221.676944,9770.718434
5623.390354,-2960.823768,-1762.019645,10510.924376
5623.390677,-2368.659014,-229.828649,10584.944971
5623.391001,-2220.617826,919.314598,11029.068536
5623.391324,-1850.514855,1685.410096,12435.459826
5623.391647,222.061783,2911.162892,11547.212695
5623.391970,1554.432478,3907.087040,8512.368333
5623.392294,1998.556043,3524.039291,7031.956449
5623.392617,2886.803174,2374.896044,7254.018232
5623.392940,1998.556043,1225.752797,6735.874072
5623.393263,1702.473667,689.485948,6661.853478
5623.393586,740.205942,-612.876398,6809.894666
5623.393910,-2294.638420,-1991.848295,9030.512492
5623.394233,-2664.741391,-1838.629195,10140.821405
5623.394556,-2294.638420,-1608.800546,11325.150913
5623.394879,-1406.391290,0.000000,10584.944971
5623.395203,-1110.308913,842.705048,11843.295072
5623.395526,-444.123565,1608.800546,13249.686362
5623.395849,1110.308913,2911.162892,12583.501014
5623.396172,2442.679609,4596.572988,9770.718434
5623.396495,3182.885551,3753.867940,8068.244768
5623.396819,3108.864956,2145.067394,8068.244768
5623.397142,2368.659014,1608.800546,6735.874072
5623.397465,1776.494261,536.266849,6291.750507
5623.397788,-444.123565,-1225.752797,6661.853478
5623.398112,-2960.823768,-2451.505594,8438.347739
5623.398435,-3478.967927,-2451.505594,9326.594869
5623.398758,-3182.885551,-2451.505594,9622.677246
5623.399081,-2368.659014,-459.657299,9918.759623
5623.399404,-1628.453072,0.000000,11473.192101
5623.399727,-370.102971,766.095498,12583.501014
5623.400050,888.247130,2604.724693,11695.253884
5623.400374,1628.453072,3370.820191,8956.491898
5623.400697,2368.659014,2604.724693,7624.121203
5623.401020,2812.782580,2068.457845,7179.997637
5623.401343,2368.659014,919.314598,6661.853478
5623.401666,1924.535449,-153.219100,6809.894666
5623.401989,-370.102971,-1378.971896,7402.059420
5623.402312,-2664.741391,-2528.115143,9474.636058
5623.402635,-2442.679609,-2604.724693,10510.924376
5623.402959,-2220.617826,-1915.238745,10807.006753
5623.403282,-2220.617826,-919.314598,11251.130318
5623.403605,-1628.453072,0.000000,12509.480420
5623.403928,-740.205942,153.219100,12509.480420
5623.404251,666.185348,2681.334243,11177.109724
5623.404574,1036.288319,3217.601092,9252.574275
5623.404897,1850.514855,2451.505594,8882.471304
5623.405220,2294.638420,1608.800546,7550.100608
5623.405544,1924.535449,1762.019645,6291.750507
5623.405867,962.267725,383.047749,5995.668130
5623.406190,-1924.535449,-1532.190996,7402.059420
5623.406513,-3256.906145,-2451.505594,9030.512492
5623.406836,-3256.906145,-2374.896044,9548.656652
5623.407159,-2664.741391,-1149.143247,10214.842000
5623.407482,-2368.659014,-306.438199,11103.089130
5623.407805,-1850.514855,536.266849,12065.356855
5623.408129,148.041188,1072.533697,12139.377449
5623.408452,1036.288319,3524.039291,10584.944971
5623.408775,962.267725,3294.210641,9178.553681
5623.409098,2072.576638,2604.724693,8660.409521
5623.409421,2220.617826,2145.067394,7328.038826
5623.409744,2442.679609,1455.581446,6143.709319
5623.410067,1332.370696,306.438199,5995.668130
5623.410390,-1332.370696,-2298.286494,7550.100608
5623.410714,-2220.617826,-1762.019645,8586.388927
5623.411037,-2516.700203,-1838.629195,9474.636058
5623.411360,-2294.638420,-612.876398,9696.697840
5623.411683,-2516.700203,383.047749,11621.233289
5623.412006,-2146.597232,766.095498,12657.521608
5623.412329,592.164754,1838.629195,12287.418637
5623.412652,592.164754,3830.477490,10288.862594
5623.412975,1110.308913,4290.134789,10140.821405
5623.413299,2368.659014,3447.429741,9696.697840
5623.413622,1998.556043,2681.334243,7846.182985
5623.413945,2442.679609,2221.676944,5995.668130
5623.414268,888.247130,383.047749,6069.688724
5623.414591,-2146.597232,-995.924147,7402.059420
5623.414914,-2664.741391,-1762.019645,9326.594869
5623.415237,-2590.720797,-1685.410096,8956.491898
5623.415560,-3034.844362,-995.924147,9030.512492
5623.415884,-3478.967927,-612.876398,10584.944971
5623.416207,-2220.617826,306.438199,11769.274478
5623.416530,0.000000,2068.457845,11325.150913
5623.416853,444.123565,2681.334243,9474.636058
5623.417176,1628.453072,2987.772442,9474.636058
5623.417499,2294.638420,2834.553343,8660.409521
5623.417822,3256.906145,2987.772442,6291.750507
5623.418145,2960.823768,1915.238745,5699.585753
5623.418469,1554.432478,76.609550,6291.750507
5623.418792,-888.247130,-1685.410096,8216.285956
5623.419115,-1184.329507,-2374.896044,9770.718434
5623.419438,-1776.494261,-1532.190996,10362.883188
5623.419761,-1850.514855,-1455.581446,11029.068536
5623.420084,-2072.576638,-995.924147,12509.480420
5623.420407,-518.144159,-383.047749,13101.645173
5623.420730,370.102971,995.924147,11621.233289
5623.421054,370.102971,2451.505594,10881.027347
5623.421377,1406.391290,2145.067394,10214.842000
5623.421700,2220.617826,2068.457845,9104.533087
5623.422023,1924.535449,1225.752797,6587.832884
5623.422346,1776.494261,1532.190996,5995.668130
5623.422669,-1036.288319,-1149.143247,6735.874072
5623.422992,-2368.659014,-2451.505594,8216.285956
5623.423315,-2812.782580,-2834.553343,9030.512492
5623.423639,-3404.947333,-2528.115143,9104.533087
5623.423962,-3923.091493,-1915.238745,10658.965565
5623.424285,-2812.782580,-995.924147,12139.377449
5623.424608,-1110.308913,-383.047749,11991.336260
5623.424931,0.000000,1225.752797,11621.233289
5623.425254,0.000000,2451.505594,11399.171507
5623.425577,1480.411884,2374.896044,10732.986159
5623.425900,2590.720797,2451.505594,8660.409521
5623.426224,3849.070898,2451.505594,6809.894666
5623.426547,3108.864956,1455.581446,5403.503377
5623.426870,444.123565,-306.438199,6809.894666
5623.427193,-592.164754,-1455.581446,7994.224174
5623.427516,-1702.473667,-1991.848295,8364.327145
5623.427839,-2294.638420,-1532.190996,8734.430116
5623.428162,-2812.782580,-612.876398,10362.883188
5623.428485,-1998.556043,612.876398,11399.171507
5623.428809,-222.061783,766.095498,11473.192101
5623.429132,296.082377,2145.067394,10807.006753
5623.429455,370.102971,3294.210641,10510.924376
5623.429778,1480.411884,2987.772442,10214.842000
5623.430101,2368.659014,3370.820191,8660.409521
5623.430424,3627.009116,3064.381992,6291.750507
5623.430747,2368.659014,2068.457845,6217.729913
5623.431070,-148.041188,689.485948,6883.915261
5623.431394,-666.185348,-919.314598,8438.347739
5623.431717,-1924.535449,-1455.581446,8364.327145
5623.432040,-2442.679609,-919.314598,8808.450710
5623.432363,-3256.906145,-689.485948,10288.862594
5623.432686,-1924.535449,-306.438199,11843.295072
5623.433009,-740.205942,766.095498,11325.150913
5623.433332,-296.082377,2374.896044,10288.862594
5623.433655,74.020594,3140.991542,10881.027347
5623.433979,1406.391290,2145.067394,10584.944971
5623.434302,2368.659014,2911.162892,7772.162391
5623.434625,2960.823768,2528.115143,5995.668130
5623.434948,2072.576638,1225.752797,6291.750507
5623.435271,518.144159,76.609550,7476.080014
5623.435594,-592.164754,-919.314598,8216.285956
5623.435917,-1184.329507,-1149.143247,8882.471304
5623.436240,-2368.659014,-1072.533697,9918.759623
5623.436564,-2516.700203,-1149.143247,11843.295072
5623.436887,-1480.411884,-153.219100,12657.521608
5623.437210,-666.185348,1072.533697,11843.295072
5623.437533,-222.061783,2374.896044,11769.274478
5623.437856,0.000000,2757.943793,11103.089130
5623.438179,1184.329507,2374.896044,10732.986159
5623.438502,2368.659014,2757.943793,7328.038826
5623.438825,1850.514855,1762.019645,5847.626942
5623.439149,0.000000,306.438199,5921.647536
5623.439472,-1332.370696,-1072.533697,7179.997637
5623.439795,-2220.617826,-2221.676944,7698.141797
5623.440118,-3478.967927,-2068.457845,8660.409521
5623.440441,-4367.215058,-2068.457845,10066.800811
5623.440764,-4071.132681,-2145.067394,11621.233289
5623.441087,-2146.597232,-612.876398,11769.274478
5623.441410,-740.205942,842.705048,11177.109724
5623.441734,-592.164754,1838.629195,11843.295072
5623.442057,370.102971,2298.286494,11843.295072
5623.442380,2368.659014,3294.210641,9844.739029
5623.442703,3849.070898,2451.505594,7254.018232
5623.443026,3997.112087,2528.115143,5699.585753
5623.443349,2516.700203,383.047749,6735.874072
5623.443672,1406.391290,-536.266849,7254.018232
5623.443995,666.185348,-1302.362347,7994.224174
5623.444319,-1036.288319,-1225.752797,8364.327145
5623.444642,-2368.659014,-1608.800546,9992.780217
5623.444965,-2072.576638,-1072.533697,11399.171507
5623.445288,-888.247130,-306.438199,11547.212695
5623.445611,-592.164754,1455.581446,10807.006753
5623.445934,148.041188,1991.848295,11843.295072
5623.446257,-296.082377,2221.676944,11843.295072
5623.446580,888.247130,3140.991542,10214.842000
5623.446904,2738.761985,2834.553343,7105.977043
5623.447227,2072.576638,1685.410096,5847.626942
5623.447550,962.267725,612.876398,5921.647536
5623.447873,0.000000,0.000000,7179.997637
5623.448196,-518.144159,-1149.143247,7254.018232
5623.448519,-2294.638420,-1378.971896,8068.244768
5623.448842,-2960.823768,-1762.019645,9622.677246
5623.449165,-1998.556043,-1378.971896,11769.274478
5623.449489,-370.102971,842.705048,11325.150913
5623.449812,0.000000,2451.505594,11547.212695
5623.450135,592.164754,1532.190996,12361.439231
5623.450458,1480.411884,2757.943793,11843.295072
5623.450781,2220.617826,3217.601092,9548.656652
5623.451104,3627.009116,3064.381992,7105.977043
5623.451427,2442.679609,2068.457845,6439.791695
5623.451751,2072.576638,383.047749,6365.771101
5623.452074,962.267725,0.000000,7031.956449
5623.452397,-962.267725,-1532.190996,7476.080014
5623.452720,-2516.700203,-1225.752797,8660.409521
5623.453043,-3627.009116,-1838.629195,10214.842000
5623.453366,-2442.679609,-1225.752797,11177.109724
5623.453689,-1850.514855,76.609550,10807.006753
5623.454012,-1998.556043,842.705048,11695.253884
5623.454336,-1554.432478,1685.410096,11991.336260
5623.454659,-592.164754,2528.115143,10807.006753
5623.454982,1184.329507,2528.115143,8808.450710
5623.455305,1850.514855,2451.505594,6883.915261
5623.455628,1036.288319,1455.581446,6735.874072
5623.455951,666.185348,76.609550,6513.812290
5623.456274,0.000000,-842.705048,6957.935855
5623.456597,-1332.370696,-1225.752797,7550.100608
5623.456921,-3182.885551,-1762.019645,8808.450710
5623.457244,-3034.844362,-1762.019645,10732.986159
5623.457567,-1554.432478,-1072.533697,11547.212695
5623.457890,-1036.288319,0.000000,11177.109724
5623.458213,-962.267725,766.095498,12139.377449
5623.458536,0.000000,1225.752797,12953.603985
5623.458859,1258.350101,2451.505594,11621.233289
5623.459182,2886.803174,3140.991542,9400.615463
5623.459506,3552.988522,2834.553343,7328.038826
5623.459829,2220.617826,1225.752797,7105.977043
5623.460152,2072.576638,612.876398,7105.977043
5623.460475,1184.329507,-612.876398,6957.935855
5623.460798,-1036.288319,-1532.190996,7105.977043
5623.461121,-2368.659014,-1915.238745,8882.471304
5623.461444,-2442.679609,-1991.848295,10955.047942
5623.461767,-1702.473667,-459.657299,11103.089130
5623.462091,-1702.473667,229.828649,10584.944971
5623.462414,-1776.494261,612.876398,12139.377449
5623.462737,-962.267725,1378.971896,12509.480420
5623.463060,592.164754,2451.505594,11103.089130
5623.463383,2886.803174,3524.039291,8142.265362
5623.463706,2368.659014,2604.724693,7105.977043
5623.464029,1480.411884,1532.190996,6661.853478
5623.464352,1258.350101,383.047749,7031.956449
5623.464676,592.164754,0.000000,7031.956449
5623.464999,-1258.350101,-766.095498,8068.244768
5623.465322,-2960.823768,-1838.629195,9622.677246
5623.465645,-2442.679609,-1762.019645,10732.986159
5623.465968,-1554.432478,-383.047749,9992.780217
5623.466291,-1406.391290,995.924147,10436.903782
5623.466614,-296.082377,1302.362347,11843.295072
5623.466937,-592.164754,1685.410096,12509.480420
5623.467261,888.247130,3140.991542,10362.883188
5623.467584,2442.679609,3753.867940,8142.265362
5623.467907,2368.659014,3217.601092,7105.977043
5623.468230,2368.659014,2298.286494,7105.977043
5623.468553,1998.556043,1225.752797,6735.874072
5623.468876,0.000000,0.000000,6587.832884
5623.469199,-1850.514855,-612.876398,7624.121203
5623.469522,-3330.926739,-2068.457845,9844.739029
5623.469846,-2664.741391,-1532.190996,10658.965565
5623.470169,-2590.720797,-459.657299,10584.944971
5623.470492,-2368.659014,-306.438199,10955.047942
5623.470815,-2294.638420,229.828649,11769.274478
5623.471138,-1776.494261,1685.410096,11325.150913
5623.471461,-296.082377,2987.772442,10140.821405
5623.471784,1110.308913,2987.772442,8142.265362
5623.472107,1258.350101,2068.457845,7031.956449
5623.472431,1554.432478,1685.410096,6439.791695
5623.472754,1776.494261,229.828649,5847.626942
5623.473077,0.000000,76.609550,6217.729913
5623.473400,-1998.556043,-1685.410096,8660.409521
5623.473723,-2368.659014,-2374.896044,9918.759623
5623.474046,-1702.473667,-1685.410096,10436.903782
5623.474369,-1258.350101,-612.876398,10362.883188
5623.474692,-1258.350101,76.609550,11843.295072
5623.475016,-666.185348,842.705048,12731.542202
5623.475339,962.267725,2298.286494,12583.501014
5623.475662,2368.659014,3140.991542,10140.821405
5623.475985,2664.741391,3064.381992,8586.388927
5623.476308,2886.803174,2145.067394,7624.121203
5623.476631,3404.947333,1378.971896,7105.977043
5623.476954,2886.803174,536.266849,6291.750507
5623.477277,888.247130,-306.438199,6217.729913
5623.477601,-1110.308913,-1685.410096,8808.450710
5623.477924,-1850.514855,-2451.505594,9474.636058
5623.478247,-2072.576638,-1991.848295,10214.842000
5623.478570,-2146.597232,-995.924147,9918.759623
5623.478893,-2368.659014,-459.657299,11843.295072
5623.479216,-1554.432478,153.219100,12361.439231
5623.479539,-1184.329507,1225.752797,11991.336260
5623.479862,222.061783,2451.505594,9326.594869
5623.480186,1554.432478,2221.676944,8438.347739
5623.480509,2146.597232,1915.238745,7254.018232
5623.480832,2294.638420,1225.752797,6957.935855
5623.481155,1554.432478,153.219100,6291.750507
5623.481478,0.000000,-766.095498,7031.956449
5623.481801,-1406.391290,-1455.581446,9326.594869
5623.482124,-1776.494261,-1915.238745,10288.862594
5623.482447,-1702.473667,-995.924147,9548.656652
5623.482771,-1628.453072,-459.657299,10584.944971
5623.483094,-888.247130,0.000000,12065.356855
5623.483417,-444.123565,842.705048,12731.542202
5623.483740,888.247130,2757.943793,11251.130318
5623.484063,1480.411884,3524.039291,9770.718434
5623.484386,1258.350101,2987.772442,8586.388927
5623.484709,2220.617826,2221.676944,7105.977043
5623.485032,2368.659014,1225.752797,5699.585753
5623.485356,1258.350101,306.438199,5847.626942
5623.485679,-1258.350101,-842.705048,7031.956449
5623.486002,-3034.844362,-2374.896044,9474.636058
5623.486325,-2886.803174,-2068.457845,9696.697840
5623.486648,-3552.988522,-1302.362347,10140.821405
5623.486971,-3627.009116,-1072.533697,10510.924376
5623.487294,-3478.967927,-612.876398,12213.398043
5623.487617,-1850.514855,919.314598,11917.315666
5623.487941,-1036.288319,2145.067394,11029.068536
5623.488264,148.041188,2987.772442,9252.574275
5623.488587,592.164754,2757.943793,8438.347739
5623.488910,2590.720797,2298.286494,7328.038826
5623.489233,2812.782580,1532.190996,6291.750507
5623.489556,1480.411884,919.314598,5699.585753
5623.489879,0.000000,-536.266849,7402.059420
5623.490202,-962.267725,-1149.143247,9474.636058
5623.490526,-370.102971,-689.485948,10362.883188
5623.490849,-666.185348,-153.219100,9696.697840
5623.491172,-1480.411884,536.266849,11103.089130
5623.491495,-444.123565,689.485948,12731.542202
5623.491818,0.000000,1685.410096,12583.501014
5623.492141,370.102971,2911.162892,10955.047942
5623.492464,1184.329507,3140.991542,9770.718434
5623.492787,1184.329507,2451.505594,9104.533087
5623.493111,1998.556043,2374.896044,7698.141797
5623.493434,2516.700203,1991.848295,6365.771101
5623.493757,1036.288319,689.485948,5699.585753
5623.494080,-888.247130,-842.705048,7550.100608
5623.494403,-1998.556043,-2298.286494,8734.430116
5623.494726,-2294.638420,-1915.238745,9104.533087
5623.495049,-2738.761985,-1225.752797,9400.615463
5623.495372,-2590.720797,-1072.533697,11029.068536
5623.495696,-1850.514855,-306.438199,12435.459826
5623.496019,-518.144159,1685.410096,12213.398043
5623.496342,370.102971,2451.505594,10584.944971
5623.496665,888.247130,3064.381992,10066.800811
5623.496988,2220.617826,2451.505594,8882.471304
5623.497311,3478.967927,2451.505594,7550.100608
5623.497634,2886.803174,1838.629195,6365.771101
5623.497957,1480.411884,766.095498,7105.977043
5623.498281,296.082377,-612.876398,8882.471304
5623.498604,-296.082377,-1915.238745,9030.512492
5623.498927,-1184.329507,-1072.533697,9104.533087
5623.499250,-1924.535449,-1302.362347,10214.842000
5623.499573,-1924.535449,-1225.752797,11769.274478
5623.499896,-1702.473667,-229.828649,11769.274478
5623.500219,-740.205942,995.924147,11399.171507
5623.500542,0.000000,1991.848295,9992.780217
5623.500865,0.000000,2834.553343,9844.739029
5623.501189,1110.308913,1915.238745,8068.244768
5623.501512,2368.659014,1838.629195,7105.977043
5623.501835,1776.494261,1532.190996,5699.585753
5623.502158,592.164754,76.609550,6883.915261
5623.502481,-1036.288319,-1455.581446,8290.306550
5623.502804,-1406.391290,-1762.019645,9400.615463
5623.503127,-2368.659014,-1608.800546,9474.636058
5623.503450,-2220.617826,-2374.896044,10214.842000
5623.503773,-1850.514855,-1225.752797,11917.315666
5623.504097,-1554.432478,0.000000,12583.501014
5623.504420,-222.061783,1149.143247,11547.212695
5623.504743,0.000000,1915.238745,10955.047942
5623.505066,74.020594,2374.896044,10510.924376
5623.505389,1184.329507,2451.505594,9326.594869
5623.505712,2664.741391,2298.286494,7105.977043
5623.506035,2294.638420,1455.581446,5921.647536
5623.506358,814.226536,-306.438199,7105.977043
5623.506681,-592.164754,-1225.752797,8290.306550
5623.507004,-962.267725,-1455.581446,9104.533087
5623.507328,-1702.473667,-1378.971896,9400.615463
5623.507651,-2590.720797,-1225.752797,10214.842000
5623.507974,-1702.473667,-919.314598,11843.295072
5623.508297,-962.267725,766.095498,11917.315666
5623.508620,-222.061783,1685.410096,10658.965565
5623.508943,0.000000,2374.896044,10807.006753
5623.509266,592.164754,2528.115143,10362.883188
5623.509589,2516.700203,2528.115143,8512.368333
5623.509912,3256.906145,2987.772442,6291.750507
5623.510236,2664.741391,1991.848295,5773.606348
5623.510559,1702.473667,536.266849,6957.935855
5623.510882,666.185348,-689.485948,7772.162391
5623.511205,-518.144159,-1225.752797,7920.203579
5623.511528,-2368.659014,-1302.362347,9030.512492
5623.511851,-2812.782580,-1072.533697,10362.883188
5623.512174,-2590.720797,-689.485948,11547.212695
5623.512497,-1480.411884,842.705048,10732.986159
5623.512820,-740.205942,1838.629195,10807.006753
5623.513143,-814.226536,2221.676944,11473.192101
5623.513467,222.061783,2528.115143,10066.800811
5623.513790,1998.556043,2911.162892,8586.388927
5623.514113,2368.659014,2987.772442,6365.771101
5623.514436,1776.494261,1915.238745,6587.832884
5623.514759,1036.288319,229.828649,7920.203579
5623.515082,370.102971,-459.657299,8290.306550
5623.515405,-962.267725,-995.924147,8438.347739
5623.515728,-2442.679609,-1072.533697,9770.718434
5623.516051,-2960.823768,-1378.971896,11769.274478
5623.516375,-2738.761985,-766.095498,11917.315666
5623.516698,-1258.350101,459.657299,11769.274478
5623.517021,-370.102971,1225.752797,11251.130318
5623.517344,-1480.411884,2221.676944,11029.068536
5623.517667,74.020594,3217.601092,10066.800811
5623.517990,1776.494261,2681.334243,8068.244768
5623.518313,1850.514855,2681.334243,5995.668130
5623.518636,1406.391290,1149.143247,6661.853478
5623.518959,0.000000,-459.657299,7328.038826
5623.519283,-518.144159,-689.485948,8142.265362
5623.519606,-1480.411884,-1608.800546,8068.244768
5623.519929,-3627.009116,-1991.848295,8808.450710
5623.520252,-3330.926739,-2145.067394,11325.150913
5623.520575,-2738.761985,-842.705048,11621.233289
5623.520898,-1628.453072,306.438199,11177.109724
5623.521221,-814.226536,1532.190996,10881.027347
5623.521544,-1036.288319,2068.457845,11473.192101
5623.521867,888.247130,3064.381992,9770.718434
5623.522190,3034.844362,2451.505594,7994.224174
5623.522514,3701.029710,3217.601092,6365.771101
5623.522837,2886.803174,1532.190996,7254.018232
5623.523160,2072.576638,0.000000,7772.162391
5623.523483,1406.391290,-383.047749,7772.162391
5623.523806,-518.144159,-1149.143247,8142.265362
5623.524129,-1924.535449,-1838.629195,10066.800811
5623.524452,-1924.535449,-689.485948,11177.109724
5623.524775,-1258.350101,-536.266849,11547.212695
5623.525098,-740.205942,689.485948,10881.027347
5623.525422,-814.226536,1378.971896,11473.192101
5623.525745,-666.185348,2145.067394,10955.047942
5623.526068,1110.308913,2528.115143,9844.739029
5623.526391,1850.514855,3140.991542,7328.038826
5623.526714,2072.576638,2681.334243,5995.668130
5623.527037,1924.535449,1762.019645,6957.935855
5623.527360,1628.453072,76.609550,7402.059420
5623.527683,370.102971,-842.705048,7105.977043
5623.528006,-1554.432478,-1762.019645,8438.347739
5623.528330,-2368.659014,-2068.457845,10362.883188
5623.528653,-2442.679609,-1532.190996,11769.274478
5623.528976,-1702.473667,-383.047749,11399.171507
5623.529299,-1036.288319,612.876398,11399.171507
5623.529622,-1702.473667,1072.533697,12213.398043
5623.529945,0.000000,2145.067394,11621.233289
5623.530268,1332.370696,2757.943793,9992.780217
5623.530591,2368.659014,2987.772442,7328.038826
5623.530914,1776.494261,2757.943793,6587.832884
5623.531237,1776.494261,1838.629195,7105.977043
5623.531561,814.226536,459.657299,7105.977043
5623.531884,0.000000,-612.876398,7254.018232
5623.532207,-2220.617826,-1302.362347,8512.368333
5623.532530,-3404.947333,-1915.238745,10214.842000
5623.532853,-2960.823768,-1455.581446,11029.068536
5623.533176,-1850.514855,153.219100,11103.089130
5623.533499,-1480.411884,76.609550,10732.986159
5623.533822,-1924.535449,229.828649,11769.274478
5623.534145,-888.247130,1762.019645,11325.150913
5623.534469,1406.391290,2834.553343,9178.553681
5623.534792,2590.720797,2757.943793,6883.915261
5623.535115,2368.659014,2145.067394,6661.853478
5623.535438,2368.659014,842.705048,7105.977043
5623.535761,2368.659014,306.438199,7179.997637
5623.536084,1184.329507,76.609550,7031.956449
5623.536407,-1258.350101,-1302.362347,9104.533087
5623.536730,-2442.679609,-2145.067394,11029.068536
5623.537053,-2960.823768,-1455.581446,11843.295072
5623.537377,-1776.494261,-383.047749,11325.150913
5623.537700,-1702.473667,153.219100,11399.171507
5623.538023,-1924.535449,536.266849,11399.171507
5623.538346,0.000000,1455.581446,11769.274478
5623.538669,1776.494261,2145.067394,9622.677246
5623.538992,2146.597232,2451.505594,7105.977043
5623.539315,2294.638420,1915.238745,7328.038826
5623.539638,2368.659014,766.095498,7772.162391
5623.539961,1628.453072,383.047749,7179.997637
5623.540284,0.000000,-459.657299,7328.038826
5623.540608,-592.164754,-1455.581446,9918.759623
5623.540931,-2072.576638,-1532.190996,11029.068536
5623.541254,-2072.576638,-1149.143247,10881.027347
5623.541577,-1406.391290,0.000000,11029.068536
5623.541900,-1554.432478,536.266849,10955.047942
5623.542223,-1480.411884,919.314598,11843.295072
5623.542546,-370.102971,2528.115143,10732.986159
5623.542869,1258.350101,3140.991542,9252.574275
5623.543192,2294.638420,3140.991542,6883.915261
5623.543516,2590.720797,2298.286494,6735.874072
5623.543839,2812.782580,1762.019645,6587.832884
5623.544162,1332.370696,919.314598,6217.729913
5623.544485,-592.164754,-153.219100,7031.956449
5623.544808,-1924.535449,-1225.752797,9474.636058
5623.545131,-2738.761985,-1532.190996,10214.842000
5623.545454,-2146.597232,-459.657299,10140.821405
5623.545777,-2294.638420,153.219100,10955.047942
5623.546100,-2516.700203,689.485948,11769.274478
5623.546424,-962.267725,1532.190996,12065.356855
5623.546747,444.123565,2834.553343,11399.171507
5623.547070,740.205942,3907.087040,8734.430116
5623.547393,2368.659014,3217.601092,7402.059420
5623.547716,2442.679609,2221.676944,7402.059420
5623.548039,3034.844362,1532.190996,6661.853478
5623.548362,1554.432478,842.705048,6809.894666
5623.548685,-962.267725,-689.485948,7920.203579
5623.549008,-2368.659014,-1991.848295,10214.842000
5623.549331,-3034.844362,-1455.581446,10436.903782
5623.549655,-2960.823768,-612.876398,10584.944971
5623.549978,-2442.679609,0.000000,10214.842000
5623.550301,-3182.885551,153.219100,11695.253884
5623.550624,-1480.411884,842.705048,11621.233289
5623.550947,0.000000,2145.067394,10214.842000
5623.551270,888.247130,2911.162892,8660.409521
5623.551593,1924.535449,2528.115143,7476.080014
5623.551916,2886.803174,1378.971896,7105.977043
5623.552239,3701.029710,1608.800546,6143.709319
5623.552563,2886.803174,766.095498,6661.853478
5623.552886,518.144159,-995.924147,8290.306550
5623.553209,-1332.370696,-2298.286494,10732.986159
5623.553532,-1628.453072,-1991.848295,10881.027347
5623.553855,-888.247130,-919.314598,10955.047942
5623.554178,-1406.391290,-229.828649,11843.295072
5623.554501,-1628.453072,76.609550,12435.459826
5623.554824,-962.267725,1072.533697,12879.583391
5623.555147,444.123565,2451.505594,10510.924376
5623.555470,1184.329507,2681.334243,8586.388927
5623.555794,1998.556043,1838.629195,7698.141797
5623.556117,2368.659014,1225.752797,7031.956449
5623.556440,2812.782580,459.657299,5403.503377
5623.556763,1110.308913,0.000000,5773.606348
5623.557086,-1850.514855,-1532.190996,7624.121203
5623.557409,-2812.782580,-2834.553343,9918.759623
5623.557732,-3330.926739,-2221.676944,9992.780217
5623.558055,-2146.597232,-995.924147,10140.821405
5623.558378,-2738.761985,-842.705048,11621.233289
5623.558702,-2072.576638,0.000000,12509.480420
5623.559025,-592.164754,1225.752797,12139.377449
5623.559348,740.205942,2681.334243,10288.862594
5623.559671,1776.494261,3064.381992,8882.471304
5623.559994,2738.761985,2528.115143,8290.306550
5623.560317,3775.050304,2145.067394,7105.977043
5623.560640,3923.091493,1685.410096,5699.585753
5623.560963,1776.494261,229.828649,6069.688724
5623.561286,-222.061783,-919.314598,8512.368333
5623.561610,-2368.659014,-1991.848295,9622.677246
5623.561933,-2590.720797,-1915.238745,9844.739029
5623.562256,-2294.638420,-995.924147,10807.006753
5623.562579,-3034.844362,-919.314598,11843.295072
5623.562902,-2368.659014,0.000000,12287.418637
5623.563225,-1184.329507,1225.752797,11695.253884
5623.563548,296.082377,2911.162892,10214.842000
5623.563871,592.164754,3600.648841,8734.430116
5623.564194,2146.597232,2987.772442,8142.265362
5623.564517,2960.823768,2298.286494,7179.997637
5623.564841,2368.659014,1608.800546,5921.647536
5623.565164,0.000000,0.000000,6661.853478
5623.565487,-1184.329507,-1302.362347,8956.491898
5623.565810,-3108.864956,-2528.115143,10510.924376
5623.566133,-2442.679609,-842.705048,9770.718434
5623.566456,-2368.659014,-1225.752797,10214.842000
5623.566779,-3627.009116,-766.095498,11473.192101
5623.567102,-2442.679609,76.609550,11843.295072
5623.567425,-888.247130,1608.800546,11103.089130
5623.567749,-370.102971,2911.162892,9474.636058
5623.568072,1036.288319,3830.477490,8586.388927
5623.568395,2664.741391,3753.867940,7105.977043
5623.568718,4219.173869,2911.162892,6439.791695
5623.569041,3330.926739,1991.848295,5255.462188
5623.569364,1110.308913,229.828649,7105.977043
5623.569687,-370.102971,-1072.533697,9104.533087
5623.570010,-1628.453072,-1532.190996,10140.821405
5623.570333,-1850.514855,-689.485948,10214.842000
5623.570657,-2738.761985,-1302.362347,11325.150913
5623.570980,-3034.844362,-842.705048,11991.336260
5623.571303,-1332.370696,766.095498,11991.336260
5623.571626,0.000000,2145.067394,11325.150913
5623.571949,0.000000,3370.820191,9992.780217
5623.572272,740.205942,3140.991542,9474.636058
5623.572595,2664.741391,2911.162892,7994.224174
5623.572918,3330.926739,1455.581446,5995.668130
5623.573241,1628.453072,1608.800546,5181.441594
5623.573564,370.102971,-229.828649,7254.018232
5623.573888,-1480.411884,-1608.800546,9104.533087
5623.574211,-2368.659014,-1532.190996,9474.636058
5623.574534,-2368.659014,-1302.362347,9770.718434
5623.574857,-3627.009116,-1378.971896,11325.150913
5623.575180,-2812.782580,-459.657299,11991.336260
5623.575503,-370.102971,612.876398,11621.233289
5623.575826,-370.102971,2068.457845,11843.295072
5623.576149,0.000000,2604.724693,10288.862594
5623.576472,1998.556043,2681.334243,9622.677246
5623.576796,3627.009116,2528.115143,7624.121203
5623.577119,4145.153275,2451.505594,5551.544565
5623.577442,2960.823768,689.485948,5921.647536
5623.577765,1184.329507,-229.828649,7550.100608
5623.578088,-666.185348,-1532.190996,8438.347739
5623.578411,-1628.453072,-1838.629195,9474.636058
5623.578734,-2442.679609,-1685.410096,9474.636058
5623.579057,-3849.070898,-1915.238745,11473.192101
5623.579380,-2516.700203,-689.485948,11843.295072
5623.579704,-888.247130,689.485948,11917.315666
5623.580027,-518.144159,1532.190996,10881.027347
5623.580350,370.102971,2451.505594,10658.965565
5623.580673,1850.514855,2374.896044,9622.677246
5623.580996,3552.988522,2374.896044,7698.141797
5623.581319,3552.988522,2221.676944,5921.647536
5623.581642,2220.617826,612.876398,6439.791695
5623.581965,296.082377,-689.485948,8068.244768
5623.582288,-1332.370696,-1149.143247,9400.615463
5623.582611,-2294.638420,-1685.410096,9326.594869
5623.582935,-3256.906145,-1991.848295,10510.924376
5623.583258,-3849.070898,-1762.019645,11621.233289
5623.583581,-2886.803174,-1225.752797,11917.315666
5623.583904,-2368.659014,306.438199,11695.253884
5623.584227,-1628.453072,2528.115143,10658.965565
5623.584550,-740.205942,2681.334243,9622.677246
5623.584873,1776.494261,2374.896044,8586.388927
5623.585196,2886.803174,2757.943793,6143.709319
5623.585519,2886.803174,2298.286494,4515.256246
5623.585843,1628.453072,612.876398,5995.668130
5623.586166,296.082377,-766.095498,7772.162391
5623.586489,-962.267725,-1225.752797,8882.471304
5623.586812,-1258.350101,-2451.505594,9622.677246
5623.587135,-2664.741391,-1149.143247,10510.924376
5623.587458,-2738.761985,-766.095498,11843.295072
5623.587781,-1110.308913,76.609550,12583.501014
5623.588104,0.000000,1685.410096,11621.233289
5623.588427,148.041188,2834.553343,10732.986159
5623.588751,1184.329507,4060.306139,10658.965565
5623.589074,3108.864956,3983.696590,8808.450710
5623.589397,4219.173869,4366.744339,5773.606348
5623.589720,3108.864956,2987.772442,5107.421000
5623.590043,1332.370696,842.705048,6587.832884
5623.590366,-518.144159,-536.266849,8142.265362
5623.590689,-2072.576638,-1685.410096,8512.368333
5623.591012,-3330.926739,-1608.800546,9622.677246
5623.591335,-4737.318029,-1685.410096,10881.027347
5623.591658,-4293.194464,-1838.629195,11769.274478
5623.591982,-2738.761985,-536.266849,11917.315666
5623.592305,-2442.679609,1072.533697,11473.192101
5623.592628,-1702.473667,2068.457845,11103.089130
5623.592951,-444.123565,2451.505594,10732.986159
5623.593274,2812.782580,3600.648841,8660.409521
5623.593597,4737.318029,3677.258390,6143.709319
5623.593920,3404.947333,2604.724693,4959.379811
5623.594243,2960.823768,766.095498,7550.100608
5623.594566,1998.556043,-306.438199,7994.224174
5623.594890,444.123565,-1302.362347,8364.327145
5623.595213,-814.226536,-1455.581446,9474.636058
5623.595536,-2812.782580,-1915.238745,11103.089130
5623.595859,-2368.659014,-459.657299,11991.336260
5623.596182,-888.247130,383.047749,11843.295072
5623.596505,0.000000,1762.019645,11177.109724
5623.596828,-370.102971,2374.896044,10732.986159
5623.597151,222.061783,2911.162892,10436.903782
5623.597474,2812.782580,3600.648841,8438.347739
5623.597797,3404.947333,3447.429741,5921.647536
5623.598121,2220.617826,1991.848295,5995.668130
5623.598444,666.185348,-153.219100,7105.977043
5623.598767,-666.185348,-1455.581446,6957.935855
5623.599090,-1776.494261,-1608.800546,8068.244768
5623.599413,-3330.926739,-2451.505594,9252.574275
5623.599736,-5107.421000,-2757.943793,10955.047942
5623.600059,-4145.153275,-2451.505594,11991.336260
5623.600382,-2368.659014,-1072.533697,11843.295072
5623.600705,-1850.514855,459.657299,11103.089130
5623.601029,-1776.494261,1455.581446,11843.295072
5623.601352,444.123565,2221.676944,10807.006753
5623.601675,2516.700203,2987.772442,8586.388927
5623.601998,3701.029710,2987.772442,5625.565159
5623.602319,3627.009116,1991.848295,6661.853478
5623.602642,2442.679609,383.047749,7328.038826
5623.602965,1406.391290,0.000000,7994.224174
5623.603288,74.020594,-1302.362347,8882.471304
5623.603611,-1628.453072,-1838.629195,10288.862594
5623.603935,-2960.823768,-2145.067394,11473.192101
5623.604258,-2220.617826,-1302.362347,12435.459826
5623.604581,-1258.350101,76.609550,11621.233289
5623.604904,-962.267725,1378.971896,11399.171507
5623.605227,-444.123565,2068.457845,11695.253884
5623.605550,962.267725,2451.505594,10362.883188
5623.605873,2072.576638,3907.087040,7402.059420
5623.606196,2590.720797,3294.210641,5847.626942
5623.606519,2072.576638,1991.848295,5921.647536
5623.606843,1184.329507,536.266849,6883.915261
5623.607166,0.000000,-459.657299,7179.997637
5623.607489,-1480.411884,-1072.533697,8068.244768
5623.607812,-3404.947333,-1302.362347,9622.677246
5623.608135,-3997.112087,-1991.848295,10658.965565
5623.608458,-2664.741391,-1762.019645,11843.295072
5623.608781,-1924.535449,229.828649,11029.068536
5623.609104,-1776.494261,1532.190996,11473.192101
5623.609428,-592.164754,2068.457845,11695.253884
5623.609751,1924.535449,3140.991542,10658.965565
5623.610074,3182.885551,3600.648841,7179.997637
5623.610397,3330.926739,3217.601092,5921.647536
5623.610720,3775.050304,1302.362347,6809.894666
5623.611043,2368.659014,612.876398,7105.977043
5623.611366,1554.432478,0.000000,7402.059420
5623.611689,0.000000,-1225.752797,8438.347739
5623.612013,-2812.782580,-2068.457845,10288.862594
5623.612336,-3108.864956,-2298.286494,10732.986159
5623.612659,-1924.535449,-689.485948,11547.212695
5623.612982,-1998.556043,689.485948,11177.109724
5623.613305,-1184.329507,1378.971896,11991.336260
5623.613628,-814.226536,1608.800546,11843.295072
5623.613951,1258.350101,2681.334243,10362.883188
5623.614274,1924.535449,3294.210641,7846.182985
5623.614598,1998.556043,2681.334243,7105.977043
5623.614921,1776.494261,1225.752797,6809.894666
5623.615244,888.247130,-612.876398,7254.018232
5623.615567,-222.061783,-1608.800546,6587.832884
5623.615890,-2072.576638,-2221.676944,8512.368333
5623.616213,-4441.235652,-2528.115143,10362.883188
5623.616536,-3997.112087,-2604.724693,11103.089130
5623.616859,-2738.761985,-919.314598,10732.986159
5623.617183,-2442.679609,0.000000,10658.965565
5623.617506,-1776.494261,459.657299,12139.377449
5623.617829,0.000000,1455.581446,11991.336260
5623.618152,1776.494261,3140.991542,9622.677246
5623.618475,2960.823768,3370.820191,6957.935855
5623.618798,3404.947333,2221.676944,7031.956449
5623.619121,3182.885551,1225.752797,7105.977043
5623.619444,2590.720797,689.485948,6957.935855
5623.619767,1258.350101,-229.828649,7105.977043
5623.620091,-888.247130,-842.705048,9252.574275
5623.620414,-2738.761985,-2221.676944,10807.006753
5623.620737,-2664.741391,-1762.019645,11991.336260
5623.621060,-2146.597232,-459.657299,11621.233289
5623.621383,-2368.659014,383.047749,11473.192101
5623.621706,-2146.597232,995.924147,11769.274478
5623.622029,0.000000,2374.896044,11695.253884
5623.622352,666.185348,4060.306139,8586.388927
5623.622676,1480.411884,3677.258390,7254.018232
5623.622999,1184.329507,2451.505594,6883.915261
5623.623322,1332.370696,1455.581446,6587.832884
5623.623645,814.226536,612.876398,6069.688724
5623.623968,-814.226536,-459.657299,6661.853478
5623.624291,-2960.823768,-2145.067394,8882.471304
5623.624614,-3997.112087,-1838.629195,9844.739029
5623.624937,-3034.844362,-1302.362347,11103.089130
5623.625261,-2072.576638,153.219100,11029.068536
5623.625584,-2146.597232,459.657299,11621.233289
5623.625907,-888.247130,1608.800546,12583.501014
5623.626230,888.247130,2987.772442,11843.295072
5623.626553,2960.823768,4213.525239,9104.533087
5623.626876,3404.947333,4443.353888,7772.162391
5623.627199,3775.050304,3294.210641,7254.018232
5623.627522,3404.947333,2145.067394,6513.812290
5623.627846,2960.823768,1455.581446,5773.606348
5623.628169,888.247130,153.219100,6883.915261
5623.628492,-2146.597232,-2374.896044,8956.491898
5623.628815,-3627.009116,-2451.505594,10214.842000
5623.629138,-2886.803174,-1838.629195,10510.924376
5623.629461,-2664.741391,-612.876398,10881.027347
5623.629784,-2664.741391,76.609550,11695.253884
5623.630107,-1406.391290,536.266849,12805.562797
5623.630431,296.082377,1915.238745,11547.212695
5623.630754,1184.329507,3600.648841,9252.574275
5623.631077,2590.720797,3217.601092,8438.347739
5623.631400,2960.823768,2451.505594,7772.162391
5623.631723,2368.659014,1302.362347,6661.853478
5623.632046,1924.535449,536.266849,6587.832884
5623.632369,0.000000,-1072.533697,7476.080014
5623.632692,-2368.659014,-2374.896044,9696.697840
5623.633016,-3034.844362,-2528.115143,10732.986159
5623.633339,-2590.720797,-1991.848295,10807.006753
5623.633662,-3108.864956,-612.876398,11251.130318
5623.633985,-2664.741391,-459.657299,11547.212695
5623.634308,-1110.308913,76.609550,12583.501014
5623.634631,222.061783,2068.457845,10510.924376
5623.634954,1258.350101,2834.553343,8956.491898
5623.635277,2368.659014,2528.115143,7994.224174
5623.635600,3330.926739,2451.505594,7846.182985
5623.635924,3478.967927,1991.848295,5921.647536
5623.636247,1924.535449,842.705048,6291.750507
5623.636570,222.061783,-1225.752797,7402.059420
5623.636893,-1850.514855,-1838.629195,9622.677246
5623.637216,-2146.597232,-1915.238745,10362.883188
5623.637539,-2368.659014,-1225.752797,10658.965565
5623.637862,-2368.659014,-766.095498,11251.130318
5623.638185,-2146.597232,-995.924147,11769.274478
5623.638509,-814.226536,1302.362347,11399.171507
5623.638832,222.061783,2145.067394,10288.862594
5623.639155,592.164754,2987.772442,8586.388927
5623.639478,1332.370696,2451.505594,8142.265362
5623.639801,1924.535449,2068.457845,6587.832884
5623.640124,1776.494261,1608.800546,5921.647536
5623.640447,1628.453072,842.705048,5625.565159
5623.640770,-1480.411884,-919.314598,7550.100608
5623.641094,-2738.761985,-2145.067394,9252.574275
5623.641417,-2738.761985,-2068.457845,10066.800811
5623.641740,-2368.659014,-995.924147,10362.883188
5623.642063,-2812.782580,0.000000,11325.150913
5623.642386,-1850.514855,0.000000,12435.459826
5623.642709,148.041188,1302.362347,11917.315666
5623.643032,1036.288319,2604.724693,10066.800811
5623.643355,2442.679609,3447.429741,9474.636058
5623.643679,3701.029710,2911.162892,8586.388927
5623.644002,4219.173869,2298.286494,7328.038826
5623.644325,4145.153275,2221.676944,6143.709319
5623.644648,3034.844362,842.705048,6365.771101
5623.644971,0.000000,-612.876398,8216.285956
5623.645294,-1480.411884,-842.705048,9918.759623
5623.645617,-2146.597232,-1608.800546,10881.027347
5623.645940,-3404.947333,-1149.143247,10066.800811
5623.646264,-3182.885551,-383.047749,11843.295072
5623.646587,-2368.659014,0.000000,12139.377449
5623.646910,-1480.411884,1072.533697,11917.315666
5623.647233,-888.247130,2528.115143,9844.739029
5623.647556,222.061783,2451.505594,9030.512492
5623.647879,962.267725,2451.505594,7698.141797
5623.648202,2072.576638,2681.334243,6809.894666
5623.648525,1850.514855,1608.800546,5921.647536
5623.648849,296.082377,153.219100,6513.812290
5623.649172,-1850.514855,-1225.752797,8290.306550
5623.649495,-2442.679609,-2145.067394,9844.739029
5623.649818,-2886.803174,-1991.848295,10066.800811
5623.650141,-3330.926739,-995.924147,10658.965565
5623.650464,-2812.782580,-459.657299,11547.212695
5623.650787,-962.267725,153.219100,11917.315666
5623.651110,148.041188,1762.019645,11251.130318
5623.651433,666.185348,3217.601092,10214.842000
5623.651757,1628.453072,3370.820191,9400.615463
5623.652080,2664.741391,3140.991542,7772.162391
5623.652403,3997.112087,2834.553343,6217.729913
5623.652726,3701.029710,1762.019645,5181.441594
5623.653049,1628.453072,689.485948,6587.832884
5623.653372,-592.164754,-689.485948,8290.306550
5623.653695,-2072.576638,-1915.238745,9770.718434
5623.654018,-2812.782580,-1532.190996,9696.697840
5623.654342,-3330.926739,-1532.190996,11103.089130
5623.654665,-3701.029710,-612.876398,11769.274478
5623.654988,-1776.494261,536.266849,12435.459826
5623.655311,-518.144159,1685.410096,10955.047942
5623.655634,-518.144159,2451.505594,10362.883188
5623.655957,148.041188,2298.286494,9844.739029
5623.656280,1850.514855,2451.505594,8290.306550
5623.656603,2738.761985,2911.162892,6143.709319
5623.656927,2960.823768,1532.190996,5773.606348
5623.657250,740.205942,-766.095498,7105.977043
5623.657573,-888.247130,-1532.190996,8216.285956
5623.657896,-1184.329507,-1991.848295,9474.636058
5623.658219,-1998.556043,-1455.581446,9844.739029
5623.658542,-2738.761985,-1149.143247,11399.171507
5623.658865,-2072.576638,-919.314598,12435.459826
5623.659188,0.000000,229.828649,12213.398043
5623.659512,444.123565,2298.286494,10955.047942
5623.659835,888.247130,2451.505594,10732.986159
5623.660158,1850.514855,2681.334243,9918.759623
5623.660481,3108.864956,2681.334243,8142.265362
5623.660804,4071.132681,2681.334243,5847.626942
5623.661127,3404.947333,1225.752797,5477.523971
5623.661450,1184.329507,-306.438199,6587.832884
5623.661773,-962.267725,-1378.971896,7772.162391
5623.662097,-1480.411884,-1762.019645,8586.388927
5623.662420,-3330.926739,-2145.067394,9474.636058
5623.662743,-3627.009116,-1762.019645,11251.130318
5623.663066,-3034.844362,-1225.752797,12435.459826
5623.663389,-1554.432478,0.000000,11695.253884
5623.663712,-1406.391290,919.314598,10807.006753
5623.664035,-666.185348,2145.067394,10807.006753
5623.664358,444.123565,2221.676944,9844.739029
5623.664681,1702.473667,2451.505594,7624.121203
5623.665005,2590.720797,2221.676944,6069.688724
5623.665328,1850.514855,766.095498,5773.606348
5623.665651,148.041188,-766.095498,7254.018232
5623.665974,-444.123565,-1378.971896,8586.388927
5623.666297,-1702.473667,-1378.971896,9474.636058
5623.666620,-2960.823768,-1838.629195,10140.821405
5623.666943,-3256.906145,-1302.362347,12065.356855
5623.667266,-1628.453072,-536.266849,12435.459826
5623.667590,-592.164754,612.876398,11695.253884
5623.667913,222.061783,1915.238745,11177.109724
5623.668236,814.226536,2374.896044,11029.068536
5623.668559,1406.391290,2911.162892,9548.656652
5623.668882,3182.885551,3294.210641,7254.018232
5623.669205,3256.906145,2528.115143,4885.359217
5623.669528,2220.617826,1225.752797,5625.565159
5623.669851,888.247130,-153.219100,6809.894666
5623.670175,-444.123565,-995.924147,8290.306550
5623.670498,-1554.432478,-842.705048,9252.574275
5623.670821,-3404.947333,-1455.581446,9696.697840
5623.671144,-3923.091493,-1378.971896,11695.253884
5623.671467,-2220.617826,-459.657299,12139.377449
5623.671790,-1480.411884,919.314598,11251.130318
5623.672113,-1184.329507,1838.629195,10955.047942
5623.672436,-666.185348,2298.286494,10807.006753
5623.672760,1036.288319,2987.772442,9326.594869
5623.673083,2590.720797,3370.820191,6883.915261
5623.673406,3182.885551,2757.943793,5699.585753
5623.673729,1628.453072,1302.362347,5921.647536
5623.674052,666.185348,229.828649,7179.997637
5623.674375,518.144159,-766.095498,8216.285956
5623.674698,-1332.370696,-689.485948,8956.491898
5623.675021,-2812.782580,-1302.362347,11029.068536
5623.675345,-2294.638420,-1072.533697,12731.542202
5623.675668,-1036.288319,-612.876398,12583.501014
5623.675991,-222.061783,1455.581446,10732.986159
5623.676314,148.041188,1991.848295,11621.233289
5623.676637,296.082377,2451.505594,11769.274478
5623.676960,1554.432478,3064.381992,9622.677246
5623.677283,3108.864956,3064.381992,7105.977043
5623.677606,2590.720797,2374.896044,5699.585753
5623.677930,592.164754,766.095498,6439.791695
5623.678253,74.020594,-536.266849,6957.935855
5623.678576,-1184.329507,-1532.190996,7624.121203
5623.678899,-2886.803174,-2451.505594,9104.533087
5623.679222,-4515.256246,-2298.286494,10510.924376
5623.679545,-3701.029710,-1838.629195,11843.295072
5623.679868,-2368.659014,-612.876398,11621.233289
5623.680191,-2220.617826,459.657299,10436.903782
5623.680514,-1258.350101,1225.752797,11473.192101
5623.680838,-518.144159,2374.896044,11325.150913
5623.681161,1480.411884,2451.505594,9548.656652
5623.681484,3034.844362,2987.772442,7105.977043
5623.681807,2072.576638,2221.676944,6291.750507
5623.682130,2146.597232,1225.752797,6809.894666
5623.682453,1924.535449,-306.438199,7550.100608
5623.682776,222.061783,-1302.362347,7254.018232
5623.683099,-1184.329507,-1302.362347,9548.656652
5623.683423,-2738.761985,-1915.238745,10510.924376
5623.683746,-2072.576638,-1149.143247,12361.439231
5623.684069,-962.267725,0.000000,11251.130318
5623.684392,-666.185348,842.705048,11177.109724
5623.684715,-148.041188,1225.752797,11177.109724
5623.685038,592.164754,2298.286494,11103.089130
5623.685361,1332.370696,3064.381992,8660.409521
5623.685684,2886.803174,3064.381992,6587.832884
5623.686008,2146.597232,2145.067394,5921.647536
5623.686331,1258.350101,842.705048,5921.647536
5623.686654,592.164754,0.000000,6883.915261
5623.686977,-592.164754,-1072.533697,7846.182985
5623.687300,-2220.617826,-1149.143247,10066.800811
5623.687623,-3330.926739,-2374.896044,11251.130318
5623.687946,-2812.782580,-1225.752797,12361.439231
5623.688269,-2146.597232,0.000000,11769.274478
5623.688593,-1998.556043,536.266849,11843.295072
5623.688916,-1036.288319,1225.752797,12213.398043
5623.689239,0.000000,2145.067394,11473.192101
5623.689562,1776.494261,2451.505594,8660.409521
5623.689885,3034.844362,2681.334243,6735.874072
5623.690208,2590.720797,1455.581446,6143.709319
5623.690531,2368.659014,689.485948,6809.894666
5623.690854,1480.411884,-306.438199,6957.935855
5623.691178,222.061783,-842.705048,7920.203579
5623.691501,-1776.494261,-1608.800546,10362.883188
5623.691824,-2146.597232,-2451.505594,10881.027347
5623.692147,-962.267725,-766.095498,11917.315666
5623.692470,-888.247130,0.000000,11325.150913
5623.692793,-296.082377,842.705048,11991.336260
5623.693116,-592.164754,1149.143247,11843.295072
5623.693439,518.144159,2451.505594,10214.842000
5623.693763,2146.597232,2757.943793,7920.203579
5623.694086,1258.350101,2221.676944,5847.626942
5623.694409,1258.350101,1455.581446,5773.606348
5623.694732,1406.391290,-306.438199,6365.771101
5623.695055,222.061783,-383.047749,5995.668130
5623.695378,-1628.453072,-1149.143247,7328.038826
5623.695701,-3108.864956,-2068.457845,9918.759623
5623.696024,-3182.885551,-1838.629195,11473.192101
5623.696347,-2368.659014,-1149.143247,10955.047942
5623.696671,-1776.494261,0.000000,10955.047942
5623.696994,-1406.391290,919.314598,11991.336260
5623.697317,-222.061783,1838.629195,12361.439231
5623.697640,592.164754,2911.162892,10584.944971
5623.697963,2368.659014,3753.867940,8660.409521
5623.698286,2368.659014,2757.943793,7105.977043
5623.698609,2368.659014,1915.238745,6809.894666
5623.698932,2294.638420,1685.410096,6883.915261
5623.699256,1332.370696,229.828649,7550.100608
5623.699579,-814.226536,-766.095498,8290.306550
5623.699902,-2516.700203,-1685.410096,10584.944971
5623.700225,-2812.782580,-1532.190996,11473.192101
5623.700548,-2146.597232,-459.657299,10732.986159
5623.700871,-2516.700203,766.095498,10436.903782
5623.701194,-2442.679609,766.095498,11177.109724
5623.701517,-1036.288319,1685.410096,11843.295072
5623.701841,-370.102971,2757.943793,8882.471304
5623.702164,666.185348,2987.772442,7254.018232
5623.702487,1332.370696,2451.505594,6217.729913
5623.702810,1776.494261,1838.629195,5847.626942
5623.703133,1702.473667,766.095498,5847.626942
5623.703456,370.102971,842.705048,6587.832884
5623.703779,-1332.370696,-766.095498,8586.388927
5623.704103,-2220.617826,-1455.581446,10658.965565
5623.704426,-1480.411884,-1225.752797,11473.192101
5623.704749,-1184.329507,-229.828649,11177.109724
5623.705072,-962.267725,306.438199,11991.336260
5623.705395,-518.144159,1149.143247,12435.459826
5623.705718,74.020594,1838.629195,12065.356855
5623.706042,814.226536,3064.381992,10510.924376
5623.706365,2664.741391,2604.724693,8438.347739
5623.706688,2294.638420,2298.286494,7254.018232
5623.707011,2368.659014,1532.190996,6217.729913
5623.707334,2368.659014,612.876398,6143.709319
5623.707657,518.144159,-229.828649,6661.853478
5623.707980,-1110.308913,-1302.362347,8808.450710
5623.708304,-2220.617826,-2298.286494,10807.006753
5623.708627,-2072.576638,-1838.629195,11177.109724
5623.708950,-1702.473667,-995.924147,11103.089130
5623.709273,-1554.432478,-612.876398,11547.212695
5623.709596,-1554.432478,76.609550,12139.377449
5623.709919,-370.102971,1378.971896,11695.253884
5623.710243,888.247130,2451.505594,9992.780217
5623.710566,1776.494261,3217.601092,8290.306550
5623.710889,1554.432478,1302.362347,7105.977043
5623.711212,2368.659014,1685.410096,6217.729913
5623.711535,2368.659014,842.705048,5625.565159
5623.711858,740.205942,-153.219100,6365.771101
5623.712182,-1480.411884,-1378.971896,8586.388927
5623.712505,-1406.391290,-1838.629195,10584.944971
5623.712828,-1924.535449,-1149.143247,9918.759623
5623.713151,-1850.514855,-229.828649,10214.842000
5623.713474,-1332.370696,-459.657299,11251.130318
5623.713797,-1776.494261,459.657299,12213.398043
5623.714120,-296.082377,1302.362347,11177.109724
5623.714444,962.267725,2528.115143,9474.636058
5623.714767,1554.432478,2987.772442,8438.347739
5623.715090,1702.473667,2374.896044,7254.018232
5623.715413,2294.638420,1762.019645,6809.894666
5623.715736,2294.638420,766.095498,6365.771101
5623.716059,518.144159,-383.047749,7105.977043
5623.716383,-1258.350101,-1915.238745,9474.636058
5623.716706,-2146.597232,-1915.238745,10807.006753
5623.717029,-2516.700203,-1532.190996,10881.027347
5623.717352,-2442.679609,-1149.143247,11103.089130
5623.717675,-2368.659014,-1149.143247,11769.274478
5623.717998,-1850.514855,153.219100,11843.295072
5623.718321,-592.164754,1302.362347,11103.089130
5623.718645,222.061783,2068.457845,9548.656652
5623.718968,666.185348,2298.286494,8734.430116
5623.719291,1850.514855,2068.457845,7328.038826
5623.719614,2368.659014,1302.362347,6365.771101
5623.719937,1702.473667,842.705048,6661.853478
5623.720260,296.082377,-153.219100,7402.059420
5623.720584,-518.144159,-1072.533697,9474.636058
5623.720907,-592.164754,-1685.410096,10436.903782
5623.721230,-1184.329507,-612.876398,10362.883188
5623.721553,-1332.370696,-306.438199,11547.212695
5623.721876,-1628.453072,-229.828649,11843.295072
5623.722199,-740.205942,1225.752797,11621.233289
5623.722523,370.102971,2451.505594,10436.903782
5623.722846,814.226536,2987.772442,9400.615463
5623.723169,1036.288319,2911.162892,8216.285956
5623.723492,1850.514855,2221.676944,6883.915261
5623.723815,2220.617826,1991.848295,5773.606348
5623.724138,1184.329507,1838.629195,5699.585753
5623.724461,-592.164754,459.657299,7846.182985
5623.724785,-1776.494261,-919.314598,9252.574275
5623.725108,-2664.741391,-995.924147,9770.718434
5623.725431,-3330.926739,-995.924147,9326.594869
5623.725754,-3552.988522,-459.657299,11325.150913
5623.726077,-3256.906145,-229.828649,11695.253884
5623.726400,-1628.453072,919.314598,10955.047942
5623.726724,-444.123565,2298.286494,9622.677246
5623.727047,0.000000,2757.943793,8586.388927
5623.727370,1332.370696,2604.724693,8586.388927
5623.727693,2294.638420,2221.676944,6883.915261
5623.728016,2960.823768,2145.067394,6291.750507
5623.728339,2072.576638,1378.971896,6513.812290
5623.728662,222.061783,0.000000,8882.471304
5623.728986,0.000000,-995.924147,10510.924376
5623.729309,-518.144159,-612.876398,10807.006753
5623.729632,-2368.659014,-536.266849,11103.089130
5623.729955,-1998.556043,-459.657299,12213.398043
5623.730278,-2220.617826,0.000000,12657.521608
5623.730601,-444.123565,995.924147,11547.212695
5623.730925,0.000000,1762.019645,10732.986159
5623.731248,222.061783,2604.724693,9474.636058
5623.731571,1628.453072,2451.505594,8586.388927
5623.731894,3182.885551,2145.067394,7402.059420
5623.732217,2664.741391,2374.896044,5847.626942
5623.732540,1554.432478,995.924147,6365.771101
5623.732864,0.000000,-536.266849,7624.121203
5623.733187,-1110.308913,-1532.190996,9178.553681
5623.733510,-1702.473667,-1762.019645,9622.677246
5623.733833,-2960.823768,-1685.410096,10288.862594
5623.734156,-2886.803174,-2757.943793,11177.109724
5623.734479,-2294.638420,-536.266849,11103.089130
5623.734802,-1258.350101,76.609550,11029.068536
5623.735126,148.041188,1378.971896,9844.739029
5623.735449,-592.164754,1532.190996,9992.780217
5623.735772,1184.329507,1991.848295,7846.182985
5623.736095,2664.741391,1762.019645,6661.853478
5623.736418,2590.720797,2374.896044,5033.400406
5623.736741,2072.576638,229.828649,6735.874072
5623.737065,740.205942,-1225.752797,8586.388927
5623.737388,0.000000,-1455.581446,9918.759623
5623.737711,-1184.329507,-1149.143247,10362.883188
5623.738034,-2146.597232,-1608.800546,11547.212695
5623.738357,-2368.659014,-1455.581446,12805.562797
5623.738680,-1850.514855,-459.657299,12435.459826
5623.739004,-962.267725,612.876398,11621.233289
5623.739327,-740.205942,1762.019645,10658.965565
5623.739650,-666.185348,1762.019645,9918.759623
5623.739973,814.226536,1991.848295,8438.347739
5623.740296,2220.617826,2298.286494,6513.812290
5623.740619,2294.638420,2298.286494,5625.565159
5623.740942,1184.329507,919.314598,6587.832884
5623.741266,518.144159,-459.657299,8068.244768
5623.741589,0.000000,-459.657299,9400.615463
5623.741912,-2072.576638,-766.095498,9326.594869
5623.742235,-2368.659014,-766.095498,11103.089130
5623.742558,-2590.720797,-383.047749,11843.295072
5623.742881,-1554.432478,229.828649,11547.212695
5623.743205,-444.123565,1532.190996,9844.739029
5623.743528,-444.123565,1915.238745,9770.718434
5623.743851,0.000000,2451.505594,9400.615463
5623.744174,1258.350101,2374.896044,7994.224174
5623.744497,2368.659014,2681.334243,5403.503377
5623.744820,2072.576638,1608.800546,5107.421000
5623.745143,1036.288319,536.266849,6439.791695
5623.745467,814.226536,-536.266849,7920.203579
5623.745790,-444.123565,-766.095498,8882.471304
5623.746113,-2442.679609,-766.095498,10362.883188
5623.746436,-2738.761985,-1302.362347,11547.212695
5623.746759,-2368.659014,-689.485948,12731.542202
5623.747082,-1332.370696,229.828649,11991.336260
5623.747406,0.000000,1149.143247,11325.150913
5623.747729,-296.082377,1608.800546,10881.027347
5623.748052,814.226536,2451.505594,10066.800811
5623.748375,3034.844362,2528.115143,8512.368333
5623.748698,3478.967927,2757.943793,7179.997637
5623.749021,2738.761985,2298.286494,6735.874072
5623.749345,2146.597232,842.705048,7994.224174
5623.749668,1184.329507,-383.047749,8882.471304
5623.749991,-296.082377,-612.876398,9622.677246
5623.750314,-2516.700203,-1685.410096,11103.089130
5623.750637,-3108.864956,-1532.190996,11991.336260
5623.750960,-3627.009116,-1072.533697,12065.356855
5623.751283,-2368.659014,-153.219100,10658.965565
5623.751607,-1850.514855,766.095498,10288.862594
5623.751930,-2368.659014,1455.581446,9918.759623
5623.752253,-1258.350101,1991.848295,8956.491898
5623.752576,814.226536,2068.457845,6735.874072
5623.752899,1702.473667,2528.115143,4959.379811
5623.753222,1406.391290,1915.238745,5551.544565
5623.753546,1184.329507,153.219100,6809.894666
5623.753869,814.226536,-306.438199,7846.182985
5623.754192,-592.164754,-459.657299,8512.368333
5623.754515,-1776.494261,-1072.533697,10732.986159
5623.754838,-2146.597232,-995.924147,11917.315666
5623.755161,-1702.473667,-306.438199,12065.356855
5623.755484,0.000000,842.705048,11843.295072
5623.755808,0.000000,1072.533697,11177.109724
5623.756131,-518.144159,1991.848295,11251.130318
5623.756454,1036.288319,2604.724693,9918.759623
5623.756777,2368.659014,2911.162892,7624.121203
5623.757100,2368.659014,2221.676944,5921.647536
5623.757423,1702.473667,1685.410096,6069.688724
5623.757747,1332.370696,229.828649,7402.059420
5623.758070,0.000000,-459.657299,7772.162391
5623.758393,-2220.617826,-1532.190996,8882.471304
5623.758716,-3701.029710,-2298.286494,10732.986159
5623.759039,-3775.050304,-1991.848295,12139.377449
5623.759362,-2516.700203,76.609550,11843.295072
5623.759686,-1554.432478,0.000000,11325.150913
5623.760009,-1480.411884,919.314598,11399.171507
5623.760332,-370.102971,1685.410096,11547.212695
5623.760655,1702.473667,2374.896044,9548.656652
5623.760978,3108.864956,2987.772442,7402.059420
5623.761301,3478.967927,2451.505594,5921.647536
5623.761624,3108.864956,1838.629195,7179.997637
5623.761948,3775.050304,766.095498,7550.100608
5623.762271,1998.556043,919.314598,7328.038826
5623.762594,0.000000,-919.314598,8438.347739
5623.762917,-1850.514855,-1991.848295,10732.986159
5623.763240,-2146.597232,-1608.800546,11399.171507
5623.763563,-1184.329507,-459.657299,11103.089130
5623.763887,-1036.288319,689.485948,10510.924376
5623.764210,-1924.535449,1302.362347,10288.862594
5623.764533,-1110.308913,1915.238745,10584.944971
5623.764856,814.226536,2757.943793,9030.512492
5623.765179,2220.617826,2834.553343,6513.812290
5623.765502,1702.473667,1991.848295,5699.585753
5623.765825,1776.494261,1149.143247,7105.977043
5623.766149,1110.308913,153.219100,7031.956449
5623.766472,222.061783,-766.095498,7476.080014
5623.766795,-1554.432478,-1225.752797,9474.636058
5623.767118,-3849.070898,-2298.286494,10881.027347
5623.767441,-3034.844362,-1302.362347,11399.171507
5623.767764,-1480.411884,-766.095498,11695.253884
5623.768088,-1406.391290,0.000000,11251.130318
5623.768411,-1702.473667,229.828649,11769.274478
5623.768734,-444.123565,1225.752797,11473.192101
5623.769057,1406.391290,2451.505594,9622.677246
5623.769380,1406.391290,2528.115143,7698.141797
5623.769703,2664.741391,2221.676944,6587.832884
5623.770027,2442.679609,919.314598,7328.038826
5623.770350,2886.803174,536.266849,7105.977043
5623.770673,888.247130,0.000000,8068.244768
5623.770996,-1332.370696,-1378.971896,10066.800811
5623.771319,-2516.700203,-1838.629195,11843.295072
5623.771642,-2738.761985,-1302.362347,11695.253884
5623.771965,-1702.473667,-766.095498,11251.130318
5623.772289,-1850.514855,0.000000,11769.274478
5623.772612,-1702.473667,383.047749,11843.295072
5623.772935,-444.123565,1532.190996,10732.986159
5623.773258,666.185348,2451.505594,8808.450710
5623.773581,1628.453072,2987.772442,6439.791695
5623.773904,1850.514855,2068.457845,5995.668130
5623.774228,2368.659014,1225.752797,5921.647536
5623.774551,2442.679609,536.266849,6365.771101
5623.774874,296.082377,0.000000,6587.832884
5623.775197,-1628.453072,-1225.752797,9474.636058
5623.775520,-2960.823768,-1455.581446,11325.150913
5623.775843,-2738.761985,-842.705048,11103.089130
5623.776166,-1924.535449,-306.438199,10658.965565
5623.776490,-2072.576638,383.047749,10955.047942
5623.776813,-2442.679609,383.047749,11843.295072
5623.777136,-814.226536,1915.238745,10584.944971
5623.777459,740.205942,2911.162892,8660.409521
5623.777782,888.247130,2604.724693,6809.894666
5623.778105,1776.494261,2528.115143,6735.874072
5623.778429,2590.720797,1532.190996,6587.832884
5623.778752,2960.823768,1455.581446,6291.750507
5623.779075,1258.350101,612.876398,7550.100608
5623.779398,-962.267725,-1072.533697,10362.883188
5623.779721,-2368.659014,-1302.362347,12065.356855
5623.780044,-2072.576638,-383.047749,11621.233289
5623.780368,-1332.370696,0.000000,11769.274478
5623.780691,-2442.679609,612.876398,11843.295072
5623.781014,-1110.308913,153.219100,12139.377449
5623.781337,148.041188,2221.676944,11325.150913
5623.781660,888.247130,3294.210641,8956.491898
5623.781983,1332.370696,2681.334243,7550.100608
5623.782306,1776.494261,2145.067394,7476.080014
5623.782630,2442.679609,1532.190996,6809.894666
5623.782953,962.267725,689.485948,5847.626942
5623.783276,-666.185348,-1532.190996,7254.018232
5623.783599,-2664.741391,-2068.457845,10066.800811
5623.783922,-3849.070898,-2068.457845,10658.965565
5623.784245,-3034.844362,-995.924147,10881.027347
5623.784569,-2590.720797,-612.876398,10584.944971
5623.784892,-2738.761985,-153.219100,11251.130318
5623.785215,-1258.350101,383.047749,10881.027347
5623.785538,148.041188,2221.676944,9844.739029
5623.785861,1332.370696,3217.601092,7846.182985
5623.786184,2368.659014,2681.334243,7105.977043
5623.786507,3775.050304,2221.676944,7254.018232
5623.786831,4515.256246,1838.629195,6809.894666
5623.787154,2738.761985,995.924147,6661.853478
5623.787477,1258.350101,-1149.143247,8364.327145
5623.787800,-592.164754,-1608.800546,10732.986159
5623.788123,-1480.411884,-1991.848295,11399.171507
5623.788446,-1480.411884,-1149.143247,11177.109724
5623.788770,-2368.659014,-612.876398,11769.274478
5623.789093,-2590.720797,-306.438199,11991.336260
5623.789416,-1776.494261,383.047749,12139.377449
5623.789739,-666.185348,2145.067394,10214.842000
5623.790062,666.185348,2911.162892,8216.285956
5623.790385,888.247130,2451.505594,7254.018232
5623.790709,2220.617826,1762.019645,6217.729913
5623.791032,2886.803174,1532.190996,5995.668130
5623.791355,1184.329507,689.485948,6069.688724
5623.791678,-518.144159,-1072.533697,8142.265362
5623.792001,-1850.514855,-2451.505594,10658.965565
5623.792324,-2220.617826,-842.705048,10510.924376
5623.792647,-962.267725,-995.924147,11399.171507
5623.792971,-2072.576638,-459.657299,11547.212695
5623.793294,-2072.576638,-459.657299,12509.480420
5623.793617,-592.164754,919.314598,11843.295072
5623.793940,444.123565,1762.019645,9992.780217
5623.794263,1258.350101,2987.772442,8882.471304
5623.794586,2146.597232,2911.162892,7402.059420
5623.794910,3478.967927,2145.067394,6883.915261
5623.795233,3330.926739,1915.238745,5033.400406
5623.795556,1258.350101,536.266849,6513.812290
5623.795879,-814.226536,-995.924147,8512.368333
5623.796202,-2738.761985,-2221.676944,10066.800811
5623.796525,-2812.782580,-2374.896044,10436.903782
5623.796848,-3034.844362,-1149.143247,10288.862594
5623.797172,-4293.194464,-306.438199,11621.233289
5623.797495,-3034.844362,306.438199,12065.356855
5623.797818,-1702.473667,766.095498,11399.171507
5623.798141,-888.247130,1915.238745,9696.697840
5623.798464,444.123565,2604.724693,8808.450710
5623.798787,1924.535449,2374.896044,7994.224174
5623.799111,3627.009116,2145.067394,6957.935855
5623.799434,2886.803174,1838.629195,6069.688724
5623.799757,1332.370696,612.876398,7179.997637
5623.800080,-370.102971,-766.095498,9474.636058
5623.800403,-1924.535449,-1608.800546,11251.130318
5623.800726,-2220.617826,-1302.362347,10955.047942
5623.801050,-2590.720797,-995.924147,11325.150913
5623.801373,-2516.700203,-766.095498,11769.274478
5623.801696,-1850.514855,306.438199,11843.295072
5623.802019,-888.247130,1838.629195,11103.089130
5623.802342,0.000000,2834.553343,9104.533087
5623.802665,888.247130,3370.820191,7846.182985
5623.802988,2294.638420,2757.943793,7328.038826
5623.803311,4071.132681,2911.162892,5625.565159
5623.803634,3404.947333,1685.410096,5329.482782
5623.803957,1406.391290,766.095498,6365.771101
5623.804280,0.000000,-995.924147,9918.759623
5623.804604,-1702.473667,-459.657299,9992.780217
5623.804927,-1702.473667,-383.047749,9992.780217
5623.805250,-2516.700203,-766.095498,11029.068536
5623.805573,-3108.864956,-459.657299,12361.439231
5623.805896,-1924.535449,229.828649,11769.274478
5623.806219,-962.267725,1991.848295,10288.862594
5623.806542,-222.061783,2834.553343,8808.450710
5623.806865,222.061783,2451.505594,8364.327145
5623.807188,1998.556043,2451.505594,7328.038826
5623.807511,2960.823768,2451.505594,5847.626942
5623.807834,2368.659014,1685.410096,4885.359217
5623.808157,888.247130,0.000000,7328.038826
5623.808480,-370.102971,-1149.143247,9696.697840
5623.808803,-1702.473667,-1378.971896,10436.903782
5623.809126,-1554.432478,-995.924147,10955.047942
5623.809449,-2886.803174,-1378.971896,11843.295072
5623.809772,-2072.576638,-919.314598,12805.562797
5623.810096,-444.123565,0.000000,12435.459826
5623.810419,370.102971,1455.581446,11547.212695
5623.810742,666.185348,2911.162892,10362.883188
5623.811065,1702.473667,1915.238745,10214.842000
5623.811388,3701.029710,2451.505594,8068.244768
5623.811711,3849.070898,2068.457845,5551.544565
5623.812034,3034.844362,1072.533697,5773.606348
5623.812357,1480.411884,-306.438199,7772.162391
5623.812680,-814.226536,-1915.238745,9030.512492
5623.813003,-2294.638420,-1685.410096,9844.739029
5623.813326,-2960.823768,-1378.971896,9918.759623
5623.813649,-3775.050304,-1838.629195,11029.068536
5623.813972,-3849.070898,-1149.143247,11769.274478
5623.814295,-2368.659014,-229.828649,11769.274478
5623.814618,-2072.576638,1378.971896,10066.800811
5623.814941,-1406.391290,2145.067394,9474.636058
5623.815264,592.164754,2681.334243,8734.430116
5623.815587,2738.761985,3294.210641,6957.935855
5623.815911,3256.906145,2757.943793,4959.379811
5623.816234,2368.659014,2451.505594,5773.606348
5623.816557,1702.473667,153.219100,7402.059420
5623.816880,74.020594,-766.095498,8660.409521
5623.817203,-814.226536,-689.485948,9918.759623
5623.817526,-1628.453072,-995.924147,10510.924376
5623.817849,-2368.659014,-919.314598,11917.315666
5623.818172,-1184.329507,-842.705048,11695.253884
5623.818495,-592.164754,766.095498,11325.150913
5623.818818,-888.247130,1532.190996,10510.924376
5623.819141,-444.123565,2221.676944,10214.842000
5623.819464,1480.411884,2528.115143,9030.512492
5623.819787,3404.947333,2987.772442,7402.059420
5623.820110,3256.906145,3677.258390,5477.523971
5623.820433,2294.638420,1149.143247,6291.750507
5623.820756,740.205942,0.000000,7772.162391
5623.821079,-222.061783,-1378.971896,9252.574275
5623.821403,-1480.411884,-1455.581446,9622.677246
5623.821726,-3330.926739,-1838.629195,11177.109724
5623.822049,-3849.070898,-1608.800546,12435.459826
5623.822372,-3775.050304,-995.924147,11991.336260
5623.822695,-1406.391290,-536.266849,11251.130318
5623.823018,-1258.350101,1072.533697,9992.780217
5623.823341,-1184.329507,1762.019645,9844.739029
5623.823664,1406.391290,2604.724693,9326.594869
5623.823987,3701.029710,2757.943793,6513.812290
5623.824310,3552.988522,2528.115143,4737.318029
5623.824633,2812.782580,1225.752797,6291.750507
5623.824956,1480.411884,-612.876398,7920.203579
5623.825279,444.123565,-842.705048,9030.512492
5623.825602,0.000000,-995.924147,9696.697840
5623.825925,-2146.597232,-1302.362347,10881.027347
5623.826248,-2516.700203,-1149.143247,12435.459826
5623.826571,-1924.535449,-153.219100,12287.418637
5623.826895,-740.205942,689.485948,11177.109724
5623.827218,74.020594,2298.286494,11103.089130
5623.827541,0.000000,2374.896044,10140.821405
5623.827864,1554.432478,2451.505594,9326.594869
5623.828187,3034.844362,3064.381992,5329.482782
5623.828510,2220.617826,1991.848295,5107.421000
5623.828833,1702.473667,995.924147,5921.647536
5623.829156,0.000000,-383.047749,7994.224174
5623.829479,-1184.329507,-919.314598,8734.430116
5623.829802,-2886.803174,-1302.362347,10140.821405
5623.830125,-4737.318029,-1838.629195,11103.089130
5623.830448,-4367.215058,-1685.410096,12583.501014
5623.830771,-3330.926739,-383.047749,11991.336260
5623.831094,-2146.597232,766.095498,11399.171507
5623.831417,-1850.514855,1685.410096,11399.171507
5623.831740,-666.185348,2374.896044,10436.903782
5623.832063,2072.576638,3217.601092,8586.388927
5623.832386,2664.741391,3217.601092,5773.606348
5623.832710,2812.782580,2374.896044,5403.503377
5623.833033,2368.659014,1072.533697,6883.915261
5623.833356,1332.370696,0.000000,8068.244768
5623.833679,-296.082377,-689.485948,8734.430116
5623.834002,-1850.514855,-919.314598,10214.842000
5623.834325,-3552.988522,-1455.581446,11695.253884
5623.834648,-2960.823768,-1532.190996,12065.356855
5623.834971,-1554.432478,-306.438199,11769.274478
5623.835294,-1036.288319,1302.362347,10807.006753
5623.835617,-888.247130,1532.190996,10955.047942
5623.835940,666.185348,2451.505594,9918.759623
5623.836263,2738.761985,3370.820191,7698.141797
5623.836586,3627.009116,3447.429741,5181.441594
5623.836909,3182.885551,2298.286494,5107.421000
5623.837232,2812.782580,612.876398,6883.915261
5623.837555,1628.453072,0.000000,7476.080014
5623.837878,444.123565,-689.485948,8660.409521
5623.838202,-1998.556043,-1838.629195,10066.800811
5623.838525,-3775.050304,-2681.334243,12065.356855
5623.838848,-2812.782580,-1685.410096,12731.542202
5623.839171,-1924.535449,-306.438199,11769.274478
5623.839494,-1480.411884,612.876398,10881.027347
5623.839817,-1332.370696,1455.581446,11547.212695
5623.840140,592.164754,1915.238745,10658.965565
5623.840463,2220.617826,3064.381992,8512.368333
5623.840786,2812.782580,2987.772442,5699.585753
5623.841109,2442.679609,1149.143247,6069.688724
5623.841432,2072.576638,536.266849,6735.874072
5623.841755,740.205942,-536.266849,7402.059420
5623.842078,-148.041188,-995.924147,8660.409521
5623.842401,-2590.720797,-1838.629195,10732.986159
5623.842724,-3330.926739,-2145.067394,12065.356855
5623.843047,-2664.741391,-1455.581446,12361.439231
5623.843370,-2294.638420,0.000000,11399.171507
5623.843694,-1036.288319,1072.533697,11399.171507
5623.844017,-888.247130,919.314598,11325.150913
5623.844340,592.164754,2068.457845,10066.800811
5623.844663,2294.638420,3447.429741,7179.997637
5623.844986,2442.679609,3064.381992,5551.544565
5623.845309,2368.659014,1915.238745,5995.668130
5623.845632,1998.556043,689.485948,6143.709319
5623.845955,1332.370696,0.000000,6439.791695
5623.846278,-814.226536,-766.095498,7624.121203
5623.846601,-3701.029710,-2145.067394,9992.780217
5623.846924,-4145.153275,-2068.457845,11325.150913
5623.847247,-3182.885551,-995.924147,11695.253884
5623.847570,-2590.720797,-76.609550,11029.068536
5623.847893,-2220.617826,1072.533697,11399.171507
5623.848216,-1332.370696,1608.800546,11547.212695
5623.848539,1184.329507,2604.724693,10140.821405
5623.848862,2738.761985,3294.210641,7624.121203
5623.849185,2590.720797,2911.162892,6513.812290
5623.849509,2516.700203,1762.019645,6957.935855
5623.849832,1998.556043,919.314598,7402.059420
5623.850155,1036.288319,459.657299,7698.141797
5623.850478,-592.164754,-766.095498,8808.450710
5623.850801,-3108.864956,-2145.067394,11325.150913
5623.851124,-3108.864956,-1838.629195,12139.377449
5623.851447,-1924.535449,-766.095498,12139.377449
5623.851770,-1554.432478,76.609550,11621.233289
5623.852093,-1628.453072,919.314598,11695.253884
5623.852416,-296.082377,1378.971896,11621.233289
5623.852739,1480.411884,2528.115143,9326.594869
5623.853062,2738.761985,3524.039291,6587.832884
5623.853385,2664.741391,2451.505594,5995.668130
5623.853708,2738.761985,1378.971896,6217.729913
5623.854031,2368.659014,1225.752797,6217.729913
5623.854354,1332.370696,76.609550,6735.874072
5623.854677,-592.164754,-1455.581446,8882.471304
5623.855001,-3478.967927,-1991.848295,11177.109724
5623.855324,-2886.803174,-1608.800546,11621.233289
5623.855647,-2368.659014,-919.314598,11991.336260
5623.855970,-2294.638420,306.438199,11103.089130
5623.856293,-2072.576638,612.876398,11843.295072
5623.856616,-222.061783,1608.800546,11325.150913
5623.856939,1184.329507,2604.724693,9104.533087
5623.857262,2146.597232,2987.772442,7254.018232
5623.857585,2368.659014,2145.067394,6217.729913
5623.857908,1702.473667,1685.410096,6513.812290
5623.858231,1850.514855,919.314598,6217.729913
5623.858554,518.144159,-229.828649,7179.997637
5623.858877,-1998.556043,-1302.362347,9548.656652
5623.859200,-3182.885551,-1991.848295,11695.253884
5623.859523,-3404.947333,-1532.190996,12287.418637
5623.859846,-2590.720797,-842.705048,12213.398043
5623.860169,-2294.638420,0.000000,12065.356855
5623.860492,-2146.597232,536.266849,11991.336260
5623.860816,518.144159,1838.629195,11695.253884
5623.861139,1184.329507,3217.601092,9104.533087
5623.861462,2220.617826,3447.429741,7105.977043
5623.861785,3182.885551,2451.505594,6069.688724
5623.862108,2738.761985,2298.286494,5847.626942
5623.862431,3256.906145,1838.629195,5921.647536
5623.862754,1110.308913,-153.219100,6291.750507
5623.863077,-1776.494261,-1455.581446,9252.574275
5623.863400,-2738.761985,-1838.629195,10955.047942
5623.863723,-2812.782580,-1378.971896,11473.192101
5623.864046,-2368.659014,0.000000,11325.150913
5623.864369,-2294.638420,76.609550,11473.192101
5623.864692,-1998.556043,612.876398,12583.501014
5623.865015,74.020594,2145.067394,11177.109724
5623.865338,1406.391290,2451.505594,8882.471304
5623.865661,2072.576638,2911.162892,7402.059420
5623.865984,2590.720797,2145.067394,7254.018232
5623.866308,2738.761985,1455.581446,6291.750507
5623.866631,2590.720797,1455.581446,5625.565159
5623.866954,888.247130,-76.609550,7105.977043
5623.867277,-1628.453072,-1685.410096,10066.800811
5623.867600,-3108.864956,-2374.896044,11473.192101
5623.867923,-2516.700203,-1608.800546,11769.274478
5623.868246,-2294.638420,-612.876398,11695.253884
5623.868569,-2664.741391,-459.657299,12139.377449
5623.868892,-1110.308913,306.438199,12139.377449
5623.869215,814.226536,1378.971896,10955.047942
5623.869538,1332.370696,2681.334243,8364.327145
5623.869861,2442.679609,2528.115143,7698.141797
5623.870184,2738.761985,2451.505594,6809.894666
5623.870507,3627.009116,1762.019645,6069.688724
5623.870830,3034.844362,1072.533697,5551.544565
5623.871153,1110.308913,-306.438199,7105.977043
5623.871476,-1628.453072,-1302.362347,9992.780217
5623.871800,-2664.741391,-2145.067394,11621.233289
