#time,accel_x,accel_y,accel_z
365.435359,518.144159,4060.306139,6513.812290
365.435685,370.102971,4060.306139,7994.224174
365.436011,0.000000,3140.991542,8956.491898
365.436336,-518.144159,2298.286494,9252.574275
365.436662,0.000000,1838.629195,9918.759623
365.436988,-666.185348,995.924147,11029.068536
365.437314,-1332.370696,766.095498,10436.903782
365.437639,-1184.329507,536.266849,10288.862594
365.437965,740.205942,229.828649,10658.965565
365.438291,592.164754,995.924147,10066.800811
365.438616,592.164754,536.266849,10214.842000
365.438942,1184.329507,0.000000,10140.821405
365.439268,2220.617826,383.047749,9474.636058
365.439594,3108.864956,0.000000,9474.636058
365.439919,2294.638420,-229.828649,9474.636058
365.440245,1332.370696,0.000000,8512.368333
365.440571,2368.659014,-612.876398,9326.594869
365.440897,3182.885551,-1149.143247,9770.718434
365.441222,2072.576638,-995.924147,9548.656652
365.441548,2146.597232,-1225.752797,9844.739029
365.441874,3330.926739,-766.095498,9844.739029
365.442200,4293.194464,306.438199,9918.759623
365.442525,3849.070898,306.438199,10288.862594
365.442851,3552.988522,689.485948,10140.821405
365.443177,4367.215058,1532.190996,10066.800811
365.443503,5181.441594,1762.019645,10881.027347
365.443828,4367.215058,1532.190996,10436.903782
365.444154,2590.720797,2451.505594,9474.636058
365.444480,2960.823768,2987.772442,9252.574275
365.444805,3478.967927,2911.162892,9178.553681
365.445131,1998.556043,3370.820191,8882.471304
365.445457,1036.288319,3524.039291,8438.347739
365.445783,1702.473667,3907.087040,8068.244768
365.446108,2072.576638,4903.011187,8364.327145
365.446434,2442.679609,5286.058936,9104.533087
365.446760,2294.638420,5515.887586,8586.388927
365.447086,3404.947333,7201.297681,8660.409521
365.447411,4737.318029,7354.516781,9030.512492
365.447737,5033.400406,7584.345430,9770.718434
365.448063,4145.153275,7737.564530,9696.697840
365.448389,3552.988522,7814.174080,8808.450710
365.448714,4737.318029,8580.269578,8660.409521
365.449040,4885.359217,8503.660028,9030.512492
365.449366,3108.864956,8886.707777,7698.141797
365.449691,2960.823768,7890.783629,7105.977043
365.450017,3256.906145,8197.221829,7254.018232
365.450343,2368.659014,7890.783629,7550.100608
365.450669,1036.288319,7507.735880,7698.141797
365.450994,444.123565,6665.030833,7550.100608
365.451320,-296.082377,6205.373534,7328.038826
365.451646,0.000000,4979.620737,8438.347739
365.451972,-1258.350101,4366.744339,9622.677246
365.452297,-2072.576638,3370.820191,8808.450710
365.452623,-666.185348,2757.943793,8660.409521
365.452949,444.123565,2451.505594,9104.533087
365.453275,1184.329507,3140.991542,9770.718434
365.453600,1998.556043,2145.067394,9474.636058
365.453926,3182.885551,2068.457845,9548.656652
365.454252,3404.947333,1532.190996,10510.924376
365.454578,3182.885551,995.924147,11843.295072
365.454903,3034.844362,0.000000,12805.562797
365.455229,2590.720797,-1225.752797,12287.418637
365.455555,2368.659014,-2145.067394,12509.480420
365.455880,1628.453072,-3064.381992,11251.130318
365.456206,666.185348,-2987.772442,9622.677246
365.456532,1036.288319,-1915.238745,8438.347739
365.456858,2072.576638,-1838.629195,7254.018232
365.457183,1332.370696,-612.876398,6735.874072
365.457509,740.205942,-919.314598,5995.668130
365.457835,666.185348,-1302.362347,5551.544565
365.458161,-222.061783,-1991.848295,6809.894666
365.458485,-2146.597232,-2834.553343,8216.285956
365.458811,-2738.761985,-3600.648841,10066.800811
365.459136,-3849.070898,-5669.106685,11399.171507
365.459462,-4293.194464,-7048.078582,12879.583391
365.459787,-4441.235652,-7354.516781,14878.139434
365.460113,-4145.153275,-7431.126331,14656.077652
365.460439,-2812.782580,-7737.564530,12583.501014
365.460764,370.102971,-4596.572988,11399.171507
365.461090,2738.761985,-229.828649,10807.006753
365.461415,4145.153275,1455.581446,8438.347739
365.461741,5921.647536,2374.896044,6365.771101
365.462067,6513.812290,3983.696590,5921.647536
365.462392,5847.626942,5515.887586,6365.771101
365.462718,4219.173869,4366.744339,7846.182985
365.463043,2664.741391,2987.772442,9400.615463
365.463369,-444.123565,2451.505594,11029.068536
365.463694,-2738.761985,76.609550,12287.418637
365.464020,-5255.462188,-1915.238745,12361.439231
365.464346,-7031.956449,-1915.238745,11029.068536
365.464671,-5403.503377,-689.485948,9622.677246
365.464997,-2368.659014,2221.676944,9030.512492
365.465322,-296.082377,4519.963438,6587.832884
365.465648,1850.514855,6741.640382,4515.256246
365.465974,4071.132681,8580.269578,3256.906145
365.466299,4959.379811,10342.289223,2664.741391
365.466625,4737.318029,9806.022374,3775.050304
365.466950,3701.029710,8120.612279,5699.585753
365.467276,1184.329507,6741.640382,8216.285956
365.467602,-1924.535449,3753.867940,10732.986159
365.467927,-4737.318029,612.876398,13027.624579
365.468253,-7476.080014,-1762.019645,13619.789333
365.468578,-7624.121203,-2987.772442,13323.706956
365.468904,-5403.503377,-2451.505594,13323.706956
365.469230,-3108.864956,-306.438199,13619.789333
365.469555,0.000000,2221.676944,12213.398043
365.469881,4071.132681,4060.306139,9400.615463
365.470206,6513.812290,6281.983084,7328.038826
365.470532,7402.059420,7890.783629,5329.482782
365.470858,8808.450710,8197.221829,5625.565159
365.471183,8438.347739,7354.516781,6809.894666
365.471509,5921.647536,4903.011187,8438.347739
365.471834,2294.638420,1225.752797,9474.636058
365.472160,-1110.308913,-1532.190996,9474.636058
365.472486,-3404.947333,-2834.553343,10140.821405
365.472811,-4293.194464,-3830.477490,9844.739029
365.473137,-4515.256246,-4060.306139,9030.512492
365.473462,-4737.318029,-3064.381992,7994.224174
365.473788,-2590.720797,-1991.848295,6735.874072
365.474114,518.144159,-919.314598,6587.832884
365.474439,370.102971,76.609550,6957.935855
365.474765,0.000000,-306.438199,7772.162391
365.475090,74.020594,-1149.143247,8808.450710
365.475416,222.061783,-2145.067394,11399.171507
365.475742,-1702.473667,-4060.306139,13101.645173
365.476067,-3627.009116,-5822.325785,13915.871710
365.476393,-3552.988522,-7431.126331,13471.748144
365.476718,-2368.659014,-8197.221829,13027.624579
365.477044,-962.267725,-5898.935335,13915.871710
365.477370,-296.082377,-3447.429741,11917.315666
365.477695,1850.514855,-1455.581446,9178.553681
365.478021,4367.215058,-383.047749,7846.182985
365.478346,5255.462188,1991.848295,7254.018232
365.478672,4959.379811,3447.429741,7328.038826
365.478998,4071.132681,2451.505594,7772.162391
365.479323,1924.535449,919.314598,8586.388927
365.479649,0.000000,0.000000,10362.883188
365.479974,-2960.823768,-2068.457845,9770.718434
365.480300,-5551.544565,-3140.991542,9326.594869
365.480626,-5329.482782,-3447.429741,8808.450710
365.480951,-3627.009116,-2528.115143,8808.450710
365.481277,-3256.906145,0.000000,7328.038826
365.481602,-1924.535449,842.705048,5477.523971
365.481928,0.000000,1991.848295,4737.318029
365.482254,1110.308913,4290.134789,5477.523971
365.482579,1406.391290,4673.182538,7402.059420
365.482905,666.185348,2911.162892,8808.450710
365.483230,-888.247130,2298.286494,10658.965565
365.483556,-1406.391290,1072.533697,12731.542202
365.483881,-3552.988522,-766.095498,13841.851115
365.484207,-5847.626942,-3140.991542,12805.562797
365.484533,-5477.523971,-3447.429741,13027.624579
365.484858,-3182.885551,-1532.190996,13323.706956
365.485184,-1036.288319,1378.971896,12879.583391
365.485509,1110.308913,2451.505594,10066.800811
365.485835,3552.988522,4136.915689,6735.874072
365.486161,5403.503377,7354.516781,5847.626942
365.486486,7476.080014,9193.145976,5773.606348
365.486812,7328.038826,7967.393179,6069.688724
365.487137,5921.647536,7048.078582,6439.791695
365.487463,4219.173869,5669.106685,7698.141797
365.487789,1776.494261,3294.210641,8586.388927
365.488114,-370.102971,1532.190996,8512.368333
365.488440,-2072.576638,76.609550,8734.430116
365.488765,-2664.741391,0.000000,7846.182985
365.489091,-1998.556043,76.609550,7846.182985
365.489417,-1776.494261,842.705048,6883.915261
365.489742,-1332.370696,1378.971896,5995.668130
365.490068,-888.247130,1762.019645,6513.812290
365.490393,-444.123565,2451.505594,7105.977043
365.490719,0.000000,2145.067394,9030.512492
365.491045,-740.205942,229.828649,11399.171507
365.491370,-1924.535449,-1225.752797,12361.439231
365.491696,-2738.761985,-2911.162892,13175.665768
365.492021,-2738.761985,-4903.011187,13471.748144
365.492347,-2960.823768,-5209.449386,13989.892304
365.492673,-1628.453072,-4060.306139,13989.892304
365.492998,1258.350101,-2834.553343,13101.645173
365.493324,2590.720797,-1225.752797,11769.274478
365.493649,3997.112087,0.000000,9030.512492
365.493975,5773.606348,1532.190996,7698.141797
365.494301,6365.771101,2911.162892,7105.977043
365.494626,5255.462188,3064.381992,7772.162391
365.494952,3182.885551,689.485948,8808.450710
365.495277,814.226536,-153.219100,8068.244768
365.495603,-1554.432478,-1455.581446,8216.285956
365.495929,-2812.782580,-2987.772442,8216.285956
365.496254,-4885.359217,-3524.039291,8142.265362
365.496580,-5255.462188,-2911.162892,7624.121203
365.496905,-3775.050304,-2757.943793,6513.812290
365.497231,-3627.009116,-1915.238745,5847.626942
365.497557,-3849.070898,-229.828649,4959.379811
365.497882,-2220.617826,-383.047749,5847.626942
365.498208,-1702.473667,153.219100,7476.080014
365.498533,-1776.494261,-229.828649,9844.739029
365.498859,-2368.659014,-1302.362347,12139.377449
365.499185,-3330.926739,-2528.115143,13249.686362
365.499510,-3034.844362,-3524.039291,14211.954086
365.499836,-2368.659014,-4443.353888,15100.201217
365.500161,-2368.659014,-3524.039291,14730.098246
365.500487,-666.185348,-2221.676944,13989.892304
365.500813,2368.659014,-229.828649,12657.521608
365.501138,4737.318029,2068.457845,10881.027347
365.501464,5255.462188,3830.477490,9030.512492
365.501789,6439.791695,4979.620737,6883.915261
365.502115,7994.224174,6511.811733,6735.874072
365.502440,7328.038826,7124.688131,7105.977043
365.502766,4885.359217,6205.373534,7698.141797
365.503092,1998.556043,4136.915689,7254.018232
365.503417,296.082377,2528.115143,7402.059420
365.503743,-518.144159,1762.019645,7550.100608
365.504068,-2368.659014,2374.896044,7920.203579
365.504394,-2738.761985,2068.457845,6735.874072
365.504720,-1554.432478,2298.286494,5921.647536
365.505045,-740.205942,2911.162892,5477.523971
365.505371,-1554.432478,3447.429741,5403.503377
365.505696,-1110.308913,3294.210641,5847.626942
365.506022,-592.164754,3294.210641,6957.935855
365.506348,-666.185348,3140.991542,9252.574275
365.506673,-1554.432478,1762.019645,11695.253884
365.506999,-2738.761985,-383.047749,12805.562797
365.507324,-2960.823768,-995.924147,12805.562797
365.507650,-2368.659014,-2221.676944,13027.624579
365.507976,-1184.329507,-1532.190996,13989.892304
365.508301,-148.041188,306.438199,13841.851115
365.508627,1924.535449,842.705048,12435.459826
365.508952,4811.338623,1838.629195,11103.089130
365.509278,4811.338623,3907.087040,8882.471304
365.509604,4959.379811,4443.353888,7179.997637
365.509929,6291.750507,4596.572988,7254.018232
365.510255,5699.585753,4443.353888,7772.162391
365.510580,3108.864956,3677.258390,8808.450710
365.510906,222.061783,1302.362347,8956.491898
365.511232,-2146.597232,-842.705048,8364.327145
365.511557,-1998.556043,-1991.848295,8068.244768
365.511883,-2664.741391,-1302.362347,7698.141797
365.512208,-3256.906145,-1455.581446,7031.956449
365.512534,-3404.947333,-1225.752797,6069.688724
365.512860,-2368.659014,-612.876398,4811.338623
365.513185,-1924.535449,0.000000,5255.462188
365.513511,-2442.679609,383.047749,5921.647536
365.513836,-1924.535449,-153.219100,6661.853478
365.514162,-1406.391290,-1378.971896,9178.553681
365.514488,-2368.659014,-2221.676944,12065.356855
365.514813,-3701.029710,-3447.429741,13989.892304
365.515139,-4441.235652,-5439.278036,14656.077652
365.515464,-3108.864956,-5669.106685,14434.015869
365.515790,-1036.288319,-4903.011187,15322.262999
365.516116,740.205942,-2145.067394,15100.201217
365.516441,2442.679609,-1685.410096,12953.603985
365.516767,4811.338623,-229.828649,11251.130318
365.517092,7031.956449,1302.362347,9474.636058
365.517418,6883.915261,3677.258390,8882.471304
365.517744,6735.874072,3983.696590,8068.244768
365.518069,5921.647536,3064.381992,8142.265362
365.518395,3256.906145,3370.820191,8290.306550
365.518720,222.061783,2068.457845,8216.285956
365.519046,-1998.556043,0.000000,7402.059420
365.519372,-3701.029710,-306.438199,6513.812290
365.519697,-3552.988522,153.219100,6587.832884
365.520023,-3478.967927,306.438199,6661.853478
365.520348,-3923.091493,1302.362347,5181.441594
365.520674,-3330.926739,1838.629195,4737.318029
365.521000,-1998.556043,2757.943793,4145.153275
365.521325,-1776.494261,3753.867940,5551.544565
365.521651,-1850.514855,2757.943793,7328.038826
365.521976,-1258.350101,1838.629195,9474.636058
365.522302,-1628.453072,1455.581446,11547.212695
365.522627,-2368.659014,766.095498,13175.665768
365.522953,-3108.864956,-1149.143247,13989.892304
365.523279,-2368.659014,-919.314598,13471.748144
365.523604,-370.102971,-995.924147,13767.830521
365.523930,1850.514855,459.657299,14063.912898
365.524255,2886.803174,2221.676944,13101.645173
365.524581,4367.215058,2987.772442,11029.068536
365.524907,6291.750507,3983.696590,9178.553681
365.525232,7105.977043,5439.278036,8734.430116
365.525558,5921.647536,6358.592633,7846.182985
365.525883,4515.256246,5362.668486,7179.997637
365.526209,2294.638420,4290.134789,7846.182985
365.526535,0.000000,2528.115143,7698.141797
365.526860,-1554.432478,919.314598,7772.162391
365.527186,-3404.947333,153.219100,7846.182985
365.527511,-2812.782580,-612.876398,7105.977043
365.527837,-1850.514855,153.219100,6143.709319
365.528163,-2146.597232,1072.533697,5403.503377
365.528488,-1924.535449,1991.848295,4441.235652
365.528814,-296.082377,1378.971896,4589.276840
365.529139,814.226536,1762.019645,5403.503377
365.529465,-222.061783,2374.896044,7550.100608
365.529791,-1110.308913,-612.876398,9696.697840
365.530116,-1628.453072,-1838.629195,11769.274478
365.530442,-2960.823768,-2911.162892,14211.954086
365.530767,-3552.988522,-4749.792088,14952.160028
365.531093,-3182.885551,-6205.373534,15322.262999
365.531419,-2220.617826,-5286.058936,14804.118840
365.531744,222.061783,-3600.648841,14211.954086
365.532070,2442.679609,-1608.800546,13693.809927
365.532395,3182.885551,-459.657299,11473.192101
365.532721,5255.462188,919.314598,8660.409521
365.533047,6957.935855,2757.943793,7772.162391
365.533372,5847.626942,3447.429741,7772.162391
365.533698,3997.112087,2528.115143,7328.038826
365.534023,2368.659014,1072.533697,8216.285956
365.534349,-222.061783,229.828649,8586.388927
365.534675,-2738.761985,-1838.629195,8364.327145
365.535000,-4071.132681,-2528.115143,8216.285956
365.535326,-4885.359217,-2757.943793,7179.997637
365.535651,-4219.173869,-1762.019645,6513.812290
365.535977,-2738.761985,-1149.143247,6069.688724
365.536303,-2886.803174,0.000000,4737.318029
365.536628,-2442.679609,766.095498,4737.318029
365.536954,-1332.370696,919.314598,5699.585753
365.537279,-1036.288319,1225.752797,7476.080014
365.537605,-2146.597232,459.657299,9770.718434
365.537931,-2664.741391,-919.314598,11251.130318
365.538256,-3701.029710,-1991.848295,13101.645173
365.538582,-3701.029710,-3140.991542,14137.933492
365.538907,-3256.906145,-4060.306139,14359.995275
365.539233,-2664.741391,-2834.553343,14211.954086
365.539559,-592.164754,-536.266849,14063.912898
365.539884,3923.091493,306.438199,12731.542202
365.540210,5921.647536,2604.724693,11251.130318
365.540535,5995.668130,4443.353888,9400.615463
365.540861,7254.018232,5439.278036,8142.265362
365.541187,7920.203579,5898.935335,7328.038826
365.541512,5551.544565,5132.839837,7698.141797
365.541838,2294.638420,3983.696590,8142.265362
365.542163,444.123565,2451.505594,8068.244768
365.542489,-1628.453072,1149.143247,7994.224174
365.542814,-3182.885551,-459.657299,7920.203579
365.543140,-4737.318029,0.000000,6957.935855
365.543466,-3849.070898,1302.362347,4959.379811
365.543791,-1850.514855,1685.410096,4811.338623
365.544117,-814.226536,2528.115143,4441.235652
365.544442,-1332.370696,3370.820191,3701.029710
365.544768,-814.226536,3370.820191,4663.297435
365.545094,740.205942,3294.210641,6661.853478
365.545419,-222.061783,2451.505594,9252.574275
365.545745,-1776.494261,689.485948,11695.253884
365.546070,-2368.659014,-2068.457845,12879.583391
365.546396,-3256.906145,-2757.943793,13989.892304
365.546722,-3256.906145,-4749.792088,15100.201217
365.547047,-1850.514855,-4060.306139,15766.386565
365.547373,444.123565,-2221.676944,14582.057057
365.547698,3404.947333,-306.438199,13693.809927
365.548024,5403.503377,1149.143247,11769.274478
365.548350,6513.812290,3217.601092,9400.615463
365.548675,7105.977043,3524.039291,7698.141797
365.549001,6883.915261,4519.963438,6735.874072
365.549326,5329.482782,4060.306139,7772.162391
365.549652,2072.576638,2298.286494,8438.347739
365.549978,-1184.329507,459.657299,8364.327145
365.550303,-3627.009116,-1455.581446,8142.265362
365.550629,-5107.421000,-2374.896044,7994.224174
365.550954,-5403.503377,-2604.724693,7254.018232
365.551280,-4663.297435,-2834.553343,6439.791695
365.551606,-3256.906145,-766.095498,5699.585753
365.551931,-1776.494261,306.438199,5477.523971
365.552257,-1702.473667,766.095498,4737.318029
365.552582,-1110.308913,612.876398,5699.585753
365.552908,0.000000,1378.971896,7254.018232
365.553234,370.102971,612.876398,9770.718434
365.553559,-1258.350101,-842.705048,12361.439231
365.553885,-2960.823768,-3524.039291,13693.809927
365.554210,-3552.988522,-4903.011187,14434.015869
365.554536,-2516.700203,-4979.620737,14730.098246
365.554862,-1998.556043,-4366.744339,14804.118840
365.555187,-370.102971,-2221.676944,14137.933492
365.555513,2516.700203,-689.485948,13249.686362
365.555838,5255.462188,536.266849,11621.233289
365.556164,5995.668130,2834.553343,9252.574275
365.556490,5625.565159,4290.134789,7698.141797
365.556815,5921.647536,5056.230287,7105.977043
365.557141,5773.606348,4519.963438,7698.141797
365.557466,2590.720797,3524.039291,8660.409521
365.557792,-296.082377,919.314598,8586.388927
365.558118,-2590.720797,0.000000,7328.038826
365.558443,-3478.967927,-612.876398,7179.997637
365.558769,-4145.153275,-153.219100,6957.935855
365.559094,-3330.926739,612.876398,6587.832884
365.559420,-1998.556043,1762.019645,5403.503377
365.559745,-296.082377,3064.381992,4737.318029
365.560070,962.267725,3677.258390,4515.256246
365.560396,74.020594,4060.306139,5033.400406
365.560721,296.082377,3370.820191,7031.956449
365.561047,518.144159,2451.505594,9252.574275
365.561372,-1258.350101,1302.362347,12287.418637
365.561697,-3775.050304,-536.266849,14063.912898
365.562023,-4589.276840,-3140.991542,13471.748144
365.562348,-4145.153275,-3830.477490,13989.892304
365.562673,-2294.638420,-2834.553343,14359.995275
365.562999,-296.082377,-1072.533697,14063.912898
365.563324,2220.617826,842.705048,13693.809927
365.563649,4737.318029,2604.724693,11029.068536
365.563975,7105.977043,4136.915689,9326.594869
365.564300,6809.894666,5515.887586,7476.080014
365.564626,6735.874072,5822.325785,6883.915261
365.564951,6439.791695,5745.716235,7402.059420
365.565276,4515.256246,3983.696590,8438.347739
365.565602,74.020594,1685.410096,9104.533087
365.565927,-2664.741391,-459.657299,8290.306550
365.566252,-3701.029710,-1608.800546,7772.162391
365.566578,-4441.235652,-919.314598,7105.977043
365.566903,-4441.235652,-1378.971896,6291.750507
365.567228,-3627.009116,-153.219100,5181.441594
365.567554,-1850.514855,1149.143247,4293.194464
365.567879,-888.247130,2145.067394,3923.091493
365.568205,-370.102971,1838.629195,5255.462188
365.568530,-888.247130,1915.238745,6661.853478
365.568855,-1406.391290,1225.752797,9178.553681
365.569181,-1110.308913,0.000000,11695.253884
365.569506,-3701.029710,-2451.505594,13397.727550
365.569831,-5033.400406,-4979.620737,13915.871710
365.570157,-4441.235652,-5669.106685,14359.995275
365.570482,-2368.659014,-5056.230287,14804.118840
365.570807,-296.082377,-2834.553343,14804.118840
365.571133,1924.535449,-995.924147,14063.912898
365.571458,4145.153275,383.047749,11473.192101
365.571784,6883.915261,2757.943793,9030.512492
365.572109,8438.347739,5056.230287,8512.368333
365.572434,7476.080014,5286.058936,8068.244768
365.572760,5625.565159,4443.353888,7698.141797
365.573085,4071.132681,2681.334243,8956.491898
365.573410,814.226536,766.095498,9326.594869
365.573736,-2590.720797,-919.314598,7698.141797
365.574061,-4885.359217,-1915.238745,6883.915261
365.574387,-4145.153275,-1685.410096,6587.832884
365.574712,-3552.988522,76.609550,5995.668130
365.575037,-3108.864956,0.000000,5699.585753
365.575363,-2368.659014,1378.971896,4441.235652
365.575688,-444.123565,2451.505594,3849.070898
365.576013,592.164754,2834.553343,5329.482782
365.576339,592.164754,3370.820191,7105.977043
365.576664,-222.061783,2298.286494,9548.656652
365.576989,-888.247130,459.657299,11769.274478
365.577315,-2516.700203,-1302.362347,13693.809927
365.577640,-3849.070898,-3064.381992,14508.036463
365.577966,-4219.173869,-3753.867940,14878.139434
365.578291,-2590.720797,-3753.867940,14656.077652
365.578616,0.000000,-1991.848295,14211.954086
365.578942,1850.514855,383.047749,13397.727550
365.579267,3404.947333,2451.505594,11029.068536
365.579592,5995.668130,3753.867940,8734.430116
365.579918,7179.997637,5515.887586,7920.203579
365.580243,7254.018232,6358.592633,7402.059420
365.580568,5107.421000,5362.668486,7772.162391
365.580894,3182.885551,4673.182538,8290.306550
365.581219,814.226536,2528.115143,8068.244768
365.581545,-2368.659014,689.485948,7920.203579
365.581870,-4515.256246,-842.705048,6735.874072
365.582195,-4441.235652,-459.657299,6439.791695
365.582521,-3627.009116,76.609550,6587.832884
365.582846,-2886.803174,766.095498,5995.668130
365.583171,-2368.659014,1225.752797,4663.297435
365.583497,-1036.288319,1838.629195,3701.029710
365.583822,0.000000,3294.210641,4589.276840
365.584147,518.144159,3064.381992,6883.915261
365.584473,-592.164754,1991.848295,9548.656652
365.584798,-1850.514855,-306.438199,11843.295072
365.585124,-2812.782580,-2068.457845,13175.665768
365.585449,-3701.029710,-3677.258390,14137.933492
365.585774,-4663.297435,-4749.792088,14582.057057
365.586100,-3256.906145,-4903.011187,14582.057057
365.586425,-518.144159,-3447.429741,14656.077652
365.586750,1406.391290,-919.314598,14137.933492
365.587076,3478.967927,306.438199,11769.274478
365.587401,5403.503377,1685.410096,9474.636058
365.587726,6587.832884,3370.820191,7846.182985
365.588052,7105.977043,4826.401637,8660.409521
365.588377,5995.668130,3140.991542,8734.430116
365.588703,3330.926739,2451.505594,8438.347739
365.589028,888.247130,766.095498,8364.327145
365.589353,-1184.329507,-842.705048,7846.182985
365.589679,-3552.988522,-2145.067394,7846.182985
365.590004,-4219.173869,-1991.848295,6883.915261
365.590329,-3923.091493,-2374.896044,6661.853478
365.590655,-2886.803174,-306.438199,5847.626942
365.590980,-2072.576638,459.657299,4885.359217
365.591306,-1702.473667,1072.533697,4367.215058
365.591631,-592.164754,1838.629195,5033.400406
365.591956,518.144159,2145.067394,7328.038826
365.592282,0.000000,766.095498,9844.739029
365.592607,-2368.659014,0.000000,11695.253884
365.592932,-3775.050304,-2451.505594,12805.562797
365.593258,-3256.906145,-4060.306139,14211.954086
365.593583,-4071.132681,-4443.353888,14804.118840
365.593908,-3330.926739,-4366.744339,14285.974681
365.594234,-666.185348,-2681.334243,14063.912898
365.594559,2590.720797,0.000000,12805.562797
365.594885,4737.318029,1608.800546,11029.068536
365.595210,5255.462188,3294.210641,9104.533087
365.595535,6587.832884,4673.182538,7994.224174
365.595861,7105.977043,5669.106685,8068.244768
365.596186,5995.668130,4979.620737,8882.471304
365.596511,2516.700203,3677.258390,9548.656652
365.596837,-222.061783,1915.238745,8512.368333
365.597162,-1406.391290,306.438199,7994.224174
365.597487,-3034.844362,-383.047749,7698.141797
365.597813,-4663.297435,-842.705048,6587.832884
365.598138,-4071.132681,229.828649,5255.462188
365.598464,-2146.597232,842.705048,4811.338623
365.598789,-1258.350101,2451.505594,4441.235652
365.599114,-666.185348,4136.915689,4515.256246
365.599440,-74.020594,3217.601092,5033.400406
365.599765,444.123565,2681.334243,6291.750507
365.600090,592.164754,2451.505594,9474.636058
365.600416,-1332.370696,306.438199,12361.439231
365.600741,-3478.967927,-2145.067394,13545.768739
365.601066,-3923.091493,-4213.525239,14211.954086
365.601392,-3627.009116,-4979.620737,15174.221811
365.601717,-2516.700203,-3983.696590,15100.201217
365.602043,-370.102971,-2374.896044,14211.954086
365.602368,2220.617826,-689.485948,12435.459826
365.602693,4811.338623,1149.143247,11325.150913
365.603019,6365.771101,3064.381992,9770.718434
365.603344,7105.977043,4596.572988,8512.368333
365.603669,7179.997637,4979.620737,7550.100608
365.603995,6809.894666,5132.839837,8438.347739
365.604320,4589.276840,3064.381992,9400.615463
365.604645,1110.308913,1225.752797,8956.491898
365.604971,-2294.638420,-459.657299,8512.368333
365.605296,-3256.906145,-1838.629195,7624.121203
365.605622,-4441.235652,-1685.410096,7105.977043
365.605947,-4737.318029,-689.485948,6143.709319
365.606272,-3997.112087,-612.876398,4663.297435
365.606598,-2516.700203,229.828649,3701.029710
365.606923,-1628.453072,2221.676944,3775.050304
365.607248,-1480.411884,2451.505594,4589.276840
365.607574,-962.267725,1915.238745,6217.729913
365.607899,-888.247130,1072.533697,8882.471304
365.608225,-2072.576638,-229.828649,11843.295072
365.608550,-3775.050304,-2451.505594,13545.768739
365.608875,-3997.112087,-4366.744339,14063.912898
365.609201,-3478.967927,-4903.011187,14508.036463
365.609526,-2072.576638,-4673.182538,15766.386565
365.609851,0.000000,-3064.381992,14878.139434
365.610177,2368.659014,-689.485948,13397.727550
365.610502,5625.565159,1149.143247,12139.377449
365.610827,7328.038826,2757.943793,9918.759623
365.611153,7476.080014,4826.401637,8586.388927
365.611478,7994.224174,5439.278036,8364.327145
365.611804,7179.997637,4749.792088,9030.512492
365.612129,4071.132681,3753.867940,9474.636058
365.612454,296.082377,1378.971896,8956.491898
365.612780,-2442.679609,-229.828649,7994.224174
365.613105,-3775.050304,-1225.752797,7254.018232
365.613430,-4515.256246,-1455.581446,6291.750507
365.613756,-4959.379811,-995.924147,5625.565159
365.614081,-4515.256246,306.438199,4219.173869
365.614406,-3256.906145,1072.533697,3627.009116
365.614732,-2294.638420,1762.019645,3182.885551
365.615057,-1850.514855,2451.505594,4885.359217
365.615383,-1036.288319,2451.505594,6883.915261
365.615708,-666.185348,2528.115143,8882.471304
365.616033,-1258.350101,536.266849,12361.439231
365.616359,-2738.761985,-1532.190996,13323.706956
365.616684,-3701.029710,-2834.553343,13989.892304
365.617009,-3108.864956,-3370.820191,14211.954086
365.617335,-1110.308913,-2911.162892,14434.015869
365.617660,666.185348,-1685.410096,14582.057057
365.617985,2220.617826,306.438199,13397.727550
365.618311,4441.235652,1302.362347,10955.047942
365.618636,6365.771101,3600.648841,9474.636058
365.618962,6809.894666,4979.620737,8586.388927
365.619287,6809.894666,5745.716235,8438.347739
365.619612,5773.606348,5362.668486,7994.224174
365.619938,3849.070898,4213.525239,9104.533087
365.620263,1036.288319,1838.629195,8438.347739
365.620588,-3034.844362,306.438199,7920.203579
365.620914,-4071.132681,-689.485948,7105.977043
365.621239,-3997.112087,-842.705048,6883.915261
365.621564,-4219.173869,-229.828649,6587.832884
365.621890,-3849.070898,76.609550,5255.462188
365.622215,-2220.617826,919.314598,3923.091493
365.622541,-740.205942,1762.019645,3404.947333
365.622866,-148.041188,2145.067394,4589.276840
365.623191,-740.205942,2145.067394,7031.956449
365.623517,-740.205942,1149.143247,9252.574275
365.623842,-1036.288319,0.000000,11843.295072
365.624167,-2220.617826,-1915.238745,13693.809927
365.624493,-3478.967927,-3370.820191,14359.995275
365.624818,-2886.803174,-4826.401637,14211.954086
365.625144,-962.267725,-4673.182538,14211.954086
365.625469,1554.432478,-2374.896044,15100.201217
365.625794,2516.700203,153.219100,13693.809927
365.626120,4441.235652,842.705048,11547.212695
365.626445,6365.771101,1608.800546,9622.677246
365.626770,7476.080014,3907.087040,8808.450710
365.627096,6883.915261,5515.887586,9178.553681
365.627421,5847.626942,3294.210641,9178.553681
365.627746,3552.988522,2604.724693,9178.553681
365.628072,962.267725,1225.752797,9474.636058
365.628397,-2590.720797,-612.876398,8512.368333
365.628723,-4885.359217,-1762.019645,7179.997637
365.629048,-4811.338623,-1762.019645,6217.729913
365.629373,-3256.906145,-536.266849,6217.729913
365.629699,-3997.112087,153.219100,4885.359217
365.630024,-3701.029710,612.876398,3701.029710
365.630349,-1924.535449,1455.581446,3701.029710
365.630675,-666.185348,2451.505594,4737.318029
365.631000,-814.226536,2528.115143,6661.853478
365.631325,-1332.370696,1685.410096,8956.491898
365.631651,-1998.556043,612.876398,10658.965565
365.631976,-2072.576638,-1302.362347,12583.501014
365.632302,-2590.720797,-3140.991542,14359.995275
365.632627,-3775.050304,-3907.087040,14508.036463
365.632952,-2220.617826,-3830.477490,14434.015869
365.633278,444.123565,-2451.505594,14730.098246
365.633603,2886.803174,0.000000,14063.912898
365.633928,4367.215058,1608.800546,11251.130318
365.634254,5403.503377,2911.162892,9252.574275
365.634579,6957.935855,4136.915689,7920.203579
365.634904,7624.121203,5209.449386,8586.388927
365.635230,5033.400406,4903.011187,8956.491898
365.635555,2294.638420,3294.210641,8882.471304
365.635881,0.000000,1685.410096,8364.327145
365.636206,-1776.494261,229.828649,8586.388927
365.636531,-4219.173869,-842.705048,7920.203579
365.636857,-5255.462188,-1149.143247,6957.935855
365.637182,-4367.215058,-612.876398,5551.544565
365.637507,-2590.720797,689.485948,5181.441594
365.637833,-2590.720797,1762.019645,4589.276840
365.638158,-1628.453072,1762.019645,3997.112087
365.638483,148.041188,1455.581446,5033.400406
365.638809,370.102971,2528.115143,6883.915261
365.639134,-444.123565,1838.629195,10214.842000
365.639460,-1110.308913,0.000000,11325.150913
365.639785,-1628.453072,-1225.752797,12657.521608
365.640110,-1406.391290,-2757.943793,14285.974681
365.640436,-2072.576638,-3830.477490,14878.139434
365.640761,-1406.391290,-3447.429741,14211.954086
365.641086,1258.350101,-1991.848295,13767.830521
365.641412,3923.091493,-306.438199,13249.686362
365.641737,3849.070898,1608.800546,11251.130318
365.642063,4663.297435,2068.457845,8734.430116
365.642388,6439.791695,3447.429741,8216.285956
365.642713,6143.709319,4826.401637,8586.388927
365.643039,3997.112087,4136.915689,8956.491898
365.643364,1406.391290,2068.457845,9474.636058
365.643689,-740.205942,689.485948,8438.347739
365.644015,-2368.659014,383.047749,7402.059420
365.644340,-3849.070898,-1915.238745,7772.162391
365.644665,-5329.482782,-1532.190996,7179.997637
365.644991,-4737.318029,-919.314598,5995.668130
365.645316,-2368.659014,-229.828649,5699.585753
365.645642,-1628.453072,995.924147,5329.482782
365.645967,-1702.473667,2221.676944,3923.091493
365.646292,-370.102971,1608.800546,4885.359217
365.646618,74.020594,1915.238745,7328.038826
365.646943,-814.226536,1378.971896,9770.718434
365.647268,-1850.514855,-459.657299,11917.315666
365.647594,-3404.947333,-2068.457845,12953.603985
365.647919,-3478.967927,-3064.381992,13989.892304
365.648244,-2664.741391,-3677.258390,14434.015869
365.648570,-1110.308913,-3447.429741,14878.139434
365.648895,0.000000,-2068.457845,13619.789333
365.649221,2886.803174,0.000000,12287.418637
365.649546,4959.379811,1685.410096,11251.130318
365.649871,5181.441594,2757.943793,9030.512492
365.650197,6143.709319,3753.867940,7846.182985
365.650522,5995.668130,4673.182538,7994.224174
365.650847,4959.379811,4519.963438,8586.388927
365.651173,2664.741391,2681.334243,9696.697840
365.651498,-222.061783,536.266849,9104.533087
365.651823,-2516.700203,-229.828649,7920.203579
365.652149,-3034.844362,-1149.143247,8068.244768
365.652474,-3330.926739,-1302.362347,7179.997637
365.652800,-3552.988522,306.438199,6217.729913
365.653125,-2368.659014,-153.219100,5181.441594
365.653450,-592.164754,1455.581446,4515.256246
365.653776,-888.247130,2451.505594,4071.132681
365.654101,-592.164754,2604.724693,4589.276840
365.654426,0.000000,2068.457845,6587.832884
365.654752,-666.185348,1455.581446,9622.677246
365.655077,-1776.494261,0.000000,11843.295072
365.655402,-3478.967927,-1838.629195,13101.645173
365.655728,-3330.926739,-3294.210641,13841.851115
365.656053,-1924.535449,-3370.820191,14211.954086
365.656379,-740.205942,-2451.505594,14211.954086
365.656704,518.144159,-1378.971896,14137.933492
365.657029,2886.803174,-306.438199,12435.459826
365.657355,5625.565159,2145.067394,10510.924376
365.657680,6143.709319,3447.429741,9178.553681
365.658005,5847.626942,3524.039291,8216.285956
365.658331,5699.585753,4213.525239,7624.121203
365.658656,4885.359217,4060.306139,9252.574275
365.658982,1406.391290,2604.724693,9770.718434
365.659307,-2072.576638,459.657299,9474.636058
365.659632,-3849.070898,-1225.752797,8142.265362
365.659958,-3849.070898,-1762.019645,7402.059420
365.660283,-4145.153275,-1838.629195,7328.038826
365.660608,-4441.235652,-612.876398,6809.894666
365.660933,-3330.926739,229.828649,5551.544565
365.661259,-1480.411884,1225.752797,4515.256246
365.661584,74.020594,1838.629195,3923.091493
365.661909,-296.082377,2681.334243,4737.318029
365.662234,-592.164754,1685.410096,6513.812290
365.662560,-740.205942,995.924147,9548.656652
365.662885,-1628.453072,-612.876398,12361.439231
365.663210,-3330.926739,-2374.896044,13915.871710
365.663535,-4071.132681,-3983.696590,14137.933492
365.663860,-2738.761985,-4290.134789,14211.954086
365.664186,0.000000,-3294.210641,14730.098246
365.664511,1332.370696,-1302.362347,14211.954086
365.664836,2960.823768,-306.438199,12213.398043
365.665161,5033.400406,1302.362347,9770.718434
365.665487,6809.894666,3064.381992,8660.409521
365.665812,6143.709319,4366.744339,8364.327145
365.666137,5329.482782,3753.867940,7624.121203
365.666462,4367.215058,3753.867940,8216.285956
365.666788,2072.576638,2911.162892,9400.615463
365.667113,-1702.473667,76.609550,9252.574275
365.667438,-3701.029710,-1455.581446,8216.285956
365.667763,-4441.235652,-1532.190996,7254.018232
365.668089,-3330.926739,-612.876398,7179.997637
365.668414,-2220.617826,0.000000,6439.791695
365.668739,-2442.679609,1685.410096,4811.338623
365.669064,-1776.494261,1991.848295,3627.009116
365.669390,740.205942,2068.457845,3849.070898
365.669715,592.164754,2987.772442,5625.565159
365.670040,-592.164754,2681.334243,7254.018232
365.670365,-1332.370696,1072.533697,9696.697840
365.670691,-1924.535449,-229.828649,11843.295072
365.671016,-3108.864956,-1685.410096,13915.871710
365.671341,-4293.194464,-3217.601092,14582.057057
365.671666,-3108.864956,-3830.477490,13767.830521
365.671991,-740.205942,-2681.334243,14211.954086
365.672317,1924.535449,-383.047749,14211.954086
365.672642,2960.823768,995.924147,12731.542202
365.672967,4885.359217,2068.457845,9696.697840
365.673292,7402.059420,4443.353888,8364.327145
365.673618,7254.018232,5132.839837,7402.059420
365.673943,5921.647536,5515.887586,7624.121203
365.674268,3627.009116,4213.525239,8438.347739
365.674593,1628.453072,2987.772442,9326.594869
365.674919,-1110.308913,1149.143247,9548.656652
365.675244,-3849.070898,-1149.143247,9030.512492
365.675569,-4737.318029,-1378.971896,7624.121203
365.675894,-3923.091493,-1072.533697,6957.935855
365.676220,-2516.700203,0.000000,6661.853478
365.676545,-2294.638420,919.314598,5477.523971
365.676870,-1480.411884,1838.629195,4367.215058
365.677195,0.000000,2528.115143,3849.070898
365.677521,740.205942,2911.162892,5033.400406
365.677846,74.020594,2374.896044,7772.162391
365.678171,-1554.432478,0.000000,10288.862594
365.678496,-2590.720797,-766.095498,12287.418637
365.678822,-3552.988522,-2451.505594,13323.706956
365.679147,-3923.091493,-3983.696590,14285.974681
365.679472,-3775.050304,-4366.744339,14582.057057
365.679797,-2072.576638,-3830.477490,14137.933492
365.680122,1406.391290,-1838.629195,13767.830521
365.680448,3775.050304,-229.828649,13101.645173
365.680773,4811.338623,2528.115143,10066.800811
365.681098,6513.812290,3600.648841,8142.265362
365.681423,7698.141797,4826.401637,7328.038826
365.681749,6587.832884,5669.106685,7846.182985
365.682074,3923.091493,3830.477490,8364.327145
365.682399,1776.494261,1915.238745,9178.553681
365.682724,-1184.329507,766.095498,8660.409521
365.683050,-3701.029710,-536.266849,8586.388927
365.683375,-5033.400406,-2221.676944,8142.265362
365.683700,-5329.482782,-1991.848295,7328.038826
365.684025,-3627.009116,-383.047749,6661.853478
365.684351,-1850.514855,383.047749,5773.606348
365.684676,-1850.514855,842.705048,4367.215058
365.685001,-814.226536,1378.971896,4441.235652
365.685326,518.144159,2374.896044,5551.544565
365.685652,444.123565,2757.943793,8068.244768
365.685977,-1258.350101,1302.362347,10955.047942
365.686302,-2590.720797,-1225.752797,11917.315666
365.686627,-3182.885551,-2757.943793,13323.706956
365.686953,-3330.926739,-3140.991542,14359.995275
365.687278,-2812.782580,-3830.477490,14730.098246
365.687603,-1110.308913,-3524.039291,14878.139434
365.687928,1702.473667,-1149.143247,13693.809927
365.688253,4663.297435,842.705048,12657.521608
365.688579,5699.585753,2374.896044,10362.883188
365.688904,6291.750507,3524.039291,8290.306550
365.689229,7624.121203,5132.839837,7624.121203
365.689554,7105.977043,5669.106685,7624.121203
365.689880,4515.256246,4596.572988,8290.306550
365.690205,888.247130,2451.505594,8586.388927
365.690530,-2146.597232,612.876398,8438.347739
365.690855,-4367.215058,-842.705048,7772.162391
365.691181,-5033.400406,-1991.848295,7402.059420
365.691506,-5403.503377,-1302.362347,6809.894666
365.691831,-4441.235652,0.000000,5403.503377
365.692156,-2146.597232,1149.143247,5477.523971
365.692482,-888.247130,1838.629195,4515.256246
365.692807,-814.226536,2451.505594,4737.318029
365.693132,-222.061783,2528.115143,5625.565159
365.693457,962.267725,2681.334243,7920.203579
365.693783,-518.144159,1532.190996,10955.047942
365.694108,-2516.700203,-689.485948,12731.542202
365.694433,-3627.009116,-2681.334243,12805.562797
365.694758,-3478.967927,-2911.162892,14434.015869
365.695084,-2516.700203,-3753.867940,15026.180623
365.695409,-1110.308913,-3217.601092,15026.180623
365.695734,1184.329507,-1991.848295,13841.851115
365.696059,3627.009116,1149.143247,12139.377449
365.696384,6217.729913,2834.553343,10288.862594
365.696710,6291.750507,3983.696590,9030.512492
365.697035,7105.977043,4366.744339,7254.018232
365.697360,6957.935855,4673.182538,7328.038826
365.697685,5181.441594,4903.011187,8364.327145
365.698011,1480.411884,2528.115143,8512.368333
365.698336,-1628.453072,306.438199,7698.141797
365.698661,-3701.029710,-536.266849,7254.018232
365.698986,-4145.153275,-1685.410096,7698.141797
365.699312,-4663.297435,-1608.800546,7920.203579
365.699637,-3849.070898,-842.705048,6587.832884
365.699962,-2220.617826,0.000000,5403.503377
365.700287,-296.082377,995.924147,5699.585753
365.700613,-148.041188,1762.019645,5699.585753
365.700938,0.000000,1991.848295,6365.771101
365.701263,592.164754,1378.971896,8512.368333
365.701588,296.082377,766.095498,10510.924376
365.701914,-2294.638420,-383.047749,13027.624579
365.702239,-3849.070898,-2911.162892,13767.830521
365.702564,-3627.009116,-4443.353888,13915.871710
365.702889,-2738.761985,-4213.525239,14359.995275
365.703215,-888.247130,-2604.724693,14211.954086
365.703540,666.185348,-689.485948,13767.830521
365.703865,3256.906145,995.924147,11325.150913
365.704190,5847.626942,2451.505594,9326.594869
365.704515,7179.997637,3907.087040,8438.347739
365.704841,6217.729913,4903.011187,7031.956449
365.705166,6143.709319,4519.963438,7105.977043
365.705491,4811.338623,4519.963438,8512.368333
365.705816,1110.308913,3140.991542,9030.512492
365.706142,-2738.761985,153.219100,8438.347739
365.706467,-4663.297435,-1608.800546,7031.956449
365.706792,-5033.400406,-1762.019645,6809.894666
365.707117,-4885.359217,-995.924147,7179.997637
365.707443,-4441.235652,-536.266849,6587.832884
365.707768,-3552.988522,229.828649,5255.462188
365.708093,-1480.411884,2068.457845,4737.318029
365.708418,222.061783,2604.724693,5625.565159
365.708744,-296.082377,2604.724693,6809.894666
365.709069,-592.164754,1532.190996,8216.285956
365.709394,-592.164754,842.705048,11103.089130
365.709719,-1480.411884,-383.047749,13397.727550
365.710045,-3108.864956,-2298.286494,14434.015869
365.710370,-3478.967927,-4979.620737,14211.954086
365.710695,-2664.741391,-4060.306139,13915.871710
365.711020,-518.144159,-2451.505594,14211.954086
365.711346,1554.432478,-842.705048,14211.954086
365.711671,3552.988522,459.657299,11991.336260
365.711996,5847.626942,2145.067394,9178.553681
365.712321,8068.244768,4060.306139,8660.409521
365.712646,7476.080014,5822.325785,7624.121203
365.712972,6143.709319,5286.058936,7179.997637
365.713297,4737.318029,3370.820191,8512.368333
365.713622,2294.638420,2604.724693,8734.430116
365.713947,-1554.432478,689.485948,8956.491898
365.714273,-4219.173869,-1838.629195,7772.162391
365.714598,-4959.379811,-2374.896044,6809.894666
365.714923,-4737.318029,-689.485948,6513.812290
365.715248,-3923.091493,-612.876398,5773.606348
365.715574,-2960.823768,153.219100,5625.565159
365.715899,-1554.432478,1149.143247,4663.297435
365.716224,888.247130,2221.676944,5625.565159
365.716549,962.267725,2757.943793,7105.977043
365.716875,74.020594,2298.286494,8660.409521
365.717200,148.041188,536.266849,10658.965565
365.717525,0.000000,536.266849,12583.501014
365.717850,-2146.597232,-1762.019645,14359.995275
365.718176,-3404.947333,-3830.477490,14063.912898
365.718501,-2738.761985,-4366.744339,13841.851115
365.718826,-888.247130,-2834.553343,13989.892304
365.719151,1110.308913,-995.924147,13767.830521
365.719477,2516.700203,0.000000,11917.315666
365.719802,3849.070898,2145.067394,8956.491898
365.720127,5477.523971,3677.258390,8068.244768
365.720452,6365.771101,4519.963438,7550.100608
365.720777,4737.318029,4673.182538,7550.100608
365.721103,2368.659014,3447.429741,7920.203579
365.721428,592.164754,2374.896044,8142.265362
365.721753,-1480.411884,536.266849,8734.430116
365.722078,-4663.297435,-689.485948,7920.203579
365.722404,-6439.791695,-2374.896044,6661.853478
365.722729,-4885.359217,-1225.752797,6217.729913
365.723054,-2886.803174,76.609550,6291.750507
365.723379,-2368.659014,1072.533697,6513.812290
365.723705,-1850.514855,1225.752797,5107.421000
365.724030,222.061783,2221.676944,4737.318029
365.724355,2294.638420,3524.039291,6957.935855
365.724680,1554.432478,2757.943793,8882.471304
365.725006,-666.185348,1072.533697,10658.965565
365.725331,-814.226536,-306.438199,12583.501014
365.725656,-1332.370696,-1991.848295,14285.974681
365.725981,-3330.926739,-3600.648841,14508.036463
365.726307,-2812.782580,-4749.792088,14137.933492
365.726632,-1258.350101,-3370.820191,13175.665768
365.726957,1036.288319,-1149.143247,13249.686362
365.727282,2812.782580,76.609550,12435.459826
365.727608,3923.091493,1608.800546,10140.821405
365.727933,5551.544565,3294.210641,7994.224174
365.728258,7328.038826,4673.182538,7846.182985
365.728583,6365.771101,4903.011187,7550.100608
365.728908,3182.885551,3753.867940,8660.409521
365.729234,1184.329507,1838.629195,8290.306550
365.729559,-962.267725,842.705048,8216.285956
365.729884,-3404.947333,-689.485948,7920.203579
365.730209,-4663.297435,-1915.238745,7105.977043
365.730535,-4293.194464,-1685.410096,6069.688724
365.730860,-2960.823768,-76.609550,6069.688724
365.731185,-1480.411884,1225.752797,5921.647536
365.731510,-1036.288319,1685.410096,4885.359217
365.731836,148.041188,2374.896044,4737.318029
365.732161,1776.494261,2681.334243,6439.791695
365.732486,1332.370696,2528.115143,8956.491898
365.732811,-666.185348,1302.362347,11621.233289
365.733137,-1850.514855,-919.314598,12953.603985
365.733462,-3108.864956,-2451.505594,13545.768739
365.733787,-3256.906145,-3370.820191,14285.974681
365.734112,-3034.844362,-3677.258390,14656.077652
365.734438,-2220.617826,-3447.429741,13915.871710
365.734763,0.000000,-1225.752797,13101.645173
365.735088,2812.782580,306.438199,11843.295072
365.735413,3997.112087,1915.238745,10066.800811
365.735739,5181.441594,2987.772442,8068.244768
365.736064,6143.709319,4060.306139,7402.059420
365.736389,6217.729913,4060.306139,8734.430116
365.736714,3478.967927,4136.915689,9252.574275
365.737039,592.164754,1608.800546,8512.368333
365.737365,-1480.411884,153.219100,7846.182985
365.737690,-2812.782580,-536.266849,7254.018232
365.738015,-4145.153275,-919.314598,7476.080014
365.738340,-4145.153275,-1608.800546,6069.688724
365.738666,-2738.761985,-536.266849,5477.523971
365.738991,-1406.391290,1455.581446,5477.523971
365.739316,-666.185348,1991.848295,4959.379811
365.739641,0.000000,2298.286494,5329.482782
365.739967,518.144159,2298.286494,6069.688724
365.740292,1184.329507,2298.286494,8068.244768
365.740617,222.061783,2221.676944,11325.150913
365.740942,-1924.535449,-306.438199,12583.501014
365.741268,-2886.803174,-2298.286494,13323.706956
365.741593,-2294.638420,-3524.039291,14211.954086
365.741918,-2220.617826,-3753.867940,14285.974681
365.742243,-1924.535449,-2987.772442,13175.665768
365.742569,444.123565,-1225.752797,12657.521608
365.742894,2960.823768,1225.752797,11695.253884
365.743219,4589.276840,1991.848295,10066.800811
365.743544,5181.441594,2604.724693,8734.430116
365.743870,5255.462188,4290.134789,7328.038826
365.744195,5921.647536,5209.449386,7920.203579
365.744520,4737.318029,3907.087040,9474.636058
365.744845,1036.288319,1991.848295,9474.636058
365.745170,-1702.473667,0.000000,9030.512492
365.745496,-2368.659014,-766.095498,7402.059420
365.745821,-3552.988522,-1378.971896,7994.224174
365.746146,-4367.215058,-689.485948,7402.059420
365.746471,-2960.823768,-306.438199,5995.668130
365.746797,-1702.473667,459.657299,5403.503377
365.747122,-518.144159,2068.457845,4515.256246
365.747447,296.082377,2221.676944,4959.379811
365.747772,296.082377,2451.505594,6513.812290
365.748098,222.061783,1991.848295,7920.203579
365.748423,592.164754,1072.533697,11177.109724
365.748748,-1554.432478,-842.705048,12731.542202
365.749073,-3627.009116,-2604.724693,13693.809927
365.749399,-3849.070898,-3830.477490,14063.912898
365.749724,-2072.576638,-4136.915689,14582.057057
365.750049,-1184.329507,-3064.381992,14211.954086
365.750374,0.000000,-1991.848295,12361.439231
365.750700,2368.659014,383.047749,11103.089130
365.751025,4589.276840,2528.115143,9622.677246
365.751350,5403.503377,3600.648841,8734.430116
365.751675,5255.462188,4290.134789,7402.059420
365.752001,5181.441594,5132.839837,7105.977043
365.752326,4367.215058,4443.353888,9696.697840
365.752651,814.226536,2374.896044,9178.553681
365.752976,-2516.700203,0.000000,8956.491898
365.753301,-4071.132681,-1685.410096,7476.080014
365.753627,-4071.132681,-1455.581446,6661.853478
365.753952,-4071.132681,-459.657299,7031.956449
365.754277,-3997.112087,-229.828649,5921.647536
365.754602,-2072.576638,-306.438199,5033.400406
365.754928,-444.123565,1762.019645,4441.235652
365.755253,222.061783,2681.334243,5033.400406
365.755578,444.123565,2681.334243,6439.791695
365.755903,814.226536,2374.896044,8438.347739
365.756229,518.144159,995.924147,11399.171507
365.756554,-1036.288319,-229.828649,13101.645173
365.756879,-3404.947333,-2528.115143,14063.912898
365.757204,-2812.782580,-4136.915689,13989.892304
365.757530,-1554.432478,-3907.087040,14434.015869
365.757855,-444.123565,-2757.943793,14508.036463
365.758180,888.247130,-1378.971896,13619.789333
365.758505,2812.782580,0.000000,11473.192101
365.758831,4367.215058,1838.629195,9474.636058
365.759156,5995.668130,3907.087040,8068.244768
365.759481,5625.565159,4290.134789,8068.244768
365.759806,4589.276840,4060.306139,7550.100608
365.760132,3627.009116,3370.820191,8142.265362
365.760457,1628.453072,2298.286494,9326.594869
365.760782,-1924.535449,459.657299,8956.491898
365.761107,-3701.029710,-1455.581446,7846.182985
365.761433,-3701.029710,-1915.238745,6143.709319
365.761758,-3108.864956,-536.266849,6365.771101
365.762083,-2812.782580,0.000000,6587.832884
365.762409,-2220.617826,689.485948,5477.523971
365.762734,-740.205942,1532.190996,4737.318029
365.763059,666.185348,2451.505594,5625.565159
365.763384,518.144159,2068.457845,7105.977043
365.763710,296.082377,2068.457845,8734.430116
365.764035,-666.185348,1302.362347,10510.924376
365.764360,-1110.308913,-153.219100,12805.562797
365.764686,-2516.700203,-2451.505594,14508.036463
365.765011,-3923.091493,-3524.039291,14137.933492
365.765336,-2886.803174,-4366.744339,13323.706956
365.765662,-666.185348,-2604.724693,13545.768739
365.765987,444.123565,-459.657299,13101.645173
365.766312,1702.473667,536.266849,11029.068536
365.766637,3552.988522,1915.238745,8586.388927
365.766963,5107.421000,3600.648841,7698.141797
365.767288,5773.606348,4903.011187,7476.080014
365.767613,4515.256246,4749.792088,7698.141797
365.767939,2812.782580,3677.258390,8216.285956
365.768264,1406.391290,2451.505594,8956.491898
365.768589,-666.185348,383.047749,9104.533087
365.768915,-3552.988522,-1532.190996,8216.285956
365.769240,-4145.153275,-2298.286494,7624.121203
365.769565,-3256.906145,-1149.143247,6957.935855
365.769891,-2146.597232,0.000000,7254.018232
365.770216,-1628.453072,689.485948,6291.750507
365.770541,-666.185348,1302.362347,4441.235652
365.770866,444.123565,2374.896044,4589.276840
365.771192,1036.288319,2911.162892,6587.832884
365.771517,740.205942,2528.115143,9030.512492
365.771842,0.000000,842.705048,10955.047942
365.772168,-1036.288319,-995.924147,12287.418637
365.772493,-1850.514855,-1915.238745,13915.871710
365.772818,-2812.782580,-3447.429741,13767.830521
365.773144,-2664.741391,-3907.087040,14063.912898
365.773469,-1184.329507,-3677.258390,13841.851115
365.773794,1554.432478,-1072.533697,13175.665768
365.774120,2812.782580,612.876398,11917.315666
365.774445,3182.885551,1532.190996,8882.471304
365.774770,5033.400406,2987.772442,7550.100608
365.775095,6143.709319,4979.620737,7402.059420
365.775421,5255.462188,5132.839837,7994.224174
365.775746,2812.782580,3370.820191,8438.347739
365.776071,740.205942,2451.505594,8142.265362
365.776397,-962.267725,919.314598,8216.285956
365.776722,-2664.741391,-766.095498,8142.265362
365.777047,-4663.297435,-1532.190996,7772.162391
365.777373,-4737.318029,-919.314598,6587.832884
365.777698,-2220.617826,-383.047749,6735.874072
365.778023,-1776.494261,536.266849,6217.729913
365.778348,-1998.556043,1072.533697,5033.400406
365.778674,-592.164754,1915.238745,5181.441594
365.778999,296.082377,2834.553343,6957.935855
365.779324,148.041188,2604.724693,9104.533087
365.779650,-1184.329507,1072.533697,11177.109724
365.779975,-2812.782580,-229.828649,11991.336260
365.780300,-3182.885551,-1991.848295,13027.624579
365.780626,-2590.720797,-3677.258390,14211.954086
365.780951,-2664.741391,-3524.039291,14582.057057
365.781276,-1480.411884,-2834.553343,13841.851115
365.781602,1110.308913,-1378.971896,12953.603985
365.781927,3256.906145,459.657299,11621.233289
365.782252,4219.173869,1532.190996,9548.656652
365.782577,5255.462188,2681.334243,7105.977043
365.782903,5995.668130,4290.134789,7105.977043
365.783228,5625.565159,4903.011187,7994.224174
365.783553,3330.926739,3600.648841,8882.471304
365.783879,370.102971,1532.190996,8882.471304
365.784204,-1702.473667,766.095498,7920.203579
365.784529,-2738.761985,-1225.752797,8142.265362
365.784855,-3849.070898,-2451.505594,8142.265362
365.785180,-5033.400406,-1225.752797,7328.038826
365.785505,-3849.070898,-1149.143247,6513.812290
365.785831,-2516.700203,0.000000,6291.750507
365.786156,-1998.556043,1072.533697,5625.565159
365.786481,-666.185348,1455.581446,5477.523971
365.786806,444.123565,1608.800546,6661.853478
365.787132,814.226536,2374.896044,8734.430116
365.787457,-370.102971,919.314598,11177.109724
365.787782,-1628.453072,-919.314598,12435.459826
365.788108,-1702.473667,-1838.629195,12879.583391
365.788433,-740.205942,-2451.505594,14211.954086
365.788758,0.000000,-2911.162892,14359.995275
365.789084,444.123565,-1762.019645,13989.892304
365.789409,2368.659014,-1072.533697,12657.521608
365.789734,4293.194464,1149.143247,10362.883188
365.790059,5477.523971,2681.334243,9474.636058
365.790385,5329.482782,3677.258390,7624.121203
365.790710,5403.503377,4519.963438,6957.935855
365.791035,5033.400406,5362.668486,7476.080014
365.791361,2886.803174,4519.963438,8216.285956
365.791686,-814.226536,1915.238745,8660.409521
365.792011,-2664.741391,229.828649,7772.162391
365.792337,-3627.009116,-995.924147,7402.059420
365.792662,-4071.132681,-1225.752797,7994.224174
365.792987,-4515.256246,-459.657299,7550.100608
365.793313,-3701.029710,0.000000,6661.853478
365.793638,-1184.329507,612.876398,5551.544565
365.793963,370.102971,1991.848295,5773.606348
365.794288,-296.082377,2374.896044,5625.565159
365.794614,-296.082377,2374.896044,6587.832884
365.794939,370.102971,2221.676944,9252.574275
365.795264,0.000000,1302.362347,11695.253884
365.795590,-1776.494261,-383.047749,13397.727550
365.795915,-2738.761985,-2298.286494,13767.830521
365.796240,-2738.761985,-2987.772442,13249.686362
365.796566,-1480.411884,-3217.601092,14211.954086
365.796891,-592.164754,-2451.505594,14285.974681
365.797216,444.123565,-842.705048,13027.624579
365.797542,2812.782580,229.828649,10955.047942
365.797867,4885.359217,1991.848295,9252.574275
365.798192,4663.297435,3677.258390,8142.265362
365.798517,4589.276840,4903.011187,6661.853478
365.798843,4293.194464,4060.306139,6809.894666
365.799168,2886.803174,3217.601092,7920.203579
365.799493,0.000000,1838.629195,8586.388927
365.799819,-2664.741391,-229.828649,8142.265362
365.800144,-3627.009116,-1532.190996,7254.018232
365.800469,-3256.906145,-1608.800546,7698.141797
365.800795,-2368.659014,-766.095498,7476.080014
365.801120,-2442.679609,-536.266849,6957.935855
365.801445,-1110.308913,-229.828649,6143.709319
365.801770,296.082377,1225.752797,5625.565159
365.802096,666.185348,1915.238745,6513.812290
365.802421,74.020594,1685.410096,7254.018232
365.802746,296.082377,1302.362347,8660.409521
365.803072,-222.061783,1149.143247,11029.068536
365.803397,-1480.411884,-306.438199,13249.686362
365.803722,-3330.926739,-2681.334243,13767.830521
365.804048,-2960.823768,-3907.087040,13915.871710
365.804373,-1480.411884,-3370.820191,14211.954086
365.804698,740.205942,-2145.067394,14434.015869
365.805024,1924.535449,-383.047749,13027.624579
365.805349,2368.659014,1225.752797,11103.089130
365.805674,5329.482782,1455.581446,9104.533087
365.805999,5921.647536,3983.696590,8142.265362
365.806325,5033.400406,4519.963438,7476.080014
365.806650,4071.132681,4136.915689,7402.059420
365.806975,2664.741391,3524.039291,8142.265362
365.807301,222.061783,2681.334243,8142.265362
365.807626,-2738.761985,536.266849,7476.080014
365.807951,-4441.235652,-1532.190996,7105.977043
365.808277,-4515.256246,-689.485948,5921.647536
365.808602,-2886.803174,0.000000,7476.080014
365.808927,-3034.844362,0.000000,6809.894666
365.809253,-2960.823768,612.876398,5477.523971
365.809578,-1184.329507,1532.190996,5255.462188
365.809903,0.000000,2681.334243,5551.544565
365.810228,74.020594,2451.505594,7179.997637
365.810554,0.000000,1838.629195,9104.533087
365.810879,-370.102971,919.314598,11251.130318
365.811204,-1110.308913,76.609550,13101.645173
365.811530,-2146.597232,-2221.676944,14211.954086
365.811855,-2812.782580,-2681.334243,14137.933492
365.812180,-2072.576638,-3140.991542,13545.768739
365.812506,814.226536,-1608.800546,13989.892304
365.812831,2368.659014,0.000000,13989.892304
365.813156,2294.638420,766.095498,11547.212695
365.813481,3923.091493,1302.362347,9474.636058
365.813807,5329.482782,3217.601092,7994.224174
365.814132,5033.400406,4673.182538,7624.121203
365.814457,3404.947333,3294.210641,7402.059420
365.814783,2220.617826,2528.115143,7105.977043
365.815108,814.226536,1991.848295,7254.018232
365.815433,-2220.617826,689.485948,7994.224174
365.815759,-4145.153275,-1149.143247,7254.018232
365.816084,-4145.153275,-1302.362347,6365.771101
365.816409,-2664.741391,-306.438199,7179.997637
365.816735,-1998.556043,536.266849,6883.915261
365.817060,-2220.617826,536.266849,5847.626942
365.817385,-592.164754,689.485948,5477.523971
365.817710,1036.288319,1608.800546,6291.750507
365.818036,1110.308913,1915.238745,8290.306550
365.818361,296.082377,1149.143247,9918.759623
365.818686,-370.102971,153.219100,11177.109724
365.819012,-1110.308913,-842.705048,13249.686362
365.819337,-1702.473667,-1532.190996,13619.789333
365.819662,-2368.659014,-3217.601092,13989.892304
365.819988,-2146.597232,-3370.820191,13693.809927
365.820313,444.123565,-1838.629195,13693.809927
365.820638,2442.679609,-229.828649,13397.727550
365.820964,3330.926739,842.705048,11695.253884
365.821289,3701.029710,1455.581446,9030.512492
365.821614,5255.462188,2757.943793,8216.285956
365.821939,5181.441594,4673.182538,7698.141797
365.822265,4071.132681,4060.306139,8216.285956
365.822590,1924.535449,2528.115143,8290.306550
365.822915,-444.123565,1991.848295,7994.224174
365.823241,-2146.597232,459.657299,7846.182985
365.823566,-3330.926739,-919.314598,7402.059420
365.823891,-4737.318029,-306.438199,6661.853478
365.824217,-3775.050304,383.047749,6069.688724
365.824542,-2146.597232,383.047749,6291.750507
365.824867,-1110.308913,1149.143247,6291.750507
365.825192,-1924.535449,1608.800546,5329.482782
365.825518,-814.226536,1685.410096,5551.544565
365.825843,74.020594,2298.286494,7179.997637
365.826168,-444.123565,2298.286494,9474.636058
365.826494,-1998.556043,-306.438199,11325.150913
365.826819,-2886.803174,-1532.190996,11621.233289
365.827144,-2664.741391,-1991.848295,13027.624579
365.827470,-2368.659014,-2681.334243,14211.954086
365.827795,-1702.473667,-2528.115143,14211.954086
365.828120,0.000000,-2221.676944,13323.706956
365.828446,2738.761985,-306.438199,12213.398043
365.828771,4885.359217,1302.362347,11843.295072
365.829096,4515.256246,2911.162892,9918.759623
365.829421,5181.441594,2911.162892,8142.265362
365.829747,6365.771101,3677.258390,8216.285956
365.830072,4811.338623,4596.572988,8734.430116
365.830397,2368.659014,2681.334243,9104.533087
365.830723,222.061783,-306.438199,8438.347739
365.831048,-2146.597232,-459.657299,7920.203579
365.831373,-3923.091493,-995.924147,7550.100608
365.831699,-4441.235652,-1378.971896,7476.080014
365.832024,-3775.050304,-1149.143247,6513.812290
365.832349,-2294.638420,229.828649,6069.688724
365.832674,-1406.391290,1149.143247,6143.709319
365.833000,-1258.350101,1455.581446,5403.503377
365.833325,-888.247130,1532.190996,5847.626942
365.833650,666.185348,1915.238745,7476.080014
365.833976,666.185348,1532.190996,9474.636058
365.834301,-370.102971,689.485948,11769.274478
365.834626,-1998.556043,-1072.533697,12583.501014
365.834952,-2442.679609,-2911.162892,12731.542202
365.835277,-1702.473667,-3294.210641,13471.748144
365.835602,-962.267725,-2451.505594,13471.748144
365.835928,0.000000,-1915.238745,13619.789333
365.836253,1924.535449,-689.485948,12139.377449
365.836578,4071.132681,995.924147,11251.130318
365.836903,5181.441594,2528.115143,10140.821405
365.837229,4515.256246,3677.258390,7920.203579
365.837554,4145.153275,3217.601092,7254.018232
365.837879,3997.112087,4213.525239,8142.265362
365.838205,2146.597232,2987.772442,9474.636058
365.838530,-1850.514855,919.314598,8512.368333
365.838855,-3997.112087,-306.438199,7105.977043
365.839181,-4145.153275,-995.924147,6661.853478
365.839506,-4293.194464,-919.314598,7031.956449
365.839831,-3997.112087,-459.657299,7179.997637
365.840157,-2960.823768,0.000000,6587.832884
365.840482,-2072.576638,919.314598,5699.585753
365.840807,-370.102971,1302.362347,6069.688724
365.841132,0.000000,2068.457845,6513.812290
365.841458,592.164754,1991.848295,7846.182985
365.841783,888.247130,1378.971896,9474.636058
365.842108,962.267725,76.609550,11621.233289
365.842434,-1332.370696,-995.924147,12731.542202
365.842759,-2146.597232,-2374.896044,12879.583391
365.843084,-1776.494261,-3064.381992,13323.706956
365.843410,-740.205942,-2451.505594,14063.912898
365.843735,1184.329507,-1225.752797,14137.933492
365.844060,2368.659014,0.000000,12065.356855
365.844385,4145.153275,1608.800546,9992.780217
365.844711,6069.688724,3064.381992,9178.553681
365.845036,5625.565159,3983.696590,8068.244768
365.845361,4737.318029,3677.258390,7920.203579
365.845687,4071.132681,3447.429741,8956.491898
365.846012,2294.638420,2604.724693,9474.636058
365.846337,-1036.288319,1149.143247,9548.656652
365.846663,-3775.050304,-689.485948,7772.162391
365.846988,-4885.359217,-1762.019645,6957.935855
365.847313,-3627.009116,-1302.362347,7105.977043
365.847639,-3404.947333,76.609550,7179.997637
365.847964,-2590.720797,536.266849,6439.791695
365.848289,-1036.288319,1532.190996,5181.441594
365.848614,888.247130,2681.334243,4959.379811
365.848940,1628.453072,3830.477490,5699.585753
365.849265,814.226536,3294.210641,6513.812290
365.849590,444.123565,2298.286494,8586.388927
365.849916,444.123565,1072.533697,11547.212695
365.850241,-1850.514855,0.000000,13397.727550
365.850566,-4219.173869,-2681.334243,13545.768739
365.850892,-4145.153275,-4519.963438,13471.748144
365.851217,-2368.659014,-3753.867940,13767.830521
365.851542,-740.205942,-1762.019645,13397.727550
365.851868,444.123565,-229.828649,12509.480420
365.852193,1554.432478,842.705048,10436.903782
365.852518,4515.256246,2604.724693,8956.491898
365.852843,5847.626942,4060.306139,7994.224174
365.853169,4663.297435,4673.182538,7254.018232
365.853494,3627.009116,3447.429741,7476.080014
365.853819,2442.679609,3140.991542,8216.285956
365.854145,-444.123565,1762.019645,9252.574275
365.854470,-3404.947333,-766.095498,8882.471304
365.854795,-4441.235652,-2604.724693,7624.121203
365.855121,-4515.256246,-2374.896044,7179.997637
365.855446,-3478.967927,-919.314598,7550.100608
365.855771,-1480.411884,0.000000,7254.018232
365.856096,-814.226536,766.095498,6365.771101
365.856422,592.164754,1608.800546,5181.441594
365.856747,2368.659014,2374.896044,5699.585753
365.857072,1554.432478,2604.724693,7328.038826
365.857398,1036.288319,1915.238745,9252.574275
365.857723,296.082377,229.828649,11473.192101
365.858048,-1036.288319,-689.485948,13323.706956
365.858374,-3034.844362,-2757.943793,13841.851115
365.858699,-3182.885551,-4979.620737,12805.562797
365.859024,-2294.638420,-3907.087040,12879.583391
365.859350,-592.164754,-1915.238745,12805.562797
365.859675,1480.411884,0.000000,12879.583391
365.860000,3552.988522,919.314598,10881.027347
365.860325,5107.421000,2987.772442,7920.203579
365.860651,6439.791695,4213.525239,7105.977043
365.860976,6143.709319,4826.401637,7402.059420
365.861301,3997.112087,4519.963438,8290.306550
365.861627,2368.659014,2911.162892,8438.347739
365.861952,370.102971,1149.143247,8882.471304
365.862277,-2738.761985,0.000000,8586.388927
365.862602,-4589.276840,-1378.971896,7624.121203
365.862928,-5033.400406,-2451.505594,7105.977043
365.863253,-4811.338623,-689.485948,6883.915261
365.863578,-2960.823768,0.000000,7179.997637
365.863903,-2146.597232,1072.533697,6291.750507
365.864229,-1258.350101,2068.457845,5033.400406
365.864554,296.082377,2528.115143,5773.606348
365.864879,1702.473667,2757.943793,7772.162391
365.865204,0.000000,2681.334243,9548.656652
365.865529,-1184.329507,766.095498,11177.109724
365.865855,-1332.370696,-1225.752797,12805.562797
365.866180,-2294.638420,-2068.457845,14211.954086
365.866505,-3627.009116,-3447.429741,13841.851115
365.866830,-2294.638420,-4060.306139,13693.809927
365.867156,0.000000,-2221.676944,13249.686362
365.867481,2590.720797,536.266849,12583.501014
365.867806,3923.091493,1762.019645,10658.965565
365.868131,4367.215058,2451.505594,8586.388927
365.868457,5625.565159,3907.087040,7179.997637
365.868782,6957.935855,5056.230287,7772.162391
365.869107,5033.400406,4673.182538,8068.244768
365.869432,1406.391290,3370.820191,8290.306550
365.869757,-666.185348,1225.752797,7920.203579
365.870083,-2664.741391,-689.485948,8364.327145
365.870408,-4737.318029,-1991.848295,7772.162391
365.870733,-5403.503377,-2451.505594,6957.935855
365.871058,-4441.235652,-1455.581446,6809.894666
365.871384,-2516.700203,229.828649,6661.853478
365.871709,-1332.370696,1302.362347,6143.709319
365.872034,-370.102971,1838.629195,5699.585753
365.872359,666.185348,2451.505594,5107.421000
365.872685,1850.514855,3140.991542,6883.915261
365.873010,2368.659014,2374.896044,9622.677246
365.873335,0.000000,919.314598,12139.377449
365.873660,-1332.370696,-1149.143247,12879.583391
365.873985,-1480.411884,-2834.553343,13693.809927
365.874311,-1776.494261,-3600.648841,14582.057057
365.874636,-2294.638420,-3447.429741,13989.892304
365.874961,-222.061783,-3370.820191,13397.727550
365.875286,1776.494261,-612.876398,12287.418637
365.875612,3256.906145,1455.581446,10658.965565
365.875937,4367.215058,2451.505594,9178.553681
365.876262,5033.400406,4366.744339,7550.100608
365.876587,5329.482782,4903.011187,7105.977043
365.876912,4811.338623,4903.011187,8290.306550
365.877238,888.247130,3600.648841,8512.368333
365.877563,-2146.597232,995.924147,8290.306550
365.877888,-3108.864956,-1072.533697,7698.141797
365.878213,-4811.338623,-1991.848295,7772.162391
365.878539,-6069.688724,-2374.896044,7698.141797
365.878864,-5033.400406,-2604.724693,6809.894666
365.879189,-2960.823768,-383.047749,5995.668130
365.879514,-2442.679609,689.485948,5995.668130
365.879840,-1036.288319,1225.752797,6143.709319
365.880165,0.000000,1838.629195,6069.688724
365.880490,1554.432478,2681.334243,7179.997637
365.880815,2072.576638,2145.067394,9992.780217
365.881140,518.144159,1149.143247,12139.377449
365.881466,-1406.391290,-766.095498,13323.706956
365.881791,-1850.514855,-2987.772442,13545.768739
365.882116,-1110.308913,-4213.525239,14285.974681
365.882441,-1628.453072,-3370.820191,14211.954086
365.882767,-962.267725,-2528.115143,13175.665768
365.883092,1110.308913,-995.924147,12361.439231
365.883417,3701.029710,459.657299,11177.109724
365.883742,4737.318029,2451.505594,9326.594869
365.884068,4737.318029,3907.087040,7994.224174
365.884393,4663.297435,4366.744339,6957.935855
365.884718,4885.359217,4213.525239,7624.121203
365.885043,2664.741391,3294.210641,8660.409521
365.885368,-888.247130,1915.238745,8586.388927
365.885694,-2886.803174,0.000000,7105.977043
365.886019,-3330.926739,-919.314598,7105.977043
365.886344,-4367.215058,-766.095498,7920.203579
365.886669,-4219.173869,-766.095498,6661.853478
365.886995,-2664.741391,-229.828649,5921.647536
365.887320,-666.185348,1149.143247,5773.606348
365.887645,-296.082377,2834.553343,5699.585753
365.887970,592.164754,2604.724693,6365.771101
365.888296,1110.308913,3064.381992,7179.997637
365.888621,1480.411884,2681.334243,9770.718434
365.888946,1036.288319,1149.143247,12065.356855
365.889271,-888.247130,0.000000,13397.727550
365.889596,-2294.638420,-1991.848295,13693.809927
365.889922,-1628.453072,-2834.553343,13619.789333
365.890247,-888.247130,-2528.115143,14211.954086
365.890572,-370.102971,-1608.800546,13249.686362
365.890897,1554.432478,-459.657299,12065.356855
365.891223,2960.823768,995.924147,10881.027347
365.891548,4219.173869,2681.334243,9400.615463
365.891873,4515.256246,2987.772442,8438.347739
365.892198,3627.009116,3677.258390,7698.141797
365.892524,3256.906145,4290.134789,7476.080014
365.892849,2590.720797,3140.991542,8882.471304
365.893174,-592.164754,1685.410096,8882.471304
365.893499,-3552.988522,-536.266849,8142.265362
365.893824,-4367.215058,-1838.629195,7105.977043
365.894150,-3923.091493,-1915.238745,7402.059420
365.894475,-4145.153275,-919.314598,7254.018232
365.894800,-3256.906145,-689.485948,6439.791695
365.895125,-1258.350101,459.657299,5773.606348
365.895451,0.000000,1915.238745,5329.482782
365.895776,592.164754,2374.896044,6217.729913
365.896101,296.082377,2068.457845,7179.997637
365.896426,518.144159,1685.410096,9400.615463
365.896752,1258.350101,306.438199,12139.377449
365.897077,296.082377,-689.485948,13989.892304
365.897402,-1998.556043,-2374.896044,14211.954086
365.897727,-1998.556043,-3753.867940,13693.809927
365.898052,-666.185348,-3447.429741,13841.851115
365.898378,666.185348,-1762.019645,13767.830521
365.898703,1628.453072,-306.438199,12435.459826
365.899028,2960.823768,766.095498,10140.821405
365.899353,4737.318029,2451.505594,8364.327145
365.899679,4885.359217,2987.772442,8068.244768
365.900004,3849.070898,3907.087040,7846.182985
365.900329,2442.679609,3370.820191,7402.059420
365.900654,1554.432478,2451.505594,8438.347739
365.900980,-666.185348,1302.362347,8734.430116
365.901305,-3552.988522,-306.438199,8364.327145
365.901630,-4885.359217,-1915.238745,6883.915261
365.901955,-4441.235652,-1608.800546,5847.626942
365.902280,-2590.720797,-153.219100,6883.915261
365.902606,-1924.535449,1378.971896,6291.750507
365.902931,-1184.329507,1378.971896,5403.503377
365.903256,0.000000,1608.800546,5033.400406
365.903581,740.205942,2911.162892,5847.626942
365.903907,1036.288319,3370.820191,8216.285956
365.904232,592.164754,2298.286494,9992.780217
365.904557,222.061783,612.876398,11103.089130
365.904882,-666.185348,-536.266849,13767.830521
365.905208,-2442.679609,-1915.238745,14285.974681
365.905533,-3182.885551,-2987.772442,13545.768739
365.905858,-1332.370696,-3140.991542,13545.768739
365.906183,740.205942,-1302.362347,13545.768739
365.906508,1554.432478,459.657299,12879.583391
365.906834,2664.741391,1455.581446,10288.862594
365.907159,4145.153275,2221.676944,8142.265362
365.907484,4959.379811,3753.867940,7105.977043
365.907809,4737.318029,4443.353888,7698.141797
365.908135,3108.864956,3753.867940,8438.347739
365.908460,962.267725,2834.553343,8586.388927
365.908785,-296.082377,1685.410096,9326.594869
365.909110,-2738.761985,-229.828649,8734.430116
365.909436,-4515.256246,-1532.190996,7254.018232
365.909761,-4737.318029,-1838.629195,6069.688724
365.910086,-2664.741391,-919.314598,6365.771101
365.910411,-2294.638420,383.047749,6587.832884
365.910736,-2590.720797,1149.143247,5625.565159
365.911062,-1036.288319,766.095498,4663.297435
365.911387,962.267725,2145.067394,6143.709319
365.911712,888.247130,2987.772442,7550.100608
365.912037,444.123565,1915.238745,10436.903782
365.912363,-740.205942,153.219100,11843.295072
365.912688,-888.247130,-1455.581446,13027.624579
365.913013,-1036.288319,-2757.943793,14211.954086
365.913338,-1554.432478,-3294.210641,13989.892304
365.913663,-1258.350101,-2451.505594,13249.686362
365.913989,1332.370696,-1915.238745,13175.665768
365.914314,2886.803174,-536.266849,13027.624579
365.914639,3627.009116,1149.143247,10955.047942
365.914964,4367.215058,1915.238745,8660.409521
365.915290,5181.441594,3370.820191,7328.038826
365.915615,5403.503377,4443.353888,7994.224174
365.915940,3997.112087,3677.258390,8660.409521
365.916265,962.267725,2681.334243,8438.347739
365.916591,-592.164754,1455.581446,7846.182985
365.916916,-1998.556043,-306.438199,8364.327145
365.917241,-3849.070898,-1455.581446,7772.162391
365.917566,-5033.400406,-1378.971896,6809.894666
365.917891,-3404.947333,-842.705048,7105.977043
365.918217,-1628.453072,306.438199,6365.771101
365.918542,-2072.576638,1225.752797,5995.668130
365.918867,-1628.453072,1225.752797,5107.421000
365.919192,518.144159,1991.848295,5847.626942
365.919518,1110.308913,2451.505594,7846.182985
365.919843,296.082377,1991.848295,10288.862594
365.920168,-814.226536,536.266849,12583.501014
365.920493,-2294.638420,-1149.143247,12583.501014
365.920819,-1332.370696,-2681.334243,13323.706956
365.921144,-1998.556043,-3217.601092,13915.871710
365.921469,-2146.597232,-2987.772442,13545.768739
365.921794,148.041188,-1685.410096,13175.665768
365.922119,2516.700203,0.000000,12065.356855
365.922445,2886.803174,2221.676944,10807.006753
365.922770,2960.823768,2757.943793,8068.244768
365.923095,4589.276840,3600.648841,7105.977043
365.923420,4663.297435,3677.258390,7105.977043
365.923746,3330.926739,4290.134789,8142.265362
365.924071,1110.308913,2987.772442,9178.553681
365.924396,-1258.350101,1149.143247,8512.368333
365.924721,-1850.514855,-153.219100,7772.162391
365.925047,-2516.700203,-1149.143247,7994.224174
365.925372,-3330.926739,-1072.533697,7254.018232
365.925697,-2960.823768,-689.485948,6661.853478
365.926022,-1406.391290,-76.609550,6587.832884
365.926347,-740.205942,919.314598,6365.771101
365.926673,-370.102971,1838.629195,5921.647536
365.926998,-148.041188,2068.457845,6217.729913
365.927323,74.020594,2145.067394,7105.977043
365.927648,74.020594,1532.190996,10362.883188
365.927974,-1110.308913,306.438199,12361.439231
365.928299,-2812.782580,-1608.800546,13101.645173
365.928624,-3182.885551,-3217.601092,12805.562797
365.928949,-2146.597232,-3600.648841,13767.830521
365.929275,-1332.370696,-2911.162892,14211.954086
365.929600,296.082377,-2298.286494,13101.645173
365.929925,2516.700203,-1149.143247,12213.398043
365.930250,4293.194464,1072.533697,10362.883188
365.930575,5181.441594,3140.991542,9326.594869
365.930901,5403.503377,3370.820191,7698.141797
365.931226,5625.565159,3907.087040,7179.997637
365.931551,4367.215058,4749.792088,7994.224174
365.931876,2072.576638,3600.648841,9030.512492
365.932202,222.061783,1455.581446,9030.512492
365.932527,-2368.659014,-306.438199,7254.018232
365.932852,-2960.823768,-1072.533697,7105.977043
365.933177,-3330.926739,-919.314598,7624.121203
365.933503,-3849.070898,-306.438199,6661.853478
365.933828,-2886.803174,76.609550,6143.709319
365.934153,-1258.350101,995.924147,5625.565159
365.934478,-1110.308913,1915.238745,5107.421000
365.934803,-1110.308913,1225.752797,5773.606348
365.935129,-814.226536,1532.190996,7254.018232
365.935454,-740.205942,919.314598,10066.800811
365.935779,-1406.391290,0.000000,12435.459826
365.936104,-2960.823768,-1608.800546,13545.768739
365.936430,-3256.906145,-3677.258390,13915.871710
365.936755,-1850.514855,-3524.039291,13545.768739
365.937080,0.000000,-2451.505594,14211.954086
365.937405,962.267725,-1225.752797,14063.912898
365.937731,2516.700203,153.219100,12509.480420
365.938056,5181.441594,1838.629195,10955.047942
365.938381,6217.729913,3370.820191,9252.574275
365.938706,5551.544565,3370.820191,8364.327145
365.939031,4293.194464,4903.011187,7254.018232
365.939357,4219.173869,4213.525239,7254.018232
365.939682,2294.638420,2987.772442,8734.430116
365.940007,-1628.453072,1532.190996,9104.533087
365.940332,-4515.256246,-536.266849,7402.059420
365.940658,-4367.215058,-1302.362347,6365.771101
365.940983,-3478.967927,-919.314598,6957.935855
365.941308,-3627.009116,-383.047749,6809.894666
365.941633,-3404.947333,229.828649,5699.585753
365.941959,-1184.329507,766.095498,5403.503377
365.942284,148.041188,1915.238745,5329.482782
365.942609,-148.041188,2374.896044,6365.771101
365.942934,444.123565,1915.238745,7624.121203
365.943259,148.041188,1838.629195,9252.574275
365.943585,-1036.288319,459.657299,12213.398043
365.943910,-1332.370696,-1378.971896,14137.933492
365.944235,-2516.700203,-2757.943793,14137.933492
365.944560,-2664.741391,-3524.039291,13693.809927
365.944886,-296.082377,-3140.991542,13767.830521
365.945211,1776.494261,-1302.362347,13915.871710
365.945536,2664.741391,612.876398,12657.521608
365.945861,3923.091493,1378.971896,10140.821405
365.946187,5181.441594,2451.505594,8290.306550
365.946512,5403.503377,4213.525239,7328.038826
365.946837,4885.359217,4443.353888,7254.018232
365.947162,3552.988522,3370.820191,7179.997637
365.947487,1554.432478,2757.943793,8290.306550
365.947813,-1258.350101,1762.019645,8512.368333
365.948138,-3627.009116,-153.219100,7994.224174
365.948463,-4219.173869,-1838.629195,7402.059420
365.948788,-3849.070898,-1378.971896,7105.977043
365.949114,-2442.679609,-766.095498,7254.018232
365.949439,-1998.556043,-153.219100,7105.977043
365.949764,-1628.453072,766.095498,6069.688724
365.950089,-296.082377,1608.800546,5329.482782
365.950414,444.123565,2374.896044,6291.750507
365.950740,0.000000,2068.457845,7476.080014
365.951065,-518.144159,1072.533697,8956.491898
365.951390,-1332.370696,-229.828649,11769.274478
365.951715,-2590.720797,-1378.971896,13545.768739
365.952041,-3478.967927,-3217.601092,14211.954086
365.952366,-3478.967927,-4290.134789,13841.851115
365.952691,-1776.494261,-3600.648841,13175.665768
365.953016,888.247130,-1532.190996,13249.686362
365.953342,2664.741391,995.924147,12805.562797
365.953667,3478.967927,1838.629195,10584.944971
365.953992,5181.441594,2451.505594,8660.409521
365.954317,6735.874072,4136.915689,7772.162391
365.954642,5699.585753,5132.839837,7328.038826
365.954968,4293.194464,4443.353888,7328.038826
365.955293,2812.782580,3370.820191,8068.244768
365.955618,-148.041188,2298.286494,8660.409521
365.955943,-2664.741391,-229.828649,7846.182985
365.956269,-3775.050304,-1455.581446,7254.018232
365.956594,-4441.235652,-612.876398,6735.874072
365.956919,-3034.844362,0.000000,6439.791695
365.957244,-1628.453072,153.219100,6217.729913
365.957570,-1406.391290,1915.238745,6365.771101
365.957895,-592.164754,2298.286494,5107.421000
365.958220,666.185348,2068.457845,5329.482782
365.958545,518.144159,2604.724693,7772.162391
365.958870,-740.205942,1991.848295,10214.842000
365.959196,-1628.453072,0.000000,11917.315666
365.959521,-2442.679609,-1455.581446,13175.665768
365.959846,-3034.844362,-3064.381992,13545.768739
365.960171,-2590.720797,-3447.429741,13249.686362
365.960497,-1036.288319,-2987.772442,13619.789333
365.960822,1184.329507,-1072.533697,13323.706956
365.961147,3330.926739,919.314598,13101.645173
365.961472,4145.153275,1991.848295,11547.212695
365.961798,4737.318029,2757.943793,8660.409521
365.962123,6513.812290,3907.087040,7402.059420
365.962448,6661.853478,5515.887586,7476.080014
365.962773,4367.215058,4903.011187,8290.306550
365.963098,2072.576638,2451.505594,9030.512492
365.963424,-592.164754,459.657299,8660.409521
365.963749,-2812.782580,-306.438199,8068.244768
365.964074,-4219.173869,-1608.800546,7476.080014
365.964399,-4367.215058,-1685.410096,7402.059420
365.964725,-2812.782580,-459.657299,6809.894666
365.965050,-1406.391290,0.000000,6735.874072
365.965375,-1184.329507,1072.533697,6069.688724
365.965700,-1480.411884,1838.629195,4885.359217
365.966026,-444.123565,1685.410096,5773.606348
365.966351,370.102971,2298.286494,7105.977043
365.966676,-296.082377,1685.410096,10066.800811
365.967001,-2220.617826,-153.219100,11547.212695
365.967327,-2886.803174,-2221.676944,12509.480420
365.967652,-3404.947333,-3447.429741,13323.706956
365.967977,-3034.844362,-3907.087040,13619.789333
365.968302,-1998.556043,-3600.648841,13767.830521
365.968628,518.144159,-1685.410096,13175.665768
365.968953,3256.906145,306.438199,12361.439231
365.969278,5403.503377,1685.410096,11251.130318
365.969603,5255.462188,2451.505594,8882.471304
365.969929,5773.606348,3830.477490,7920.203579
365.970254,6365.771101,4596.572988,7698.141797
365.970579,4959.379811,4443.353888,8734.430116
365.970904,1628.453072,2987.772442,9400.615463
365.971230,-1332.370696,842.705048,8290.306550
365.971555,-2738.761985,-459.657299,7920.203579
365.971880,-3627.009116,-995.924147,7402.059420
365.972205,-4367.215058,-1072.533697,7476.080014
365.972531,-3923.091493,-306.438199,7105.977043
365.972856,-2146.597232,229.828649,6143.709319
365.973181,-814.226536,1149.143247,5773.606348
365.973506,-592.164754,2374.896044,4959.379811
365.973831,-148.041188,2221.676944,5329.482782
365.974157,74.020594,2145.067394,7031.956449
365.974482,-296.082377,1915.238745,10214.842000
365.974807,-2146.597232,153.219100,12361.439231
365.975132,-3330.926739,-2145.067394,12583.501014
365.975458,-3775.050304,-3294.210641,12657.521608
365.975783,-2664.741391,-3447.429741,12879.583391
365.976108,-1258.350101,-3217.601092,13323.706956
365.976433,296.082377,-536.266849,13249.686362
365.976759,3034.844362,689.485948,11621.233289
365.977084,5477.523971,2145.067394,10658.965565
365.977409,6143.709319,3524.039291,8956.491898
365.977734,5477.523971,4136.915689,8290.306550
365.978060,5551.544565,4596.572988,8364.327145
365.978385,4219.173869,3907.087040,8882.471304
365.978710,1406.391290,2604.724693,9696.697840
365.979035,-2146.597232,536.266849,9474.636058
365.979361,-3923.091493,-1302.362347,8068.244768
365.979686,-4885.359217,-1915.238745,7698.141797
365.980011,-4811.338623,-1532.190996,7402.059420
365.980336,-4145.153275,-1225.752797,7105.977043
365.980662,-2812.782580,689.485948,5847.626942
365.980987,-962.267725,2145.067394,5329.482782
365.981312,222.061783,2451.505594,5033.400406
365.981637,0.000000,2834.553343,5773.606348
365.981963,370.102971,2757.943793,6809.894666
365.982288,814.226536,2221.676944,9400.615463
365.982613,-962.267725,689.485948,11991.336260
365.982938,-2368.659014,-2145.067394,12657.521608
365.983264,-3478.967927,-3524.039291,12361.439231
365.983589,-2590.720797,-4060.306139,12583.501014
365.983914,-814.226536,-2834.553343,13619.789333
365.984239,888.247130,-1225.752797,13175.665768
365.984565,3108.864956,536.266849,12065.356855
365.984890,5403.503377,1608.800546,10510.924376
365.985215,6439.791695,3370.820191,8364.327145
365.985540,6809.894666,4136.915689,7624.121203
365.985865,5329.482782,4519.963438,8290.306550
365.986191,4367.215058,3524.039291,9326.594869
365.986516,2220.617826,1915.238745,10436.903782
365.986841,-1628.453072,-76.609550,10066.800811
365.987166,-4367.215058,-2145.067394,8290.306550
365.987492,-4885.359217,-2911.162892,7254.018232
365.987817,-4737.318029,-1762.019645,8142.265362
365.988142,-3478.967927,-995.924147,7994.224174
365.988467,-2516.700203,0.000000,7031.956449
365.988793,-1110.308913,1302.362347,5329.482782
365.989118,518.144159,2145.067394,4737.318029
365.989443,1258.350101,2987.772442,5773.606348
365.989768,370.102971,2451.505594,7179.997637
365.990094,-148.041188,689.485948,9548.656652
365.990419,-592.164754,-306.438199,11473.192101
365.990744,-2886.803174,-1685.410096,12435.459826
365.991069,-4589.276840,-3447.429741,12435.459826
365.991395,-3701.029710,-4136.915689,12361.439231
365.991720,-1998.556043,-2987.772442,13175.665768
365.992045,296.082377,-1762.019645,13323.706956
365.992370,1850.514855,153.219100,12139.377449
365.992696,3775.050304,1532.190996,9992.780217
365.993021,5773.606348,3294.210641,8808.450710
365.993346,6439.791695,4136.915689,8438.347739
365.993671,5181.441594,4596.572988,8808.450710
365.993997,3552.988522,3983.696590,8956.491898
365.994322,2516.700203,2604.724693,9844.739029
365.994647,-740.205942,919.314598,9918.759623
365.994972,-4145.153275,-1072.533697,8734.430116
365.995298,-4515.256246,-2374.896044,7550.100608
365.995623,-3775.050304,-1608.800546,7254.018232
365.995948,-2738.761985,76.609550,7179.997637
365.996273,-1998.556043,995.924147,6587.832884
365.996598,-1258.350101,2068.457845,5477.523971
365.996924,444.123565,1991.848295,4367.215058
365.997249,1776.494261,2834.553343,5625.565159
365.997574,962.267725,3370.820191,8216.285956
365.997899,-444.123565,2221.676944,9622.677246
365.998225,-1184.329507,76.609550,11621.233289
365.998550,-2220.617826,-1378.971896,12509.480420
365.998875,-3256.906145,-2374.896044,12805.562797
365.999200,-2738.761985,-2987.772442,12287.418637
365.999526,-1110.308913,-2987.772442,12287.418637
365.999851,962.267725,-1149.143247,12805.562797
366.000176,2960.823768,919.314598,12287.418637
366.000501,4293.194464,2451.505594,10214.842000
366.000827,5477.523971,3217.601092,7624.121203
366.001152,7105.977043,4673.182538,7920.203579
366.001477,6143.709319,5439.278036,8586.388927
366.001802,3997.112087,3907.087040,9400.615463
366.002128,1628.453072,1991.848295,9696.697840
366.002453,-814.226536,153.219100,9474.636058
366.002778,-3330.926739,-995.924147,8956.491898
366.003103,-4515.256246,-2298.286494,7994.224174
366.003429,-4219.173869,-2145.067394,6883.915261
366.003754,-3923.091493,-919.314598,7105.977043
366.004079,-2368.659014,536.266849,7179.997637
366.004404,-1554.432478,1455.581446,6143.709319
366.004730,-888.247130,1762.019645,4959.379811
366.005055,148.041188,1685.410096,5551.544565
366.005380,370.102971,2528.115143,7920.203579
366.005705,-592.164754,2068.457845,10584.944971
366.006031,-2516.700203,-689.485948,11621.233289
366.006356,-2516.700203,-3064.381992,12213.398043
366.006681,-2960.823768,-3677.258390,12805.562797
366.007006,-3478.967927,-3677.258390,13027.624579
366.007331,-1258.350101,-3064.381992,12953.603985
366.007657,1480.411884,-2298.286494,12731.542202
366.007982,2960.823768,995.924147,11843.295072
366.008307,4071.132681,2451.505594,10436.903782
366.008632,5329.482782,2834.553343,8660.409521
366.008958,6513.812290,3753.867940,7476.080014
366.009283,6217.729913,4519.963438,9030.512492
366.009608,4219.173869,3677.258390,9474.636058
366.009933,1184.329507,1762.019645,9770.718434
366.010259,-1184.329507,0.000000,9474.636058
366.010584,-2886.803174,-766.095498,8734.430116
366.010909,-4589.276840,-1762.019645,8216.285956
366.011234,-5107.421000,-2451.505594,7179.997637
366.011560,-3849.070898,-995.924147,6513.812290
366.011885,-1924.535449,766.095498,7031.956449
366.012210,-962.267725,1608.800546,6439.791695
366.012535,-518.144159,1838.629195,5477.523971
366.012861,0.000000,2528.115143,5477.523971
366.013186,1110.308913,2757.943793,7920.203579
366.013511,962.267725,2145.067394,9918.759623
366.013836,-1036.288319,689.485948,11547.212695
366.014162,-2516.700203,-1532.190996,12139.377449
366.014487,-2368.659014,-2451.505594,12731.542202
366.014812,-2220.617826,-2298.286494,12731.542202
366.015137,-2146.597232,-1915.238745,12139.377449
366.015463,0.000000,-1302.362347,11473.192101
366.015788,2294.638420,995.924147,11473.192101
366.016113,4219.173869,2987.772442,10658.965565
366.016438,4737.318029,3217.601092,9326.594869
366.016764,5181.441594,4290.134789,7698.141797
366.017089,5625.565159,4979.620737,7994.224174
366.017414,4737.318029,4903.011187,9030.512492
366.017739,1554.432478,3294.210641,9548.656652
366.018064,-1480.411884,919.314598,9400.615463
366.018390,-2812.782580,-306.438199,8142.265362
366.018715,-3256.906145,-1378.971896,7698.141797
366.019040,-4441.235652,-1915.238745,7105.977043
366.019365,-3775.050304,-612.876398,6513.812290
366.019691,-2072.576638,842.705048,5995.668130
366.020016,-962.267725,1532.190996,6439.791695
366.020341,-666.185348,1915.238745,5847.626942
366.020666,148.041188,1915.238745,5847.626942
366.020992,962.267725,2451.505594,7402.059420
366.021317,740.205942,1685.410096,10362.883188
366.021642,-518.144159,0.000000,12361.439231
366.021967,-2146.597232,-2068.457845,12805.562797
366.022293,-2368.659014,-3600.648841,13249.686362
366.022618,-2294.638420,-3753.867940,13323.706956
366.022943,-1554.432478,-3064.381992,13397.727550
366.023268,444.123565,-2068.457845,12805.562797
366.023594,2368.659014,-689.485948,12287.418637
366.023919,4145.153275,1532.190996,11029.068536
366.024244,4737.318029,2911.162892,8586.388927
366.024569,4737.318029,3447.429741,8364.327145
366.024895,4959.379811,3140.991542,7476.080014
366.025220,4071.132681,3294.210641,8290.306550
366.025545,1702.473667,2681.334243,9326.594869
366.025870,-1998.556043,766.095498,8734.430116
366.026196,-4071.132681,-1149.143247,7254.018232
366.026521,-4589.276840,-2681.334243,6735.874072
366.026846,-4515.256246,-2298.286494,7254.018232
366.027171,-4663.297435,-995.924147,6883.915261
366.027497,-3404.947333,-766.095498,5921.647536
366.027822,-2072.576638,153.219100,5625.565159
366.028147,-666.185348,1685.410096,6143.709319
366.028472,-740.205942,2528.115143,6587.832884
366.028797,-74.020594,2068.457845,8068.244768
366.029123,592.164754,1072.533697,9992.780217
366.029448,74.020594,0.000000,12509.480420
366.029773,-2146.597232,-1225.752797,13841.851115
366.030098,-3108.864956,-3064.381992,13027.624579
366.030424,-1480.411884,-3447.429741,13397.727550
366.030749,74.020594,-2374.896044,13989.892304
366.031074,1036.288319,-1072.533697,12361.439231
366.031399,2738.761985,76.609550,11177.109724
366.031725,3775.050304,1762.019645,9844.739029
366.032050,5625.565159,3524.039291,8438.347739
366.032375,5921.647536,4290.134789,7994.224174
366.032700,4293.194464,4749.792088,7624.121203
366.033026,4293.194464,4596.572988,7920.203579
366.033351,3478.967927,2757.943793,9252.574275
366.033676,0.000000,1532.190996,9104.533087
366.034001,-3478.967927,-153.219100,7920.203579
366.034327,-3478.967927,-1762.019645,6883.915261
366.034652,-2516.700203,-766.095498,7105.977043
366.034977,-2960.823768,0.000000,7402.059420
366.035302,-3256.906145,689.485948,6291.750507
366.035628,-1036.288319,1149.143247,5773.606348
366.035953,148.041188,2374.896044,5181.441594
366.036278,296.082377,2757.943793,6587.832884
366.036603,-592.164754,2451.505594,8142.265362
366.036929,-888.247130,2068.457845,9400.615463
366.037254,-592.164754,689.485948,11695.253884
366.037579,-1924.535449,-1762.019645,13175.665768
366.037904,-3701.029710,-2528.115143,12953.603985
366.038230,-3108.864956,-3217.601092,11843.295072
366.038555,-592.164754,-3447.429741,11843.295072
366.038880,1184.329507,-842.705048,13323.706956
366.039205,2220.617826,536.266849,12065.356855
366.039530,3923.091493,1225.752797,9622.677246
366.039856,5847.626942,3140.991542,8068.244768
366.040181,6661.853478,4519.963438,8512.368333
366.040506,5773.606348,4749.792088,9474.636058
366.040831,4293.194464,4136.915689,8956.491898
366.041157,2960.823768,2298.286494,9474.636058
366.041482,296.082377,919.314598,9622.677246
366.041807,-3034.844362,-1072.533697,8956.491898
366.042132,-4589.276840,-2451.505594,7402.059420
366.042458,-4071.132681,-2374.896044,7698.141797
366.042783,-3182.885551,-995.924147,7402.059420
366.043108,-3256.906145,-383.047749,6735.874072
366.043433,-3108.864956,0.000000,5107.421000
366.043759,-1702.473667,842.705048,4959.379811
366.044084,-814.226536,1915.238745,6587.832884
366.044409,-592.164754,1532.190996,8364.327145
366.044734,-1036.288319,689.485948,9992.780217
366.045060,-1554.432478,-153.219100,11177.109724
366.045385,-1554.432478,-1378.971896,12731.542202
366.045710,-2220.617826,-1915.238745,13323.706956
366.046035,-2442.679609,-3064.381992,13027.624579
366.046361,-148.041188,-2987.772442,12657.521608
366.046686,2368.659014,-1149.143247,12657.521608
366.047011,3478.967927,1072.533697,12213.398043
366.047336,4219.173869,1685.410096,9474.636058
366.047662,6143.709319,2451.505594,8364.327145
366.047987,6217.729913,4519.963438,7254.018232
366.048312,4959.379811,5362.668486,8882.471304
366.048637,3256.906145,3753.867940,9474.636058
366.048963,1110.308913,2145.067394,9252.574275
366.049288,-1036.288319,1072.533697,9178.553681
366.049613,-2812.782580,-995.924147,8660.409521
366.049938,-4293.194464,-2374.896044,7994.224174
366.050263,-5107.421000,-919.314598,6587.832884
366.050589,-3108.864956,-229.828649,7105.977043
366.050914,-2294.638420,689.485948,7031.956449
366.051239,-2516.700203,1302.362347,5403.503377
366.051564,-1110.308913,1455.581446,4441.235652
366.051890,740.205942,2528.115143,5995.668130
366.052215,814.226536,3217.601092,8512.368333
366.052540,148.041188,2145.067394,10658.965565
366.052865,-962.267725,0.000000,11695.253884
366.053191,-1036.288319,-995.924147,12139.377449
366.053516,-666.185348,-1532.190996,13471.748144
366.053841,-1332.370696,-2221.676944,13323.706956
366.054166,-592.164754,-3217.601092,12657.521608
366.054492,1850.514855,-1149.143247,13175.665768
366.054817,3108.864956,919.314598,12509.480420
366.055142,4071.132681,1685.410096,10807.006753
366.055467,4071.132681,1762.019645,8364.327145
366.055793,4367.215058,3217.601092,7920.203579
366.056118,4145.153275,4596.572988,8586.388927
366.056443,2812.782580,3600.648841,9474.636058
366.056768,0.000000,1302.362347,9400.615463
366.057094,-2664.741391,153.219100,7994.224174
366.057419,-3108.864956,-842.705048,7698.141797
366.057744,-3775.050304,-1915.238745,8142.265362
366.058069,-4589.276840,-1762.019645,7328.038826
366.058395,-3330.926739,-612.876398,6513.812290
366.058720,-1406.391290,-383.047749,6587.832884
366.059045,-666.185348,1378.971896,6365.771101
366.059370,-888.247130,1685.410096,5329.482782
366.059696,370.102971,1762.019645,5847.626942
366.060021,888.247130,2604.724693,8142.265362
366.060346,222.061783,1455.581446,11029.068536
366.060671,-1110.308913,-689.485948,12361.439231
366.060996,-2664.741391,-1991.848295,11695.253884
366.061322,-1850.514855,-3140.991542,12731.542202
366.061647,-888.247130,-2757.943793,13397.727550
366.061972,-888.247130,-2681.334243,12805.562797
366.062297,1110.308913,-1991.848295,12213.398043
366.062623,3404.947333,306.438199,11473.192101
366.062948,4737.318029,2298.286494,10140.821405
366.063273,4515.256246,2528.115143,8364.327145
366.063599,4737.318029,2757.943793,7476.080014
366.063924,4737.318029,3907.087040,8068.244768
366.064249,3108.864956,3447.429741,9400.615463
366.064575,592.164754,1302.362347,10066.800811
366.064900,-2072.576638,-459.657299,9326.594869
366.065225,-3404.947333,-1302.362347,8586.388927
366.065551,-4071.132681,-2068.457845,8808.450710
366.065876,-3478.967927,-1302.362347,8512.368333
366.066201,-2886.803174,0.000000,6587.832884
366.066527,-1628.453072,459.657299,5995.668130
366.066852,-444.123565,1762.019645,5921.647536
366.067177,-518.144159,2834.553343,5551.544565
366.067503,-444.123565,2221.676944,5773.606348
366.067828,74.020594,2298.286494,6809.894666
366.068153,-370.102971,2528.115143,9844.739029
366.068479,-1776.494261,1378.971896,11991.336260
366.068804,-3108.864956,-1532.190996,12361.439231
366.069129,-3034.844362,-2911.162892,12213.398043
366.069455,-1776.494261,-2451.505594,12361.439231
366.069780,740.205942,-1225.752797,12509.480420
366.070105,1998.556043,459.657299,12213.398043
366.070431,3627.009116,1608.800546,10807.006753
366.070756,5625.565159,2451.505594,9770.718434
366.071081,6069.688724,4366.744339,8586.388927
366.071407,5033.400406,4366.744339,8142.265362
366.071732,4515.256246,3907.087040,8290.306550
366.072057,2664.741391,3294.210641,9622.677246
366.072383,222.061783,2068.457845,10584.944971
366.072708,-3034.844362,0.000000,9918.759623
366.073033,-5477.523971,-1762.019645,8512.368333
366.073359,-5625.565159,-2298.286494,7550.100608
366.073684,-4737.318029,-1302.362347,7920.203579
366.074009,-4367.215058,-536.266849,7105.977043
366.074335,-3404.947333,-153.219100,5921.647536
366.074660,-1702.473667,1532.190996,5033.400406
366.074985,0.000000,2145.067394,4959.379811
366.075311,74.020594,2604.724693,6217.729913
366.075636,74.020594,1608.800546,7328.038826
366.075961,592.164754,1225.752797,9474.636058
366.076287,148.041188,306.438199,11843.295072
366.076612,-888.247130,-1149.143247,13175.665768
366.076937,-1184.329507,-2374.896044,12953.603985
366.077263,-148.041188,-2451.505594,12657.521608
366.077588,2072.576638,-2221.676944,12805.562797
366.077913,4737.318029,0.000000,12139.377449
366.078239,4737.318029,2145.067394,12213.398043
366.078564,5033.400406,1838.629195,9992.780217
366.078889,5625.565159,2374.896044,8216.285956
366.079215,4293.194464,3600.648841,8512.368333
366.079540,2368.659014,2911.162892,7550.100608
366.079865,1184.329507,1762.019645,8364.327145
366.080191,-1554.432478,766.095498,9548.656652
366.080516,-4441.235652,-842.705048,9918.759623
366.080841,-6513.812290,-3217.601092,8808.450710
366.081167,-6809.894666,-3907.087040,6957.935855
366.081492,-4737.318029,-2451.505594,6735.874072
366.081817,-3627.009116,-459.657299,7328.038826
366.082143,-2960.823768,536.266849,7031.956449
366.082468,-1036.288319,612.876398,5403.503377
366.082793,1258.350101,1455.581446,5403.503377
366.083119,1554.432478,3370.820191,7105.977043
366.083444,370.102971,2681.334243,8364.327145
366.083769,814.226536,1072.533697,10214.842000
366.084095,0.000000,0.000000,12139.377449
366.084420,-1554.432478,-766.095498,13471.748144
366.084745,-1850.514855,-2145.067394,13397.727550
366.085071,-1554.432478,-2451.505594,11991.336260
366.085396,888.247130,-2145.067394,12139.377449
366.085721,2812.782580,-383.047749,12509.480420
366.086047,3330.926739,1915.238745,11325.150913
366.086372,4071.132681,2374.896044,9178.553681
366.086697,5255.462188,2451.505594,8068.244768
366.087023,4885.359217,3907.087040,7624.121203
366.087348,3552.988522,4366.744339,8216.285956
366.087673,2294.638420,2604.724693,8512.368333
366.087999,0.000000,1685.410096,9844.739029
366.088324,-2368.659014,766.095498,9770.718434
366.088649,-3775.050304,-1072.533697,9474.636058
366.088975,-4589.276840,-2374.896044,7920.203579
366.089300,-3775.050304,-842.705048,7031.956449
366.089625,-2146.597232,689.485948,7624.121203
366.089951,-592.164754,689.485948,7105.977043
366.090276,-740.205942,1762.019645,5995.668130
366.090601,370.102971,2681.334243,5551.544565
366.090927,1406.391290,3600.648841,6587.832884
366.091252,740.205942,3600.648841,8068.244768
366.091577,-666.185348,2298.286494,9548.656652
366.091903,-962.267725,842.705048,10955.047942
366.092228,-1184.329507,-536.266849,12139.377449
366.092553,-1924.535449,-995.924147,12435.459826
366.092879,-1554.432478,-2221.676944,11991.336260
366.093204,-370.102971,-1225.752797,11399.171507
366.093529,2072.576638,306.438199,11547.212695
366.093855,3923.091493,2145.067394,11251.130318
366.094180,4293.194464,2604.724693,9178.553681
366.094505,4663.297435,2834.553343,7476.080014
366.094831,5033.400406,4136.915689,7772.162391
366.095156,3478.967927,4290.134789,8808.450710
366.095481,1258.350101,2374.896044,9178.553681
366.095807,-814.226536,459.657299,9178.553681
366.096132,-2368.659014,-919.314598,9400.615463
366.096457,-4441.235652,-1608.800546,8808.450710
366.096783,-5329.482782,-3140.991542,8660.409521
366.097108,-5033.400406,-3140.991542,7920.203579
366.097433,-2738.761985,-842.705048,7179.997637
366.097759,-1036.288319,76.609550,7624.121203
366.098084,-740.205942,766.095498,6661.853478
366.098409,0.000000,1149.143247,5921.647536
366.098735,1036.288319,2298.286494,6513.812290
366.099060,1628.453072,1378.971896,8586.388927
366.099385,-296.082377,536.266849,10881.027347
366.099711,-1628.453072,-1149.143247,11621.233289
366.100036,-1998.556043,-2528.115143,12583.501014
366.100361,-2294.638420,-3370.820191,12953.603985
366.100687,-1702.473667,-3907.087040,13323.706956
366.101012,-888.247130,-2987.772442,12139.377449
366.101337,962.267725,-2145.067394,11029.068536
366.101663,3330.926739,0.000000,11103.089130
366.101988,4071.132681,1608.800546,10066.800811
366.102313,3923.091493,2451.505594,8142.265362
366.102639,4145.153275,2757.943793,7698.141797
366.102964,4145.153275,3370.820191,7846.182985
366.103289,2146.597232,3294.210641,8956.491898
366.103615,-666.185348,1532.190996,9104.533087
366.103940,-2960.823768,-1072.533697,8734.430116
366.104265,-4367.215058,-1915.238745,8216.285956
366.104591,-4293.194464,-2145.067394,8660.409521
366.104916,-3775.050304,-1225.752797,8438.347739
366.105241,-2516.700203,-153.219100,7254.018232
366.105567,-444.123565,1225.752797,6957.935855
366.105892,1332.370696,2451.505594,6883.915261
366.106217,1110.308913,2681.334243,6365.771101
366.106543,1702.473667,3370.820191,6217.729913
366.106868,2590.720797,3447.429741,7846.182985
366.107193,814.226536,2757.943793,10732.986159
366.107519,-814.226536,1838.629195,11695.253884
366.107844,-1628.453072,-766.095498,11695.253884
366.108169,-2368.659014,-1608.800546,12139.377449
366.108495,-2590.720797,-2451.505594,12361.439231
366.108820,-1480.411884,-1685.410096,11991.336260
366.109145,222.061783,0.000000,11843.295072
366.109471,2220.617826,1685.410096,10658.965565
366.109796,3775.050304,2221.676944,9104.533087
366.110121,4589.276840,3524.039291,8364.327145
366.110447,4367.215058,4290.134789,7476.080014
366.110772,4737.318029,4366.744339,7772.162391
366.111097,3404.947333,4136.915689,8882.471304
366.111423,518.144159,2757.943793,9474.636058
366.111748,-2294.638420,153.219100,8882.471304
366.112073,-3108.864956,-1072.533697,7920.203579
366.112399,-3701.029710,-766.095498,7846.182985
366.112724,-3552.988522,-1225.752797,8438.347739
366.113049,-2664.741391,-612.876398,7698.141797
366.113375,-1258.350101,536.266849,6661.853478
366.113700,296.082377,1532.190996,6143.709319
366.114025,814.226536,2374.896044,6217.729913
366.114351,-370.102971,2298.286494,6809.894666
366.114676,0.000000,1532.190996,8068.244768
366.115001,592.164754,612.876398,10140.821405
366.115327,-1480.411884,-1149.143247,11917.315666
366.115652,-3330.926739,-2451.505594,12065.356855
366.115977,-3627.009116,-3830.477490,11917.315666
366.116303,-2516.700203,-4596.572988,12509.480420
366.116628,-962.267725,-3217.601092,12509.480420
366.116953,74.020594,-1608.800546,12509.480420
366.117279,2590.720797,459.657299,11473.192101
366.117604,4663.297435,1455.581446,9696.697840
366.117929,5551.544565,2221.676944,8734.430116
366.118255,5033.400406,3064.381992,8290.306550
366.118580,4441.235652,2834.553343,7846.182985
366.118905,3552.988522,2298.286494,8734.430116
366.119231,1036.288319,1762.019645,9992.780217
366.119556,-3034.844362,-689.485948,9622.677246
366.119881,-3849.070898,-2681.334243,7994.224174
366.120207,-4071.132681,-2757.943793,7402.059420
366.120532,-3256.906145,-1991.848295,7920.203579
366.120857,-2442.679609,-536.266849,8290.306550
366.121183,-1998.556043,612.876398,7476.080014
366.121508,0.000000,995.924147,6439.791695
366.121833,888.247130,2298.286494,5995.668130
366.122159,1184.329507,2911.162892,6957.935855
366.122484,814.226536,2451.505594,8142.265362
366.122809,296.082377,1532.190996,10584.944971
366.123135,-962.267725,459.657299,12583.501014
366.123460,-2220.617826,-1149.143247,13027.624579
366.123785,-2738.761985,-2987.772442,12879.583391
366.124111,-2294.638420,-2757.943793,12139.377449
366.124436,-740.205942,-842.705048,11917.315666
366.124761,740.205942,383.047749,11991.336260
366.125087,2294.638420,1762.019645,10881.027347
366.125412,3627.009116,3217.601092,8364.327145
366.125737,4959.379811,4443.353888,7698.141797
366.126063,5107.421000,4979.620737,7772.162391
366.126388,3034.844362,4979.620737,7698.141797
366.126713,2368.659014,3907.087040,8142.265362
366.127039,814.226536,2987.772442,9030.512492
366.127364,-2368.659014,1149.143247,8956.491898
366.127689,-3849.070898,-536.266849,7920.203579
366.128015,-4441.235652,-1378.971896,7402.059420
366.128340,-3701.029710,-995.924147,7105.977043
366.128665,-2516.700203,153.219100,7772.162391
366.128991,-1924.535449,1608.800546,7550.100608
366.129316,-814.226536,1838.629195,6069.688724
366.129641,1332.370696,2374.896044,5921.647536
366.129967,1480.411884,3370.820191,7179.997637
366.130292,518.144159,2834.553343,8956.491898
366.130617,0.000000,842.705048,9992.780217
366.130943,-962.267725,-995.924147,11325.150913
366.131268,-1924.535449,-1532.190996,13249.686362
366.131593,-2812.782580,-2987.772442,13397.727550
366.131919,-2738.761985,-4519.963438,12435.459826
366.132244,-888.247130,-3830.477490,11917.315666
366.132569,1332.370696,-1608.800546,12213.398043
366.132895,2368.659014,0.000000,11325.150913
366.133220,4071.132681,1149.143247,9474.636058
366.133545,5699.585753,2145.067394,8808.450710
366.133871,6661.853478,2757.943793,8512.368333
366.134196,4737.318029,3370.820191,8586.388927
366.134521,2886.803174,1915.238745,9400.615463
366.134847,888.247130,536.266849,9770.718434
366.135172,-1480.411884,-919.314598,9474.636058
366.135497,-3701.029710,-2834.553343,8364.327145
366.135823,-4367.215058,-3447.429741,7920.203579
366.136148,-3997.112087,-2834.553343,7179.997637
366.136473,-2516.700203,-1072.533697,7105.977043
366.136799,-1332.370696,0.000000,7105.977043
366.137124,-814.226536,842.705048,5995.668130
366.137449,0.000000,1991.848295,5403.503377
366.137775,1110.308913,2374.896044,7179.997637
366.138100,1036.288319,1532.190996,8882.471304
366.138425,-1110.308913,1072.533697,11251.130318
366.138751,-2516.700203,-1225.752797,11621.233289
366.139076,-2072.576638,-2604.724693,12583.501014
366.139401,-3108.864956,-2911.162892,12879.583391
366.139727,-3330.926739,-3140.991542,12657.521608
366.140052,-1480.411884,-2451.505594,12065.356855
366.140377,1258.350101,-689.485948,11843.295072
366.140703,3108.864956,1685.410096,11177.109724
366.141028,3775.050304,3217.601092,9474.636058
366.141354,4071.132681,4290.134789,8068.244768
366.141679,5181.441594,4903.011187,7920.203579
366.142004,5033.400406,4903.011187,7846.182985
366.142330,2516.700203,4673.182538,8956.491898
366.142655,0.000000,2681.334243,8956.491898
366.142980,-1406.391290,1149.143247,8956.491898
366.143306,-3330.926739,-383.047749,8956.491898
366.143631,-4663.297435,-995.924147,8586.388927
366.143956,-3997.112087,-306.438199,7772.162391
366.144282,-2368.659014,1455.581446,6809.894666
366.144607,-740.205942,3064.381992,6291.750507
366.144932,-222.061783,3294.210641,5699.585753
366.145258,814.226536,3447.429741,5477.523971
366.145583,1332.370696,4443.353888,5699.585753
366.145908,1998.556043,3983.696590,8438.347739
366.146234,888.247130,2987.772442,10658.965565
366.146559,-1406.391290,1225.752797,11399.171507
366.146884,-2368.659014,-995.924147,12139.377449
366.147210,-2220.617826,-1991.848295,11991.336260
366.147535,-2368.659014,-2451.505594,12435.459826
366.147860,-1036.288319,-1915.238745,11843.295072
366.148186,814.226536,-459.657299,11251.130318
366.148511,3034.844362,1302.362347,10584.944971
366.148836,4515.256246,2911.162892,9548.656652
366.149162,5477.523971,3983.696590,8512.368333
366.149487,5625.565159,4749.792088,7328.038826
366.149812,5551.544565,4366.744339,7846.182985
366.150138,3923.091493,3294.210641,9474.636058
366.150463,740.205942,1608.800546,9844.739029
366.150788,-1628.453072,-766.095498,9548.656652
366.151114,-2886.803174,-2604.724693,8882.471304
366.151439,-4367.215058,-3370.820191,8808.450710
366.151764,-4663.297435,-3064.381992,7772.162391
366.152090,-3627.009116,-2221.676944,7105.977043
366.152415,-2368.659014,-1532.190996,6957.935855
366.152740,-1628.453072,-306.438199,6661.853478
366.153066,-1332.370696,306.438199,6809.894666
366.153391,-666.185348,689.485948,6809.894666
366.153716,518.144159,536.266849,8364.327145
366.154042,0.000000,76.609550,10881.027347
366.154367,-2368.659014,-1378.971896,12435.459826
366.154692,-2960.823768,-3370.820191,12509.480420
366.155018,-2368.659014,-4673.182538,12509.480420
366.155343,-1850.514855,-4903.011187,12953.603985
366.155668,-1480.411884,-3983.696590,12583.501014
366.155994,0.000000,-1762.019645,11473.192101
366.156319,2442.679609,-1302.362347,11769.274478
366.156644,3923.091493,0.000000,9918.759623
366.156970,4293.194464,2451.505594,8808.450710
366.157295,3849.070898,2834.553343,8290.306550
366.157620,3997.112087,2757.943793,7698.141797
366.157946,3034.844362,2451.505594,9326.594869
366.158271,222.061783,1532.190996,10066.800811
366.158596,-2664.741391,0.000000,9474.636058
366.158922,-3775.050304,-1762.019645,7846.182985
366.159247,-3997.112087,-2221.676944,7476.080014
366.159572,-3701.029710,-1302.362347,7624.121203
366.159898,-2886.803174,229.828649,6883.915261
366.160223,-1110.308913,1608.800546,6735.874072
366.160548,444.123565,2528.115143,6365.771101
366.160874,1554.432478,3447.429741,6513.812290
366.161199,1554.432478,4213.525239,6809.894666
366.161524,1702.473667,3753.867940,8068.244768
366.161850,1924.535449,3217.601092,10584.944971
366.162175,666.185348,1762.019645,12953.603985
366.162500,-1110.308913,76.609550,13175.665768
366.162826,-1332.370696,-919.314598,11991.336260
366.163151,-222.061783,-1378.971896,11917.315666
366.163476,814.226536,689.485948,12139.377449
366.163802,1554.432478,1762.019645,12065.356855
366.164127,2738.761985,2604.724693,10362.883188
366.164452,3849.070898,3370.820191,8808.450710
366.164778,4663.297435,5209.449386,7476.080014
366.165103,4811.338623,6281.983084,7105.977043
366.165428,4145.153275,6588.421283,7624.121203
366.165754,2812.782580,4903.011187,8660.409521
366.166079,1480.411884,2528.115143,9992.780217
366.166404,-2072.576638,919.314598,9474.636058
366.166730,-4219.173869,-536.266849,7846.182985
366.167055,-4367.215058,-1149.143247,7328.038826
366.167380,-3330.926739,0.000000,7105.977043
366.167706,-3552.988522,153.219100,7624.121203
366.168031,-2738.761985,229.828649,7179.997637
366.168356,-1332.370696,919.314598,5625.565159
366.168682,-888.247130,2145.067394,5773.606348
366.169007,-370.102971,2298.286494,7179.997637
366.169332,-370.102971,1378.971896,8956.491898
366.169658,-518.144159,229.828649,10214.842000
366.169983,-370.102971,0.000000,12065.356855
366.170308,-1702.473667,-2068.457845,13027.624579
366.170634,-3849.070898,-4136.915689,12435.459826
366.170959,-2886.803174,-4979.620737,12139.377449
366.171284,148.041188,-4213.525239,12953.603985
366.171610,888.247130,-2374.896044,12953.603985
366.171935,1850.514855,-995.924147,11251.130318
366.172260,3330.926739,-383.047749,9474.636058
366.172586,4737.318029,919.314598,9030.512492
366.172911,4589.276840,1915.238745,8364.327145
366.173236,3701.029710,2068.457845,8882.471304
366.173562,2072.576638,1455.581446,8956.491898
366.173887,592.164754,229.828649,9474.636058
366.174212,-1258.350101,-1532.190996,9326.594869
366.174538,-3775.050304,-3064.381992,8438.347739
366.174863,-4441.235652,-3064.381992,7624.121203
366.175188,-3108.864956,-2834.553343,7624.121203
366.175514,-2294.638420,-1225.752797,7994.224174
366.175839,-1998.556043,-383.047749,6883.915261
366.176164,-1332.370696,-153.219100,5625.565159
366.176489,-74.020594,1225.752797,5773.606348
366.176815,1110.308913,2757.943793,7105.977043
366.177140,1036.288319,1915.238745,9622.677246
366.177465,148.041188,842.705048,10658.965565
366.177791,-592.164754,229.828649,11695.253884
366.178116,-592.164754,-536.266849,12879.583391
366.178441,-962.267725,-2068.457845,13027.624579
366.178767,-1480.411884,-2221.676944,12435.459826
366.179092,74.020594,-1378.971896,11325.150913
366.179417,2072.576638,536.266849,11251.130318
366.179743,2442.679609,2451.505594,10584.944971
366.180068,2960.823768,3140.991542,8808.450710
366.180393,4219.173869,4060.306139,7920.203579
366.180719,4515.256246,5669.106685,7846.182985
366.181044,3701.029710,5056.230287,8734.430116
366.181369,2146.597232,4213.525239,9030.512492
366.181695,0.000000,2987.772442,8882.471304
366.182020,-2072.576638,1378.971896,8660.409521
366.182345,-3182.885551,0.000000,8068.244768
366.182671,-4145.153275,0.000000,8068.244768
366.182996,-3701.029710,306.438199,7031.956449
366.183321,-2220.617826,1072.533697,7179.997637
366.183647,-1332.370696,2528.115143,7031.956449
366.183972,-2072.576638,2987.772442,5699.585753
366.184297,518.144159,2834.553343,5255.462188
366.184623,1036.288319,3294.210641,6143.709319
366.184948,518.144159,4136.915689,8808.450710
366.185273,-222.061783,2451.505594,10732.986159
366.185599,-1110.308913,306.438199,11843.295072
366.185924,-1036.288319,-689.485948,11399.171507
366.186249,-1406.391290,-1915.238745,11991.336260
366.186575,-1480.411884,-2451.505594,12435.459826
366.186900,-148.041188,-2221.676944,12213.398043
366.187225,1406.391290,-1608.800546,11991.336260
366.187551,2812.782580,-153.219100,11325.150913
366.187876,3256.906145,1302.362347,9474.636058
366.188201,3849.070898,2068.457845,8956.491898
366.188527,4811.338623,2145.067394,8364.327145
366.188852,4441.235652,2451.505594,8882.471304
366.189177,2664.741391,1762.019645,9696.697840
366.189503,962.267725,383.047749,9992.780217
366.189828,-666.185348,-1225.752797,9178.553681
366.190153,-1702.473667,-2221.676944,8882.471304
366.190479,-2590.720797,-3217.601092,8808.450710
366.190804,-3701.029710,-2451.505594,7698.141797
366.191129,-2368.659014,-2298.286494,7476.080014
366.191455,-1776.494261,-1149.143247,7105.977043
366.191780,-1998.556043,-306.438199,6365.771101
366.192105,-1998.556043,0.000000,6439.791695
366.192431,-1036.288319,766.095498,7031.956449
366.192756,-592.164754,919.314598,9030.512492
366.193081,-1554.432478,306.438199,10955.047942
366.193407,-2294.638420,-1378.971896,11769.274478
366.193732,-2516.700203,-2757.943793,11473.192101
366.194057,-1628.453072,-2987.772442,12065.356855
366.194383,-666.185348,-2528.115143,12805.562797
366.194708,0.000000,-1685.410096,12657.521608
366.195033,1332.370696,-229.828649,11843.295072
366.195359,3552.988522,1072.533697,11547.212695
366.195684,4737.318029,2374.896044,9844.739029
366.196009,4219.173869,3370.820191,7994.224174
366.196335,3997.112087,4366.744339,7476.080014
366.196660,3775.050304,4290.134789,8290.306550
366.196985,1850.514855,4290.134789,9178.553681
366.197311,-740.205942,2298.286494,9696.697840
366.197636,-3108.864956,536.266849,7846.182985
366.197961,-3478.967927,-306.438199,6957.935855
366.198287,-3182.885551,0.000000,7772.162391
366.198612,-4071.132681,383.047749,7476.080014
366.198937,-3701.029710,689.485948,6587.832884
366.199263,-1998.556043,1532.190996,5847.626942
366.199588,-222.061783,2451.505594,5551.544565
366.199913,-666.185348,3447.429741,6069.688724
366.200239,148.041188,3907.087040,7254.018232
366.200564,74.020594,2834.553343,9400.615463
366.200889,814.226536,1532.190996,10807.006753
366.201215,-370.102971,612.876398,12287.418637
366.201540,-888.247130,-229.828649,12213.398043
366.201865,370.102971,-1149.143247,11843.295072
366.202191,1406.391290,-766.095498,12879.583391
366.202516,1998.556043,-536.266849,13471.748144
366.202841,2368.659014,459.657299,12287.418637
366.203167,4145.153275,1225.752797,10584.944971
366.203492,5551.544565,2221.676944,9326.594869
366.203817,4811.338623,3370.820191,8364.327145
366.204143,4219.173869,3907.087040,7846.182985
366.204468,3330.926739,3677.258390,7624.121203
366.204793,1776.494261,2298.286494,8438.347739
366.205119,-1480.411884,689.485948,8364.327145
366.205444,-4219.173869,-766.095498,8364.327145
366.205769,-4959.379811,-2374.896044,7254.018232
366.206095,-4515.256246,-2911.162892,7550.100608
366.206420,-4219.173869,-2834.553343,7994.224174
366.206745,-4367.215058,-1532.190996,8068.244768
366.207071,-2886.803174,-1225.752797,7105.977043
366.207396,-666.185348,-383.047749,6513.812290
366.207721,296.082377,766.095498,7328.038826
366.208047,222.061783,1072.533697,8290.306550
366.208372,814.226536,536.266849,9252.574275
366.208697,1036.288319,0.000000,11177.109724
366.209023,0.000000,-919.314598,13101.645173
366.209348,-1258.350101,-1838.629195,13397.727550
366.209673,-1406.391290,-3294.210641,12287.418637
366.209999,-222.061783,-3447.429741,11251.130318
366.210324,1110.308913,-1915.238745,12213.398043
366.210649,1850.514855,-306.438199,12805.562797
366.210975,1924.535449,383.047749,10436.903782
366.211300,3330.926739,1072.533697,8290.306550
366.211625,3849.070898,2451.505594,7772.162391
366.211951,2886.803174,3524.039291,7994.224174
366.212276,2146.597232,2987.772442,7254.018232
366.212601,888.247130,1378.971896,8808.450710
366.212927,-1332.370696,919.314598,9474.636058
366.213252,-3701.029710,-153.219100,9104.533087
366.213577,-4145.153275,-1838.629195,7698.141797
366.213903,-4219.173869,-1302.362347,6439.791695
366.214228,-2368.659014,76.609550,7179.997637
366.214553,-888.247130,919.314598,8142.265362
366.214879,-888.247130,1762.019645,6957.935855
366.215204,0.000000,2068.457845,6069.688724
366.215529,1406.391290,2911.162892,6587.832884
366.215855,888.247130,3907.087040,7772.162391
366.216180,444.123565,2911.162892,9474.636058
366.216505,222.061783,1762.019645,10584.944971
366.216831,-1036.288319,306.438199,12065.356855
366.217156,-1332.370696,0.000000,12435.459826
366.217481,-1480.411884,-1685.410096,12139.377449
366.217807,-1184.329507,-1685.410096,11399.171507
366.218132,814.226536,0.000000,11843.295072
366.218457,2590.720797,1762.019645,11473.192101
366.218782,3330.926739,2374.896044,10658.965565
366.219108,3478.967927,2681.334243,8586.388927
366.219433,4663.297435,3294.210641,7920.203579
366.219758,4663.297435,4290.134789,8068.244768
366.220084,2886.803174,3677.258390,8882.471304
366.220409,888.247130,2068.457845,8956.491898
366.220734,-444.123565,689.485948,8734.430116
366.221060,-2590.720797,153.219100,8882.471304
366.221385,-3627.009116,-1455.581446,8290.306550
366.221710,-4367.215058,-1838.629195,7476.080014
366.222036,-3849.070898,-1149.143247,7402.059420
366.222361,-2220.617826,0.000000,7772.162391
366.222686,-1702.473667,459.657299,7179.997637
366.223012,-1480.411884,459.657299,6291.750507
366.223337,-148.041188,1455.581446,6661.853478
366.223662,666.185348,1685.410096,7624.121203
366.223988,0.000000,1455.581446,9696.697840
366.224313,-370.102971,153.219100,10881.027347
366.224638,-666.185348,-1072.533697,11843.295072
366.224964,-1036.288319,-1991.848295,11917.315666
366.225289,-1332.370696,-2681.334243,12287.418637
366.225614,222.061783,-3524.039291,12287.418637
366.225940,1258.350101,-1225.752797,12213.398043
366.226265,3034.844362,0.000000,11917.315666
366.226590,4071.132681,766.095498,11473.192101
366.226916,3478.967927,1532.190996,9474.636058
366.227241,3775.050304,1915.238745,7994.224174
366.227566,4219.173869,2604.724693,8364.327145
366.227892,2220.617826,2451.505594,9252.574275
366.228217,-666.185348,1072.533697,9326.594869
366.228542,-2442.679609,-766.095498,8808.450710
366.228868,-4293.194464,-2068.457845,7994.224174
366.229193,-5107.421000,-2451.505594,7846.182985
366.229518,-5181.441594,-2528.115143,7772.162391
366.229844,-3849.070898,-1991.848295,6883.915261
366.230169,-1924.535449,-383.047749,7179.997637
366.230494,74.020594,766.095498,7105.977043
366.230820,148.041188,1149.143247,6587.832884
366.231145,518.144159,1991.848295,6513.812290
366.231470,1554.432478,2528.115143,7994.224174
366.231796,2442.679609,2298.286494,10807.006753
366.232121,1406.391290,689.485948,11991.336260
366.232446,-370.102971,-459.657299,11843.295072
366.232772,-518.144159,-1685.410096,12657.521608
366.233097,-592.164754,-2221.676944,12435.459826
366.233422,-666.185348,-1838.629195,12435.459826
366.233748,0.000000,-1072.533697,11917.315666
366.234073,1258.350101,612.876398,11325.150913
366.234398,3627.009116,2068.457845,10288.862594
366.234724,3701.029710,2681.334243,8364.327145
366.235049,2886.803174,3064.381992,7105.977043
366.235374,2368.659014,4060.306139,6735.874072
366.235700,2664.741391,4290.134789,8142.265362
366.236025,962.267725,3447.429741,9474.636058
366.236350,-2146.597232,1302.362347,9104.533087
366.236676,-3330.926739,-459.657299,7550.100608
366.237001,-3849.070898,-842.705048,7254.018232
366.237326,-3108.864956,-1149.143247,7994.224174
366.237652,-2368.659014,0.000000,7846.182985
366.237977,-1184.329507,1072.533697,7624.121203
366.238302,962.267725,2221.676944,7402.059420
366.238628,1850.514855,2834.553343,6809.894666
366.238953,1998.556043,3830.477490,6957.935855
366.239278,1998.556043,3370.820191,7402.059420
366.239604,1850.514855,3217.601092,9104.533087
366.239929,222.061783,1378.971896,11621.233289
366.240254,-1702.473667,-459.657299,12287.418637
366.240580,-3256.906145,-1991.848295,11843.295072
366.240905,-2960.823768,-3140.991542,11843.295072
366.241230,-2294.638420,-3294.210641,12435.459826
366.241556,-962.267725,-2604.724693,12435.459826
366.241881,222.061783,-842.705048,11473.192101
366.242206,2516.700203,842.705048,10510.924376
366.242532,4441.235652,2221.676944,9252.574275
366.242857,4737.318029,3064.381992,8142.265362
366.243182,4071.132681,3370.820191,7846.182985
366.243508,3923.091493,3217.601092,8512.368333
366.243833,3256.906145,2145.067394,9918.759623
366.244158,-222.061783,919.314598,9992.780217
366.244484,-2738.761985,-1685.410096,8364.327145
366.244809,-3627.009116,-3370.820191,7105.977043
366.245134,-3478.967927,-1915.238745,7550.100608
366.245460,-3478.967927,-995.924147,7846.182985
366.245785,-2886.803174,-689.485948,7105.977043
366.246110,-888.247130,-229.828649,5995.668130
366.246436,444.123565,1149.143247,5699.585753
366.246761,518.144159,2068.457845,7105.977043
366.247086,0.000000,1838.629195,7402.059420
366.247412,0.000000,919.314598,9400.615463
366.247737,74.020594,0.000000,11621.233289
366.248062,-1332.370696,-1532.190996,13249.686362
366.248388,-2886.803174,-2298.286494,12435.459826
366.248713,-2220.617826,-3600.648841,11621.233289
366.249038,-666.185348,-4519.963438,12657.521608
366.249364,148.041188,-1762.019645,13323.706956
366.249689,1258.350101,0.000000,12731.542202
366.250014,3034.844362,612.876398,10362.883188
366.250340,4663.297435,1991.848295,8660.409521
366.250665,4959.379811,3677.258390,8512.368333
366.250990,3404.947333,4136.915689,7846.182985
366.251316,2812.782580,2987.772442,8216.285956
366.251641,1332.370696,2451.505594,8808.450710
366.251966,-1184.329507,1455.581446,9030.512492
366.252292,-3552.988522,-612.876398,8364.327145
366.252617,-4737.318029,-995.924147,7254.018232
366.252942,-4293.194464,-995.924147,7476.080014
366.253268,-2960.823768,-536.266849,7105.977043
366.253593,-2072.576638,459.657299,6957.935855
366.253918,-1110.308913,1915.238745,5699.585753
366.254244,666.185348,3064.381992,5181.441594
