#time,accel_x,accel_y,accel_z
28687.282816,-370.102971,-766.095498,9252.574275
28687.283145,-1924.535449,0.000000,8956.491898
28687.283473,-1110.308913,0.000000,9400.615463
28687.283801,-222.061783,-229.828649,9030.512492
28687.284130,0.000000,0.000000,8956.491898
28687.284458,0.000000,995.924147,9548.656652
28687.284787,296.082377,1149.143247,9104.533087
28687.285115,1110.308913,1532.190996,8586.388927
28687.285444,2072.576638,842.705048,9474.636058
28687.285772,888.247130,995.924147,9474.636058
28687.286100,74.020594,1378.971896,9104.533087
28687.286429,1110.308913,689.485948,9548.656652
28687.286757,814.226536,76.609550,9622.677246
28687.287086,-1554.432478,0.000000,9474.636058
28687.287414,-370.102971,153.219100,9622.677246
28687.287743,-370.102971,306.438199,9474.636058
28687.288071,-370.102971,306.438199,9474.636058
28687.288400,-296.082377,229.828649,9770.718434
28687.288728,-518.144159,1378.971896,9622.677246
28687.289056,222.061783,842.705048,8956.491898
28687.289385,518.144159,919.314598,8882.471304
28687.289713,222.061783,612.876398,9770.718434
28687.290042,-814.226536,1072.533697,8956.491898
28687.290370,592.164754,612.876398,9104.533087
28687.290699,1110.308913,306.438199,9844.739029
28687.291027,-518.144159,919.314598,9474.636058
28687.291355,0.000000,229.828649,9030.512492
28687.291684,1036.288319,459.657299,9252.574275
28687.292012,1480.411884,153.219100,9622.677246
28687.292341,888.247130,1608.800546,9992.780217
28687.292669,1554.432478,1608.800546,10140.821405
28687.292998,2294.638420,1838.629195,9548.656652
28687.293326,3108.864956,1685.410096,9844.739029
28687.293655,2442.679609,1991.848295,10288.862594
28687.293983,1702.473667,2068.457845,9622.677246
28687.294311,2294.638420,1685.410096,9474.636058
28687.294640,2960.823768,1225.752797,10214.842000
28687.294968,1702.473667,1762.019645,9992.780217
28687.295297,1406.391290,2451.505594,9474.636058
28687.295625,2442.679609,2145.067394,9030.512492
28687.295954,3182.885551,2068.457845,9474.636058
28687.296282,3034.844362,2757.943793,9622.677246
28687.296610,3256.906145,4136.915689,9400.615463
28687.296939,3552.988522,3907.087040,8512.368333
28687.297267,4737.318029,3524.039291,8586.388927
28687.297596,4367.215058,3830.477490,9252.574275
28687.297924,2368.659014,4826.401637,8586.388927
28687.298253,3034.844362,4903.011187,7698.141797
28687.298581,4219.173869,2451.505594,8882.471304
28687.298910,2368.659014,3677.258390,9030.512492
28687.299238,1258.350101,4443.353888,8512.368333
28687.299566,1776.494261,3983.696590,8290.306550
28687.299895,2072.576638,2834.553343,8216.285956
28687.300223,1036.288319,2757.943793,7846.182985
28687.300552,1480.411884,4060.306139,8586.388927
28687.300880,1110.308913,4673.182538,7624.121203
28687.301209,2442.679609,2911.162892,8216.285956
28687.301537,2072.576638,2987.772442,9326.594869
28687.301865,296.082377,3600.648841,8808.450710
28687.302194,592.164754,3217.601092,8808.450710
28687.302522,1924.535449,1302.362347,9178.553681
28687.302851,814.226536,1149.143247,9918.759623
28687.303179,592.164754,1608.800546,9770.718434
28687.303508,1554.432478,2145.067394,10066.800811
28687.303836,2220.617826,1762.019645,10510.924376
28687.304165,2072.576638,1608.800546,10584.944971
28687.304493,2442.679609,1532.190996,10658.965565
28687.304821,2738.761985,2298.286494,10732.986159
28687.305150,4367.215058,1762.019645,10288.862594
28687.305478,4367.215058,1991.848295,9474.636058
28687.305807,3256.906145,2298.286494,9252.574275
28687.306135,2590.720797,2987.772442,7846.182985
28687.306464,3478.967927,2451.505594,7476.080014
28687.306792,2812.782580,2145.067394,7328.038826
28687.307120,1406.391290,3140.991542,6661.853478
28687.307449,962.267725,3983.696590,5773.606348
28687.307777,1184.329507,2145.067394,6513.812290
28687.308106,370.102971,1915.238745,6883.915261
28687.308434,-666.185348,1302.362347,7624.121203
28687.308763,-1332.370696,995.924147,8586.388927
28687.309091,-370.102971,76.609550,9696.697840
28687.309420,-296.082377,-1225.752797,11991.336260
28687.309748,-1184.329507,-1149.143247,13249.686362
28687.310076,-1776.494261,-766.095498,12805.562797
28687.310405,0.000000,-2681.334243,12805.562797
28687.310733,1036.288319,-2068.457845,13841.851115
28687.311062,592.164754,-153.219100,12805.562797
28687.311390,1850.514855,459.657299,11103.089130
28687.311719,4219.173869,1225.752797,9918.759623
28687.312047,5773.606348,2987.772442,8512.368333
28687.312375,6883.915261,5822.325785,7624.121203
28687.312704,7994.224174,7507.735880,7105.977043
28687.313032,8364.327145,8273.831378,6439.791695
28687.313361,8142.265362,7124.688131,6883.915261
28687.313689,6439.791695,5592.497135,7920.203579
28687.314018,3849.070898,5898.935335,8660.409521
28687.314346,1776.494261,3677.258390,9918.759623
28687.314675,666.185348,536.266849,11325.150913
28687.315003,-1628.453072,-766.095498,11621.233289
28687.315331,-2516.700203,-1072.533697,11177.109724
28687.315660,-1110.308913,76.609550,10658.965565
28687.315988,518.144159,2681.334243,9548.656652
28687.316317,1924.535449,4749.792088,7550.100608
28687.316645,4811.338623,7124.688131,5847.626942
28687.316974,6291.750507,9193.145976,4367.215058
28687.317302,6587.832884,9806.022374,4293.194464
28687.317630,4737.318029,9039.926876,5107.421000
28687.317959,2072.576638,7201.297681,6661.853478
28687.318287,222.061783,3907.087040,8808.450710
28687.318616,-962.267725,612.876398,11917.315666
28687.318944,-2886.803174,-1072.533697,13693.809927
28687.319273,-4145.153275,-1302.362347,15100.201217
28687.319601,-1998.556043,-2451.505594,15692.365970
28687.319929,148.041188,-1838.629195,16136.489536
28687.320258,740.205942,153.219100,15174.221811
28687.320586,1258.350101,2604.724693,13323.706956
28687.320915,4441.235652,4136.915689,9030.512492
28687.321243,7550.100608,4826.401637,7105.977043
28687.321572,7846.182985,7814.174080,6069.688724
28687.321900,7031.956449,10035.851024,4219.173869
28687.322229,7846.182985,8810.098227,2442.679609
28687.322557,7550.100608,6281.983084,4145.153275
28687.322885,3330.926739,5822.325785,4885.359217
28687.323214,296.082377,4903.011187,5033.400406
28687.323542,-518.144159,842.705048,5699.585753
28687.323871,-2146.597232,-1991.848295,8512.368333
28687.324199,-3923.091493,-2068.457845,11843.295072
28687.324528,-4367.215058,-919.314598,13323.706956
28687.324856,-2960.823768,-2374.896044,12509.480420
28687.325184,-1776.494261,-5132.839837,12731.542202
28687.325513,-1628.453072,-4826.401637,12509.480420
28687.325841,-296.082377,-995.924147,11769.274478
28687.326170,3034.844362,2298.286494,11843.295072
28687.326498,5033.400406,2374.896044,10955.047942
28687.326827,6217.729913,1455.581446,8216.285956
28687.327155,7105.977043,3524.039291,6513.812290
28687.327484,7254.018232,6511.811733,6291.750507
28687.327812,7105.977043,7507.735880,5255.462188
28687.328140,7550.100608,4519.963438,5847.626942
28687.328469,7328.038826,4596.572988,7846.182985
28687.328797,3701.029710,5209.449386,8734.430116
28687.329126,1036.288319,3524.039291,9178.553681
28687.329454,-1110.308913,-766.095498,11843.295072
28687.329783,-5255.462188,-2528.115143,13841.851115
28687.330111,-5921.647536,-4443.353888,12879.583391
28687.330439,-4219.173869,-6358.592633,13397.727550
28687.330768,-3552.988522,-3753.867940,14804.118840
28687.331096,-3330.926739,-536.266849,12065.356855
28687.331425,666.185348,919.314598,8142.265362
28687.331753,5255.462188,3370.820191,5329.482782
28687.332082,8290.306550,8273.831378,2664.741391
28687.332410,11473.192101,13866.328514,1258.350101
28687.332739,13397.727550,16011.395908,1036.288319
28687.333067,11695.253884,12870.404366,2072.576638
28687.333395,6365.771101,9346.365076,3849.070898
28687.333724,2294.638420,5132.839837,7179.997637
28687.334052,-1702.473667,2145.067394,11399.171507
28687.334381,-5255.462188,-1608.800546,15248.242405
28687.334709,-7328.038826,-5822.325785,16802.674883
28687.335038,-8808.450710,-8197.221829,16728.654289
28687.335366,-6069.688724,-6741.640382,16136.489536
28687.335694,-1036.288319,-1762.019645,15248.242405
28687.336023,2812.782580,3753.867940,12139.377449
28687.336351,5921.647536,8503.660028,9030.512492
28687.336680,9030.512492,11338.213370,5995.668130
28687.337008,10362.883188,11184.994271,2812.782580
28687.337337,9178.553681,10265.679673,1332.370696
28687.337665,6143.709319,8656.879127,2664.741391
28687.337994,3552.988522,7201.297681,6143.709319
28687.338322,1850.514855,3753.867940,9178.553681
28687.338650,-1036.288319,-995.924147,11399.171507
28687.338979,-4145.153275,-4749.792088,12361.439231
28687.339307,-5921.647536,-5439.278036,11251.130318
28687.339636,-2886.803174,-2528.115143,12287.418637
28687.339964,0.000000,689.485948,12805.562797
28687.340293,-370.102971,1608.800546,11177.109724
28687.340621,-148.041188,766.095498,7994.224174
28687.340949,1184.329507,1378.971896,7920.203579
28687.341278,1998.556043,4366.744339,8660.409521
28687.341606,2664.741391,4519.963438,7846.182985
28687.341935,4367.215058,919.314598,7846.182985
28687.342263,5107.421000,-689.485948,9770.718434
28687.342591,4589.276840,2068.457845,11177.109724
28687.342920,4219.173869,3217.601092,11029.068536
28687.343248,4145.153275,153.219100,10066.800811
28687.343576,2072.576638,-1762.019645,9326.594869
28687.343905,1036.288319,-995.924147,9400.615463
28687.344233,666.185348,1608.800546,10584.944971
28687.344562,-2146.597232,-229.828649,10436.903782
28687.344890,-4515.256246,-2911.162892,8956.491898
28687.345218,-2294.638420,-3830.477490,9252.574275
28687.345547,-1332.370696,-1302.362347,10881.027347
28687.345875,-1776.494261,1685.410096,12065.356855
28687.346204,-1184.329507,153.219100,12139.377449
28687.346532,-1924.535449,-1378.971896,9622.677246
28687.346860,-1480.411884,-1532.190996,7698.141797
28687.347189,-1554.432478,-689.485948,7476.080014
28687.347517,-1702.473667,459.657299,7772.162391
28687.347845,-2294.638420,1685.410096,8586.388927
28687.348174,-370.102971,153.219100,9030.512492
28687.348502,592.164754,-383.047749,7772.162391
28687.348831,1036.288319,1762.019645,6587.832884
28687.349159,1628.453072,2681.334243,7476.080014
28687.349487,1110.308913,2298.286494,8438.347739
28687.349816,-962.267725,1302.362347,8882.471304
28687.350144,-1702.473667,-536.266849,9400.615463
28687.350473,-2368.659014,-1149.143247,10066.800811
28687.350801,-4293.194464,-459.657299,11029.068536
28687.351129,-2738.761985,-1149.143247,10658.965565
28687.351458,-370.102971,-2911.162892,12213.398043
28687.351786,-740.205942,-1072.533697,12435.459826
28687.352114,148.041188,2068.457845,10658.965565
28687.352443,2812.782580,2681.334243,8142.265362
28687.352771,3404.947333,1915.238745,6069.688724
28687.353100,2368.659014,2374.896044,5699.585753
28687.353428,2368.659014,4443.353888,6957.935855
28687.353756,2960.823768,5132.839837,8068.244768
28687.354085,2590.720797,2604.724693,8068.244768
28687.354413,666.185348,-612.876398,9770.718434
28687.354741,-296.082377,-612.876398,9696.697840
28687.355070,444.123565,229.828649,8956.491898
28687.355398,222.061783,76.609550,10584.944971
28687.355727,-1332.370696,-1915.238745,10288.862594
28687.356055,-2368.659014,-1608.800546,8882.471304
28687.356383,-2072.576638,-306.438199,9696.697840
28687.356712,-1628.453072,842.705048,10807.006753
28687.357040,148.041188,383.047749,8660.409521
28687.357369,2516.700203,842.705048,7920.203579
28687.357697,4293.194464,2987.772442,7846.182985
28687.358025,3775.050304,4979.620737,8956.491898
28687.358354,3923.091493,4519.963438,8290.306550
28687.358682,3849.070898,689.485948,7105.977043
28687.359010,962.267725,-153.219100,6809.894666
28687.359339,-1110.308913,1455.581446,9474.636058
28687.359667,-518.144159,1838.629195,10881.027347
28687.359996,-888.247130,-459.657299,11103.089130
28687.360324,-2368.659014,-4290.134789,10510.924376
28687.360652,-1924.535449,-3677.258390,10436.903782
28687.360981,-1110.308913,766.095498,11103.089130
28687.361309,296.082377,2757.943793,11103.089130
28687.361638,-444.123565,0.000000,11473.192101
28687.361966,-2072.576638,-1532.190996,8438.347739
28687.362294,-2072.576638,459.657299,7994.224174
28687.362623,0.000000,1072.533697,8364.327145
28687.362951,-814.226536,1915.238745,7920.203579
28687.363279,-1036.288319,0.000000,7179.997637
28687.363608,518.144159,-459.657299,8068.244768
28687.363936,1110.308913,1608.800546,8734.430116
28687.364265,1258.350101,2911.162892,9178.553681
28687.364593,-296.082377,1225.752797,9326.594869
28687.364921,-1332.370696,-995.924147,8068.244768
28687.365250,-518.144159,-995.924147,9918.759623
28687.365578,-1480.411884,689.485948,12583.501014
28687.365906,-2738.761985,-153.219100,10807.006753
28687.366235,-1850.514855,-3600.648841,9474.636058
28687.366563,-148.041188,-4596.572988,10214.842000
28687.366892,-740.205942,229.828649,11251.130318
28687.367220,-296.082377,3677.258390,11399.171507
28687.367548,740.205942,1455.581446,9844.739029
28687.367877,0.000000,-2451.505594,6735.874072
28687.368205,-1850.514855,-2374.896044,6365.771101
28687.368534,-1184.329507,919.314598,8808.450710
28687.368862,592.164754,3294.210641,9474.636058
28687.369190,370.102971,459.657299,9770.718434
28687.369519,296.082377,-2681.334243,10066.800811
28687.369847,-296.082377,-2068.457845,8808.450710
28687.370175,-370.102971,1991.848295,10288.862594
28687.370504,740.205942,842.705048,10066.800811
28687.370832,0.000000,-2221.676944,9326.594869
28687.371161,-1628.453072,-2451.505594,10214.842000
28687.371489,-1776.494261,689.485948,11621.233289
28687.371817,0.000000,0.000000,9844.739029
28687.372146,222.061783,-1225.752797,10066.800811
28687.372474,1998.556043,-1302.362347,10066.800811
28687.372802,4885.359217,2451.505594,9844.739029
28687.373131,6661.853478,5439.278036,9770.718434
28687.373459,5773.606348,4749.792088,9844.739029
28687.373788,2590.720797,2298.286494,5995.668130
28687.374116,2220.617826,536.266849,6069.688724
28687.374444,1702.473667,2145.067394,8660.409521
28687.374773,-444.123565,2681.334243,9622.677246
28687.375101,-3108.864956,689.485948,9474.636058
28687.375430,-2590.720797,-2987.772442,8808.450710
28687.375758,-2072.576638,-2528.115143,9474.636058
28687.376086,-3404.947333,1149.143247,10140.821405
28687.376415,-2072.576638,3140.991542,10732.986159
28687.376743,-1184.329507,612.876398,9104.533087
28687.377071,-1406.391290,-766.095498,8438.347739
28687.377400,-1480.411884,1225.752797,9992.780217
28687.377728,-2072.576638,2757.943793,8586.388927
28687.378057,-1036.288319,1685.410096,7402.059420
28687.378385,2072.576638,-766.095498,8734.430116
28687.378713,2812.782580,995.924147,9992.780217
28687.379042,2812.782580,4290.134789,9474.636058
28687.379370,3997.112087,4443.353888,9548.656652
28687.379699,3775.050304,1225.752797,8216.285956
28687.380027,2960.823768,0.000000,7550.100608
28687.380355,1332.370696,2451.505594,9474.636058
28687.380684,0.000000,3677.258390,9252.574275
28687.381012,-888.247130,689.485948,9030.512492
28687.381340,-2294.638420,-3140.991542,9326.594869
28687.381669,-1998.556043,-2757.943793,8882.471304
28687.381997,-2664.741391,229.828649,8586.388927
28687.382326,-2294.638420,229.828649,9918.759623
28687.382654,-1850.514855,-1072.533697,10436.903782
28687.382982,-4145.153275,-1991.848295,8290.306550
28687.383311,-3701.029710,-2757.943793,7624.121203
28687.383639,-2738.761985,-2298.286494,7179.997637
28687.383967,-2368.659014,-229.828649,7846.182985
28687.384296,-1036.288319,689.485948,8660.409521
28687.384624,1110.308913,-612.876398,9400.615463
28687.384953,2886.803174,-306.438199,9992.780217
28687.385281,2886.803174,1455.581446,10584.944971
28687.385609,1850.514855,536.266849,9770.718434
28687.385938,740.205942,-766.095498,9622.677246
28687.386266,1036.288319,-1455.581446,10584.944971
28687.386595,222.061783,-1378.971896,11177.109724
28687.386923,-1184.329507,-1685.410096,10066.800811
28687.387251,-1480.411884,-2834.553343,10362.883188
28687.387580,0.000000,-1302.362347,10584.944971
28687.387908,1776.494261,229.828649,10658.965565
28687.388236,1554.432478,1225.752797,10732.986159
28687.388565,740.205942,842.705048,8364.327145
28687.388893,1332.370696,612.876398,6365.771101
28687.389222,1776.494261,612.876398,6809.894666
28687.389550,0.000000,1685.410096,8364.327145
28687.389878,-1480.411884,3217.601092,8364.327145
28687.390207,-74.020594,1455.581446,8882.471304
28687.390535,0.000000,-995.924147,8660.409521
28687.390864,-1776.494261,-689.485948,9030.512492
28687.391192,-1998.556043,1532.190996,9400.615463
28687.391520,-1184.329507,1915.238745,8808.450710
28687.391849,-962.267725,-306.438199,8586.388927
28687.392177,-1110.308913,-1149.143247,9474.636058
28687.392505,-2220.617826,1072.533697,11621.233289
28687.392834,-1702.473667,2604.724693,11843.295072
28687.393162,444.123565,536.266849,10732.986159
28687.393491,2146.597232,-1532.190996,11103.089130
28687.393819,2590.720797,1225.752797,9992.780217
28687.394147,4367.215058,5056.230287,9918.759623
28687.394476,4515.256246,5669.106685,9770.718434
28687.394804,2368.659014,2451.505594,8290.306550
28687.395132,444.123565,919.314598,6883.915261
28687.395461,592.164754,1915.238745,8068.244768
28687.395789,444.123565,3983.696590,9622.677246
28687.396118,-2368.659014,2911.162892,10140.821405
28687.396446,-3701.029710,-995.924147,9400.615463
28687.396774,-962.267725,-2911.162892,7031.956449
28687.397103,666.185348,919.314598,9844.739029
28687.397431,222.061783,3753.867940,11177.109724
28687.397760,-888.247130,3064.381992,8734.430116
28687.398088,-518.144159,-842.705048,7476.080014
28687.398416,0.000000,-2145.067394,9326.594869
28687.398745,-518.144159,1225.752797,8734.430116
28687.399073,-1110.308913,3140.991542,8290.306550
28687.399401,1406.391290,76.609550,8142.265362
28687.399730,2368.659014,-1915.238745,9400.615463
28687.400058,1998.556043,612.876398,11695.253884
28687.400387,1998.556043,3217.601092,11251.130318
28687.400715,1628.453072,1608.800546,8512.368333
28687.401043,1406.391290,-2374.896044,8956.491898
28687.401372,592.164754,-2221.676944,10066.800811
28687.401700,-1110.308913,2221.676944,10807.006753
28687.402028,-1998.556043,1149.143247,11029.068536
28687.402357,-1850.514855,-3983.696590,10584.944971
28687.402685,-1850.514855,-5439.278036,10288.862594
28687.403014,-1184.329507,-842.705048,10066.800811
28687.403342,1480.411884,1225.752797,10066.800811
28687.403670,1406.391290,1685.410096,7846.182985
28687.403999,-592.164754,-842.705048,6513.812290
28687.404327,-740.205942,-306.438199,7179.997637
28687.404656,-888.247130,1455.581446,7254.018232
28687.404984,-740.205942,1532.190996,8216.285956
28687.405312,-666.185348,-1378.971896,8808.450710
28687.405641,-1924.535449,-2374.896044,8808.450710
28687.405969,-1110.308913,0.000000,10066.800811
28687.406297,0.000000,76.609550,11325.150913
28687.406626,-1332.370696,-1608.800546,9548.656652
28687.406954,-2442.679609,-3064.381992,7994.224174
28687.407283,-1924.535449,-1915.238745,8660.409521
28687.407611,-1406.391290,1532.190996,10436.903782
28687.407939,-1332.370696,1762.019645,10362.883188
28687.408268,-1554.432478,-842.705048,9474.636058
28687.408596,222.061783,-2451.505594,8586.388927
28687.408925,2072.576638,766.095498,8882.471304
28687.409253,3330.926739,4136.915689,10584.944971
28687.409581,2590.720797,3677.258390,11251.130318
28687.409910,1628.453072,153.219100,8586.388927
28687.410238,2220.617826,-2068.457845,8734.430116
28687.410566,518.144159,1378.971896,8882.471304
28687.410895,-592.164754,3600.648841,9030.512492
28687.411223,-370.102971,1149.143247,7698.141797
28687.411552,296.082377,-1838.629195,8586.388927
28687.411880,592.164754,0.000000,10140.821405
28687.412208,666.185348,4673.182538,10362.883188
28687.412537,1406.391290,4060.306139,7698.141797
28687.412865,666.185348,229.828649,5921.647536
28687.413193,-666.185348,0.000000,8068.244768
28687.413522,-592.164754,4136.915689,9400.615463
28687.413850,0.000000,4519.963438,8364.327145
28687.414179,-592.164754,0.000000,8882.471304
28687.414507,-962.267725,-1915.238745,9252.574275
28687.414835,-296.082377,1378.971896,9030.512492
28687.415164,1776.494261,3447.429741,9400.615463
28687.415492,1628.453072,1378.971896,10732.986159
28687.415821,814.226536,459.657299,10436.903782
28687.416149,1184.329507,1302.362347,9400.615463
28687.416477,1406.391290,2757.943793,9252.574275
28687.416806,814.226536,2604.724693,10658.965565
28687.417134,592.164754,1302.362347,10288.862594
28687.417462,74.020594,612.876398,8808.450710
28687.417791,0.000000,-306.438199,9178.553681
28687.418119,222.061783,536.266849,11399.171507
28687.418448,0.000000,1991.848295,11695.253884
28687.418776,0.000000,766.095498,9548.656652
28687.419104,-1554.432478,-1455.581446,8068.244768
28687.419433,-2220.617826,-2145.067394,7550.100608
28687.419761,-2664.741391,459.657299,8216.285956
28687.420090,-2220.617826,1149.143247,8364.327145
28687.420418,-1480.411884,-1225.752797,9030.512492
28687.420746,-444.123565,-2604.724693,7920.203579
28687.421075,888.247130,459.657299,9844.739029
28687.421403,1036.288319,3447.429741,11251.130318
28687.421731,444.123565,1302.362347,9992.780217
28687.422060,-814.226536,-3447.429741,7994.224174
28687.422388,-888.247130,-4136.915689,9104.533087
28687.422717,-1702.473667,0.000000,10658.965565
28687.423045,-1998.556043,1149.143247,10658.965565
28687.423373,-2220.617826,-2221.676944,10732.986159
28687.423702,-1258.350101,-4596.572988,9622.677246
28687.424030,370.102971,-2911.162892,10881.027347
28687.424358,740.205942,2068.457845,11029.068536
28687.424687,888.247130,2528.115143,10214.842000
28687.425015,1776.494261,-1532.190996,8216.285956
28687.425344,370.102971,-2528.115143,8956.491898
28687.425672,-1258.350101,229.828649,9474.636058
28687.426000,-740.205942,2451.505594,8512.368333
28687.426329,740.205942,-1991.848295,8660.409521
28687.426657,0.000000,-2681.334243,9622.677246
28687.426986,0.000000,-383.047749,10066.800811
28687.427314,1258.350101,2451.505594,9474.636058
28687.427642,1554.432478,1608.800546,9030.512492
28687.427971,1110.308913,-1225.752797,7402.059420
28687.428299,0.000000,229.828649,7994.224174
28687.428627,370.102971,2528.115143,9326.594869
28687.428956,1628.453072,2834.553343,9326.594869
28687.429284,296.082377,153.219100,10066.800811
28687.429613,-370.102971,-766.095498,8586.388927
28687.429941,1406.391290,536.266849,7920.203579
28687.430269,2664.741391,2987.772442,9548.656652
28687.430598,1998.556043,4443.353888,10436.903782
28687.430926,370.102971,1915.238745,8290.306550
28687.431255,-666.185348,0.000000,7550.100608
28687.431583,0.000000,0.000000,8068.244768
28687.431911,-888.247130,2221.676944,9104.533087
28687.432240,-2664.741391,2757.943793,9548.656652
28687.432568,-2368.659014,1455.581446,9622.677246
28687.432896,1554.432478,-612.876398,8216.285956
28687.433225,2368.659014,1455.581446,11029.068536
28687.433553,296.082377,4290.134789,11029.068536
28687.433882,-370.102971,3140.991542,9326.594869
28687.434210,0.000000,-459.657299,7994.224174
28687.434538,-962.267725,-2145.067394,8438.347739
28687.434867,-2368.659014,612.876398,9770.718434
28687.435195,-2220.617826,4290.134789,9104.533087
28687.435523,-814.226536,2145.067394,7772.162391
28687.435852,962.267725,-2757.943793,6735.874072
28687.436180,592.164754,-689.485948,8808.450710
28687.436509,2220.617826,5362.668486,8882.471304
28687.436837,2886.803174,6128.763984,7476.080014
28687.437165,2368.659014,306.438199,7994.224174
28687.437494,740.205942,-1378.971896,8586.388927
28687.437822,-148.041188,1762.019645,9252.574275
28687.438151,1184.329507,2757.943793,10140.821405
28687.438479,370.102971,-995.924147,9252.574275
28687.438807,-1184.329507,-3524.039291,10066.800811
28687.439136,-740.205942,-1149.143247,10584.944971
28687.439464,592.164754,1378.971896,10288.862594
28687.439792,962.267725,153.219100,10807.006753
28687.440121,-1110.308913,-1302.362347,10066.800811
28687.440449,-2368.659014,-1532.190996,9622.677246
28687.440777,-888.247130,229.828649,8808.450710
28687.441106,-296.082377,-459.657299,9992.780217
28687.441434,-2294.638420,-1915.238745,9696.697840
28687.441763,-1924.535449,-2528.115143,8216.285956
28687.442091,1628.453072,-842.705048,10214.842000
28687.442419,1924.535449,1072.533697,12139.377449
28687.442748,370.102971,1072.533697,10510.924376
28687.443076,0.000000,-1685.410096,8068.244768
28687.443404,-814.226536,-2451.505594,7105.977043
28687.443733,-1258.350101,229.828649,7698.141797
28687.444061,-1554.432478,1915.238745,10436.903782
28687.444389,-1776.494261,-76.609550,9696.697840
28687.444718,-1480.411884,-2298.286494,9770.718434
28687.445046,-370.102971,-2451.505594,10288.862594
28687.445374,-962.267725,76.609550,10955.047942
28687.445703,-1332.370696,1378.971896,9622.677246
28687.446031,-592.164754,-1302.362347,8734.430116
28687.446360,-1110.308913,-2757.943793,8512.368333
28687.446688,-2590.720797,306.438199,9992.780217
28687.447016,-1184.329507,1762.019645,10288.862594
28687.447345,0.000000,919.314598,10066.800811
28687.447673,444.123565,-2068.457845,9770.718434
28687.448001,1924.535449,-536.266849,10436.903782
28687.448330,3552.988522,3830.477490,11325.150913
28687.448658,4663.297435,4903.011187,10436.903782
28687.448986,3478.967927,1838.629195,7994.224174
28687.449315,1628.453072,-842.705048,8068.244768
28687.449643,888.247130,2068.457845,7994.224174
28687.449971,370.102971,3830.477490,9844.739029
28687.450300,0.000000,1608.800546,10881.027347
28687.450628,-1258.350101,-995.924147,9548.656652
28687.450957,-1406.391290,-1991.848295,7624.121203
28687.451285,-518.144159,459.657299,7550.100608
28687.451613,0.000000,3294.210641,8438.347739
28687.451942,74.020594,3983.696590,8438.347739
28687.452270,444.123565,1378.971896,7550.100608
28687.452598,370.102971,1762.019645,7994.224174
28687.452927,222.061783,3447.429741,8956.491898
28687.453255,370.102971,3064.381992,8734.430116
28687.453583,-444.123565,1915.238745,7772.162391
28687.453912,888.247130,-306.438199,9178.553681
28687.454240,2442.679609,919.314598,10436.903782
28687.454568,1702.473667,2987.772442,11251.130318
28687.454897,0.000000,2451.505594,9844.739029
28687.455225,444.123565,-919.314598,8142.265362
28687.455554,0.000000,-459.657299,9178.553681
28687.455882,-1036.288319,2528.115143,10362.883188
28687.456210,-962.267725,2604.724693,9474.636058
28687.456539,-1850.514855,842.705048,8438.347739
28687.456867,518.144159,-1378.971896,7920.203579
28687.457195,2368.659014,0.000000,7846.182985
28687.457524,814.226536,4290.134789,9696.697840
28687.457852,222.061783,4213.525239,9696.697840
28687.458180,1332.370696,-536.266849,7624.121203
28687.458509,74.020594,-3140.991542,7328.038826
28687.458837,-2368.659014,76.609550,9548.656652
28687.459165,-3034.844362,1302.362347,9104.533087
28687.459494,-2516.700203,-1225.752797,8882.471304
28687.459822,-1110.308913,-5362.668486,9400.615463
28687.460151,-1258.350101,-3753.867940,11843.295072
28687.460479,-592.164754,1532.190996,9918.759623
28687.460807,1702.473667,2298.286494,9400.615463
28687.461136,1628.453072,-1455.581446,9030.512492
28687.461464,-1480.411884,-2681.334243,8364.327145
28687.461792,-1998.556043,0.000000,8068.244768
28687.462121,-592.164754,536.266849,8660.409521
28687.462449,-1184.329507,-995.924147,8290.306550
28687.462777,-1554.432478,-2451.505594,8660.409521
28687.463106,-518.144159,-1991.848295,9844.739029
28687.463434,1332.370696,995.924147,10658.965565
28687.463762,888.247130,1225.752797,10807.006753
28687.464091,0.000000,-1991.848295,9992.780217
28687.464419,-1036.288319,-1991.848295,7772.162391
28687.464748,222.061783,153.219100,9104.533087
28687.465076,1036.288319,1685.410096,11325.150913
28687.465404,-444.123565,689.485948,10584.944971
28687.465733,-962.267725,-995.924147,10066.800811
28687.466061,2072.576638,-689.485948,9770.718434
28687.466389,3701.029710,1838.629195,9474.636058
28687.466718,1406.391290,3447.429741,9178.553681
28687.467046,666.185348,2528.115143,8586.388927
28687.467374,0.000000,1149.143247,7328.038826
28687.467703,-1332.370696,1455.581446,8734.430116
28687.468031,-1702.473667,306.438199,10732.986159
28687.468359,-2738.761985,766.095498,10807.006753
28687.468688,-2442.679609,-306.438199,9030.512492
28687.469016,666.185348,-1608.800546,9844.739029
28687.469345,1036.288319,766.095498,10807.006753
28687.469673,0.000000,3983.696590,9696.697840
28687.470001,2664.741391,2834.553343,8734.430116
28687.470330,2516.700203,-229.828649,8290.306550
28687.470658,-962.267725,1838.629195,10140.821405
28687.470986,-518.144159,3140.991542,8882.471304
28687.471315,814.226536,2145.067394,8882.471304
28687.471643,0.000000,0.000000,9548.656652
28687.471971,-222.061783,-306.438199,8660.409521
28687.472300,1036.288319,842.705048,7994.224174
28687.472628,2072.576638,2451.505594,9326.594869
28687.472956,2072.576638,3294.210641,11177.109724
28687.473285,1332.370696,1762.019645,9474.636058
28687.473613,-296.082377,689.485948,8586.388927
28687.473942,-148.041188,-383.047749,8068.244768
28687.474270,-518.144159,612.876398,8882.471304
28687.474598,-1628.453072,2145.067394,9770.718434
28687.474927,-444.123565,0.000000,8956.491898
28687.475255,1702.473667,-1225.752797,9622.677246
28687.475583,1406.391290,153.219100,10658.965565
28687.475912,1110.308913,2834.553343,10436.903782
28687.476240,1628.453072,2298.286494,9104.533087
28687.476568,888.247130,229.828649,7994.224174
28687.476897,-518.144159,0.000000,8290.306550
28687.477225,-518.144159,612.876398,10066.800811
28687.477553,-148.041188,1149.143247,9622.677246
28687.477882,-888.247130,-306.438199,10214.842000
28687.478210,0.000000,-2451.505594,10584.944971
28687.478539,666.185348,-842.705048,10288.862594
28687.478867,1332.370696,1072.533697,9326.594869
28687.479195,1406.391290,1838.629195,8216.285956
28687.479524,0.000000,0.000000,6883.915261
28687.479852,-740.205942,76.609550,7624.121203
28687.480180,-666.185348,1608.800546,9104.533087
28687.480509,-2368.659014,612.876398,8956.491898
28687.480837,-2960.823768,-1302.362347,8290.306550
28687.481165,0.000000,-2987.772442,9548.656652
28687.481494,-1332.370696,0.000000,10214.842000
28687.481822,-2294.638420,1915.238745,9696.697840
28687.482150,-962.267725,-766.095498,8808.450710
28687.482479,-1480.411884,-3600.648841,8068.244768
28687.482807,-3330.926739,-1915.238745,7994.224174
28687.483136,-2664.741391,0.000000,8956.491898
28687.483464,-1628.453072,459.657299,9326.594869
28687.483792,-666.185348,-1225.752797,8882.471304
28687.484121,148.041188,-1608.800546,10214.842000
28687.484449,148.041188,689.485948,9992.780217
28687.484777,2590.720797,1915.238745,8364.327145
28687.485106,4071.132681,1225.752797,9400.615463
28687.485434,2442.679609,76.609550,9696.697840
28687.485762,0.000000,1072.533697,9104.533087
28687.486091,1110.308913,76.609550,10807.006753
28687.486419,296.082377,-1072.533697,10436.903782
28687.486748,-1332.370696,-1991.848295,8956.491898
28687.487076,-740.205942,-1915.238745,10066.800811
28687.487404,2146.597232,919.314598,10362.883188
28687.487733,2294.638420,2528.115143,9474.636058
28687.488061,2368.659014,995.924147,9622.677246
28687.488389,1036.288319,766.095498,8142.265362
28687.488718,740.205942,1685.410096,5921.647536
28687.489046,444.123565,2911.162892,8512.368333
28687.489374,-444.123565,2068.457845,9104.533087
28687.489703,-2590.720797,1378.971896,8734.430116
28687.490031,-1036.288319,-766.095498,8512.368333
28687.490359,1258.350101,-1225.752797,9696.697840
28687.490688,-592.164754,459.657299,9622.677246
28687.491016,-1036.288319,919.314598,10140.821405
28687.491345,0.000000,0.000000,10214.842000
28687.491673,-444.123565,-536.266849,9844.739029
28687.492001,-814.226536,1072.533697,10436.903782
28687.492330,0.000000,1302.362347,9622.677246
28687.492658,666.185348,1532.190996,8068.244768
28687.492986,2368.659014,1532.190996,9252.574275
28687.493315,2886.803174,2298.286494,11547.212695
28687.493643,3108.864956,3600.648841,9770.718434
28687.493971,3478.967927,3753.867940,9474.636058
28687.494300,2442.679609,2221.676944,9252.574275
28687.494628,74.020594,689.485948,7105.977043
28687.494956,-740.205942,995.924147,8512.368333
28687.495285,-1628.453072,995.924147,10732.986159
28687.495613,-2664.741391,0.000000,9252.574275
28687.495942,-3108.864956,-2221.676944,9252.574275
28687.496270,-2220.617826,-2145.067394,10881.027347
28687.496598,-1110.308913,919.314598,10436.903782
28687.496927,296.082377,2528.115143,9696.697840
28687.497255,814.226536,766.095498,8956.491898
28687.497583,-962.267725,-383.047749,6439.791695
28687.497912,-1110.308913,919.314598,7179.997637
28687.498240,0.000000,2145.067394,9252.574275
28687.498568,-1554.432478,1225.752797,9548.656652
28687.498897,-2664.741391,-995.924147,8364.327145
28687.499225,-222.061783,-2604.724693,8808.450710
28687.499553,592.164754,-1455.581446,9992.780217
28687.499882,-888.247130,919.314598,10584.944971
28687.500210,-962.267725,229.828649,9992.780217
28687.500539,0.000000,-2145.067394,8808.450710
28687.500867,1110.308913,-2911.162892,9104.533087
28687.501195,148.041188,76.609550,12213.398043
28687.501524,-962.267725,1838.629195,11621.233289
28687.501852,-592.164754,-689.485948,8956.491898
28687.502180,962.267725,-4903.011187,8438.347739
28687.502509,74.020594,-2298.286494,8882.471304
28687.502837,1480.411884,2528.115143,7550.100608
28687.503165,1628.453072,4213.525239,9770.718434
28687.503494,444.123565,-536.266849,9252.574275
28687.503822,-1554.432478,-3217.601092,8512.368333
28687.504150,-2146.597232,-2145.067394,8734.430116
28687.504479,-1850.514855,-612.876398,10140.821405
28687.504807,-962.267725,-842.705048,8290.306550
28687.505136,0.000000,-3600.648841,10214.842000
28687.505464,1480.411884,-1455.581446,10658.965565
28687.505792,1628.453072,2374.896044,10362.883188
28687.506121,2146.597232,1991.848295,9548.656652
28687.506449,2516.700203,0.000000,7179.997637
28687.506777,740.205942,842.705048,6587.832884
28687.507106,518.144159,2834.553343,7624.121203
28687.507434,1332.370696,3064.381992,8216.285956
28687.507762,888.247130,919.314598,9104.533087
28687.508091,-370.102971,-1378.971896,10140.821405
28687.508419,962.267725,-229.828649,9844.739029
28687.508747,2590.720797,1915.238745,10584.944971
28687.509076,1628.453072,3140.991542,11695.253884
28687.509404,-222.061783,1608.800546,9252.574275
28687.509733,-740.205942,-536.266849,8216.285956
28687.510061,-592.164754,689.485948,9178.553681
28687.510389,-1554.432478,3524.039291,9696.697840
28687.510718,-2220.617826,2528.115143,7550.100608
28687.511046,-888.247130,-383.047749,6735.874072
28687.511374,888.247130,76.609550,9474.636058
28687.511703,0.000000,4443.353888,10584.944971
28687.512031,0.000000,5898.935335,9696.697840
28687.512359,296.082377,1072.533697,7920.203579
28687.512688,296.082377,-995.924147,7328.038826
28687.513016,740.205942,1455.581446,8438.347739
28687.513344,-814.226536,3907.087040,10881.027347
28687.513673,-592.164754,2834.553343,9548.656652
28687.514001,370.102971,-766.095498,9178.553681
28687.514330,1628.453072,-1838.629195,9474.636058
28687.514658,592.164754,2681.334243,9696.697840
28687.514986,814.226536,5209.449386,9474.636058
28687.515315,1258.350101,2681.334243,9474.636058
28687.515643,962.267725,-766.095498,7994.224174
28687.515971,-1184.329507,-1072.533697,8142.265362
28687.516300,-2442.679609,1991.848295,9992.780217
28687.516628,-1924.535449,2451.505594,10066.800811
28687.516956,-888.247130,-1225.752797,10732.986159
28687.517285,-1036.288319,-3447.429741,11917.315666
28687.517613,-1332.370696,-1072.533697,11917.315666
28687.517941,0.000000,612.876398,10140.821405
28687.518270,1258.350101,-1149.143247,9474.636058
28687.518598,-962.267725,-2604.724693,9178.553681
28687.518927,-1480.411884,-1685.410096,8660.409521
28687.519255,-1628.453072,1149.143247,9474.636058
28687.519583,-592.164754,612.876398,9992.780217
28687.519912,-1184.329507,-2374.896044,9770.718434
28687.520240,-1258.350101,-1762.019645,8586.388927
28687.520568,370.102971,-536.266849,7920.203579
28687.520897,1480.411884,1532.190996,10140.821405
28687.521225,296.082377,153.219100,10288.862594
28687.521553,-740.205942,-1685.410096,8068.244768
28687.521882,-740.205942,-3217.601092,8364.327145
28687.522210,-666.185348,-1225.752797,10510.924376
28687.522538,-592.164754,1302.362347,10807.006753
28687.522867,-148.041188,383.047749,9844.739029
28687.523195,814.226536,-3064.381992,8438.347739
28687.523524,2072.576638,-3140.991542,8438.347739
28687.523852,2442.679609,2298.286494,10584.944971
28687.524180,2886.803174,5056.230287,11103.089130
28687.524509,3108.864956,1915.238745,9770.718434
28687.524837,2516.700203,-2374.896044,9178.553681
28687.525165,296.082377,-842.705048,9252.574275
28687.525494,-1332.370696,3753.867940,9326.594869
28687.525822,-1110.308913,1685.410096,9474.636058
28687.526150,-148.041188,-1915.238745,9548.656652
28687.526479,0.000000,-2374.896044,9474.636058
28687.526807,-518.144159,1455.581446,9844.739029
28687.527135,-296.082377,3753.867940,8956.491898
28687.527464,148.041188,1915.238745,6883.915261
28687.527792,0.000000,306.438199,6439.791695
28687.528121,-1776.494261,1149.143247,6957.935855
28687.528449,-962.267725,3830.477490,7624.121203
28687.528777,0.000000,3830.477490,8808.450710
28687.529106,370.102971,1302.362347,9548.656652
28687.529434,222.061783,0.000000,8808.450710
28687.529762,592.164754,1378.971896,9178.553681
28687.530091,2072.576638,3447.429741,9548.656652
28687.530419,1480.411884,2757.943793,9622.677246
28687.530747,518.144159,1225.752797,8068.244768
28687.531076,148.041188,1149.143247,8068.244768
28687.531404,-592.164754,2681.334243,8882.471304
28687.531732,-740.205942,2681.334243,8586.388927
28687.532061,-814.226536,383.047749,9696.697840
28687.532389,-1110.308913,459.657299,10066.800811
28687.532718,1258.350101,1302.362347,9622.677246
28687.533046,2072.576638,2451.505594,9770.718434
28687.533374,592.164754,2221.676944,9844.739029
28687.533703,-370.102971,0.000000,7105.977043
28687.534031,-740.205942,-766.095498,8290.306550
28687.534359,-1480.411884,0.000000,10140.821405
28687.534688,-2294.638420,1072.533697,9474.636058
28687.535016,-2368.659014,-919.314598,8734.430116
28687.535344,-444.123565,-2681.334243,9696.697840
28687.535673,666.185348,-995.924147,10510.924376
28687.536001,0.000000,1532.190996,11177.109724
28687.536329,518.144159,1072.533697,9252.574275
28687.536658,592.164754,-1149.143247,7846.182985
28687.536986,1480.411884,-2374.896044,8882.471304
28687.537315,-518.144159,536.266849,10066.800811
28687.537643,-2368.659014,1072.533697,9844.739029
28687.537971,-1184.329507,-1378.971896,9770.718434
28687.538300,740.205942,-3140.991542,10807.006753
28687.538628,296.082377,-1455.581446,10066.800811
28687.538956,222.061783,612.876398,9622.677246
28687.539285,1110.308913,536.266849,9326.594869
28687.539613,0.000000,-766.095498,8364.327145
28687.539941,-814.226536,-2374.896044,8290.306550
28687.540270,-1554.432478,-306.438199,10288.862594
28687.540598,-1332.370696,1378.971896,10807.006753
28687.540926,0.000000,-306.438199,9770.718434
28687.541255,296.082377,-3447.429741,9844.739029
28687.541583,222.061783,-1838.629195,9992.780217
28687.541911,2516.700203,2145.067394,10066.800811
28687.542240,4441.235652,2221.676944,10658.965565
28687.542568,1850.514855,536.266849,9474.636058
28687.542896,-592.164754,-689.485948,7920.203579
28687.543225,0.000000,1378.971896,9400.615463
28687.543553,74.020594,2221.676944,9622.677246
28687.543881,-962.267725,1762.019645,10288.862594
28687.544210,-1998.556043,-2374.896044,9474.636058
28687.544538,-740.205942,-1838.629195,7920.203579
28687.544866,2516.700203,1072.533697,9844.739029
28687.545195,1184.329507,4826.401637,12509.480420
28687.545523,0.000000,3140.991542,9178.553681
28687.545851,0.000000,-1072.533697,6587.832884
28687.546179,444.123565,-689.485948,8142.265362
28687.546508,-1184.329507,3294.210641,9474.636058
28687.546836,-2072.576638,4596.572988,7772.162391
28687.547164,-444.123565,229.828649,6957.935855
28687.547493,592.164754,-1762.019645,8660.409521
28687.547821,666.185348,1225.752797,10140.821405
28687.548149,1184.329507,4673.182538,11547.212695
28687.548478,1184.329507,3983.696590,9178.553681
28687.548806,888.247130,-689.485948,6883.915261
28687.549134,740.205942,-1378.971896,7105.977043
28687.549463,-592.164754,3370.820191,9030.512492
28687.549791,-666.185348,4903.011187,9770.718434
28687.550119,370.102971,153.219100,9548.656652
28687.550448,0.000000,-3753.867940,9992.780217
28687.550776,518.144159,1072.533697,9918.759623
28687.551104,1702.473667,4519.963438,9992.780217
28687.551432,1776.494261,2451.505594,8438.347739
28687.551761,518.144159,-1762.019645,7031.956449
28687.552089,148.041188,-612.876398,8956.491898
28687.552417,814.226536,3370.820191,9770.718434
28687.552746,1406.391290,3600.648841,9400.615463
28687.553074,222.061783,-153.219100,9844.739029
28687.553402,-1628.453072,-2528.115143,9030.512492
28687.553731,0.000000,-306.438199,8364.327145
28687.554059,1702.473667,1225.752797,9474.636058
28687.554387,-370.102971,995.924147,9696.697840
28687.554716,-2664.741391,-995.924147,7624.121203
28687.555044,-1554.432478,-1991.848295,7031.956449
28687.555372,-1924.535449,-536.266849,9326.594869
28687.555701,-3182.885551,229.828649,10140.821405
28687.556029,-3627.009116,-1532.190996,9178.553681
28687.556357,-2072.576638,-3830.477490,7476.080014
28687.556685,370.102971,-1685.410096,9992.780217
28687.557014,1776.494261,1225.752797,11547.212695
28687.557342,370.102971,2604.724693,11399.171507
28687.557670,222.061783,-1072.533697,8364.327145
28687.557999,1480.411884,-3524.039291,8734.430116
28687.558327,814.226536,-842.705048,10955.047942
28687.558655,-592.164754,2298.286494,10732.986159
28687.558984,-1258.350101,766.095498,8882.471304
28687.559312,-1036.288319,-3140.991542,8068.244768
28687.559640,0.000000,-2145.067394,9548.656652
28687.559969,1332.370696,842.705048,9844.739029
28687.560297,666.185348,3983.696590,10288.862594
28687.560625,518.144159,383.047749,8438.347739
28687.560954,740.205942,-2451.505594,8364.327145
28687.561282,-1184.329507,-1072.533697,9622.677246
28687.561610,-2590.720797,1685.410096,9326.594869
28687.561938,-962.267725,0.000000,8290.306550
28687.562267,-148.041188,-2221.676944,10066.800811
28687.562595,0.000000,-1302.362347,10881.027347
28687.562923,-370.102971,1762.019645,10955.047942
28687.563252,592.164754,1838.629195,10140.821405
28687.563580,518.144159,-306.438199,9178.553681
28687.563908,296.082377,-1455.581446,7476.080014
28687.564237,0.000000,2145.067394,9474.636058
28687.564565,1184.329507,4443.353888,9696.697840
28687.564893,148.041188,2451.505594,10140.821405
28687.565222,0.000000,-1915.238745,9178.553681
28687.565550,74.020594,-1072.533697,8808.450710
28687.565878,1776.494261,2834.553343,9992.780217
28687.566207,1850.514855,4136.915689,10140.821405
28687.566535,518.144159,2145.067394,9770.718434
28687.566863,222.061783,-766.095498,8364.327145
28687.567192,0.000000,76.609550,8068.244768
28687.567520,-444.123565,2145.067394,8438.347739
28687.567848,296.082377,3064.381992,9474.636058
28687.568176,814.226536,1378.971896,9326.594869
28687.568505,1554.432478,1149.143247,9104.533087
28687.568833,3552.988522,1225.752797,8364.327145
28687.569161,3478.967927,2451.505594,8512.368333
28687.569490,1332.370696,4596.572988,9770.718434
28687.569818,1406.391290,2604.724693,8586.388927
28687.570146,1702.473667,-459.657299,8438.347739
28687.570475,-1924.535449,-1302.362347,10510.924376
28687.570803,-3627.009116,612.876398,9992.780217
28687.571131,-3478.967927,0.000000,9622.677246
28687.571460,-1850.514855,-3140.991542,9770.718434
28687.571788,-2442.679609,-2834.553343,11325.150913
28687.572116,-2146.597232,0.000000,10510.924376
28687.572445,-888.247130,2681.334243,9770.718434
28687.572773,518.144159,1225.752797,7476.080014
28687.573101,222.061783,-1455.581446,7698.141797
28687.573429,-1036.288319,1762.019645,8586.388927
28687.573758,-444.123565,3217.601092,9178.553681
28687.574086,1702.473667,1762.019645,8512.368333
28687.574414,1406.391290,-1302.362347,9844.739029
28687.574743,-444.123565,76.609550,9992.780217
28687.575071,444.123565,1302.362347,7846.182985
28687.575399,1702.473667,689.485948,9622.677246
28687.575728,888.247130,-995.924147,10288.862594
28687.576056,-666.185348,-306.438199,9696.697840
28687.576384,-1554.432478,1378.971896,9474.636058
28687.576713,-740.205942,306.438199,8290.306550
28687.577041,-962.267725,-766.095498,7772.162391
28687.577369,-2738.761985,-536.266849,7772.162391
28687.577698,-1702.473667,919.314598,7105.977043
28687.578026,74.020594,842.705048,7550.100608
28687.578354,-148.041188,1455.581446,10066.800811
28687.578682,-1702.473667,0.000000,8586.388927
28687.579011,-1184.329507,-2298.286494,6661.853478
28687.579339,-444.123565,-1991.848295,8660.409521
28687.579667,-518.144159,612.876398,10436.903782
28687.579996,888.247130,1225.752797,10881.027347
28687.580324,2960.823768,-306.438199,10510.924376
28687.580652,4367.215058,-1838.629195,9474.636058
28687.580981,4885.359217,383.047749,10436.903782
28687.581309,4293.194464,3753.867940,11621.233289
28687.581637,3478.967927,3294.210641,10362.883188
28687.581966,1924.535449,-1072.533697,9474.636058
28687.582294,1110.308913,-3294.210641,9252.574275
28687.582622,-2812.782580,-383.047749,11473.192101
28687.582951,-4441.235652,919.314598,10436.903782
28687.583279,-4515.256246,-2987.772442,9252.574275
28687.583607,-4663.297435,-6358.592633,9252.574275
28687.583935,-4367.215058,-3140.991542,10066.800811
28687.584264,-3108.864956,2681.334243,9770.718434
28687.584592,-1850.514855,2068.457845,9252.574275
28687.584920,-296.082377,-612.876398,7031.956449
28687.585249,296.082377,-536.266849,7105.977043
28687.585577,0.000000,3140.991542,8512.368333
28687.585905,2442.679609,4979.620737,8734.430116
28687.586234,3701.029710,2757.943793,9918.759623
28687.586562,3775.050304,1072.533697,10436.903782
28687.586890,4367.215058,1838.629195,8438.347739
28687.587219,4589.276840,4596.572988,9696.697840
28687.587547,3552.988522,4826.401637,10658.965565
28687.587875,2886.803174,2757.943793,10066.800811
28687.588204,1036.288319,536.266849,9548.656652
28687.588532,-518.144159,842.705048,9474.636058
28687.588860,-666.185348,1991.848295,9474.636058
28687.589188,-2960.823768,1838.629195,9548.656652
28687.589517,-3701.029710,-383.047749,8438.347739
28687.589845,-3182.885551,-1608.800546,8068.244768
28687.590173,-2368.659014,536.266849,10066.800811
28687.590502,-2072.576638,2757.943793,10066.800811
28687.590830,-2368.659014,2068.457845,8882.471304
28687.591158,-1628.453072,-919.314598,7624.121203
28687.591487,-2368.659014,-383.047749,8216.285956
28687.591815,-1702.473667,766.095498,9030.512492
28687.592143,-222.061783,2145.067394,10214.842000
28687.592472,1406.391290,766.095498,9770.718434
28687.592800,2516.700203,76.609550,10436.903782
28687.593128,3552.988522,2451.505594,11251.130318
28687.593457,4515.256246,4903.011187,10066.800811
28687.593785,4071.132681,2681.334243,7772.162391
28687.594113,2886.803174,-919.314598,7254.018232
28687.594441,-296.082377,0.000000,8142.265362
28687.594770,-1406.391290,2911.162892,9474.636058
28687.595098,-1554.432478,1915.238745,9770.718434
28687.595426,-1924.535449,-2757.943793,8512.368333
28687.595755,-2072.576638,-4826.401637,7402.059420
28687.596083,-1184.329507,-1072.533697,8808.450710
28687.596411,-1110.308913,2145.067394,8956.491898
28687.596740,-814.226536,-153.219100,8808.450710
28687.597068,-888.247130,-4290.134789,8290.306550
28687.597396,-2886.803174,-2834.553343,8956.491898
28687.597725,-2738.761985,-383.047749,9548.656652
28687.598053,-444.123565,-1149.143247,9252.574275
28687.598381,-222.061783,-2757.943793,10732.986159
28687.598710,-814.226536,-3140.991542,9918.759623
28687.599038,814.226536,-1915.238745,9918.759623
28687.599366,1258.350101,-919.314598,11251.130318
28687.599694,666.185348,-76.609550,11843.295072
28687.600023,0.000000,-1685.410096,9474.636058
28687.600351,-592.164754,-2145.067394,8734.430116
28687.600679,-740.205942,-842.705048,10288.862594
28687.601008,148.041188,383.047749,10881.027347
28687.601336,0.000000,-1762.019645,8660.409521
28687.601664,296.082377,-2145.067394,8438.347739
28687.601993,1850.514855,383.047749,10140.821405
28687.602321,2294.638420,3983.696590,10214.842000
28687.602649,2294.638420,3294.210641,9548.656652
28687.602978,814.226536,0.000000,7994.224174
28687.603306,0.000000,-229.828649,7402.059420
28687.603634,222.061783,2987.772442,8364.327145
28687.603963,518.144159,3370.820191,8808.450710
28687.604291,-1480.411884,1608.800546,8660.409521
28687.604619,-222.061783,0.000000,7994.224174
28687.604947,2072.576638,1302.362347,8956.491898
28687.605276,592.164754,4213.525239,10584.944971
28687.605604,-296.082377,5439.278036,7920.203579
28687.605932,1036.288319,1762.019645,6661.853478
28687.606261,1110.308913,-153.219100,6809.894666
28687.606589,-888.247130,2451.505594,8512.368333
28687.606917,-1036.288319,4443.353888,8882.471304
28687.607246,592.164754,2681.334243,9252.574275
28687.607574,1406.391290,76.609550,8956.491898
28687.607902,2146.597232,306.438199,10807.006753
28687.608231,2960.823768,4136.915689,11843.295072
28687.608559,2886.803174,6665.030833,12139.377449
28687.608887,2294.638420,3217.601092,11843.295072
28687.609216,296.082377,-1532.190996,10362.883188
28687.609544,-2442.679609,-1072.533697,10214.842000
28687.609872,-3478.967927,306.438199,10510.924376
28687.610200,-3552.988522,383.047749,11473.192101
28687.610529,-4071.132681,-2145.067394,9178.553681
28687.610857,-2886.803174,-3064.381992,8660.409521
28687.611185,-1480.411884,0.000000,9474.636058
28687.611514,-1184.329507,4290.134789,9030.512492
28687.611842,518.144159,2451.505594,7179.997637
28687.612170,-222.061783,-1608.800546,6069.688724
28687.612499,0.000000,-842.705048,7328.038826
28687.612827,3108.864956,2298.286494,8142.265362
28687.613155,1776.494261,3524.039291,11103.089130
28687.613484,-666.185348,-153.219100,10214.842000
28687.613812,1184.329507,-4136.915689,8438.347739
28687.614140,2516.700203,-3064.381992,9474.636058
28687.614469,888.247130,1455.581446,10510.924376
28687.614797,-222.061783,1149.143247,9252.574275
28687.615125,-1036.288319,-3830.477490,9252.574275
28687.615453,-2072.576638,-4213.525239,9548.656652
28687.615782,-3182.885551,-2221.676944,8956.491898
28687.616110,-3849.070898,-919.314598,9622.677246
28687.616438,-3478.967927,-2757.943793,9918.759623
28687.616767,-2516.700203,-3370.820191,8956.491898
28687.617095,1184.329507,-2451.505594,10955.047942
28687.617423,1406.391290,459.657299,10510.924376
28687.617752,740.205942,1302.362347,9918.759623
28687.618080,1776.494261,-229.828649,9030.512492
28687.618408,1628.453072,-306.438199,10066.800811
28687.618737,740.205942,842.705048,10288.862594
28687.619065,1036.288319,842.705048,8882.471304
28687.619393,1850.514855,-306.438199,8290.306550
28687.619722,2664.741391,-229.828649,8142.265362
28687.620050,2738.761985,2451.505594,9844.739029
28687.620378,2590.720797,4213.525239,10066.800811
28687.620706,3256.906145,3600.648841,8956.491898
28687.621035,2886.803174,1455.581446,7994.224174
28687.621363,296.082377,1915.238745,5773.606348
28687.621691,-1702.473667,2757.943793,5699.585753
28687.622020,-1406.391290,2451.505594,7846.182985
28687.622348,-3034.844362,1532.190996,8734.430116
28687.622676,-3552.988522,-842.705048,7402.059420
28687.623005,-2072.576638,-1225.752797,8956.491898
28687.623333,-1702.473667,306.438199,10140.821405
28687.623661,-444.123565,3677.258390,9400.615463
28687.623990,888.247130,995.924147,9252.574275
28687.624318,296.082377,-536.266849,8956.491898
28687.624646,370.102971,1302.362347,8956.491898
28687.624975,962.267725,2987.772442,10584.944971
28687.625303,296.082377,2451.505594,10658.965565
28687.625631,518.144159,0.000000,10288.862594
28687.625959,2294.638420,229.828649,11621.233289
28687.626288,2812.782580,1762.019645,11917.315666
28687.626616,518.144159,2681.334243,10584.944971
28687.626944,0.000000,229.828649,9252.574275
28687.627273,0.000000,-1378.971896,8068.244768
28687.627601,-1480.411884,229.828649,7846.182985
28687.627929,-1776.494261,1838.629195,10288.862594
28687.628258,-888.247130,1838.629195,9474.636058
28687.628586,-1184.329507,-229.828649,8438.347739
28687.628914,962.267725,-1149.143247,7994.224174
28687.629243,1554.432478,612.876398,7772.162391
28687.629571,888.247130,3830.477490,8068.244768
28687.629899,1924.535449,3600.648841,9770.718434
28687.630228,1776.494261,842.705048,9844.739029
28687.630556,-962.267725,-459.657299,9474.636058
28687.630884,-2146.597232,-1608.800546,7624.121203
28687.631212,-2886.803174,-842.705048,8216.285956
28687.631541,-2812.782580,-1149.143247,9770.718434
28687.631869,-2146.597232,-1225.752797,11251.130318
28687.632197,-2368.659014,-842.705048,12065.356855
28687.632526,-1480.411884,-1149.143247,10066.800811
28687.632854,-592.164754,-995.924147,8142.265362
28687.633182,222.061783,-919.314598,8586.388927
28687.633511,-814.226536,766.095498,8882.471304
28687.633839,-222.061783,1225.752797,9400.615463
28687.634167,1258.350101,-383.047749,10066.800811
28687.634496,666.185348,-612.876398,9696.697840
28687.634824,740.205942,-229.828649,8364.327145
28687.635152,3256.906145,842.705048,9622.677246
28687.635481,3997.112087,1455.581446,11695.253884
28687.635809,3182.885551,612.876398,12213.398043
28687.636137,3034.844362,-919.314598,10658.965565
28687.636465,2294.638420,-1225.752797,8882.471304
28687.636794,592.164754,0.000000,9252.574275
28687.637122,-1480.411884,842.705048,8956.491898
28687.637450,-2442.679609,-612.876398,9622.677246
28687.637779,-2368.659014,-2834.553343,9992.780217
28687.638107,-1554.432478,-2374.896044,9474.636058
28687.638435,-2738.761985,383.047749,9696.697840
28687.638764,-3701.029710,1685.410096,8290.306550
28687.639092,-3256.906145,-153.219100,7105.977043
28687.639420,-2590.720797,-2145.067394,5477.523971
28687.639749,-1924.535449,-919.314598,7476.080014
28687.640077,-2146.597232,1838.629195,9252.574275
28687.640406,-666.185348,2987.772442,8660.409521
28687.640734,2220.617826,1225.752797,8512.368333
28687.641062,4959.379811,0.000000,9696.697840
28687.641391,5773.606348,3524.039291,9770.718434
28687.641719,7105.977043,6281.983084,8956.491898
28687.642048,7698.141797,4903.011187,9622.677246
28687.642376,5847.626942,2451.505594,9474.636058
28687.642704,3478.967927,2451.505594,9474.636058
28687.643033,2220.617826,2681.334243,9548.656652
28687.643361,-222.061783,2451.505594,9252.574275
28687.643690,-2072.576638,-229.828649,8660.409521
28687.644018,-2442.679609,-1378.971896,8956.491898
28687.644346,-2294.638420,1149.143247,9918.759623
28687.644675,-4071.132681,1838.629195,9622.677246
28687.645003,-3701.029710,-766.095498,8438.347739
28687.645332,-5699.585753,-2451.505594,8290.306550
28687.645660,-7624.121203,-1149.143247,8142.265362
28687.645988,-4441.235652,-612.876398,8512.368333
28687.646317,-3330.926739,-766.095498,8660.409521
28687.646645,-2368.659014,459.657299,10066.800811
28687.646974,962.267725,229.828649,8808.450710
28687.647302,3775.050304,1149.143247,10140.821405
28687.647630,5329.482782,3140.991542,10140.821405
28687.647959,6365.771101,4826.401637,9844.739029
28687.648287,5847.626942,3524.039291,9178.553681
28687.648616,6217.729913,3064.381992,8290.306550
28687.648944,4737.318029,3140.991542,9844.739029
28687.649273,2738.761985,2987.772442,10362.883188
28687.649601,296.082377,306.438199,7328.038826
28687.649929,-518.144159,-3600.648841,7476.080014
28687.650258,-814.226536,-2221.676944,10436.903782
28687.650586,-2664.741391,1225.752797,9992.780217
28687.650915,-4663.297435,229.828649,9844.739029
28687.651243,-4441.235652,-4519.963438,8438.347739
28687.651571,-6217.729913,-5439.278036,7624.121203
28687.651900,-6513.812290,-2221.676944,8512.368333
28687.652228,-4367.215058,-1302.362347,9104.533087
28687.652557,-4737.318029,-1838.629195,11251.130318
28687.652885,-3478.967927,-3064.381992,12213.398043
28687.653213,-1480.411884,-2987.772442,10732.986159
28687.653542,-814.226536,-2221.676944,11399.171507
28687.653870,666.185348,-689.485948,11399.171507
28687.654199,2146.597232,-689.485948,10584.944971
28687.654527,1554.432478,0.000000,11177.109724
28687.654855,1924.535449,995.924147,11325.150913
28687.655184,2960.823768,383.047749,9918.759623
28687.655512,3627.009116,459.657299,8660.409521
28687.655841,4441.235652,1455.581446,7846.182985
28687.656169,5847.626942,4366.744339,9400.615463
28687.656498,6735.874072,5745.716235,8660.409521
28687.656826,6883.915261,4443.353888,8364.327145
28687.657154,4367.215058,3064.381992,9548.656652
28687.657483,1776.494261,3524.039291,7846.182985
28687.657811,888.247130,2987.772442,7179.997637
28687.658140,-962.267725,459.657299,7994.224174
28687.658468,-3849.070898,-689.485948,8808.450710
28687.658796,-4737.318029,-383.047749,7402.059420
28687.659125,-3849.070898,-536.266849,8660.409521
28687.659453,-3849.070898,383.047749,9548.656652
28687.659782,-3701.029710,1991.848295,9770.718434
28687.660110,-1628.453072,2298.286494,8068.244768
28687.660438,-1480.411884,842.705048,6957.935855
28687.660767,-1036.288319,383.047749,7920.203579
28687.661095,-370.102971,2374.896044,10807.006753
28687.661424,0.000000,3600.648841,10658.965565
28687.661752,1998.556043,1685.410096,9622.677246
28687.662080,4737.318029,-766.095498,10140.821405
28687.662409,4663.297435,842.705048,10955.047942
28687.662737,3478.967927,5439.278036,11029.068536
28687.663066,4367.215058,4673.182538,10362.883188
28687.663394,4145.153275,-153.219100,8808.450710
28687.663723,2072.576638,-1302.362347,8290.306550
28687.664051,74.020594,2374.896044,9030.512492
28687.664379,0.000000,3677.258390,8290.306550
28687.664708,-666.185348,-229.828649,7105.977043
28687.665036,-1110.308913,-4366.744339,7994.224174
28687.665365,-3256.906145,-1762.019645,9622.677246
28687.665693,-4367.215058,2374.896044,9474.636058
28687.666021,-4219.173869,0.000000,9622.677246
28687.666350,-5255.462188,-6741.640382,7031.956449
28687.666678,-8438.347739,-7201.297681,7476.080014
28687.667007,-6291.750507,-2451.505594,8438.347739
28687.667335,-4737.318029,-459.657299,9622.677246
28687.667663,-4145.153275,-4136.915689,8660.409521
28687.667992,-2738.761985,-4826.401637,9918.759623
28687.668320,518.144159,-306.438199,9770.718434
28687.668649,3552.988522,3600.648841,9030.512492
28687.668977,4441.235652,1838.629195,8882.471304
28687.669305,3627.009116,-153.219100,9844.739029
28687.669634,2886.803174,0.000000,8808.450710
28687.669962,3775.050304,1225.752797,10288.862594
28687.670291,2072.576638,153.219100,12139.377449
28687.670619,74.020594,-2145.067394,10066.800811
28687.670947,0.000000,-2834.553343,10288.862594
28687.671276,2072.576638,-1762.019645,10881.027347
28687.671604,1184.329507,1378.971896,11399.171507
28687.671933,74.020594,1455.581446,10140.821405
28687.672261,-888.247130,-536.266849,8290.306550
28687.672590,-1554.432478,-919.314598,6143.709319
28687.672918,-1184.329507,383.047749,7920.203579
28687.673246,-2220.617826,1762.019645,9252.574275
28687.673575,-2886.803174,2221.676944,8734.430116
28687.673903,-962.267725,-612.876398,8216.285956
28687.674232,1480.411884,-1225.752797,9252.574275
28687.674560,1258.350101,2145.067394,9992.780217
28687.674888,2294.638420,4596.572988,9622.677246
28687.675217,3330.926739,4290.134789,9030.512492
28687.675545,4219.173869,2068.457845,8956.491898
28687.675874,3404.947333,2451.505594,7920.203579
28687.676202,2294.638420,3524.039291,9770.718434
28687.676530,1406.391290,4903.011187,9844.739029
28687.676859,2516.700203,1915.238745,7920.203579
28687.677187,2812.782580,383.047749,10436.903782
28687.677516,1110.308913,3140.991542,12139.377449
28687.677844,592.164754,4749.792088,10214.842000
28687.678172,666.185348,1302.362347,9030.512492
28687.678501,-1702.473667,-2528.115143,8142.265362
28687.678829,-4441.235652,-689.485948,8216.285956
28687.679158,-4219.173869,2374.896044,9548.656652
28687.679486,-4293.194464,2145.067394,10066.800811
28687.679815,-5329.482782,-1915.238745,10436.903782
28687.680143,-5847.626942,-3907.087040,10881.027347
28687.680471,-3404.947333,-306.438199,9252.574275
28687.680800,-1554.432478,3064.381992,9992.780217
28687.681128,-1110.308913,2145.067394,11473.192101
28687.681457,-740.205942,0.000000,8882.471304
28687.681785,-222.061783,-612.876398,6883.915261
28687.682113,1406.391290,1225.752797,9326.594869
28687.682442,1850.514855,3294.210641,9474.636058
28687.682770,2294.638420,2145.067394,8586.388927
28687.683099,5403.503377,1225.752797,9030.512492
28687.683427,7105.977043,1915.238745,8660.409521
28687.683755,5255.462188,3830.477490,8068.244768
28687.684084,5551.544565,3677.258390,7846.182985
28687.684412,4811.338623,2451.505594,7328.038826
28687.684741,3182.885551,689.485948,8068.244768
28687.685069,1628.453072,536.266849,9030.512492
28687.685397,-888.247130,-383.047749,8808.450710
28687.685726,-3552.988522,-1915.238745,8290.306550
28687.686054,-4071.132681,-3447.429741,9326.594869
28687.686383,-4071.132681,-4519.963438,9548.656652
28687.686711,-5033.400406,-2987.772442,11029.068536
28687.687039,-4441.235652,-3447.429741,10140.821405
28687.687368,-3404.947333,-4596.572988,8882.471304
28687.687696,-4367.215058,-4443.353888,8438.347739
28687.688025,-3478.967927,-2068.457845,9548.656652
28687.688353,-2294.638420,-306.438199,9400.615463
28687.688682,74.020594,-1685.410096,8512.368333
28687.689010,1850.514855,-1685.410096,10658.965565
28687.689338,3182.885551,0.000000,10658.965565
28687.689667,3849.070898,2911.162892,10214.842000
28687.689995,5921.647536,1685.410096,10658.965565
28687.690324,4811.338623,-766.095498,11103.089130
28687.690652,2738.761985,-459.657299,9918.759623
28687.690980,2590.720797,0.000000,9474.636058
28687.691309,1406.391290,842.705048,10955.047942
28687.691637,-592.164754,612.876398,10214.842000
28687.691966,-1184.329507,-229.828649,7254.018232
28687.692294,-296.082377,-1685.410096,6883.915261
28687.692622,-814.226536,612.876398,7772.162391
28687.692951,-2220.617826,3677.258390,8142.265362
28687.693279,-3997.112087,2068.457845,8660.409521
28687.693608,-4885.359217,-1225.752797,6661.853478
28687.693936,-5107.421000,-2528.115143,7254.018232
28687.694264,-6365.771101,-1685.410096,9252.574275
28687.694593,-5625.565159,-689.485948,9992.780217
28687.694921,-4811.338623,-1991.848295,10066.800811
28687.695250,-2664.741391,-3370.820191,11843.295072
28687.695578,0.000000,-459.657299,11843.295072
28687.695907,1776.494261,4290.134789,11991.336260
28687.696235,2294.638420,5286.058936,10807.006753
28687.696563,3775.050304,2757.943793,7772.162391
28687.696892,4811.338623,2451.505594,8438.347739
28687.697220,4737.318029,5439.278036,10658.965565
28687.697549,3849.070898,7507.735880,9992.780217
28687.697877,3182.885551,4136.915689,8586.388927
28687.698205,3775.050304,153.219100,8068.244768
28687.698534,3997.112087,1762.019645,9030.512492
28687.698862,3478.967927,6281.983084,9030.512492
28687.699191,2960.823768,6128.763984,9326.594869
28687.699519,1702.473667,1608.800546,7624.121203
28687.699847,370.102971,0.000000,6809.894666
28687.700176,0.000000,2528.115143,7550.100608
28687.700504,-1036.288319,4979.620737,8438.347739
28687.700833,-1332.370696,2528.115143,7920.203579
28687.701161,0.000000,-1149.143247,8512.368333
28687.701489,-1554.432478,-1149.143247,10288.862594
28687.701818,-1258.350101,2068.457845,9548.656652
28687.702146,1036.288319,1991.848295,9474.636058
28687.702475,-444.123565,-612.876398,9918.759623
28687.702803,-2146.597232,-1072.533697,8438.347739
28687.703131,-518.144159,-689.485948,8586.388927
28687.703460,-888.247130,-153.219100,11547.212695
28687.703788,-222.061783,-766.095498,10510.924376
28687.704117,-296.082377,-383.047749,11769.274478
28687.704445,1628.453072,-842.705048,11473.192101
28687.704774,3478.967927,76.609550,10510.924376
28687.705102,3034.844362,612.876398,10214.842000
28687.705430,1628.453072,-1072.533697,9622.677246
28687.705759,370.102971,-1225.752797,6809.894666
28687.706087,0.000000,-766.095498,9844.739029
28687.706416,-1332.370696,-383.047749,10214.842000
28687.706744,-3627.009116,-2068.457845,8512.368333
28687.707072,-4441.235652,-5362.668486,7994.224174
28687.707401,-2516.700203,-4673.182538,8512.368333
28687.707729,-3627.009116,-1762.019645,9844.739029
28687.708058,-3849.070898,-306.438199,10362.883188
28687.708386,-3404.947333,-2681.334243,8882.471304
28687.708714,-3108.864956,-5056.230287,7179.997637
28687.709043,-4145.153275,-2681.334243,9178.553681
28687.709371,-4219.173869,0.000000,8660.409521
28687.709700,-3552.988522,-689.485948,8808.450710
28687.710028,-1406.391290,-3830.477490,8364.327145
28687.710356,444.123565,-4060.306139,9104.533087
28687.710685,1110.308913,689.485948,10362.883188
28687.711013,2960.823768,3907.087040,9104.533087
28687.711342,3997.112087,2451.505594,8808.450710
28687.711670,4145.153275,-306.438199,8882.471304
28687.711999,4441.235652,1915.238745,9770.718434
28687.712327,4441.235652,3677.258390,10288.862594
28687.712655,3034.844362,4060.306139,11399.171507
28687.712984,3849.070898,1455.581446,11177.109724
28687.713312,3923.091493,0.000000,10140.821405
28687.713641,3552.988522,1762.019645,9844.739029
28687.713969,2886.803174,3600.648841,9770.718434
28687.714297,1406.391290,4443.353888,9770.718434
28687.714626,296.082377,2145.067394,8290.306550
28687.714954,-2294.638420,1072.533697,5995.668130
28687.715283,-3182.885551,306.438199,6883.915261
28687.715611,-3034.844362,3370.820191,9326.594869
28687.715939,-2516.700203,3907.087040,9030.512492
28687.716268,-2368.659014,1225.752797,8956.491898
28687.716596,-962.267725,-383.047749,8364.327145
28687.716925,1184.329507,1455.581446,9474.636058
28687.717253,740.205942,5056.230287,11325.150913
28687.717581,0.000000,3907.087040,9474.636058
28687.717910,1258.350101,842.705048,9400.615463
28687.718238,1702.473667,1225.752797,9918.759623
28687.718567,1332.370696,4519.963438,9400.615463
28687.718895,2368.659014,3294.210641,7920.203579
28687.719223,2738.761985,842.705048,7994.224174
28687.719552,2664.741391,1838.629195,9992.780217
28687.719880,2294.638420,4596.572988,11325.150913
28687.720209,1628.453072,4443.353888,10288.862594
28687.720537,0.000000,0.000000,7994.224174
28687.720866,-1480.411884,-2451.505594,7920.203579
28687.721194,-2516.700203,76.609550,9992.780217
28687.721522,-4367.215058,1532.190996,9844.739029
28687.721851,-4145.153275,-1915.238745,8512.368333
28687.722179,-3552.988522,-6281.983084,8808.450710
28687.722508,-3552.988522,-3983.696590,9844.739029
28687.722836,-2220.617826,1378.971896,10140.821405
28687.723164,-888.247130,1149.143247,9696.697840
28687.723493,-1110.308913,-2221.676944,9030.512492
28687.723821,148.041188,-3140.991542,7402.059420
28687.724150,370.102971,-689.485948,7476.080014
28687.724478,-296.082377,1455.581446,9030.512492
28687.724806,148.041188,229.828649,10214.842000
28687.725135,1924.535449,-2451.505594,11399.171507
28687.725463,2072.576638,-2374.896044,11325.150913
28687.725792,2294.638420,-536.266849,9770.718434
28687.726120,2368.659014,306.438199,10584.944971
28687.726448,1628.453072,459.657299,9400.615463
28687.726777,370.102971,-1532.190996,6735.874072
28687.727105,-592.164754,-2145.067394,7476.080014
28687.727434,-1702.473667,-995.924147,9030.512492
28687.727762,-3034.844362,612.876398,9474.636058
28687.728091,-3552.988522,-995.924147,9770.718434
28687.728419,-1554.432478,-5669.106685,8586.388927
28687.728747,0.000000,-3753.867940,8216.285956
28687.729076,296.082377,-229.828649,10732.986159
28687.729404,148.041188,2298.286494,10658.965565
28687.729733,148.041188,0.000000,8882.471304
28687.730061,1332.370696,-2145.067394,9400.615463
28687.730389,1036.288319,-842.705048,8808.450710
28687.730718,444.123565,1991.848295,9030.512492
28687.731046,1924.535449,2604.724693,9178.553681
28687.731375,2664.741391,459.657299,9474.636058
28687.731703,2220.617826,153.219100,11029.068536
28687.732031,2146.597232,2068.457845,11251.130318
28687.732360,1332.370696,3370.820191,9770.718434
28687.732688,1332.370696,1302.362347,7920.203579
28687.733017,888.247130,-1149.143247,8364.327145
28687.733345,-1702.473667,1455.581446,9400.615463
28687.733673,-2738.761985,3677.258390,9030.512492
28687.734002,-1702.473667,1225.752797,8438.347739
28687.734330,-1258.350101,-2451.505594,8142.265362
28687.734659,-2146.597232,689.485948,9252.574275
28687.734987,-1258.350101,5056.230287,9104.533087
28687.735316,1110.308913,3677.258390,8290.306550
28687.735644,1554.432478,1608.800546,7698.141797
28687.735972,-370.102971,919.314598,8364.327145
28687.736301,-1406.391290,3753.867940,7698.141797
28687.736629,148.041188,4443.353888,7476.080014
28687.736958,296.082377,2451.505594,10584.944971
28687.737286,-962.267725,612.876398,10140.821405
28687.737614,1554.432478,1685.410096,9770.718434
28687.737943,1998.556043,2068.457845,10214.842000
28687.738271,222.061783,1991.848295,10658.965565
28687.738600,-518.144159,1378.971896,9400.615463
28687.738928,592.164754,229.828649,7550.100608
28687.739256,222.061783,1378.971896,9400.615463
28687.739585,-666.185348,1455.581446,9252.574275
28687.739913,-444.123565,1608.800546,9696.697840
28687.740242,370.102971,1378.971896,9474.636058
28687.740570,1998.556043,-306.438199,9178.553681
28687.740898,2442.679609,0.000000,9992.780217
28687.741227,2442.679609,1915.238745,10362.883188
28687.741555,296.082377,3064.381992,10288.862594
28687.741884,888.247130,-766.095498,8364.327145
28687.742212,-370.102971,-4213.525239,8882.471304
28687.742541,-2072.576638,-2451.505594,9030.512492
28687.742869,-2442.679609,229.828649,10066.800811
28687.743198,-1184.329507,-842.705048,9918.759623
28687.743526,-1184.329507,-3294.210641,9400.615463
28687.743855,-370.102971,-3447.429741,8956.491898
28687.744183,-518.144159,536.266849,9252.574275
28687.744511,-444.123565,1685.410096,8364.327145
28687.744840,1184.329507,-1302.362347,8290.306550
28687.745168,-814.226536,-3217.601092,9474.636058
28687.745497,-1776.494261,-1149.143247,10214.842000
28687.745825,-1184.329507,995.924147,9474.636058
28687.746154,-296.082377,-612.876398,10436.903782
28687.746482,0.000000,-3677.258390,9548.656652
28687.746811,-370.102971,-2451.505594,8808.450710
28687.747139,0.000000,383.047749,10510.924376
28687.747468,296.082377,1072.533697,10288.862594
28687.747796,666.185348,-2221.676944,9252.574275
28687.748124,-740.205942,-1991.848295,10288.862594
28687.748453,-962.267725,1072.533697,8956.491898
28687.748781,0.000000,2298.286494,8068.244768
28687.749110,222.061783,306.438199,9474.636058
28687.749438,-222.061783,-842.705048,8438.347739
28687.749767,888.247130,995.924147,8290.306550
28687.750095,2960.823768,2298.286494,9474.636058
28687.750424,2146.597232,2681.334243,9918.759623
28687.750752,-1110.308913,1225.752797,9104.533087
28687.751081,-1480.411884,-536.266849,7031.956449
28687.751409,-296.082377,-689.485948,7179.997637
28687.751737,-1776.494261,1838.629195,8956.491898
28687.752066,-1332.370696,2221.676944,9548.656652
28687.752394,-1036.288319,842.705048,7402.059420
28687.752723,814.226536,-612.876398,8808.450710
28687.753051,2072.576638,842.705048,10807.006753
28687.753380,1110.308913,4596.572988,10214.842000
28687.753708,1628.453072,4596.572988,9030.512492
28687.754037,1998.556043,306.438199,7476.080014
28687.754365,74.020594,612.876398,7994.224174
28687.754694,0.000000,2681.334243,9030.512492
28687.755022,444.123565,3830.477490,9622.677246
28687.755351,370.102971,1302.362347,9622.677246
28687.755679,2294.638420,76.609550,8660.409521
28687.756007,1554.432478,3140.991542,11473.192101
28687.756336,1036.288319,4903.011187,10881.027347
28687.756664,1406.391290,2604.724693,7698.141797
28687.756993,1110.308913,-1378.971896,8438.347739
28687.757321,-518.144159,306.438199,9326.594869
28687.757650,-518.144159,3830.477490,9252.574275
28687.757978,74.020594,1378.971896,9474.636058
28687.758307,-814.226536,-1225.752797,10510.924376
28687.758635,-1110.308913,-1532.190996,10658.965565
28687.758964,592.164754,1072.533697,10955.047942
28687.759292,2442.679609,2068.457845,10140.821405
28687.759620,1850.514855,1685.410096,9622.677246
28687.759949,1406.391290,995.924147,9252.574275
28687.760277,888.247130,1378.971896,7920.203579
28687.760606,-148.041188,2374.896044,7846.182985
28687.760934,-1480.411884,1072.533697,9622.677246
28687.761263,-2368.659014,-1302.362347,8956.491898
28687.761591,-2368.659014,-2451.505594,8364.327145
28687.761920,-1702.473667,-2145.067394,9918.759623
28687.762248,-1332.370696,-536.266849,10658.965565
28687.762577,-1850.514855,306.438199,9696.697840
28687.762905,-2442.679609,-2145.067394,7920.203579
28687.763234,-2812.782580,-3064.381992,8068.244768
28687.763562,-2590.720797,-2374.896044,8512.368333
28687.763890,-2368.659014,383.047749,9770.718434
28687.764219,-888.247130,1149.143247,10288.862594
28687.764547,740.205942,-1302.362347,9548.656652
28687.764876,2664.741391,-612.876398,11547.212695
28687.765204,2368.659014,1072.533697,11769.274478
28687.765533,1628.453072,1455.581446,10288.862594
28687.765861,1480.411884,-995.924147,9252.574275
28687.766190,1184.329507,-2834.553343,9474.636058
28687.766518,-222.061783,-919.314598,9400.615463
28687.766847,-1628.453072,1991.848295,9844.739029
28687.767175,-1480.411884,383.047749,9400.615463
28687.767503,-1406.391290,-1838.629195,8808.450710
28687.767832,74.020594,-2068.457845,9474.636058
28687.768160,962.267725,1302.362347,9400.615463
28687.768489,1258.350101,3064.381992,8216.285956
28687.768817,1258.350101,919.314598,7550.100608
28687.769146,444.123565,-995.924147,7698.141797
28687.769474,-962.267725,1072.533697,8364.327145
28687.769803,-1110.308913,2757.943793,8956.491898
28687.770131,0.000000,229.828649,9252.574275
28687.770460,-518.144159,-1532.190996,9474.636058
28687.770788,148.041188,-919.314598,9474.636058
28687.771116,1628.453072,1762.019645,9770.718434
28687.771445,2516.700203,2528.115143,9844.739029
28687.771773,1776.494261,1762.019645,8512.368333
28687.772102,518.144159,1149.143247,7328.038826
28687.772430,-592.164754,1225.752797,7920.203579
28687.772759,-370.102971,2451.505594,9400.615463
28687.773087,-296.082377,1455.581446,10510.924376
28687.773416,-1258.350101,0.000000,9326.594869
28687.773744,370.102971,-995.924147,8290.306550
28687.774073,962.267725,383.047749,10288.862594
28687.774401,0.000000,2604.724693,11621.233289
28687.774730,-888.247130,2145.067394,10584.944971
28687.775058,666.185348,-842.705048,8216.285956
28687.775386,1258.350101,-689.485948,8882.471304
28687.775715,222.061783,2451.505594,8438.347739
28687.776043,592.164754,3983.696590,7772.162391
28687.776372,0.000000,2374.896044,8216.285956
28687.776700,518.144159,-229.828649,7624.121203
28687.777029,2738.761985,459.657299,9696.697840
28687.777357,2664.741391,2451.505594,10140.821405
28687.777686,814.226536,4596.572988,10881.027347
28687.778014,370.102971,153.219100,8660.409521
28687.778343,0.000000,-2298.286494,8586.388927
28687.778671,-888.247130,-689.485948,8438.347739
28687.778999,-2516.700203,2145.067394,8882.471304
28687.779328,-1776.494261,1532.190996,9252.574275
28687.779656,-444.123565,-1225.752797,9178.553681
28687.779985,74.020594,-1378.971896,10807.006753
28687.780313,148.041188,919.314598,10955.047942
28687.780642,888.247130,3294.210641,10658.965565
28687.780970,1998.556043,1455.581446,10066.800811
28687.781299,444.123565,-1302.362347,8660.409521
28687.781627,-1480.411884,-766.095498,9548.656652
28687.781956,-1850.514855,766.095498,9474.636058
28687.782284,-1036.288319,383.047749,10288.862594
28687.782612,-666.185348,-2528.115143,9326.594869
28687.782941,-2072.576638,-2451.505594,10066.800811
28687.783269,-666.185348,-766.095498,10288.862594
28687.783598,-962.267725,2528.115143,11399.171507
28687.783926,-296.082377,0.000000,9992.780217
28687.784255,-1110.308913,-3524.039291,7698.141797
28687.784583,-1850.514855,-2145.067394,7476.080014
28687.784912,-740.205942,1991.848295,9696.697840
28687.785240,74.020594,2528.115143,10436.903782
28687.785569,-1110.308913,-919.314598,9178.553681
28687.785897,814.226536,-2604.724693,9104.533087
28687.786226,3923.091493,-536.266849,9548.656652
28687.786554,2664.741391,4290.134789,10658.965565
28687.786882,1036.288319,2911.162892,9992.780217
28687.787211,592.164754,-2451.505594,8068.244768
28687.787539,-370.102971,-3064.381992,9548.656652
28687.787868,-1406.391290,-766.095498,9474.636058
28687.788196,-1850.514855,689.485948,9252.574275
28687.788525,-2294.638420,-2528.115143,8216.285956
28687.788853,222.061783,-2757.943793,8512.368333
28687.789182,1924.535449,1072.533697,10955.047942
28687.789510,148.041188,4519.963438,9918.759623
28687.789839,1110.308913,1762.019645,6069.688724
28687.790167,2590.720797,-1532.190996,6735.874072
28687.790495,-296.082377,766.095498,8586.388927
28687.790824,-1554.432478,3140.991542,8216.285956
28687.791152,-296.082377,1915.238745,9178.553681
28687.791481,0.000000,-1915.238745,8808.450710
28687.791809,222.061783,-1685.410096,9104.533087
28687.792138,962.267725,1915.238745,9696.697840
28687.792466,2516.700203,3907.087040,10955.047942
28687.792795,2590.720797,3140.991542,10140.821405
28687.793123,2294.638420,0.000000,10140.821405
28687.793452,1184.329507,1072.533697,8956.491898
28687.793780,518.144159,3064.381992,7994.224174
28687.794109,666.185348,2528.115143,9400.615463
28687.794437,518.144159,536.266849,9326.594869
28687.794765,74.020594,76.609550,9474.636058
28687.795094,814.226536,2221.676944,10288.862594
28687.795422,1480.411884,2834.553343,9326.594869
28687.795751,444.123565,2834.553343,8956.491898
28687.796079,0.000000,1608.800546,6809.894666
28687.796408,-444.123565,1532.190996,6217.729913
28687.796736,-2146.597232,2757.943793,8364.327145
28687.797065,-2146.597232,1149.143247,9252.574275
28687.797393,-2812.782580,459.657299,9178.553681
28687.797722,-2516.700203,-2528.115143,7772.162391
28687.798050,-1776.494261,-1225.752797,9992.780217
28687.798378,-296.082377,383.047749,10584.944971
28687.798707,-1110.308913,2451.505594,10658.965565
28687.799035,0.000000,-689.485948,9252.574275
28687.799364,-592.164754,-3447.429741,8512.368333
28687.799692,-740.205942,689.485948,9178.553681
28687.800021,-444.123565,3294.210641,10807.006753
28687.800349,0.000000,2068.457845,11029.068536
28687.800678,592.164754,-2145.067394,9326.594869
28687.801006,1776.494261,-1455.581446,10732.986159
28687.801335,1036.288319,995.924147,9992.780217
28687.801663,592.164754,2987.772442,8586.388927
28687.801991,740.205942,0.000000,9474.636058
28687.802320,0.000000,-2757.943793,9178.553681
28687.802648,-1258.350101,-689.485948,9030.512492
28687.802977,-2072.576638,76.609550,9030.512492
28687.803305,-1998.556043,-766.095498,9474.636058
28687.803634,-1998.556043,-2987.772442,9326.594869
28687.803962,-1110.308913,-2528.115143,10584.944971
28687.804291,-666.185348,-306.438199,10807.006753
28687.804619,0.000000,-229.828649,9104.533087
28687.804948,1036.288319,-1072.533697,8882.471304
28687.805276,1184.329507,-1378.971896,9474.636058
28687.805605,-518.144159,1608.800546,9844.739029
28687.805933,1702.473667,1608.800546,8216.285956
28687.806261,2812.782580,-383.047749,9918.759623
28687.806590,444.123565,-1072.533697,9474.636058
28687.806918,222.061783,383.047749,9400.615463
28687.807247,2738.761985,306.438199,9252.574275
28687.807575,2960.823768,612.876398,10214.842000
28687.807904,1406.391290,612.876398,10288.862594
28687.808232,1258.350101,536.266849,9400.615463
28687.808561,1702.473667,842.705048,9326.594869
28687.808889,222.061783,842.705048,9770.718434
28687.809218,-1258.350101,383.047749,11473.192101
28687.809546,-1258.350101,0.000000,8512.368333
28687.809874,-518.144159,-536.266849,7698.141797
28687.810203,518.144159,-536.266849,9770.718434
28687.810531,-666.185348,2451.505594,10955.047942
28687.810860,-296.082377,2528.115143,9326.594869
28687.811188,74.020594,689.485948,7031.956449
28687.811517,-740.205942,-1225.752797,6883.915261
28687.811845,-1702.473667,1225.752797,8438.347739
28687.812174,-2368.659014,4979.620737,9474.636058
28687.812502,-1480.411884,2451.505594,7328.038826
28687.812831,1110.308913,-2987.772442,6735.874072
28687.813159,1554.432478,0.000000,10066.800811
28687.813488,1998.556043,6741.640382,11103.089130
28687.813816,2368.659014,7124.688131,9844.739029
28687.814144,2220.617826,-383.047749,8660.409521
28687.814473,518.144159,-2911.162892,7550.100608
28687.814801,-370.102971,2604.724693,7846.182985
28687.815130,444.123565,6052.154434,8956.491898
28687.815458,0.000000,2681.334243,9474.636058
28687.815787,-1036.288319,-2757.943793,9326.594869
28687.816115,222.061783,-1378.971896,10288.862594
28687.816444,1702.473667,3600.648841,10436.903782
28687.816772,814.226536,5592.497135,10658.965565
28687.817101,592.164754,1072.533697,8586.388927
28687.817429,-740.205942,-2451.505594,7105.977043
28687.817757,-1702.473667,153.219100,7550.100608
28687.818086,-1924.535449,2528.115143,9696.697840
28687.818414,-2442.679609,459.657299,10214.842000
28687.818743,-2738.761985,-2145.067394,9548.656652
28687.819071,-962.267725,-2221.676944,10288.862594
28687.819400,1554.432478,229.828649,10955.047942
28687.819728,2220.617826,3294.210641,9918.759623
28687.820057,3404.947333,1532.190996,9622.677246
28687.820385,3034.844362,383.047749,9770.718434
28687.820714,3256.906145,383.047749,8882.471304
28687.821042,2960.823768,2451.505594,11325.150913
28687.821370,370.102971,1838.629195,10658.965565
28687.821699,-3256.906145,-1149.143247,7994.224174
28687.822027,-2738.761985,-3064.381992,10955.047942
28687.822356,-518.144159,-2528.115143,11843.295072
28687.822684,-2294.638420,-383.047749,9400.615463
28687.823013,-3849.070898,-2145.067394,7846.182985
28687.823341,-3034.844362,-4443.353888,7105.977043
28687.823670,-3849.070898,-1685.410096,8364.327145
28687.823998,-3330.926739,-153.219100,10288.862594
28687.824327,-2812.782580,0.000000,9474.636058
28687.824655,-1628.453072,-3370.820191,6661.853478
28687.824984,222.061783,-766.095498,9474.636058
28687.825312,3404.947333,2298.286494,10140.821405
28687.825640,3627.009116,2681.334243,10510.924376
28687.825969,3108.864956,-229.828649,9770.718434
28687.826297,3182.885551,-1225.752797,8734.430116
28687.826626,2738.761985,689.485948,8512.368333
28687.826954,888.247130,3140.991542,10066.800811
28687.827283,-296.082377,2068.457845,9770.718434
28687.827611,-518.144159,-2068.457845,8956.491898
28687.827940,-370.102971,-2911.162892,10140.821405
28687.828268,444.123565,-229.828649,10955.047942
28687.828597,666.185348,3064.381992,10658.965565
28687.828925,1258.350101,2681.334243,10066.800811
28687.829253,592.164754,-383.047749,8956.491898
28687.829582,-1332.370696,306.438199,7254.018232
28687.829910,-1036.288319,2068.457845,7179.997637
28687.830239,-592.164754,2374.896044,8660.409521
28687.830567,-1924.535449,1149.143247,9104.533087
28687.830896,-2072.576638,0.000000,8364.327145
28687.831224,-148.041188,0.000000,8956.491898
28687.831553,740.205942,612.876398,9326.594869
28687.831881,592.164754,1838.629195,10658.965565
28687.832210,1332.370696,1838.629195,9474.636058
28687.832538,1110.308913,1685.410096,7994.224174
28687.832866,2442.679609,1302.362347,7328.038826
28687.833195,1998.556043,2911.162892,9326.594869
28687.833523,0.000000,4903.011187,8068.244768
28687.833852,1110.308913,2681.334243,7550.100608
28687.834180,2368.659014,842.705048,9474.636058
28687.834509,2072.576638,1378.971896,9770.718434
28687.834837,740.205942,4596.572988,8882.471304
28687.835166,370.102971,1608.800546,7254.018232
28687.835494,-1480.411884,-995.924147,8512.368333
28687.835823,-1998.556043,-306.438199,9474.636058
28687.836151,-2442.679609,919.314598,11177.109724
28687.836480,-2516.700203,842.705048,10658.965565
28687.836808,-1850.514855,-1762.019645,9474.636058
28687.837136,518.144159,-1685.410096,10955.047942
28687.837465,1480.411884,1532.190996,10807.006753
28687.837793,0.000000,3524.039291,9400.615463
28687.838122,296.082377,459.657299,8660.409521
28687.838450,1406.391290,-1608.800546,8142.265362
28687.838779,0.000000,689.485948,9770.718434
28687.839107,-2442.679609,1991.848295,10214.842000
28687.839436,-3627.009116,-229.828649,8808.450710
28687.839764,-2960.823768,-3830.477490,7772.162391
28687.840093,-592.164754,-4213.525239,9252.574275
28687.840421,-740.205942,-842.705048,8956.491898
28687.840749,-1998.556043,2987.772442,9400.615463
28687.841078,-444.123565,1455.581446,10658.965565
28687.841406,148.041188,-2451.505594,8956.491898
28687.841735,-1332.370696,-2911.162892,7328.038826
28687.842063,-1332.370696,-536.266849,8364.327145
28687.842392,-888.247130,1685.410096,8956.491898
28687.842720,222.061783,229.828649,9992.780217
28687.843049,962.267725,-1149.143247,10807.006753
28687.843377,1776.494261,-2528.115143,9992.780217
28687.843705,1554.432478,0.000000,9844.739029
28687.844034,1184.329507,2068.457845,11103.089130
28687.844362,1702.473667,0.000000,10732.986159
28687.844690,1332.370696,-1915.238745,9696.697840
28687.845019,888.247130,-1532.190996,10510.924376
28687.845347,370.102971,766.095498,11621.233289
28687.845675,-444.123565,383.047749,9400.615463
28687.846004,222.061783,-1532.190996,9400.615463
28687.846332,1850.514855,-995.924147,9918.759623
28687.846660,1332.370696,2298.286494,10436.903782
28687.846989,518.144159,4136.915689,9326.594869
28687.847317,740.205942,766.095498,6883.915261
28687.847645,296.082377,-1532.190996,6291.750507
28687.847974,-1036.288319,1149.143247,7846.182985
28687.848302,-2146.597232,3830.477490,9622.677246
28687.848630,-1258.350101,1302.362347,8586.388927
28687.848959,0.000000,-2604.724693,8734.430116
28687.849287,740.205942,-1915.238745,9992.780217
28687.849615,814.226536,3370.820191,8586.388927
28687.849944,1702.473667,4903.011187,9326.594869
28687.850272,3108.864956,1838.629195,9104.533087
28687.850600,1924.535449,0.000000,8586.388927
28687.850929,148.041188,2068.457845,8808.450710
28687.851257,74.020594,3753.867940,9104.533087
28687.851585,148.041188,2451.505594,8586.388927
28687.851914,296.082377,306.438199,9400.615463
28687.852242,518.144159,0.000000,9992.780217
28687.852570,1184.329507,3217.601092,9844.739029
28687.852899,1406.391290,3983.696590,10066.800811
28687.853227,1406.391290,1838.629195,8734.430116
28687.853555,-518.144159,689.485948,7031.956449
28687.853884,-1332.370696,2757.943793,6661.853478
28687.854212,-370.102971,3600.648841,7772.162391
28687.854540,-1184.329507,1302.362347,9178.553681
28687.854869,-3997.112087,-766.095498,9178.553681
28687.855197,-3627.009116,-1149.143247,9104.533087
28687.855525,-1036.288319,-383.047749,9178.553681
28687.855854,-814.226536,1225.752797,11325.150913
28687.856182,-444.123565,689.485948,10732.986159
28687.856510,-592.164754,306.438199,8290.306550
28687.856839,-148.041188,766.095498,8808.450710
28687.857167,-296.082377,1302.362347,11029.068536
28687.857495,-962.267725,1455.581446,10066.800811
28687.857824,-962.267725,0.000000,7698.141797
28687.858152,0.000000,-1532.190996,8364.327145
28687.858480,1110.308913,-1608.800546,9992.780217
28687.858809,-444.123565,1532.190996,10362.883188
28687.859137,-592.164754,-306.438199,10732.986159
28687.859465,-296.082377,-3140.991542,10066.800811
28687.859794,-444.123565,-3370.820191,10066.800811
28687.860122,-1184.329507,-1072.533697,10436.903782
28687.860450,-1258.350101,0.000000,10436.903782
28687.860779,-370.102971,-2911.162892,8438.347739
28687.861107,1110.308913,-3524.039291,9622.677246
28687.861435,1998.556043,-1149.143247,10658.965565
28687.861764,2368.659014,2681.334243,10584.944971
28687.862092,2368.659014,2145.067394,9474.636058
28687.862420,2294.638420,-2145.067394,8734.430116
28687.862749,-370.102971,-2068.457845,9252.574275
28687.863077,-888.247130,0.000000,9252.574275
28687.863405,666.185348,306.438199,8586.388927
28687.863734,222.061783,-995.924147,9030.512492
28687.864062,-962.267725,-2221.676944,9474.636058
28687.864390,0.000000,-995.924147,9400.615463
28687.864719,1998.556043,689.485948,10066.800811
28687.865047,2294.638420,2298.286494,11473.192101
28687.865375,3182.885551,689.485948,9178.553681
28687.865704,888.247130,919.314598,7772.162391
28687.866032,1110.308913,1225.752797,7031.956449
28687.866360,1184.329507,2298.286494,9622.677246
28687.866689,518.144159,1378.971896,10140.821405
28687.867017,-518.144159,689.485948,9252.574275
28687.867345,1036.288319,766.095498,9696.697840
28687.867674,1554.432478,1532.190996,10066.800811
28687.868002,444.123565,3753.867940,9770.718434
28687.868330,0.000000,1838.629195,8956.491898
28687.868659,-962.267725,1225.752797,7698.141797
28687.868987,-370.102971,1762.019645,7402.059420
28687.869315,-148.041188,2221.676944,9326.594869
28687.869644,-1850.514855,2374.896044,9696.697840
28687.869972,-3478.967927,1991.848295,9770.718434
28687.870300,-222.061783,766.095498,9474.636058
28687.870629,1554.432478,689.485948,9326.594869
28687.870957,296.082377,3064.381992,8734.430116
28687.871285,-296.082377,3600.648841,7846.182985
28687.871614,444.123565,2145.067394,7031.956449
28687.871942,518.144159,1838.629195,8290.306550
28687.872270,74.020594,2528.115143,9474.636058
28687.872599,0.000000,2911.162892,7772.162391
28687.872927,0.000000,1762.019645,8364.327145
28687.873255,518.144159,459.657299,9548.656652
28687.873584,222.061783,919.314598,10658.965565
28687.873912,-814.226536,1455.581446,9326.594869
28687.874240,-444.123565,0.000000,8660.409521
28687.874569,-370.102971,-2451.505594,8142.265362
28687.874897,-1332.370696,-1302.362347,9178.553681
28687.875225,-2146.597232,459.657299,10066.800811
28687.875554,-2072.576638,153.219100,9770.718434
28687.875882,-1628.453072,-2068.457845,8660.409521
28687.876210,-1110.308913,-2834.553343,9178.553681
28687.876539,-296.082377,-612.876398,9918.759623
28687.876867,518.144159,1915.238745,10955.047942
28687.877195,1258.350101,153.219100,11547.212695
28687.877524,222.061783,-3140.991542,9474.636058
28687.877852,-666.185348,-3447.429741,8808.450710
28687.878180,-148.041188,-383.047749,10214.842000
28687.878509,0.000000,919.314598,10362.883188
28687.878837,-962.267725,-1608.800546,8956.491898
28687.879165,-666.185348,-3907.087040,9474.636058
28687.879494,814.226536,-2451.505594,9844.739029
28687.879822,1184.329507,766.095498,9252.574275
28687.880150,0.000000,995.924147,10510.924376
28687.880479,-370.102971,-1608.800546,9622.677246
28687.880807,0.000000,-1685.410096,7550.100608
28687.881135,1850.514855,-536.266849,7994.224174
28687.881464,-518.144159,306.438199,9178.553681
28687.881792,-1924.535449,766.095498,8586.388927
28687.882120,444.123565,-459.657299,8808.450710
28687.882449,3108.864956,-1302.362347,10066.800811
28687.882777,740.205942,1378.971896,11399.171507
28687.883105,0.000000,2911.162892,10362.883188
28687.883434,1110.308913,1225.752797,8438.347739
28687.883762,222.061783,-689.485948,8882.471304
28687.884090,148.041188,-383.047749,9400.615463
28687.884419,-2220.617826,1608.800546,10066.800811
28687.884747,-1998.556043,2528.115143,10214.842000
28687.885075,-592.164754,153.219100,9548.656652
28687.885404,148.041188,-1915.238745,10584.944971
28687.885732,-962.267725,1685.410096,10732.986159
28687.886060,222.061783,5209.449386,8586.388927
28687.886389,1924.535449,2911.162892,8364.327145
28687.886717,148.041188,-766.095498,7624.121203
28687.887045,-1036.288319,995.924147,7550.100608
28687.887374,444.123565,3753.867940,8882.471304
28687.887702,1036.288319,4596.572988,9474.636058
28687.888030,148.041188,1608.800546,8882.471304
28687.888359,1406.391290,153.219100,9474.636058
28687.888687,2664.741391,2604.724693,9474.636058
28687.889015,3256.906145,5056.230287,9474.636058
28687.889344,2590.720797,3524.039291,9252.574275
28687.889672,1406.391290,1149.143247,7994.224174
28687.890000,740.205942,1838.629195,7994.224174
28687.890329,518.144159,2911.162892,9252.574275
28687.890657,-1554.432478,1838.629195,9474.636058
28687.890985,-2886.803174,0.000000,7772.162391
28687.891314,-1850.514855,-536.266849,7402.059420
28687.891642,444.123565,0.000000,8216.285956
28687.891970,-666.185348,2757.943793,9844.739029
28687.892299,-962.267725,2374.896044,9252.574275
28687.892627,-148.041188,-536.266849,7698.141797
28687.892955,666.185348,-1532.190996,7698.141797
28687.893284,1036.288319,766.095498,11399.171507
28687.893612,0.000000,2298.286494,11769.274478
28687.893940,444.123565,229.828649,9548.656652
28687.894269,962.267725,-3677.258390,9770.718434
28687.894597,148.041188,-2987.772442,10732.986159
28687.894925,518.144159,1991.848295,11325.150913
28687.895254,814.226536,2298.286494,9992.780217
28687.895582,0.000000,-2221.676944,8660.409521
28687.895910,-2220.617826,-4213.525239,7624.121203
28687.896239,-2072.576638,-1149.143247,8364.327145
28687.896567,-2368.659014,2834.553343,10214.842000
28687.896895,-2368.659014,0.000000,8364.327145
28687.897224,-1036.288319,-5056.230287,8068.244768
28687.897552,-1406.391290,-4213.525239,9770.718434
28687.897880,-2368.659014,2451.505594,10288.862594
28687.898209,-518.144159,2528.115143,10066.800811
28687.898537,518.144159,-3753.867940,8882.471304
28687.898865,-1776.494261,-4749.792088,8068.244768
28687.899194,-2294.638420,0.000000,8290.306550
28687.899522,-370.102971,2374.896044,10140.821405
28687.899850,-296.082377,76.609550,9770.718434
28687.900179,-814.226536,-3524.039291,10214.842000
28687.900507,666.185348,-2451.505594,10288.862594
28687.900835,3478.967927,1225.752797,9474.636058
28687.901164,3849.070898,3447.429741,10658.965565
28687.901492,2738.761985,919.314598,10807.006753
28687.901820,1406.391290,-842.705048,9918.759623
28687.902149,1258.350101,995.924147,9622.677246
28687.902477,1110.308913,919.314598,9844.739029
28687.902805,-444.123565,0.000000,8808.450710
28687.903134,-1184.329507,-1991.848295,7179.997637
28687.903462,0.000000,-1225.752797,8512.368333
28687.903790,-222.061783,1532.190996,10510.924376
28687.904119,-296.082377,2451.505594,10288.862594
28687.904447,-592.164754,229.828649,8660.409521
28687.904775,-1776.494261,-2068.457845,6217.729913
28687.905104,-2072.576638,76.609550,7846.182985
28687.905432,-740.205942,1991.848295,10362.883188
28687.905760,-1628.453072,1838.629195,11251.130318
28687.906089,-1036.288319,-1302.362347,8882.471304
28687.906417,222.061783,-3064.381992,10066.800811
28687.906745,740.205942,1225.752797,11769.274478
28687.907074,592.164754,5669.106685,11843.295072
28687.907402,2516.700203,3830.477490,10066.800811
28687.907730,2664.741391,-689.485948,8142.265362
28687.908059,1628.453072,612.876398,6957.935855
28687.908387,1628.453072,4290.134789,7402.059420
28687.908715,296.082377,7048.078582,9104.533087
28687.909044,148.041188,3677.258390,8438.347739
28687.909372,1036.288319,459.657299,9252.574275
28687.909700,2294.638420,1608.800546,8808.450710
28687.910029,2072.576638,5132.839837,8956.491898
28687.910357,1998.556043,5362.668486,9770.718434
28687.910685,-666.185348,2911.162892,10140.821405
28687.911014,-1998.556043,1149.143247,7772.162391
28687.911342,0.000000,766.095498,8586.388927
28687.911670,-2664.741391,3370.820191,8956.491898
28687.911999,-2886.803174,3677.258390,9178.553681
28687.912327,-2368.659014,2068.457845,8586.388927
28687.912655,-2220.617826,995.924147,9326.594869
28687.912984,592.164754,1685.410096,7550.100608
28687.913312,1036.288319,4060.306139,8660.409521
28687.913640,-740.205942,4213.525239,8142.265362
28687.913969,-1258.350101,1455.581446,5255.462188
28687.914297,-370.102971,-612.876398,7772.162391
28687.914625,0.000000,229.828649,10362.883188
28687.914954,0.000000,2145.067394,8882.471304
28687.915282,370.102971,536.266849,7846.182985
28687.915610,2516.700203,-689.485948,9030.512492
28687.915939,1850.514855,383.047749,10658.965565
28687.916267,1258.350101,2451.505594,12657.521608
28687.916595,2886.803174,-229.828649,10214.842000
28687.916924,1554.432478,-4213.525239,7920.203579
28687.917252,-888.247130,-3830.477490,10436.903782
28687.917580,-1924.535449,-536.266849,10955.047942
28687.917909,-2442.679609,-459.657299,9622.677246
28687.918237,-2072.576638,-6818.249932,8808.450710
28687.918565,-2368.659014,-8656.879127,9548.656652
28687.918894,-2442.679609,-2604.724693,11399.171507
28687.919222,-740.205942,1378.971896,11399.171507
28687.919550,-888.247130,-2987.772442,10066.800811
28687.919879,-2442.679609,-8044.002729,8142.265362
28687.920207,-1480.411884,-5745.716235,7550.100608
28687.920535,444.123565,-306.438199,10510.924376
28687.920864,-296.082377,1378.971896,10510.924376
28687.921192,814.226536,-3753.867940,10288.862594
28687.921520,1776.494261,-6052.154434,10732.986159
28687.921849,1924.535449,-919.314598,10807.006753
28687.922177,3404.947333,3217.601092,11103.089130
28687.922505,3627.009116,153.219100,11769.274478
28687.922834,888.247130,-2911.162892,9474.636058
28687.923162,-370.102971,-1838.629195,7550.100608
28687.923490,148.041188,-1072.533697,7624.121203
28687.923819,-1998.556043,1149.143247,9844.739029
28687.924147,-2664.741391,842.705048,8882.471304
28687.924475,-1332.370696,-995.924147,7994.224174
28687.924804,0.000000,153.219100,8142.265362
28687.925132,1036.288319,1991.848295,8438.347739
28687.925460,1406.391290,4060.306139,8882.471304
28687.925789,518.144159,2834.553343,7846.182985
28687.926117,-1110.308913,1762.019645,8216.285956
28687.926445,0.000000,612.876398,8364.327145
28687.926774,-296.082377,2451.505594,8808.450710
28687.927102,-1184.329507,3983.696590,7994.224174
28687.927430,592.164754,1302.362347,7772.162391
28687.927759,1332.370696,2374.896044,10066.800811
28687.928087,2146.597232,4366.744339,11103.089130
28687.928415,2368.659014,5669.106685,9918.759623
28687.928744,1850.514855,3677.258390,8660.409521
28687.929072,1184.329507,3217.601092,8142.265362
28687.929400,592.164754,4213.525239,9252.574275
28687.929729,-296.082377,5439.278036,9992.780217
28687.930057,-592.164754,2451.505594,7254.018232
28687.930385,0.000000,-612.876398,7328.038826
28687.930714,0.000000,1685.410096,10066.800811
28687.931042,-666.185348,6281.983084,11251.130318
28687.931370,-518.144159,5822.325785,9030.512492
28687.931699,1110.308913,229.828649,7105.977043
28687.932027,444.123565,-1991.848295,5181.441594
28687.932355,-370.102971,2681.334243,7550.100608
28687.932684,-1258.350101,7354.516781,10362.883188
28687.933012,-814.226536,3753.867940,9844.739029
28687.933340,-666.185348,-2757.943793,9474.636058
28687.933669,-1036.288319,-3830.477490,9400.615463
28687.933997,-148.041188,306.438199,9474.636058
28687.934325,888.247130,3600.648841,9252.574275
28687.934654,888.247130,306.438199,11843.295072
28687.934982,-1998.556043,-3294.210641,10584.944971
28687.935310,-2442.679609,-3447.429741,7846.182985
28687.935639,-2146.597232,-1532.190996,8956.491898
28687.935967,-3330.926739,-1149.143247,10732.986159
28687.936295,-1924.535449,-3140.991542,9622.677246
28687.936624,518.144159,-3983.696590,9030.512492
28687.936952,1628.453072,-2145.067394,11177.109724
28687.937280,1924.535449,995.924147,11251.130318
28687.937609,1776.494261,995.924147,10140.821405
28687.937937,592.164754,-1991.848295,8882.471304
28687.938265,962.267725,-3753.867940,7846.182985
28687.938594,1258.350101,-2374.896044,10288.862594
28687.938922,-1184.329507,1915.238745,13323.706956
28687.939250,-2072.576638,229.828649,10658.965565
28687.939579,-1406.391290,-4826.401637,9104.533087
28687.939907,-814.226536,-5898.935335,8734.430116
28687.940235,-814.226536,459.657299,9696.697840
28687.940564,592.164754,4290.134789,10140.821405
28687.940892,2220.617826,229.828649,9104.533087
28687.941220,888.247130,-1762.019645,6809.894666
28687.941549,222.061783,0.000000,7328.038826
28687.941877,0.000000,3830.477490,6439.791695
28687.942205,1406.391290,3447.429741,6957.935855
28687.942534,3404.947333,-919.314598,8142.265362
28687.942862,4145.153275,-383.047749,11473.192101
28687.943191,3997.112087,2987.772442,12879.583391
28687.943519,5033.400406,4519.963438,11843.295072
28687.943847,3330.926739,612.876398,9770.718434
28687.944176,518.144159,-2221.676944,8142.265362
28687.944504,-666.185348,1455.581446,9844.739029
28687.944832,-592.164754,4136.915689,10658.965565
28687.945161,-370.102971,2068.457845,8808.450710
28687.945489,-3330.926739,-3370.820191,8364.327145
28687.945817,-5107.421000,-3064.381992,9622.677246
28687.946146,-3256.906145,1149.143247,8956.491898
28687.946474,-888.247130,2298.286494,9844.739029
28687.946803,-2664.741391,153.219100,9252.574275
28687.947131,-3923.091493,-1685.410096,5255.462188
28687.947459,-2368.659014,-383.047749,5773.606348
28687.947788,-1850.514855,1838.629195,7772.162391
28687.948116,-888.247130,919.314598,9252.574275
28687.948444,148.041188,-1532.190996,8882.471304
28687.948773,1850.514855,-383.047749,9696.697840
28687.949101,2812.782580,2681.334243,10510.924376
28687.949429,5625.565159,3370.820191,10807.006753
28687.949758,5033.400406,1991.848295,9030.512492
28687.950086,3108.864956,842.705048,6143.709319
28687.950414,2738.761985,1225.752797,7698.141797
28687.950743,2072.576638,2528.115143,9844.739029
28687.951071,-740.205942,2451.505594,9696.697840
28687.951400,-1554.432478,-2374.896044,7698.141797
28687.951728,-2516.700203,-3600.648841,9400.615463
28687.952056,-2442.679609,-1225.752797,9622.677246
28687.952385,-3923.091493,2374.896044,10881.027347
28687.952713,-3997.112087,-2298.286494,9326.594869
28687.953041,-5551.544565,-6205.373534,9104.533087
28687.953370,-6957.935855,-3217.601092,11843.295072
28687.953698,-5477.523971,919.314598,11843.295072
28687.954026,-3701.029710,-995.924147,9030.512492
28687.954355,-2664.741391,-6435.202183,8216.285956
28687.954683,-2442.679609,-3983.696590,10140.821405
28687.955012,296.082377,2834.553343,9770.718434
28687.955340,2442.679609,6358.592633,11177.109724
28687.955668,4737.318029,1608.800546,8438.347739
28687.955997,4367.215058,-1608.800546,6513.812290
28687.956325,4219.173869,2221.676944,7031.956449
28687.956653,4885.359217,7124.688131,9030.512492
28687.956982,4071.132681,5439.278036,9622.677246
28687.957310,3256.906145,0.000000,8586.388927
28687.957638,1998.556043,-842.705048,8438.347739
28687.957967,1480.411884,1072.533697,7254.018232
28687.958295,1850.514855,2221.676944,8142.265362
28687.958624,1702.473667,1532.190996,10732.986159
28687.958952,-888.247130,229.828649,11547.212695
28687.959280,-3034.844362,-1532.190996,7624.121203
28687.959609,-3478.967927,-3600.648841,6587.832884
28687.959937,-5921.647536,-3524.039291,9326.594869
28687.960265,-7402.059420,-1455.581446,10510.924376
28687.960594,-6217.729913,-2834.553343,10288.862594
28687.960922,-4885.359217,-5745.716235,11399.171507
28687.961250,-3775.050304,-5056.230287,13175.665768
28687.961579,-2738.761985,-1608.800546,12213.398043
28687.961907,-2146.597232,-536.266849,9770.718434
28687.962236,-2960.823768,-2987.772442,8586.388927
28687.962564,-2368.659014,-3677.258390,9474.636058
28687.962892,-1110.308913,-1225.752797,10140.821405
28687.963221,-962.267725,1225.752797,9992.780217
28687.963549,-2146.597232,-1915.238745,9104.533087
28687.963877,-2442.679609,-4596.572988,8882.471304
28687.964206,0.000000,-2757.943793,8956.491898
28687.964534,1258.350101,536.266849,9104.533087
28687.964862,1184.329507,689.485948,8438.347739
28687.965191,740.205942,-612.876398,8660.409521
28687.965519,-370.102971,-459.657299,7920.203579
28687.965848,-1184.329507,-536.266849,7624.121203
28687.966176,-1554.432478,-536.266849,7698.141797
28687.966504,-3256.906145,-2221.676944,8068.244768
28687.966833,-4737.318029,-2757.943793,9770.718434
28687.967161,-4737.318029,-3600.648841,9474.636058
28687.967489,-5255.462188,-3907.087040,9992.780217
28687.967818,-5477.523971,-3524.039291,9104.533087
28687.968146,-4293.194464,-2298.286494,7920.203579
28687.968474,-3034.844362,919.314598,10066.800811
28687.968803,-2960.823768,1915.238745,9844.739029
28687.969131,-2960.823768,1455.581446,9696.697840
28687.969460,-3627.009116,-1455.581446,9326.594869
28687.969788,-4293.194464,-2068.457845,7920.203579
28687.970116,-3849.070898,-1762.019645,7698.141797
28687.970445,-2960.823768,-1225.752797,9548.656652
28687.970773,-1702.473667,-1608.800546,9918.759623
28687.971101,-2368.659014,-1455.581446,8882.471304
28687.971430,-1332.370696,-1762.019645,8586.388927
28687.971758,1850.514855,0.000000,7402.059420
28687.972086,4959.379811,3140.991542,8068.244768
28687.972415,5995.668130,6511.811733,9252.574275
28687.972743,6143.709319,6358.592633,8808.450710
28687.973072,3923.091493,5132.839837,8068.244768
28687.973400,2516.700203,919.314598,8142.265362
28687.973728,296.082377,-2221.676944,7994.224174
28687.974057,-3404.947333,-2221.676944,9548.656652
28687.974385,-5329.482782,-2298.286494,12213.398043
28687.974713,-5477.523971,-5132.839837,12139.377449
28687.975042,-7550.100608,-9346.365076,10288.862594
28687.975370,-9030.512492,-7584.345430,9474.636058
28687.975698,-7624.121203,-4136.915689,9622.677246
28687.976027,-5699.585753,-1302.362347,9696.697840
28687.976355,-3701.029710,-2068.457845,9548.656652
28687.976684,-2812.782580,-3064.381992,9104.533087
28687.977012,-2738.761985,-1455.581446,7105.977043
28687.977340,-1110.308913,76.609550,6661.853478
28687.977669,-296.082377,-1149.143247,9326.594869
28687.977997,-2590.720797,-3677.258390,10066.800811
28687.978325,-2368.659014,-6435.202183,10288.862594
28687.978654,-518.144159,-7967.393179,11547.212695
28687.978982,-1258.350101,-6052.154434,12731.542202
28687.979310,-1702.473667,-3830.477490,12805.562797
28687.979639,740.205942,-3907.087040,11547.212695
28687.979967,3404.947333,-3524.039291,11251.130318
28687.980296,1850.514855,-842.705048,10881.027347
28687.980624,0.000000,612.876398,8956.491898
28687.980952,-814.226536,459.657299,6143.709319
28687.981281,-888.247130,-1072.533697,4885.359217
28687.981609,-2960.823768,-1608.800546,6439.791695
28687.981937,-6809.894666,-2221.676944,6291.750507
28687.982266,-7624.121203,-4060.306139,7105.977043
28687.982594,-7179.997637,-7048.078582,9992.780217
28687.982922,-8364.327145,-7890.783629,12361.439231
28687.983251,-8216.285956,-7737.564530,11917.315666
28687.983579,-5477.523971,-8120.612279,11103.089130
28687.983908,-3775.050304,-6665.030833,11177.109724
28687.984236,-1702.473667,-3677.258390,11177.109724
28687.984564,444.123565,76.609550,9918.759623
28687.984893,3627.009116,3677.258390,8216.285956
28687.985221,6291.750507,5132.839837,6439.791695
28687.985549,5995.668130,6358.592633,6957.935855
28687.985878,3478.967927,6971.469032,6735.874072
28687.986206,1184.329507,6205.373534,6291.750507
28687.986534,-814.226536,1915.238745,7476.080014
28687.986863,-4515.256246,-2298.286494,7994.224174
28687.987191,-8068.244768,-4826.401637,8364.327145
28687.987520,-9400.615463,-6588.421283,9030.512492
28687.987848,-8290.306550,-7354.516781,11029.068536
28687.988176,-7031.956449,-6128.763984,12509.480420
28687.988505,-4293.194464,-3753.867940,11769.274478
28687.988833,-296.082377,-383.047749,10436.903782
28687.989161,3997.112087,2145.067394,8660.409521
28687.989490,5995.668130,4826.401637,9400.615463
28687.989818,6439.791695,6741.640382,9400.615463
28687.990146,5477.523971,7124.688131,9030.512492
28687.990475,5403.503377,5132.839837,9474.636058
28687.990803,3478.967927,2681.334243,9918.759623
28687.991132,-1998.556043,1455.581446,9992.780217
28687.991460,-6291.750507,-612.876398,8882.471304
28687.991788,-9030.512492,-3447.429741,9178.553681
28687.992117,-10288.862594,-5592.497135,9400.615463
28687.992445,-11769.274478,-6894.859482,8364.327145
28687.992773,-12509.480420,-5898.935335,7179.997637
28687.993102,-11177.109724,-4826.401637,6217.729913
28687.993430,-7846.182985,-3294.210641,7698.141797
28687.993758,-5995.668130,-2911.162892,8956.491898
28687.994087,-3478.967927,-1838.629195,8438.347739
28687.994415,-518.144159,-1532.190996,9178.553681
28687.994744,1258.350101,-383.047749,10658.965565
28687.995072,2442.679609,689.485948,10436.903782
28687.995400,4145.153275,612.876398,10658.965565
28687.995729,4293.194464,-153.219100,11177.109724
28687.996057,4071.132681,0.000000,11251.130318
28687.996385,3849.070898,383.047749,11991.336260
28687.996714,2368.659014,-689.485948,11399.171507
28687.997042,-518.144159,-1302.362347,9030.512492
28687.997370,-1332.370696,-2451.505594,9030.512492
28687.997699,-2146.597232,-2834.553343,9326.594869
28687.998027,-4071.132681,-3370.820191,7994.224174
28687.998356,-4885.359217,-4519.963438,8216.285956
28687.998684,-5329.482782,-5439.278036,8808.450710
28687.999012,-5699.585753,-4903.011187,8734.430116
28687.999341,-4367.215058,-4366.744339,9474.636058
28687.999669,-2960.823768,-4443.353888,9918.759623
28687.999997,-2442.679609,-3370.820191,9770.718434
28688.000326,-1776.494261,-2068.457845,9622.677246
28688.000654,2220.617826,-1302.362347,10955.047942
28688.000982,3108.864956,-229.828649,9844.739029
28688.001311,3034.844362,612.876398,8956.491898
28688.001639,3256.906145,919.314598,8808.450710
28688.001968,2886.803174,995.924147,8438.347739
28688.002296,1480.411884,689.485948,9030.512492
28688.002624,-296.082377,612.876398,7846.182985
28688.002953,-2516.700203,-1225.752797,7920.203579
28688.003281,-4663.297435,-2451.505594,8586.388927
28688.003609,-5773.606348,-3064.381992,9548.656652
28688.003938,-7105.977043,-4366.744339,9548.656652
28688.004266,-8956.491898,-5592.497135,9030.512492
28688.004594,-10436.903782,-6128.763984,9548.656652
28688.004923,-8882.471304,-3830.477490,10140.821405
28688.005251,-6513.812290,-1991.848295,10658.965565
28688.005580,-5551.544565,-1608.800546,10584.944971
28688.005908,-6365.771101,-1149.143247,9104.533087
28688.006236,-3701.029710,-306.438199,8142.265362
28688.006565,-666.185348,306.438199,7920.203579
28688.006893,148.041188,76.609550,7698.141797
28688.007221,-1332.370696,919.314598,8512.368333
28688.007550,-666.185348,383.047749,8808.450710
28688.007878,740.205942,-306.438199,9696.697840
28688.008206,518.144159,-1991.848295,9696.697840
28688.008535,-296.082377,-2068.457845,9178.553681
28688.008863,74.020594,-689.485948,9030.512492
28688.009192,1850.514855,0.000000,9844.739029
28688.009520,2368.659014,-306.438199,10955.047942
28688.009848,1480.411884,-919.314598,10658.965565
28688.010177,0.000000,919.314598,8882.471304
28688.010505,1702.473667,1685.410096,7772.162391
28688.010833,2886.803174,1685.410096,8734.430116
28688.011162,888.247130,1915.238745,8290.306550
28688.011490,-518.144159,2374.896044,7254.018232
28688.011818,-222.061783,612.876398,8290.306550
28688.012147,-962.267725,0.000000,9178.553681
28688.012475,-1998.556043,-689.485948,9844.739029
28688.012804,-2516.700203,-1072.533697,10214.842000
28688.013132,-1924.535449,-919.314598,10584.944971
28688.013460,-370.102971,-995.924147,11991.336260
28688.013789,-1332.370696,-766.095498,12213.398043
28688.014117,-1332.370696,0.000000,10658.965565
28688.014445,-666.185348,919.314598,9548.656652
28688.014774,0.000000,1072.533697,9844.739029
28688.015102,-962.267725,1302.362347,9252.574275
28688.015430,-2442.679609,1991.848295,7994.224174
28688.015759,-3552.988522,1991.848295,7772.162391
28688.016087,-3849.070898,612.876398,7254.018232
28688.016416,-5107.421000,-766.095498,7254.018232
28688.016744,-6217.729913,-1302.362347,7920.203579
28688.017072,-7550.100608,-1991.848295,7772.162391
28688.017401,-7476.080014,-3217.601092,8734.430116
28688.017729,-7105.977043,-4673.182538,9918.759623
28688.018057,-7624.121203,-4673.182538,8660.409521
28688.018386,-6143.709319,-5056.230287,8142.265362
28688.018714,-4589.276840,-5056.230287,8438.347739
28688.019042,-4219.173869,-3983.696590,8956.491898
28688.019371,-3701.029710,-3600.648841,8882.471304
28688.019699,-2516.700203,-3447.429741,9104.533087
28688.020027,-2442.679609,-4596.572988,9104.533087
28688.020356,-2368.659014,-4673.182538,9474.636058
28688.020684,-2146.597232,-6358.592633,10066.800811
28688.021013,-1628.453072,-5745.716235,10584.944971
28688.021341,-2368.659014,-6971.469032,10807.006753
28688.021669,-2294.638420,-7814.174080,11769.274478
28688.021998,-2294.638420,-7890.783629,12139.377449
28688.022326,-1850.514855,-7890.783629,11473.192101
28688.022654,-1184.329507,-8044.002729,10510.924376
28688.022983,-814.226536,-7584.345430,10807.006753
28688.023311,-1184.329507,-6358.592633,10288.862594
28688.023639,0.000000,-5822.325785,9474.636058
28688.023968,740.205942,-4979.620737,9400.615463
28688.024296,370.102971,-4213.525239,9326.594869
28688.024625,962.267725,-2528.115143,8956.491898
28688.024953,2294.638420,-1838.629195,8142.265362
28688.025281,3256.906145,-995.924147,8068.244768
28688.025610,3330.926739,-459.657299,8290.306550
28688.025938,2516.700203,536.266849,8364.327145
28688.026266,2516.700203,1838.629195,8216.285956
28688.026595,3034.844362,1532.190996,8808.450710
28688.026923,2368.659014,766.095498,9622.677246
28688.027251,592.164754,1072.533697,9844.739029
28688.027580,-518.144159,1225.752797,9400.615463
28688.027908,-740.205942,1302.362347,9992.780217
28688.028237,-2664.741391,1149.143247,10584.944971
28688.028565,-4071.132681,1608.800546,10140.821405
28688.028893,-5033.400406,2604.724693,9474.636058
28688.029222,-5033.400406,3140.991542,9030.512492
28688.029550,-4885.359217,4290.134789,8808.450710
28688.029878,-6587.832884,4443.353888,8512.368333
28688.030207,-7179.997637,5515.887586,7402.059420
28688.030535,-6661.853478,4903.011187,6513.812290
28688.030863,-7254.018232,3753.867940,7920.203579
28688.031192,-9622.677246,2604.724693,7402.059420
28688.031520,-10140.821405,1149.143247,5995.668130
28688.031849,-8438.347739,-1149.143247,6883.915261
28688.032177,-7328.038826,-2068.457845,8660.409521
28688.032505,-5921.647536,-536.266849,10288.862594
28688.032834,-3330.926739,0.000000,11473.192101
28688.033162,0.000000,0.000000,11251.130318
28688.033490,3256.906145,689.485948,11325.150913
28688.033819,5847.626942,3064.381992,12213.398043
28688.034147,6143.709319,6281.983084,11103.089130
28688.034475,5181.441594,5132.839837,7994.224174
28688.034804,4959.379811,995.924147,8364.327145
28688.035132,1554.432478,-995.924147,8068.244768
28688.035461,-3404.947333,-459.657299,7254.018232
28688.035789,-5329.482782,-2987.772442,6735.874072
28688.036117,-5921.647536,-7507.735880,6883.915261
28688.036446,-7550.100608,-9882.631924,9474.636058
28688.036774,-9622.677246,-8350.440928,10510.924376
28688.037102,-8586.388927,-9269.755526,9326.594869
28688.037431,-5403.503377,-11184.994271,9326.594869
28688.037759,-3182.885551,-10801.946522,11399.171507
28688.038087,-1702.473667,-7124.688131,11029.068536
28688.038416,1628.453072,-4826.401637,10584.944971
28688.038744,5625.565159,-5822.325785,11695.253884
28688.039073,7105.977043,-5056.230287,13027.624579
28688.039401,7254.018232,-3294.210641,12731.542202
28688.039729,8068.244768,-1532.190996,12583.501014
28688.040058,6957.935855,-1608.800546,11621.233289
28688.040386,4515.256246,-3753.867940,11621.233289
28688.040714,1998.556043,-4826.401637,11621.233289
28688.041043,-740.205942,-3217.601092,9400.615463
28688.041371,-3182.885551,-2068.457845,8734.430116
28688.041699,-5329.482782,-3217.601092,8290.306550
28688.042028,-9030.512492,-4749.792088,6883.915261
28688.042356,-10658.965565,-4903.011187,5181.441594
28688.042685,-11177.109724,-4519.963438,4885.359217
28688.043013,-11177.109724,-4060.306139,4959.379811
28688.043341,-9770.718434,-4136.915689,5255.462188
28688.043670,-8438.347739,-2221.676944,6735.874072
28688.043998,-5995.668130,-459.657299,8512.368333
28688.044326,-4441.235652,-766.095498,9104.533087
28688.044655,-2072.576638,-1608.800546,10807.006753
28688.044983,74.020594,919.314598,13249.686362
28688.045311,1998.556043,4519.963438,13249.686362
28688.045640,2516.700203,4136.915689,11769.274478
28688.045968,2220.617826,3140.991542,9992.780217
28688.046296,518.144159,3753.867940,9474.636058
28688.046625,-518.144159,6052.154434,7476.080014
28688.046953,-1702.473667,5822.325785,7328.038826
28688.047281,-3552.988522,3447.429741,7698.141797
28688.047609,-6513.812290,1915.238745,7328.038826
28688.047938,-8586.388927,612.876398,7550.100608
28688.048266,-10066.800811,-2528.115143,7402.059420
28688.048594,-11991.336260,-6128.763984,7846.182985
28688.048923,-11695.253884,-6971.469032,9252.574275
28688.049251,-7254.018232,-5669.106685,10584.944971
28688.049579,-2664.741391,-3294.210641,11991.336260
28688.049908,-370.102971,-842.705048,12509.480420
28688.050236,2812.782580,383.047749,9918.759623
28688.050564,8512.368333,2528.115143,8512.368333
28688.050893,11991.336260,6665.030833,10066.800811
28688.051221,11769.274478,9499.584175,10584.944971
28688.051549,9030.512492,7967.393179,8660.409521
28688.051878,6735.874072,2757.943793,7105.977043
28688.052206,2738.761985,-1915.238745,7254.018232
28688.052534,-2516.700203,-3140.991542,8364.327145
28688.052863,-5699.585753,-5745.716235,9770.718434
28688.053191,-7698.141797,-8886.707777,10955.047942
28688.053519,-8586.388927,-11338.213370,13101.645173
28688.053848,-8808.450710,-11108.384721,12953.603985
28688.054176,-7105.977043,-8273.831378,9770.718434
28688.054504,-1850.514855,-5669.106685,8438.347739
28688.054833,2590.720797,-2145.067394,10214.842000
28688.055161,2368.659014,2528.115143,11473.192101
28688.055489,4663.297435,4136.915689,9252.574275
28688.055818,5181.441594,1685.410096,7031.956449
28688.056146,3997.112087,-919.314598,5921.647536
28688.056474,3330.926739,919.314598,7105.977043
28688.056803,1924.535449,3830.477490,10807.006753
28688.057131,592.164754,919.314598,11695.253884
28688.057459,-740.205942,-4979.620737,10658.965565
28688.057787,-3552.988522,-8197.221829,11843.295072
28688.058116,-6661.853478,-3907.087040,10658.965565
28688.058444,-6883.915261,-2451.505594,8956.491898
28688.058772,-6809.894666,-5209.449386,9104.533087
28688.059101,-8216.285956,-6741.640382,7920.203579
28688.059429,-7402.059420,-4826.401637,5847.626942
28688.059757,-4145.153275,-153.219100,5847.626942
28688.060086,-3775.050304,2451.505594,7031.956449
28688.060414,-2812.782580,2145.067394,6809.894666
28688.060742,1406.391290,2221.676944,7328.038826
28688.061071,3627.009116,4826.401637,9992.780217
28688.061399,1332.370696,5822.325785,10066.800811
28688.061727,-814.226536,1991.848295,7179.997637
28688.062056,0.000000,-1225.752797,8586.388927
28688.062384,-1110.308913,-2068.457845,11473.192101
28688.062712,-3182.885551,-383.047749,12361.439231
28688.063041,-3404.947333,-2528.115143,11621.233289
28688.063369,-2590.720797,-4903.011187,11177.109724
28688.063697,-740.205942,-3600.648841,10658.965565
28688.064026,1554.432478,1762.019645,10732.986159
28688.064354,2960.823768,4443.353888,10881.027347
28688.064682,1776.494261,3370.820191,8586.388927
28688.065011,2812.782580,1378.971896,7402.059420
28688.065339,4663.297435,1915.238745,9178.553681
28688.065667,3552.988522,5209.449386,10732.986159
28688.065996,1850.514855,5592.497135,8660.409521
28688.066324,2368.659014,1225.752797,7846.182985
28688.066652,3034.844362,-1302.362347,8216.285956
28688.066981,1258.350101,2145.067394,9400.615463
28688.067309,-444.123565,4213.525239,9178.553681
28688.067637,-1924.535449,919.314598,7846.182985
28688.067966,-1110.308913,-2987.772442,7624.121203
28688.068294,0.000000,-2221.676944,9474.636058
28688.068622,148.041188,1302.362347,9992.780217
28688.068950,-1110.308913,2987.772442,9770.718434
28688.069279,1628.453072,306.438199,9622.677246
28688.069607,4145.153275,-459.657299,10214.842000
28688.069935,4589.276840,3907.087040,11991.336260
28688.070264,3552.988522,7048.078582,10881.027347
28688.070592,2294.638420,4290.134789,7846.182985
28688.070920,888.247130,0.000000,8216.285956
28688.071249,0.000000,0.000000,8216.285956
28688.071577,-1998.556043,2221.676944,8734.430116
28688.071905,-3256.906145,1608.800546,10214.842000
28688.072234,-3627.009116,-2145.067394,10658.965565
28688.072562,-3330.926739,-4213.525239,10066.800811
28688.072890,-2960.823768,-2374.896044,10066.800811
28688.073219,-3330.926739,2451.505594,8808.450710
28688.073547,-1628.453072,2221.676944,9326.594869
28688.073875,-740.205942,-306.438199,8512.368333
28688.074204,-1258.350101,-1608.800546,6291.750507
28688.074532,-1258.350101,766.095498,8142.265362
28688.074860,888.247130,2451.505594,10066.800811
28688.075189,2072.576638,2834.553343,10658.965565
28688.075517,2886.803174,766.095498,9400.615463
28688.075845,3627.009116,-995.924147,9770.718434
28688.076174,3108.864956,2451.505594,9548.656652
28688.076502,2886.803174,4519.963438,8882.471304
28688.076830,1258.350101,2451.505594,8364.327145
28688.077159,-1776.494261,-1762.019645,6217.729913
28688.077487,-2220.617826,-2145.067394,5699.585753
28688.077815,-3182.885551,-995.924147,7994.224174
28688.078144,-5699.585753,-766.095498,9104.533087
28688.078472,-5699.585753,-4060.306139,9474.636058
28688.078800,-2960.823768,-5975.544884,10436.903782
28688.079128,-740.205942,-3600.648841,10955.047942
28688.079457,444.123565,-1532.190996,10658.965565
28688.079785,814.226536,-1455.581446,11251.130318
28688.080113,148.041188,-536.266849,10362.883188
28688.080442,2072.576638,-612.876398,9622.677246
28688.080770,3923.091493,-459.657299,11029.068536
28688.081098,4589.276840,1991.848295,10658.965565
28688.081427,5181.441594,4903.011187,9252.574275
28688.081755,6069.688724,2911.162892,8734.430116
