#time,accel_x,accel_y,accel_z
16148.619867,-1110.308913,1685.410096,7476.080014
16148.620191,0.000000,2911.162892,6735.874072
16148.620515,1628.453072,4060.306139,6883.915261
16148.620839,2146.597232,3830.477490,7179.997637
16148.621163,1850.514855,2298.286494,6883.915261
16148.621487,1110.308913,2451.505594,5995.668130
16148.621811,1924.535449,2221.676944,8068.244768
16148.622135,1776.494261,1608.800546,9474.636058
16148.622459,666.185348,-536.266849,10436.903782
16148.622783,296.082377,-919.314598,10510.924376
16148.623107,592.164754,-612.876398,10881.027347
16148.623431,740.205942,-995.924147,11399.171507
16148.623754,1258.350101,-1762.019645,11177.109724
16148.624078,666.185348,-689.485948,10658.965565
16148.624402,296.082377,-383.047749,11103.089130
16148.624726,1406.391290,-536.266849,11547.212695
16148.625050,2072.576638,-612.876398,10955.047942
16148.625374,518.144159,-306.438199,10584.944971
16148.625698,-222.061783,0.000000,9844.739029
16148.626022,592.164754,0.000000,10140.821405
16148.626346,962.267725,-1378.971896,9992.780217
16148.626670,888.247130,0.000000,8882.471304
16148.626994,1184.329507,995.924147,8512.368333
16148.627318,1480.411884,1149.143247,8512.368333
16148.627642,2738.761985,1608.800546,8660.409521
16148.627966,3701.029710,2298.286494,9252.574275
16148.628289,3552.988522,3294.210641,8216.285956
16148.628613,4959.379811,3524.039291,8290.306550
16148.628937,6217.729913,3907.087040,8956.491898
16148.629261,6365.771101,4213.525239,9252.574275
16148.629585,5477.523971,4903.011187,9030.512492
16148.629909,4959.379811,4903.011187,8660.409521
16148.630233,5921.647536,5056.230287,8364.327145
16148.630557,4737.318029,5286.058936,8660.409521
16148.630881,3627.009116,5056.230287,8364.327145
16148.631205,3108.864956,4826.401637,7920.203579
16148.631529,2442.679609,4979.620737,8734.430116
16148.631853,2368.659014,5362.668486,9030.512492
16148.632177,2072.576638,5439.278036,9252.574275
16148.632501,1036.288319,5669.106685,8882.471304
16148.632824,1924.535449,6205.373534,8956.491898
16148.633148,2368.659014,5975.544884,9918.759623
16148.633472,0.000000,5286.058936,9548.656652
16148.633796,0.000000,5592.497135,9400.615463
16148.634120,0.000000,5132.839837,9474.636058
16148.634444,0.000000,4366.744339,9326.594869
16148.634768,-740.205942,4213.525239,9252.574275
16148.635092,-1184.329507,3907.087040,8438.347739
16148.635416,-1554.432478,3677.258390,7624.121203
16148.635740,-1258.350101,2987.772442,7772.162391
16148.636064,-1184.329507,2298.286494,7994.224174
16148.636388,-1998.556043,2451.505594,7772.162391
16148.636712,-1850.514855,1378.971896,7624.121203
16148.637036,-1184.329507,1838.629195,8290.306550
16148.637359,-666.185348,536.266849,9400.615463
16148.637683,-1332.370696,-383.047749,9918.759623
16148.638007,-1850.514855,-995.924147,9992.780217
16148.638331,-666.185348,-1915.238745,10658.965565
16148.638655,-814.226536,-2604.724693,11325.150913
16148.638979,-962.267725,-2834.553343,11769.274478
16148.639303,-296.082377,-2757.943793,11473.192101
16148.639627,296.082377,-2834.553343,11029.068536
16148.639951,888.247130,-2451.505594,10510.924376
16148.640275,2146.597232,-2068.457845,10066.800811
16148.640599,1702.473667,-2221.676944,9326.594869
16148.640923,1850.514855,-1685.410096,8808.450710
16148.641247,1776.494261,-1991.848295,9178.553681
16148.641571,370.102971,-2757.943793,9178.553681
16148.641894,-1036.288319,-3447.429741,8216.285956
16148.642218,-1480.411884,-3600.648841,8438.347739
16148.642542,-1998.556043,-3370.820191,8808.450710
16148.642866,-3108.864956,-4213.525239,9030.512492
16148.643190,-3182.885551,-4519.963438,9104.533087
16148.643514,-2664.741391,-4366.744339,9474.636058
16148.643838,-2516.700203,-4136.915689,9622.677246
16148.644162,-1850.514855,-3217.601092,10288.862594
16148.644486,-592.164754,-3064.381992,10140.821405
16148.644809,0.000000,-1915.238745,10955.047942
16148.645133,1924.535449,-689.485948,10807.006753
16148.645457,2368.659014,-459.657299,10881.027347
16148.645781,1998.556043,0.000000,10658.965565
16148.646105,2146.597232,919.314598,10510.924376
16148.646429,2812.782580,1532.190996,10140.821405
16148.646753,3108.864956,2604.724693,9992.780217
16148.647076,2220.617826,2298.286494,9474.636058
16148.647400,2220.617826,4290.134789,8364.327145
16148.647724,2146.597232,4213.525239,7994.224174
16148.648048,1480.411884,4749.792088,7994.224174
16148.648372,666.185348,4979.620737,7846.182985
16148.648696,-592.164754,5132.839837,7698.141797
16148.649020,-148.041188,4903.011187,7179.997637
16148.649344,-222.061783,4826.401637,8068.244768
16148.649668,-1258.350101,3907.087040,8142.265362
16148.649992,-2220.617826,4213.525239,8290.306550
16148.650316,-1702.473667,4060.306139,8142.265362
16148.650640,-370.102971,4290.134789,8438.347739
16148.650964,0.000000,3983.696590,8512.368333
16148.651288,0.000000,5056.230287,7920.203579
16148.651611,740.205942,4519.963438,8068.244768
16148.651935,1480.411884,4443.353888,8586.388927
16148.652259,2072.576638,4519.963438,9252.574275
16148.652583,1480.411884,3600.648841,9918.759623
16148.652907,1110.308913,3524.039291,9918.759623
16148.653231,2516.700203,3370.820191,10436.903782
16148.653555,2590.720797,2987.772442,11399.171507
16148.653879,1628.453072,1685.410096,10955.047942
16148.654203,666.185348,2451.505594,9844.739029
16148.654527,1702.473667,2221.676944,9844.739029
16148.654851,1480.411884,1762.019645,9474.636058
16148.655175,592.164754,1378.971896,8734.430116
16148.655499,0.000000,1149.143247,7994.224174
16148.655823,-814.226536,766.095498,7550.100608
16148.656147,-1258.350101,-536.266849,7476.080014
16148.656470,-2146.597232,-612.876398,7772.162391
16148.656794,-3108.864956,-1149.143247,7476.080014
16148.657118,-3627.009116,-2528.115143,7994.224174
16148.657442,-3182.885551,-3217.601092,8586.388927
16148.657766,-3849.070898,-4366.744339,9252.574275
16148.658090,-4663.297435,-4749.792088,9178.553681
16148.658414,-4219.173869,-4903.011187,9474.636058
16148.658738,-3478.967927,-5209.449386,10436.903782
16148.659062,-2812.782580,-5745.716235,11177.109724
16148.659386,-2886.803174,-5745.716235,11621.233289
16148.659710,-1924.535449,-5745.716235,11547.212695
16148.660034,-666.185348,-5056.230287,11991.336260
16148.660358,518.144159,-4826.401637,12657.521608
16148.660682,1258.350101,-4443.353888,11991.336260
16148.661005,2072.576638,-3370.820191,11177.109724
16148.661329,3034.844362,-1838.629195,10584.944971
16148.661653,3627.009116,-1762.019645,9992.780217
16148.661977,2664.741391,-1072.533697,9326.594869
16148.662301,1850.514855,-536.266849,8142.265362
16148.662625,1258.350101,-612.876398,7846.182985
16148.662949,1036.288319,-612.876398,8068.244768
16148.663273,-888.247130,-153.219100,7550.100608
16148.663597,-2368.659014,-229.828649,7624.121203
16148.663921,-2294.638420,-153.219100,7550.100608
16148.664245,-2368.659014,-383.047749,8290.306550
16148.664569,-2072.576638,0.000000,8364.327145
16148.664893,-1850.514855,842.705048,8364.327145
16148.665217,-592.164754,1762.019645,8438.347739
16148.665541,1480.411884,1838.629195,8956.491898
16148.665864,2442.679609,3140.991542,9474.636058
16148.666188,1998.556043,3677.258390,9400.615463
16148.666512,2590.720797,3753.867940,9918.759623
16148.666836,3775.050304,4213.525239,10066.800811
16148.667160,3478.967927,4366.744339,10584.944971
16148.667484,2960.823768,4673.182538,10510.924376
16148.667808,2590.720797,4903.011187,10584.944971
16148.668132,3108.864956,5362.668486,10066.800811
16148.668456,3182.885551,5898.935335,9918.759623
16148.668780,2368.659014,6281.983084,9474.636058
16148.669104,1480.411884,6511.811733,8364.327145
16148.669428,1776.494261,6358.592633,7698.141797
16148.669752,1628.453072,6358.592633,7402.059420
16148.670076,-444.123565,6052.154434,6291.750507
16148.670399,-2516.700203,4596.572988,6291.750507
16148.670723,-2886.803174,4213.525239,6143.709319
16148.671047,-3404.947333,2757.943793,6661.853478
16148.671371,-4811.338623,1532.190996,6957.935855
16148.671695,-5033.400406,612.876398,6883.915261
16148.672019,-5625.565159,0.000000,7105.977043
16148.672343,-4515.256246,-995.924147,8512.368333
16148.672667,-4071.132681,-842.705048,9548.656652
16148.672991,-3627.009116,-1915.238745,9992.780217
16148.673315,-2886.803174,-2604.724693,10584.944971
16148.673639,-1332.370696,-2681.334243,11621.233289
16148.673963,-370.102971,-3447.429741,12509.480420
16148.674287,-888.247130,-3983.696590,12953.603985
16148.674611,222.061783,-4213.525239,12361.439231
16148.674934,1406.391290,-4366.744339,13027.624579
16148.675258,2220.617826,-4060.306139,12213.398043
16148.675582,2072.576638,-3677.258390,11325.150913
16148.675906,2368.659014,-3294.210641,10436.903782
16148.676230,2368.659014,-2757.943793,9474.636058
16148.676554,2886.803174,-2604.724693,9178.553681
16148.676878,2590.720797,-2451.505594,8660.409521
16148.677202,888.247130,-3370.820191,7772.162391
16148.677526,666.185348,-2681.334243,7402.059420
16148.677850,592.164754,-3217.601092,8512.368333
16148.678174,0.000000,-3447.429741,8734.430116
16148.678498,-1406.391290,-3677.258390,8586.388927
16148.678822,-962.267725,-3294.210641,8660.409521
16148.679146,222.061783,-2757.943793,9252.574275
16148.679470,0.000000,-2374.896044,9400.615463
16148.679793,666.185348,-1762.019645,9178.553681
16148.680117,1258.350101,-766.095498,9104.533087
16148.680441,2294.638420,0.000000,9622.677246
16148.680765,2516.700203,536.266849,10436.903782
16148.681089,2590.720797,1225.752797,10584.944971
16148.681413,2442.679609,1991.848295,10288.862594
16148.681737,3256.906145,3140.991542,10288.862594
16148.682061,3552.988522,3294.210641,10955.047942
16148.682385,3034.844362,3294.210641,10436.903782
16148.682709,1924.535449,4519.963438,9696.697840
16148.683033,1850.514855,4826.401637,9030.512492
16148.683357,1184.329507,4903.011187,8734.430116
16148.683681,0.000000,5209.449386,7846.182985
16148.684005,-814.226536,4290.134789,7105.977043
16148.684328,-1924.535449,5132.839837,7105.977043
16148.684652,-2590.720797,4596.572988,7550.100608
16148.684976,-3552.988522,4366.744339,7328.038826
16148.685300,-4737.318029,3983.696590,7254.018232
16148.685624,-4737.318029,3524.039291,7105.977043
16148.685948,-4145.153275,3064.381992,7476.080014
16148.686272,-4293.194464,2451.505594,8216.285956
16148.686596,-4811.338623,2298.286494,8438.347739
16148.686920,-4145.153275,1762.019645,8660.409521
16148.687244,-2886.803174,1149.143247,9622.677246
16148.687568,-2368.659014,842.705048,10214.842000
16148.687892,-2072.576638,306.438199,10658.965565
16148.688216,-1184.329507,0.000000,10510.924376
16148.688540,148.041188,536.266849,10584.944971
16148.688864,1850.514855,612.876398,11843.295072
16148.689187,2220.617826,76.609550,10881.027347
16148.689511,2960.823768,229.828649,10658.965565
16148.689835,4441.235652,612.876398,9918.759623
16148.690159,5181.441594,459.657299,10140.821405
16148.690483,4367.215058,383.047749,9548.656652
16148.690807,3552.988522,-306.438199,8660.409521
16148.691131,2886.803174,-306.438199,8142.265362
16148.691455,2886.803174,-1302.362347,9104.533087
16148.691779,888.247130,-1838.629195,8882.471304
16148.692103,-296.082377,-2451.505594,8512.368333
16148.692427,0.000000,-2528.115143,8660.409521
16148.692751,0.000000,-2451.505594,9474.636058
16148.693075,296.082377,-2834.553343,9178.553681
16148.693399,370.102971,-2987.772442,8808.450710
16148.693722,962.267725,-1991.848295,8512.368333
16148.694046,2442.679609,-995.924147,9474.636058
16148.694370,3182.885551,-919.314598,10140.821405
16148.694694,2442.679609,-766.095498,10140.821405
16148.695018,1998.556043,-612.876398,10436.903782
16148.695342,2664.741391,0.000000,10436.903782
16148.695666,3552.988522,0.000000,11769.274478
16148.695990,1554.432478,383.047749,10732.986159
16148.696314,740.205942,1072.533697,10214.842000
16148.696638,740.205942,1762.019645,10140.821405
16148.696962,962.267725,2374.896044,9918.759623
16148.697286,-148.041188,2528.115143,9104.533087
16148.697610,-1036.288319,2757.943793,7846.182985
16148.697934,-1406.391290,3370.820191,7031.956449
16148.698257,-888.247130,3524.039291,7698.141797
16148.698581,-2812.782580,2911.162892,7402.059420
16148.698905,-4885.359217,2757.943793,6735.874072
16148.699229,-5255.462188,2298.286494,6809.894666
16148.699553,-5329.482782,1838.629195,7624.121203
16148.699877,-6291.750507,689.485948,8216.285956
16148.700201,-6365.771101,0.000000,8364.327145
16148.700525,-6735.874072,919.314598,8216.285956
16148.700849,-5477.523971,76.609550,9252.574275
16148.701173,-4441.235652,153.219100,10362.883188
16148.701497,-3997.112087,153.219100,10510.924376
16148.701821,-2664.741391,383.047749,10658.965565
16148.702145,-444.123565,536.266849,11621.233289
16148.702469,444.123565,306.438199,11991.336260
16148.702793,592.164754,306.438199,11621.233289
16148.703116,1628.453072,766.095498,11029.068536
16148.703440,3256.906145,842.705048,10658.965565
16148.703764,4145.153275,1149.143247,10214.842000
16148.704088,4293.194464,1685.410096,9474.636058
16148.704412,4441.235652,1532.190996,8586.388927
16148.704736,4515.256246,1685.410096,8142.265362
16148.705060,4441.235652,1378.971896,8290.306550
16148.705384,3849.070898,1225.752797,8216.285956
16148.705708,2516.700203,919.314598,7994.224174
16148.706032,2368.659014,536.266849,7920.203579
16148.706356,2812.782580,306.438199,8734.430116
16148.706680,2146.597232,-153.219100,8882.471304
16148.707004,1406.391290,-766.095498,8512.368333
16148.707328,1258.350101,-306.438199,8734.430116
16148.707651,2664.741391,0.000000,8586.388927
16148.707975,2886.803174,153.219100,9770.718434
16148.708299,2368.659014,536.266849,9696.697840
16148.708623,2146.597232,766.095498,9474.636058
16148.708947,3034.844362,919.314598,10066.800811
16148.709271,2960.823768,1532.190996,10658.965565
16148.709595,2072.576638,1225.752797,10584.944971
16148.709919,1036.288319,1762.019645,10658.965565
16148.710243,1924.535449,2451.505594,10955.047942
16148.710567,1480.411884,1685.410096,11325.150913
16148.710891,0.000000,1915.238745,10510.924376
16148.711215,-740.205942,2451.505594,9474.636058
16148.711539,-1110.308913,2911.162892,8882.471304
16148.711863,-1628.453072,2451.505594,8216.285956
16148.712187,-3034.844362,2528.115143,7402.059420
16148.712510,-4441.235652,2221.676944,6291.750507
16148.712834,-5181.441594,2451.505594,6069.688724
16148.713158,-5107.421000,1608.800546,6587.832884
16148.713482,-6069.688724,1302.362347,6957.935855
16148.713806,-6883.915261,536.266849,7328.038826
16148.714130,-6883.915261,-229.828649,7179.997637
16148.714454,-6217.729913,-1378.971896,8290.306550
16148.714778,-5551.544565,-1225.752797,8438.347739
16148.715102,-6291.750507,-1838.629195,9770.718434
16148.715426,-5033.400406,-2298.286494,10214.842000
16148.715750,-3478.967927,-2145.067394,11177.109724
16148.716074,-2590.720797,-2604.724693,11769.274478
16148.716398,-1924.535449,-2604.724693,12065.356855
16148.716722,-1184.329507,-2068.457845,11621.233289
16148.717045,1036.288319,-1991.848295,11251.130318
16148.717369,2738.761985,-1149.143247,11769.274478
16148.717693,3701.029710,-1072.533697,10955.047942
16148.718017,3997.112087,-383.047749,9992.780217
16148.718341,5625.565159,76.609550,9252.574275
16148.718665,6143.709319,536.266849,9400.615463
16148.718989,4885.359217,306.438199,8438.347739
16148.719313,3627.009116,153.219100,8068.244768
16148.719637,3775.050304,-229.828649,7994.224174
16148.719961,2812.782580,-842.705048,7920.203579
16148.720285,1628.453072,-1608.800546,8216.285956
16148.720609,666.185348,-1302.362347,7920.203579
16148.720933,1184.329507,-1378.971896,8364.327145
16148.721257,1628.453072,-995.924147,8660.409521
16148.721580,2220.617826,-766.095498,9400.615463
16148.721904,2442.679609,536.266849,9400.615463
16148.722228,3182.885551,1072.533697,9622.677246
16148.722552,4293.194464,1608.800546,9622.677246
16148.722876,4737.318029,2068.457845,10510.924376
16148.723200,3701.029710,2374.896044,9844.739029
16148.723524,3034.844362,2451.505594,10288.862594
16148.723848,3182.885551,2911.162892,10658.965565
16148.724172,2368.659014,2604.724693,10955.047942
16148.724496,888.247130,2911.162892,10732.986159
16148.724820,296.082377,3370.820191,10140.821405
16148.725144,-370.102971,3524.039291,9770.718434
16148.725468,-592.164754,3907.087040,9178.553681
16148.725792,-1110.308913,4826.401637,9104.533087
16148.726116,-3256.906145,4519.963438,7105.977043
16148.726439,-2960.823768,3753.867940,6661.853478
16148.726763,-3108.864956,4136.915689,6661.853478
16148.727087,-4811.338623,3447.429741,6661.853478
16148.727411,-6883.915261,2298.286494,6513.812290
16148.727735,-7031.956449,1915.238745,6513.812290
16148.728059,-6661.853478,459.657299,7105.977043
16148.728383,-7328.038826,-383.047749,7328.038826
16148.728707,-7476.080014,-612.876398,7698.141797
16148.729031,-6957.935855,-1225.752797,8142.265362
16148.729355,-5625.565159,-1532.190996,9474.636058
16148.729679,-4145.153275,-1762.019645,10881.027347
16148.730003,-3627.009116,-2298.286494,11843.295072
16148.730327,-2368.659014,-3064.381992,11251.130318
16148.730651,518.144159,-2451.505594,12139.377449
16148.730974,2220.617826,-2374.896044,12361.439231
16148.731298,2294.638420,-2604.724693,12361.439231
16148.731622,3330.926739,-2451.505594,11547.212695
16148.731946,4959.379811,-1838.629195,11177.109724
16148.732270,5255.462188,-1685.410096,10584.944971
16148.732594,5033.400406,-1762.019645,9992.780217
16148.732918,4737.318029,-766.095498,9178.553681
16148.733242,3923.091493,-1455.581446,8438.347739
16148.733566,3997.112087,-1915.238745,8216.285956
16148.733890,2960.823768,-2068.457845,8290.306550
16148.734214,1184.329507,-2221.676944,7994.224174
16148.734538,740.205942,-2528.115143,7920.203579
16148.734862,2220.617826,-2374.896044,8660.409521
16148.735186,2072.576638,-2528.115143,9474.636058
16148.735510,1332.370696,-1762.019645,8882.471304
16148.735833,1850.514855,-1378.971896,9030.512492
16148.736157,3552.988522,-306.438199,9252.574275
16148.736481,3923.091493,0.000000,9844.739029
16148.736805,3701.029710,919.314598,9918.759623
16148.737129,3849.070898,1149.143247,9474.636058
16148.737453,3108.864956,1455.581446,9696.697840
16148.737777,3627.009116,2298.286494,10658.965565
16148.738101,2738.761985,2451.505594,11251.130318
16148.738425,1036.288319,2681.334243,10881.027347
16148.738749,1258.350101,2987.772442,10140.821405
16148.739073,1110.308913,3524.039291,10436.903782
16148.739397,-666.185348,3753.867940,9622.677246
16148.739721,-2146.597232,4136.915689,8734.430116
16148.740045,-2368.659014,4366.744339,7920.203579
16148.740368,-2960.823768,3447.429741,7476.080014
16148.740692,-4589.276840,3753.867940,7254.018232
16148.741016,-5699.585753,3830.477490,6661.853478
16148.741340,-6883.915261,3447.429741,6291.750507
16148.741664,-7105.977043,2987.772442,6365.771101
16148.741988,-6735.874072,2604.724693,7179.997637
16148.742312,-6957.935855,2681.334243,6883.915261
16148.742636,-7179.997637,1455.581446,6957.935855
16148.742960,-5477.523971,1302.362347,8068.244768
16148.743284,-4145.153275,842.705048,9178.553681
16148.743608,-4441.235652,76.609550,9844.739029
16148.743932,-3256.906145,-153.219100,9770.718434
16148.744256,-1850.514855,-459.657299,10584.944971
16148.744580,-666.185348,-1149.143247,11325.150913
16148.744903,0.000000,-1532.190996,11621.233289
16148.745228,1406.391290,-1608.800546,11695.253884
16148.745552,3034.844362,-1072.533697,11843.295072
16148.745876,3997.112087,-766.095498,11843.295072
16148.746200,4589.276840,-766.095498,10510.924376
16148.746524,5255.462188,-459.657299,9918.759623
16148.746848,6143.709319,229.828649,8808.450710
16148.747172,5847.626942,0.000000,9030.512492
16148.747496,4589.276840,-689.485948,8660.409521
16148.747820,3404.947333,-1225.752797,8142.265362
16148.748144,3034.844362,-1685.410096,8068.244768
16148.748468,2072.576638,-1608.800546,8142.265362
16148.748792,888.247130,-2757.943793,8660.409521
16148.749116,1036.288319,-2681.334243,8956.491898
16148.749440,1258.350101,-2221.676944,8808.450710
16148.749764,1924.535449,-2145.067394,9474.636058
16148.750088,2294.638420,-1225.752797,9696.697840
16148.750413,2812.782580,-383.047749,9770.718434
16148.750737,3404.947333,229.828649,9770.718434
16148.751061,4589.276840,995.924147,10140.821405
16148.751385,4367.215058,1225.752797,10288.862594
16148.751709,3182.885551,1532.190996,10436.903782
16148.752033,2294.638420,1532.190996,10214.842000
16148.752357,2146.597232,1685.410096,11029.068536
16148.752681,888.247130,1838.629195,11621.233289
16148.753005,-666.185348,1915.238745,11103.089130
16148.753329,-1480.411884,2068.457845,10140.821405
16148.753653,-1628.453072,2911.162892,9252.574275
16148.753977,-1702.473667,2145.067394,9104.533087
16148.754301,-2960.823768,4213.525239,8364.327145
16148.754625,-5033.400406,3447.429741,7254.018232
16148.754949,-4663.297435,3447.429741,6587.832884
16148.755273,-4293.194464,3677.258390,7105.977043
16148.755598,-5551.544565,3370.820191,6883.915261
16148.755922,-7031.956449,2068.457845,6661.853478
16148.756246,-6365.771101,2221.676944,6587.832884
16148.756570,-6365.771101,995.924147,7105.977043
16148.756894,-6883.915261,1149.143247,7846.182985
16148.757218,-6735.874072,536.266849,7920.203579
16148.757542,-5773.606348,76.609550,8586.388927
16148.757866,-4663.297435,0.000000,9770.718434
16148.758190,-2886.803174,-229.828649,10658.965565
16148.758514,-2368.659014,-612.876398,11029.068536
16148.758838,-1776.494261,-919.314598,11325.150913
16148.759162,1184.329507,-612.876398,11399.171507
16148.759486,3108.864956,-153.219100,11991.336260
16148.759810,3108.864956,-612.876398,11621.233289
16148.760134,4071.132681,229.828649,10732.986159
16148.760458,5551.544565,536.266849,10807.006753
16148.760783,5847.626942,536.266849,9696.697840
16148.761107,5551.544565,0.000000,8808.450710
16148.761431,4515.256246,0.000000,8734.430116
16148.761755,3997.112087,0.000000,8142.265362
16148.762079,3849.070898,-612.876398,8586.388927
16148.762403,3849.070898,-612.876398,8956.491898
16148.762727,1998.556043,-1378.971896,8512.368333
16148.763051,1702.473667,-842.705048,8586.388927
16148.763375,3404.947333,-995.924147,9252.574275
16148.763699,3552.988522,-766.095498,9252.574275
16148.764023,2294.638420,-536.266849,9252.574275
16148.764347,3034.844362,153.219100,9474.636058
16148.764671,4145.153275,306.438199,9474.636058
16148.764995,3701.029710,612.876398,10066.800811
16148.765319,2886.803174,1302.362347,9844.739029
16148.765643,1628.453072,1455.581446,9474.636058
16148.765968,1850.514855,1378.971896,9770.718434
16148.766292,1702.473667,1685.410096,10732.986159
16148.766616,592.164754,1991.848295,10881.027347
16148.766940,-814.226536,2221.676944,10362.883188
16148.767264,-370.102971,2604.724693,10140.821405
16148.767588,-148.041188,2757.943793,9844.739029
16148.767912,-1628.453072,3600.648841,9104.533087
16148.768236,-3330.926739,3600.648841,8216.285956
16148.768560,-3034.844362,3600.648841,7920.203579
16148.768884,-3478.967927,3217.601092,7476.080014
16148.769208,-5033.400406,3064.381992,7179.997637
16148.769532,-6069.688724,2451.505594,6735.874072
16148.769856,-6069.688724,2757.943793,6661.853478
16148.770180,-6217.729913,2374.896044,7031.956449
16148.770504,-6513.812290,1915.238745,7254.018232
16148.770828,-6735.874072,766.095498,7402.059420
16148.771153,-6883.915261,459.657299,7476.080014
16148.771477,-5181.441594,459.657299,8290.306550
16148.771801,-4145.153275,-459.657299,9548.656652
16148.772125,-4145.153275,-842.705048,10436.903782
16148.772449,-3256.906145,-1378.971896,10732.986159
16148.772773,-2146.597232,-1685.410096,11029.068536
16148.773097,-888.247130,-1915.238745,11769.274478
16148.773421,222.061783,-1838.629195,11843.295072
16148.773745,1554.432478,-1608.800546,11399.171507
16148.774069,2590.720797,-1378.971896,10807.006753
16148.774393,4441.235652,-612.876398,10584.944971
16148.774717,5181.441594,229.828649,10066.800811
16148.775041,4885.359217,0.000000,8956.491898
16148.775365,6069.688724,76.609550,8660.409521
16148.775689,6143.709319,76.609550,8882.471304
16148.776013,5181.441594,-76.609550,8734.430116
16148.776338,3849.070898,-1302.362347,8808.450710
16148.776662,3182.885551,-1225.752797,8142.265362
16148.776986,2664.741391,-1378.971896,8290.306550
16148.777310,2146.597232,-1685.410096,9178.553681
16148.777634,1628.453072,-1762.019645,9400.615463
16148.777958,1998.556043,-1455.581446,9030.512492
16148.778282,2368.659014,-612.876398,9474.636058
16148.778606,3256.906145,0.000000,9918.759623
16148.778930,3627.009116,995.924147,9696.697840
16148.779254,3330.926739,2221.676944,9326.594869
16148.779578,4293.194464,2374.896044,9252.574275
16148.779902,4219.173869,2451.505594,9622.677246
16148.780226,2664.741391,2298.286494,10288.862594
16148.780550,1480.411884,2374.896044,10362.883188
16148.780874,1110.308913,2681.334243,10584.944971
16148.781198,592.164754,2757.943793,10732.986159
16148.781523,-592.164754,2911.162892,10436.903782
16148.781847,-1702.473667,3600.648841,8956.491898
16148.782171,-2368.659014,3524.039291,8364.327145
16148.782495,-2442.679609,3677.258390,7846.182985
16148.782819,-3330.926739,3447.429741,7550.100608
16148.783143,-4367.215058,3753.867940,7476.080014
16148.783467,-4885.359217,3677.258390,6365.771101
16148.783791,-4589.276840,3600.648841,6809.894666
16148.784115,-4885.359217,3524.039291,6957.935855
16148.784439,-7179.997637,2221.676944,6513.812290
16148.784763,-6439.791695,1455.581446,6883.915261
16148.785087,-5921.647536,1072.533697,7550.100608
16148.785411,-6069.688724,229.828649,8216.285956
16148.785735,-6439.791695,-689.485948,8808.450710
16148.786059,-5107.421000,-1378.971896,9400.615463
16148.786383,-3627.009116,-1378.971896,10510.924376
16148.786708,-2812.782580,-1838.629195,11843.295072
16148.787032,-1776.494261,-2221.676944,11843.295072
16148.787356,-888.247130,-2374.896044,11843.295072
16148.787680,1628.453072,-1838.629195,11843.295072
16148.788004,3775.050304,-1532.190996,12065.356855
16148.788328,3701.029710,-1225.752797,11917.315666
16148.788652,4219.173869,-1149.143247,10510.924376
16148.788976,5329.482782,-612.876398,9548.656652
16148.789300,5403.503377,-919.314598,9400.615463
16148.789624,4441.235652,-766.095498,8882.471304
16148.789948,3775.050304,-1455.581446,8216.285956
16148.790272,2960.823768,-1455.581446,7550.100608
16148.790596,2368.659014,-2298.286494,8142.265362
16148.790920,2368.659014,-2145.067394,9104.533087
16148.791244,1258.350101,-2145.067394,8364.327145
16148.791568,814.226536,-2451.505594,8586.388927
16148.791893,3256.906145,-1685.410096,9400.615463
16148.792217,3701.029710,-1532.190996,9622.677246
16148.792541,2886.803174,-1072.533697,9622.677246
16148.792865,3701.029710,0.000000,10066.800811
16148.793189,4589.276840,459.657299,9548.656652
16148.793513,4441.235652,689.485948,10140.821405
16148.793837,3552.988522,1302.362347,9844.739029
16148.794161,2960.823768,1532.190996,9770.718434
16148.794485,2146.597232,1762.019645,10214.842000
16148.794809,2294.638420,1991.848295,10658.965565
16148.795133,1406.391290,2374.896044,10881.027347
16148.795457,0.000000,3294.210641,9844.739029
16148.795781,-740.205942,2987.772442,9400.615463
16148.796105,0.000000,3064.381992,9696.697840
16148.796429,-1702.473667,3600.648841,9104.533087
16148.796753,-3701.029710,3753.867940,7846.182985
16148.797078,-4219.173869,3983.696590,7179.997637
16148.797402,-4441.235652,3753.867940,6661.853478
16148.797726,-5773.606348,3370.820191,6809.894666
16148.798050,-6513.812290,2987.772442,6217.729913
16148.798374,-6957.935855,2757.943793,6217.729913
16148.798698,-6661.853478,1685.410096,7105.977043
16148.799022,-6365.771101,1991.848295,7624.121203
16148.799346,-6439.791695,1072.533697,8068.244768
16148.799670,-6587.832884,842.705048,8216.285956
16148.799994,-4589.276840,76.609550,9400.615463
16148.800318,-3108.864956,0.000000,9992.780217
16148.800642,-3034.844362,-1149.143247,11177.109724
16148.800966,-2664.741391,-1532.190996,11103.089130
16148.801290,-1332.370696,-1378.971896,11843.295072
16148.801614,296.082377,-1762.019645,11917.315666
16148.801938,962.267725,-1532.190996,11843.295072
16148.802263,1702.473667,-1072.533697,10955.047942
16148.802587,3182.885551,-766.095498,10288.862594
16148.802911,3997.112087,-995.924147,10288.862594
16148.803235,4811.338623,0.000000,9400.615463
16148.803559,4737.318029,0.000000,9326.594869
16148.803883,4589.276840,-459.657299,8142.265362
16148.804207,5033.400406,-536.266849,8586.388927
16148.804531,4145.153275,-1302.362347,8660.409521
16148.804855,2738.761985,-1532.190996,8438.347739
16148.805179,2590.720797,-1685.410096,8956.491898
16148.805503,2368.659014,-2987.772442,8586.388927
16148.805827,1702.473667,-2987.772442,9400.615463
16148.806151,1924.535449,-2528.115143,9474.636058
16148.806475,2368.659014,-1915.238745,9474.636058
16148.806799,2516.700203,-1302.362347,9474.636058
16148.807123,3404.947333,0.000000,10066.800811
16148.807448,3034.844362,383.047749,9770.718434
16148.807772,3997.112087,1225.752797,9696.697840
16148.808096,3997.112087,1378.971896,10214.842000
16148.808420,3923.091493,1838.629195,10584.944971
16148.808744,2220.617826,1608.800546,10881.027347
16148.809068,888.247130,1532.190996,10140.821405
16148.809392,1924.535449,2451.505594,10584.944971
16148.809716,370.102971,2834.553343,9992.780217
16148.810040,-1258.350101,2604.724693,9622.677246
16148.810364,-2072.576638,2987.772442,8882.471304
16148.810688,-2664.741391,3600.648841,8216.285956
16148.811012,-3108.864956,3217.601092,7698.141797
16148.811336,-4071.132681,3447.429741,7402.059420
16148.811660,-5255.462188,3677.258390,6809.894666
16148.811984,-5329.482782,4136.915689,5995.668130
16148.812308,-5329.482782,3524.039291,6513.812290
16148.812632,-5625.565159,2451.505594,7031.956449
16148.812957,-7476.080014,2451.505594,7105.977043
16148.813281,-7550.100608,1302.362347,7402.059420
16148.813605,-6291.750507,689.485948,8142.265362
16148.813929,-6291.750507,536.266849,8734.430116
16148.814253,-6439.791695,0.000000,9400.615463
16148.814577,-5255.462188,0.000000,9992.780217
16148.814901,-3701.029710,-1149.143247,10955.047942
16148.815225,-1924.535449,-1378.971896,11917.315666
16148.815549,-962.267725,-995.924147,12287.418637
16148.815873,0.000000,-919.314598,11843.295072
16148.816197,3108.864956,229.828649,11399.171507
16148.816521,5033.400406,383.047749,11621.233289
16148.816845,4959.379811,-306.438199,10807.006753
16148.817169,4515.256246,689.485948,9326.594869
16148.817493,5699.585753,766.095498,9252.574275
16148.817817,5921.647536,306.438199,9326.594869
16148.818142,4293.194464,-306.438199,8882.471304
16148.818466,3478.967927,0.000000,8142.265362
16148.818790,2960.823768,-689.485948,7920.203579
16148.819114,2072.576638,-1838.629195,7846.182985
16148.819438,2072.576638,-1991.848295,8660.409521
16148.819762,1776.494261,-1915.238745,8734.430116
16148.820086,1702.473667,-1532.190996,8734.430116
16148.820410,3627.009116,-919.314598,9178.553681
16148.820734,4071.132681,0.000000,9622.677246
16148.821058,3701.029710,-612.876398,9474.636058
16148.821382,3701.029710,1072.533697,9178.553681
16148.821706,4811.338623,1762.019645,10066.800811
16148.822030,4293.194464,689.485948,10881.027347
16148.822354,3404.947333,1072.533697,10658.965565
16148.822678,2294.638420,1762.019645,10732.986159
16148.823002,1332.370696,1378.971896,11029.068536
16148.823327,1628.453072,1455.581446,10955.047942
16148.823651,296.082377,2374.896044,11399.171507
16148.823975,-666.185348,2451.505594,10140.821405
16148.824299,-888.247130,2757.943793,9326.594869
16148.824623,-740.205942,3600.648841,8734.430116
16148.824947,-2220.617826,3524.039291,8216.285956
16148.825271,-3923.091493,3753.867940,7550.100608
16148.825595,-4071.132681,3830.477490,6883.915261
16148.825919,-4737.318029,3370.820191,6439.791695
16148.826243,-5625.565159,3370.820191,6587.832884
16148.826567,-7105.977043,2528.115143,6661.853478
16148.826891,-7476.080014,1991.848295,6143.709319
16148.827215,-7254.018232,1455.581446,7105.977043
16148.827539,-6957.935855,995.924147,7994.224174
16148.827863,-6957.935855,306.438199,7846.182985
16148.828187,-6735.874072,153.219100,8364.327145
16148.828512,-4589.276840,153.219100,9548.656652
16148.828836,-3330.926739,-766.095498,11177.109724
16148.829160,-3108.864956,-1225.752797,11547.212695
16148.829484,-1924.535449,-1685.410096,11695.253884
16148.829808,-148.041188,-1302.362347,11843.295072
16148.830132,1406.391290,-1608.800546,11473.192101
16148.830456,2294.638420,-995.924147,11621.233289
16148.830780,3330.926739,-1149.143247,10955.047942
16148.831104,4293.194464,-383.047749,10214.842000
16148.831428,5477.523971,0.000000,10066.800811
16148.831752,5625.565159,76.609550,9770.718434
16148.832076,5477.523971,153.219100,9178.553681
16148.832400,5181.441594,-306.438199,8290.306550
16148.832724,5625.565159,0.000000,8290.306550
16148.833048,4219.173869,-1915.238745,8290.306550
16148.833372,2590.720797,-2068.457845,8438.347739
16148.833697,2220.617826,-1532.190996,8438.347739
16148.834021,2294.638420,-2145.067394,9030.512492
16148.834345,1702.473667,-2145.067394,9326.594869
16148.834669,1924.535449,-1532.190996,9400.615463
16148.834993,2072.576638,-842.705048,8660.409521
16148.835317,2664.741391,0.000000,9104.533087
16148.835641,3256.906145,306.438199,9474.636058
16148.835965,3404.947333,1378.971896,9844.739029
16148.836289,3182.885551,1608.800546,9992.780217
16148.836613,3627.009116,2068.457845,10288.862594
16148.836937,3552.988522,2068.457845,11177.109724
16148.837261,1924.535449,1991.848295,11103.089130
16148.837585,1258.350101,2298.286494,10658.965565
16148.837909,1110.308913,2451.505594,10362.883188
16148.838233,518.144159,2834.553343,10362.883188
16148.838557,-518.144159,2911.162892,9474.636058
16148.838882,-1554.432478,3524.039291,8660.409521
16148.839206,-2146.597232,3524.039291,7402.059420
16148.839530,-3182.885551,3524.039291,7550.100608
16148.839854,-3997.112087,3447.429741,7328.038826
16148.840178,-5033.400406,3907.087040,6291.750507
16148.840502,-5773.606348,3217.601092,6143.709319
16148.840826,-5847.626942,2604.724693,6587.832884
16148.841150,-6291.750507,2298.286494,7105.977043
16148.841474,-7846.182985,1225.752797,7328.038826
16148.841798,-7772.162391,306.438199,7920.203579
16148.842122,-6957.935855,536.266849,8216.285956
16148.842446,-6513.812290,-995.924147,9326.594869
16148.842770,-6365.771101,-1072.533697,9548.656652
16148.843094,-4811.338623,-1762.019645,10658.965565
16148.843418,-3404.947333,-1608.800546,10955.047942
16148.843742,-1554.432478,-1915.238745,11843.295072
16148.844067,0.000000,-1455.581446,11991.336260
16148.844391,1406.391290,-995.924147,11473.192101
16148.844715,4145.153275,-459.657299,11103.089130
16148.845039,5995.668130,0.000000,11103.089130
16148.845363,5773.606348,0.000000,10214.842000
16148.845687,5329.482782,0.000000,9326.594869
16148.846011,6291.750507,0.000000,9104.533087
16148.846335,5995.668130,-306.438199,8956.491898
16148.846659,4219.173869,-1149.143247,8586.388927
16148.846983,3256.906145,-1072.533697,8660.409521
16148.847307,2590.720797,-1915.238745,8364.327145
16148.847631,2072.576638,-2604.724693,8586.388927
16148.847955,2072.576638,-2451.505594,9030.512492
16148.848279,1332.370696,-2298.286494,9030.512492
16148.848603,1702.473667,-1685.410096,8808.450710
16148.848927,3552.988522,-919.314598,9400.615463
16148.849251,4293.194464,-229.828649,9622.677246
16148.849576,3552.988522,0.000000,9770.718434
16148.849900,3849.070898,1149.143247,9326.594869
16148.850224,4663.297435,1149.143247,9992.780217
16148.850548,3478.967927,919.314598,10436.903782
16148.850872,2146.597232,1072.533697,10288.862594
16148.851196,1406.391290,1608.800546,10288.862594
16148.851520,296.082377,2068.457845,10436.903782
16148.851844,296.082377,2145.067394,10362.883188
16148.852168,148.041188,1991.848295,10436.903782
16148.852492,-1332.370696,2681.334243,9622.677246
16148.852816,-1850.514855,2987.772442,8512.368333
16148.853140,-740.205942,3677.258390,8734.430116
16148.853464,-2368.659014,3677.258390,8068.244768
16148.853788,-3923.091493,3830.477490,7105.977043
16148.854112,-4367.215058,3983.696590,6809.894666
16148.854436,-4589.276840,3677.258390,6735.874072
16148.854760,-5995.668130,2528.115143,7105.977043
16148.855084,-6809.894666,1991.848295,7179.997637
16148.855408,-7105.977043,1838.629195,6809.894666
16148.855732,-6883.915261,919.314598,7328.038826
16148.856056,-6587.832884,919.314598,8512.368333
16148.856380,-6217.729913,0.000000,8512.368333
16148.856704,-5847.626942,-229.828649,9326.594869
16148.857028,-3923.091493,-306.438199,10066.800811
16148.857352,-2664.741391,-842.705048,11325.150913
16148.857676,-2812.782580,-1378.971896,11325.150913
16148.858000,-1702.473667,-1302.362347,11325.150913
16148.858324,296.082377,-1532.190996,11251.130318
16148.858648,1998.556043,-1225.752797,11473.192101
16148.858973,2590.720797,-612.876398,11177.109724
16148.859297,3478.967927,-689.485948,9696.697840
16148.859621,4145.153275,0.000000,9326.594869
16148.859945,5107.421000,-229.828649,9474.636058
16148.860269,5699.585753,0.000000,9474.636058
16148.860593,4293.194464,0.000000,8882.471304
16148.860917,4959.379811,-459.657299,7994.224174
16148.861241,5403.503377,-459.657299,8882.471304
16148.861565,3923.091493,-1455.581446,8882.471304
16148.861889,2442.679609,-2145.067394,8956.491898
16148.862213,2220.617826,-2145.067394,8956.491898
16148.862537,2738.761985,-2298.286494,9104.533087
16148.862861,2664.741391,-1302.362347,9474.636058
16148.863185,2368.659014,-995.924147,9474.636058
16148.863509,2516.700203,-76.609550,8956.491898
16148.863833,2664.741391,-229.828649,9104.533087
16148.864157,2960.823768,536.266849,9918.759623
16148.864481,2886.803174,842.705048,10066.800811
16148.864805,2368.659014,995.924147,9992.780217
16148.865129,2590.720797,1762.019645,9844.739029
16148.865453,2516.700203,1991.848295,10658.965565
16148.865777,1184.329507,2374.896044,10732.986159
16148.866101,814.226536,2374.896044,10362.883188
16148.866425,518.144159,2528.115143,10214.842000
16148.866749,148.041188,2834.553343,9622.677246
16148.867073,-1110.308913,2987.772442,9400.615463
16148.867397,-1702.473667,3370.820191,8586.388927
16148.867721,-2368.659014,3064.381992,7179.997637
16148.868045,-3404.947333,3447.429741,7105.977043
16148.868369,-4441.235652,3600.648841,7031.956449
16148.868694,-5403.503377,3370.820191,6809.894666
16148.869018,-6217.729913,2757.943793,6883.915261
16148.869342,-6069.688724,2298.286494,6809.894666
16148.869666,-6587.832884,1378.971896,7179.997637
16148.869990,-7476.080014,842.705048,7402.059420
16148.870314,-7031.956449,306.438199,8660.409521
16148.870638,-6661.853478,76.609550,8364.327145
16148.870962,-5921.647536,-612.876398,9548.656652
16148.871286,-5625.565159,-842.705048,10362.883188
16148.871610,-4663.297435,-1378.971896,10881.027347
16148.871934,-2886.803174,-1532.190996,11029.068536
16148.872258,-740.205942,-1225.752797,11621.233289
16148.872582,592.164754,-1149.143247,11621.233289
16148.872906,1628.453072,-229.828649,10658.965565
16148.873230,4293.194464,0.000000,10510.924376
16148.873554,6439.791695,612.876398,10510.924376
16148.873878,6143.709319,995.924147,9918.759623
16148.874202,5107.421000,536.266849,9178.553681
16148.874526,6143.709319,306.438199,8734.430116
16148.874850,5995.668130,306.438199,8216.285956
16148.875174,4293.194464,-766.095498,8512.368333
16148.875498,2590.720797,-1225.752797,8660.409521
16148.875822,2072.576638,-1762.019645,7994.224174
16148.876146,1776.494261,-2374.896044,8438.347739
16148.876470,1924.535449,-2068.457845,9474.636058
16148.876794,1406.391290,-2145.067394,8438.347739
16148.877118,1998.556043,-1378.971896,8734.430116
16148.877442,3849.070898,-383.047749,9104.533087
16148.877766,4589.276840,-459.657299,10066.800811
16148.878091,3552.988522,306.438199,10140.821405
16148.878415,3404.947333,919.314598,9844.739029
16148.878739,4071.132681,1149.143247,10140.821405
16148.879063,3404.947333,1378.971896,10955.047942
16148.879387,2294.638420,1455.581446,11251.130318
16148.879711,1332.370696,1455.581446,10732.986159
16148.880035,444.123565,1762.019645,10140.821405
16148.880359,814.226536,2068.457845,10584.944971
16148.880683,296.082377,2604.724693,10288.862594
16148.881007,-1258.350101,3064.381992,8956.491898
16148.881331,-1480.411884,3753.867940,7846.182985
16148.881655,-666.185348,4366.744339,7846.182985
16148.881979,-2220.617826,3983.696590,7550.100608
16148.882303,-4663.297435,3983.696590,6513.812290
16148.882627,-4737.318029,3600.648841,5995.668130
16148.882951,-5403.503377,3217.601092,6735.874072
16148.883275,-6291.750507,2298.286494,6883.915261
16148.883599,-7402.059420,1608.800546,7105.977043
16148.883923,-7994.224174,995.924147,6809.894666
16148.884247,-7254.018232,842.705048,7846.182985
16148.884571,-6291.750507,689.485948,8734.430116
16148.884895,-6217.729913,0.000000,9622.677246
16148.885219,-5625.565159,-995.924147,10288.862594
16148.885543,-3701.029710,-612.876398,10658.965565
16148.885867,-1776.494261,-1072.533697,11991.336260
16148.886191,-1332.370696,-842.705048,11991.336260
16148.886515,-888.247130,-689.485948,11473.192101
16148.886839,1554.432478,-536.266849,11473.192101
16148.887163,3182.885551,-995.924147,11325.150913
16148.887488,3627.009116,-766.095498,10881.027347
16148.887812,3923.091493,-306.438199,9696.697840
16148.888136,4441.235652,76.609550,9030.512492
16148.888460,4811.338623,0.000000,8882.471304
16148.888784,4885.359217,-612.876398,8142.265362
16148.889108,3849.070898,-536.266849,8142.265362
16148.889432,3478.967927,-995.924147,7772.162391
16148.889756,3552.988522,-1378.971896,8438.347739
16148.890080,2886.803174,-1762.019645,8956.491898
16148.890404,1924.535449,-2068.457845,9326.594869
16148.890728,1850.514855,-2145.067394,9030.512492
16148.891052,2590.720797,-1685.410096,9326.594869
16148.891376,3256.906145,-1685.410096,9844.739029
16148.891700,3404.947333,-1072.533697,9696.697840
16148.892024,3182.885551,-229.828649,9770.718434
16148.892348,3478.967927,0.000000,9844.739029
16148.892672,3997.112087,766.095498,10658.965565
16148.892996,3701.029710,1149.143247,10955.047942
16148.893320,2664.741391,1455.581446,10584.944971
16148.893644,3256.906145,1762.019645,11399.171507
16148.893968,2442.679609,1762.019645,10436.903782
16148.894292,1554.432478,2374.896044,10881.027347
16148.894616,518.144159,2757.943793,10140.821405
16148.894940,0.000000,3140.991542,9474.636058
16148.895264,-1184.329507,3447.429741,8512.368333
16148.895588,-1480.411884,2834.553343,7846.182985
16148.895912,-2738.761985,3983.696590,7476.080014
16148.896236,-3997.112087,4060.306139,7105.977043
16148.896560,-4737.318029,3830.477490,6365.771101
16148.896885,-5551.544565,3524.039291,6439.791695
16148.897209,-6365.771101,3217.601092,6809.894666
16148.897533,-6957.935855,2834.553343,6883.915261
16148.897857,-6809.894666,2374.896044,6957.935855
16148.898181,-6365.771101,1378.971896,7698.141797
16148.898505,-7105.977043,612.876398,8290.306550
16148.898829,-6957.935855,459.657299,8438.347739
16148.899153,-5625.565159,0.000000,9548.656652
16148.899477,-4737.318029,-612.876398,10732.986159
16148.899801,-3923.091493,-995.924147,11103.089130
16148.900125,-2590.720797,-1762.019645,11621.233289
16148.900449,-1258.350101,-1072.533697,11621.233289
16148.900773,814.226536,-766.095498,11769.274478
16148.901097,2072.576638,-919.314598,11473.192101
16148.901421,2812.782580,-306.438199,11029.068536
16148.901745,4441.235652,0.000000,10288.862594
16148.902069,6069.688724,76.609550,10140.821405
16148.902393,5995.668130,153.219100,9326.594869
16148.902717,4515.256246,0.000000,8808.450710
16148.903041,4885.359217,-536.266849,8364.327145
16148.903365,4737.318029,-689.485948,7994.224174
16148.903689,2886.803174,-1838.629195,8364.327145
16148.904013,1628.453072,-2221.676944,8290.306550
16148.904337,1406.391290,-2221.676944,8290.306550
16148.904661,1480.411884,-2757.943793,8734.430116
16148.904985,2220.617826,-2068.457845,9548.656652
16148.905309,2146.597232,-2145.067394,9326.594869
16148.905633,2220.617826,-842.705048,8808.450710
16148.905957,3775.050304,-306.438199,9622.677246
16148.906282,4589.276840,0.000000,10140.821405
16148.906606,3478.967927,383.047749,10140.821405
16148.906930,3108.864956,383.047749,9992.780217
16148.907254,3701.029710,1149.143247,10436.903782
16148.907578,2590.720797,1072.533697,10955.047942
16148.907902,1406.391290,1838.629195,11029.068536
16148.908226,1406.391290,1532.190996,10881.027347
16148.908550,518.144159,2068.457845,10510.924376
16148.908874,444.123565,2451.505594,10362.883188
16148.909198,74.020594,2987.772442,9400.615463
16148.909522,-1332.370696,3064.381992,8364.327145
16148.909846,-1924.535449,4136.915689,7105.977043
16148.910170,-1554.432478,4213.525239,7254.018232
16148.910494,-2368.659014,3753.867940,7254.018232
16148.910818,-4441.235652,3600.648841,6957.935855
16148.911142,-5329.482782,3140.991542,6439.791695
16148.911466,-5699.585753,2987.772442,6661.853478
16148.911790,-6587.832884,1915.238745,7328.038826
16148.912114,-7698.141797,1302.362347,7031.956449
16148.912438,-7402.059420,995.924147,7402.059420
16148.912762,-7550.100608,536.266849,8142.265362
16148.913086,-6365.771101,153.219100,9326.594869
16148.913410,-5477.523971,0.000000,9622.677246
16148.913734,-5255.462188,-612.876398,10362.883188
16148.914058,-3108.864956,-383.047749,10510.924376
16148.914382,-296.082377,-766.095498,12583.501014
16148.914706,-518.144159,-995.924147,11843.295072
16148.915030,148.041188,-1225.752797,11029.068536
16148.915354,2294.638420,-153.219100,11177.109724
16148.915679,3997.112087,-306.438199,10955.047942
16148.916003,3849.070898,-383.047749,10584.944971
16148.916327,4589.276840,-306.438199,9400.615463
16148.916651,4441.235652,76.609550,8882.471304
16148.916975,5255.462188,0.000000,9104.533087
16148.917299,5255.462188,-612.876398,9474.636058
16148.917623,3775.050304,-1149.143247,8364.327145
16148.917947,2738.761985,-1302.362347,8290.306550
16148.918271,3256.906145,-1608.800546,8956.491898
16148.918595,2960.823768,-2451.505594,9104.533087
16148.918919,1776.494261,-2298.286494,9030.512492
16148.919243,2294.638420,-1915.238745,9030.512492
16148.919567,2738.761985,-1685.410096,9178.553681
16148.919891,3034.844362,-995.924147,9548.656652
16148.920215,3034.844362,-612.876398,9918.759623
16148.920539,2442.679609,76.609550,9252.574275
16148.920863,2886.803174,0.000000,9474.636058
16148.921187,3478.967927,842.705048,9992.780217
16148.921511,3330.926739,766.095498,10510.924376
16148.921835,1776.494261,995.924147,10436.903782
16148.922159,1924.535449,1149.143247,10881.027347
16148.922483,2368.659014,1532.190996,11029.068536
16148.922807,962.267725,1838.629195,11029.068536
16148.923131,0.000000,1915.238745,10881.027347
16148.923455,-222.061783,2681.334243,9474.636058
16148.923779,-296.082377,2221.676944,8956.491898
16148.924103,-1406.391290,2911.162892,8142.265362
16148.924427,-2812.782580,3830.477490,7550.100608
16148.924751,-3627.009116,3524.039291,6217.729913
16148.925075,-4811.338623,3524.039291,6513.812290
16148.925400,-5329.482782,3217.601092,6809.894666
16148.925724,-6143.709319,2604.724693,7105.977043
16148.926048,-7031.956449,2145.067394,6735.874072
16148.926372,-6735.874072,2068.457845,7624.121203
16148.926696,-6439.791695,1455.581446,8068.244768
16148.927020,-6661.853478,612.876398,8660.409521
16148.927344,-6365.771101,153.219100,9178.553681
16148.927668,-5403.503377,-229.828649,9696.697840
16148.927992,-4367.215058,-306.438199,10658.965565
16148.928316,-4145.153275,-995.924147,11177.109724
16148.928640,-2664.741391,-1225.752797,10658.965565
16148.928964,-1332.370696,-153.219100,11103.089130
16148.929288,962.267725,-459.657299,11251.130318
16148.929612,2516.700203,0.000000,11399.171507
16148.929936,3404.947333,76.609550,10362.883188
16148.930260,4515.256246,153.219100,9400.615463
16148.930584,5773.606348,459.657299,9474.636058
16148.930908,5921.647536,0.000000,8438.347739
16148.931232,4811.338623,0.000000,8734.430116
16148.931556,3701.029710,-766.095498,8808.450710
16148.931880,4293.194464,-1225.752797,8956.491898
16148.932204,2738.761985,-2145.067394,9178.553681
16148.932528,1998.556043,-2451.505594,9030.512492
16148.932852,1702.473667,-2221.676944,8660.409521
16148.933176,2368.659014,-1685.410096,9178.553681
16148.933500,3108.864956,-1378.971896,9178.553681
16148.933824,2960.823768,-1455.581446,9696.697840
16148.934148,3552.988522,-383.047749,9474.636058
16148.934472,4885.359217,383.047749,9622.677246
16148.934797,5699.585753,766.095498,10288.862594
16148.935121,4293.194464,1225.752797,10584.944971
16148.935445,3182.885551,1455.581446,10066.800811
16148.935769,3701.029710,1915.238745,10214.842000
16148.936093,2664.741391,1302.362347,10288.862594
16148.936417,1332.370696,1072.533697,10510.924376
16148.936741,222.061783,1762.019645,10658.965565
16148.937065,-222.061783,2221.676944,9844.739029
16148.937389,-222.061783,2298.286494,9178.553681
16148.937713,-1332.370696,2451.505594,8882.471304
16148.938037,-2960.823768,3294.210641,7994.224174
16148.938361,-3034.844362,3294.210641,7031.956449
16148.938685,-3034.844362,3677.258390,7105.977043
16148.939009,-3923.091493,3753.867940,7105.977043
16148.939333,-5699.585753,3370.820191,6587.832884
16148.939657,-6661.853478,2757.943793,6957.935855
16148.939981,-5921.647536,2451.505594,6587.832884
16148.940305,-6587.832884,2221.676944,7550.100608
16148.940629,-7179.997637,1685.410096,7772.162391
16148.940953,-7105.977043,995.924147,8068.244768
16148.941277,-6513.812290,459.657299,8956.491898
16148.941601,-4885.359217,153.219100,9992.780217
16148.941925,-4367.215058,-459.657299,10881.027347
16148.942249,-4071.132681,-612.876398,10955.047942
16148.942573,-1406.391290,-1072.533697,11029.068536
16148.942897,0.000000,-689.485948,11325.150913
16148.943221,148.041188,-536.266849,11399.171507
16148.943545,962.267725,-612.876398,10584.944971
16148.943869,2664.741391,0.000000,10362.883188
16148.944194,3775.050304,-153.219100,9992.780217
16148.944518,3478.967927,-229.828649,9474.636058
16148.944842,3701.029710,0.000000,7698.141797
16148.945166,3775.050304,-995.924147,8142.265362
16148.945490,3552.988522,-919.314598,8290.306550
16148.945814,3701.029710,-919.314598,8586.388927
16148.946138,2886.803174,-1302.362347,8882.471304
16148.946462,2368.659014,-1838.629195,8586.388927
16148.946786,3701.029710,-1455.581446,9844.739029
16148.947110,4219.173869,-1991.848295,9844.739029
16148.947434,3330.926739,-1608.800546,9992.780217
16148.947758,3701.029710,-1149.143247,9622.677246
16148.948082,4663.297435,-383.047749,9696.697840
16148.948406,4737.318029,0.000000,10436.903782
16148.948730,4811.338623,536.266849,10140.821405
16148.949054,3997.112087,306.438199,9992.780217
16148.949378,3552.988522,1455.581446,9992.780217
16148.949702,3701.029710,1302.362347,10362.883188
16148.950026,2738.761985,1302.362347,10510.924376
16148.950350,1332.370696,1685.410096,10214.842000
16148.950674,370.102971,1608.800546,9992.780217
16148.950998,1036.288319,2528.115143,10066.800811
16148.951322,370.102971,1915.238745,9844.739029
16148.951646,-1628.453072,2834.553343,9030.512492
16148.951970,-1628.453072,3524.039291,8734.430116
16148.952294,-2146.597232,3600.648841,7846.182985
16148.952618,-3108.864956,3064.381992,7550.100608
16148.952942,-3923.091493,2987.772442,7402.059420
16148.953266,-5107.421000,3217.601092,6291.750507
16148.953590,-5107.421000,3140.991542,6809.894666
16148.953914,-5773.606348,2757.943793,7402.059420
16148.954238,-6291.750507,2298.286494,7105.977043
16148.954562,-7105.977043,1455.581446,7402.059420
16148.954886,-6513.812290,1455.581446,8068.244768
16148.955210,-5773.606348,995.924147,9030.512492
16148.955534,-6217.729913,76.609550,9918.759623
16148.955858,-5625.565159,0.000000,9844.739029
16148.956182,-4219.173869,-153.219100,10955.047942
16148.956506,-3404.947333,-459.657299,10658.965565
16148.956830,-2664.741391,-1225.752797,11547.212695
16148.957154,-1406.391290,-1072.533697,10955.047942
16148.957478,222.061783,-689.485948,10658.965565
16148.957802,1702.473667,-842.705048,10362.883188
16148.958126,3182.885551,76.609550,10066.800811
16148.958450,3997.112087,459.657299,9844.739029
16148.958774,4441.235652,689.485948,8364.327145
16148.959098,5773.606348,842.705048,8660.409521
16148.959422,5625.565159,0.000000,8660.409521
16148.959746,4071.132681,-153.219100,8512.368333
16148.960070,3775.050304,-919.314598,8586.388927
16148.960394,3478.967927,-995.924147,8808.450710
16148.960718,2368.659014,-2145.067394,9104.533087
16148.961042,1924.535449,-2298.286494,9622.677246
16148.961367,1924.535449,-2528.115143,8956.491898
16148.961691,2368.659014,-2374.896044,9474.636058
16148.962015,2664.741391,-1685.410096,9770.718434
16148.962339,3552.988522,-689.485948,10066.800811
16148.962663,3478.967927,-306.438199,9770.718434
16148.962987,5181.441594,459.657299,9474.636058
16148.963311,5329.482782,1378.971896,10214.842000
16148.963635,4145.153275,1149.143247,10658.965565
16148.963959,2960.823768,1072.533697,10214.842000
16148.964283,2960.823768,1072.533697,10584.944971
16148.964607,2220.617826,1302.362347,10584.944971
16148.964931,814.226536,1302.362347,10510.924376
16148.965255,0.000000,1838.629195,10510.924376
16148.965579,-962.267725,1608.800546,9400.615463
16148.965903,-1110.308913,2681.334243,9474.636058
16148.966227,-1332.370696,3294.210641,8734.430116
16148.966551,-2812.782580,3600.648841,7328.038826
16148.966875,-3256.906145,3753.867940,6883.915261
16148.967199,-3108.864956,4136.915689,6735.874072
16148.967523,-3701.029710,3830.477490,7031.956449
16148.967847,-6143.709319,2987.772442,6735.874072
16148.968171,-6291.750507,2451.505594,7105.977043
16148.968495,-5995.668130,1838.629195,7105.977043
16148.968819,-7105.977043,1072.533697,7846.182985
16148.969143,-7550.100608,536.266849,8364.327145
16148.969467,-7476.080014,0.000000,8882.471304
16148.969791,-6883.915261,-153.219100,9252.574275
16148.970115,-4959.379811,-995.924147,10510.924376
16148.970439,-3849.070898,-229.828649,11325.150913
16148.970763,-3923.091493,-1302.362347,11251.130318
16148.971087,-1332.370696,-689.485948,11251.130318
16148.971411,1184.329507,-689.485948,11843.295072
16148.971735,1406.391290,-383.047749,11325.150913
16148.972059,2146.597232,-153.219100,11029.068536
16148.972383,3404.947333,536.266849,10066.800811
16148.972707,4737.318029,-153.219100,9918.759623
16148.973031,4367.215058,-306.438199,9474.636058
16148.973355,4441.235652,76.609550,8660.409521
16148.973679,3923.091493,-306.438199,8438.347739
16148.974003,3627.009116,-766.095498,7994.224174
16148.974327,3775.050304,-995.924147,8882.471304
16148.974651,2664.741391,-1378.971896,7994.224174
16148.974975,2072.576638,-1532.190996,8364.327145
16148.975299,3182.885551,-1225.752797,8808.450710
16148.975623,3997.112087,-1302.362347,9400.615463
16148.975947,2812.782580,-1762.019645,9548.656652
16148.976271,3108.864956,-766.095498,9104.533087
16148.976595,3923.091493,-612.876398,9400.615463
16148.976919,4441.235652,-383.047749,10214.842000
16148.977243,3627.009116,0.000000,9918.759623
16148.977567,3775.050304,612.876398,9844.739029
16148.977891,2738.761985,383.047749,10140.821405
16148.978215,2664.741391,612.876398,10955.047942
16148.978539,2442.679609,919.314598,11473.192101
16148.978863,740.205942,995.924147,11029.068536
16148.979187,518.144159,1225.752797,10214.842000
16148.979511,1702.473667,2145.067394,10436.903782
16148.979835,888.247130,2911.162892,10584.944971
16148.980159,-1110.308913,2068.457845,9326.594869
16148.980483,-1628.453072,3064.381992,8216.285956
16148.980807,-2072.576638,3447.429741,7698.141797
16148.981131,-3034.844362,3370.820191,7772.162391
16148.981455,-4219.173869,3447.429741,7179.997637
16148.981779,-5699.585753,3524.039291,6069.688724
16148.982103,-6661.853478,3064.381992,6217.729913
16148.982427,-7105.977043,2451.505594,7328.038826
16148.982751,-7105.977043,1915.238745,7476.080014
16148.983075,-7994.224174,1302.362347,7476.080014
16148.983399,-7031.956449,919.314598,7624.121203
16148.983723,-5699.585753,536.266849,9252.574275
16148.984047,-5625.565159,459.657299,9548.656652
16148.984371,-5107.421000,-459.657299,9474.636058
16148.984695,-3256.906145,-919.314598,10510.924376
16148.985019,-2368.659014,-1225.752797,10955.047942
16148.985343,-1850.514855,-1455.581446,11325.150913
16148.985667,0.000000,-1302.362347,11177.109724
16148.985991,962.267725,-459.657299,10881.027347
16148.986315,2220.617826,-689.485948,10881.027347
16148.986639,4071.132681,-153.219100,10584.944971
16148.986963,4737.318029,-153.219100,9992.780217
16148.987287,4589.276840,0.000000,9326.594869
16148.987612,5551.544565,0.000000,9400.615463
16148.987936,5107.421000,-459.657299,9252.574275
16148.988260,3552.988522,-1072.533697,8956.491898
16148.988584,3701.029710,-1149.143247,8882.471304
16148.988908,3775.050304,-2681.334243,8956.491898
16148.989232,2516.700203,-2221.676944,9474.636058
16148.989556,1924.535449,-1915.238745,9030.512492
16148.989880,2516.700203,-1762.019645,8956.491898
16148.990204,2960.823768,-1608.800546,8956.491898
16148.990528,3775.050304,-612.876398,9252.574275
16148.990852,3849.070898,153.219100,9548.656652
16148.991176,3997.112087,459.657299,9326.594869
16148.991500,4737.318029,1072.533697,9696.697840
16148.991824,5255.462188,1455.581446,10436.903782
16148.992148,3552.988522,1072.533697,10807.006753
16148.992472,2368.659014,919.314598,10658.965565
16148.992796,2146.597232,1149.143247,10732.986159
16148.993120,1628.453072,1608.800546,10066.800811
16148.993444,74.020594,1762.019645,10732.986159
16148.993768,-1036.288319,2451.505594,9400.615463
16148.994092,-962.267725,2757.943793,8660.409521
16148.994416,-1554.432478,3370.820191,8956.491898
16148.994740,-1924.535449,3677.258390,8290.306550
16148.995064,-2886.803174,3753.867940,7624.121203
16148.995388,-3627.009116,3753.867940,6661.853478
16148.995712,-3701.029710,4290.134789,6291.750507
16148.996036,-4367.215058,3600.648841,7105.977043
16148.996360,-6439.791695,2451.505594,7105.977043
16148.996684,-7105.977043,2374.896044,7254.018232
16148.997008,-6513.812290,1915.238745,7402.059420
16148.997332,-7105.977043,919.314598,8438.347739
16148.997656,-7254.018232,689.485948,8290.306550
16148.997980,-6883.915261,0.000000,9178.553681
16148.998304,-5847.626942,-229.828649,9252.574275
16148.998628,-4663.297435,-459.657299,10140.821405
16148.998952,-3330.926739,-689.485948,11177.109724
16148.999276,-2738.761985,-919.314598,10658.965565
16148.999600,-1258.350101,-766.095498,10807.006753
16148.999924,1924.535449,-383.047749,11325.150913
16149.000248,2886.803174,-842.705048,11029.068536
16149.000572,2368.659014,-459.657299,10066.800811
16149.000896,3627.009116,0.000000,9918.759623
16149.001220,5329.482782,-306.438199,9696.697840
16149.001544,4737.318029,-612.876398,9548.656652
16149.001868,4219.173869,-842.705048,9400.615463
16149.002192,4367.215058,-842.705048,8290.306550
16149.002516,4293.194464,-1149.143247,8808.450710
16149.002840,4071.132681,-1378.971896,9474.636058
16149.003164,2960.823768,-1378.971896,9326.594869
16149.003488,2368.659014,-2068.457845,9178.553681
16149.003812,3775.050304,-1532.190996,9474.636058
16149.004136,4293.194464,-1532.190996,9992.780217
16149.004460,3330.926739,-1225.752797,9844.739029
16149.004784,3256.906145,-459.657299,9326.594869
16149.005108,4737.318029,612.876398,9474.636058
16149.005432,4589.276840,383.047749,9400.615463
16149.005756,3627.009116,536.266849,9622.677246
16149.006080,2738.761985,766.095498,9474.636058
16149.006404,2220.617826,842.705048,9622.677246
16149.006728,2072.576638,919.314598,10584.944971
16149.007052,1998.556043,1532.190996,10807.006753
16149.007376,74.020594,1532.190996,10288.862594
16149.007700,148.041188,2451.505594,9844.739029
16149.008024,888.247130,2298.286494,10066.800811
16149.008348,0.000000,2911.162892,9548.656652
16149.008672,-1702.473667,3524.039291,8734.430116
16149.008996,-2220.617826,3753.867940,7624.121203
16149.009320,-2220.617826,3907.087040,7328.038826
16149.009644,-3627.009116,3294.210641,7550.100608
16149.009968,-5773.606348,3217.601092,7105.977043
16149.010292,-6291.750507,2834.553343,7031.956449
16149.010616,-7031.956449,2528.115143,6883.915261
16149.010940,-7105.977043,2374.896044,7476.080014
16149.011264,-7179.997637,1838.629195,8142.265362
16149.011588,-8216.285956,1225.752797,7698.141797
16149.011912,-7476.080014,1149.143247,7772.162391
16149.012236,-5699.585753,842.705048,9474.636058
16149.012560,-4959.379811,-153.219100,10066.800811
16149.012884,-4737.318029,-1149.143247,10140.821405
16149.013208,-3256.906145,-689.485948,10436.903782
16149.013532,-1702.473667,-995.924147,10584.944971
16149.013857,-296.082377,-1072.533697,11177.109724
16149.014181,1184.329507,-383.047749,10658.965565
16149.014505,2072.576638,-229.828649,9696.697840
16149.014829,3552.988522,0.000000,9992.780217
16149.015153,4441.235652,306.438199,10066.800811
16149.015477,5181.441594,153.219100,9474.636058
16149.015801,4885.359217,76.609550,9030.512492
16149.016125,5403.503377,-306.438199,9030.512492
16149.016449,5699.585753,-842.705048,9104.533087
16149.016773,3627.009116,-1378.971896,9030.512492
16149.017097,2738.761985,-2145.067394,8660.409521
16149.017421,3034.844362,-2604.724693,9400.615463
16149.017745,2812.782580,-2834.553343,9622.677246
16149.018069,2368.659014,-2681.334243,9844.739029
16149.018393,2590.720797,-2298.286494,9696.697840
16149.018717,2516.700203,-1532.190996,9696.697840
16149.019041,3478.967927,-919.314598,9918.759623
16149.019365,3923.091493,153.219100,10066.800811
16149.019689,3997.112087,383.047749,9400.615463
16149.020013,4367.215058,842.705048,9474.636058
16149.020337,4737.318029,1149.143247,10288.862594
16149.020661,3256.906145,1072.533697,10436.903782
16149.020985,1850.514855,1302.362347,10214.842000
16149.021309,2072.576638,1072.533697,10214.842000
16149.021633,1480.411884,1838.629195,9992.780217
16149.021957,296.082377,1455.581446,10140.821405
16149.022281,-1258.350101,2298.286494,9178.553681
16149.022605,-1628.453072,2757.943793,8734.430116
16149.022929,-2368.659014,2987.772442,7994.224174
16149.023253,-2738.761985,3600.648841,7846.182985
16149.023577,-3923.091493,3907.087040,6957.935855
16149.023901,-4737.318029,4366.744339,6735.874072
16149.024225,-5477.523971,3294.210641,6735.874072
16149.024549,-5699.585753,2987.772442,7105.977043
16149.024873,-7105.977043,2451.505594,7179.997637
16149.025197,-7920.203579,1915.238745,7254.018232
16149.025521,-7402.059420,1225.752797,8068.244768
16149.025845,-7550.100608,459.657299,9030.512492
16149.026169,-7105.977043,383.047749,9326.594869
16149.026493,-6439.791695,0.000000,9622.677246
16149.026817,-4589.276840,-612.876398,10140.821405
16149.027141,-3182.885551,-306.438199,10807.006753
16149.027465,-1332.370696,0.000000,11399.171507
16149.027789,-518.144159,-229.828649,11251.130318
16149.028113,1184.329507,-153.219100,10584.944971
16149.028437,3775.050304,919.314598,10510.924376
16149.028761,4663.297435,459.657299,10436.903782
16149.029085,3627.009116,76.609550,9918.759623
16149.029409,4293.194464,229.828649,9474.636058
16149.029733,5329.482782,459.657299,8956.491898
16149.030057,4145.153275,-383.047749,8956.491898
16149.030381,3552.988522,-459.657299,8216.285956
16149.030705,3478.967927,-1149.143247,8364.327145
16149.031029,2886.803174,-2145.067394,8438.347739
16149.031353,2886.803174,-1532.190996,9474.636058
16149.031677,2738.761985,-2145.067394,9400.615463
16149.032001,2590.720797,-1685.410096,9104.533087
16149.032325,4367.215058,-1302.362347,9400.615463
16149.032649,5403.503377,-842.705048,9918.759623
16149.032973,4441.235652,-383.047749,9992.780217
16149.033297,4811.338623,-76.609550,9918.759623
16149.033621,5033.400406,0.000000,9548.656652
16149.033945,4959.379811,153.219100,10436.903782
16149.034269,3182.885551,76.609550,10732.986159
16149.034593,2368.659014,383.047749,10140.821405
16149.034917,1554.432478,919.314598,10732.986159
16149.035241,592.164754,612.876398,10584.944971
16149.035565,222.061783,1532.190996,10584.944971
16149.035889,-296.082377,1455.581446,10066.800811
16149.036213,-1110.308913,2221.676944,9178.553681
16149.036537,-666.185348,2911.162892,9326.594869
16149.036861,-740.205942,3294.210641,8882.471304
16149.037185,-2368.659014,3370.820191,7772.162391
16149.037509,-3552.988522,3447.429741,6809.894666
16149.037833,-3330.926739,3447.429741,6661.853478
16149.038157,-4145.153275,3753.867940,6809.894666
16149.038481,-6069.688724,3064.381992,7105.977043
16149.038805,-7105.977043,2298.286494,6661.853478
16149.039129,-7846.182985,1302.362347,7105.977043
16149.039453,-7550.100608,766.095498,8142.265362
16149.039778,-7550.100608,1149.143247,8364.327145
16149.040102,-8438.347739,383.047749,8364.327145
16149.040426,-6735.874072,-306.438199,8882.471304
16149.040750,-5255.462188,-459.657299,10140.821405
16149.041074,-4441.235652,-842.705048,10881.027347
16149.041398,-3775.050304,-1225.752797,10955.047942
16149.041722,-1924.535449,-1072.533697,10658.965565
16149.042046,0.000000,-689.485948,10881.027347
16149.042370,1998.556043,-383.047749,11103.089130
16149.042694,3108.864956,-689.485948,10658.965565
16149.043018,3775.050304,-153.219100,9918.759623
16149.043342,4663.297435,229.828649,9844.739029
16149.043666,5551.544565,306.438199,9992.780217
16149.043990,5921.647536,383.047749,8956.491898
16149.044314,5107.421000,0.000000,8660.409521
16149.044638,5625.565159,229.828649,8216.285956
16149.044962,5181.441594,-612.876398,8956.491898
16149.045286,3478.967927,-1149.143247,9178.553681
16149.045610,2664.741391,-1378.971896,9030.512492
16149.045934,2664.741391,-1532.190996,8882.471304
16149.046258,3034.844362,-1762.019645,8882.471304
16149.046582,2812.782580,-1302.362347,9178.553681
16149.046906,2812.782580,-612.876398,8734.430116
16149.047230,3034.844362,-306.438199,9474.636058
16149.047554,3256.906145,-229.828649,9252.574275
16149.047878,3997.112087,689.485948,9696.697840
16149.048202,3775.050304,1072.533697,10214.842000
16149.048526,3627.009116,1225.752797,10140.821405
16149.048850,3997.112087,1762.019645,10732.986159
16149.049174,3701.029710,1532.190996,11251.130318
16149.049498,2072.576638,766.095498,10955.047942
16149.049823,1776.494261,1991.848295,10436.903782
16149.050147,1332.370696,2681.334243,10214.842000
16149.050471,518.144159,2757.943793,10066.800811
16149.050795,-1036.288319,3370.820191,9474.636058
16149.051119,-1480.411884,3830.477490,8290.306550
16149.051443,-2146.597232,3217.601092,7328.038826
16149.051767,-3256.906145,3983.696590,7105.977043
16149.052091,-4663.297435,3600.648841,6957.935855
16149.052415,-6217.729913,3753.867940,6587.832884
16149.052739,-6587.832884,3294.210641,6661.853478
16149.053063,-7105.977043,2068.457845,6883.915261
16149.053387,-8438.347739,1532.190996,7105.977043
16149.053711,-8882.471304,689.485948,7179.997637
16149.054035,-8216.285956,76.609550,7994.224174
16149.054360,-7179.997637,-383.047749,8956.491898
16149.054684,-6809.894666,-1608.800546,9622.677246
16149.055008,-5847.626942,-1225.752797,10288.862594
16149.055332,-4441.235652,-1378.971896,10732.986159
16149.055656,-2664.741391,-1532.190996,11103.089130
16149.055980,-888.247130,-1762.019645,11843.295072
16149.056304,666.185348,-766.095498,11103.089130
16149.056628,2516.700203,-1225.752797,11399.171507
16149.056952,4515.256246,-306.438199,10955.047942
16149.057276,4959.379811,-383.047749,10807.006753
16149.057600,4441.235652,-536.266849,9918.759623
16149.057924,4737.318029,-306.438199,9474.636058
16149.058248,5847.626942,-536.266849,9104.533087
16149.058572,4811.338623,-306.438199,9178.553681
16149.058897,3330.926739,-919.314598,8512.368333
16149.059221,2368.659014,-2221.676944,8142.265362
16149.059545,2368.659014,-2145.067394,8438.347739
16149.059869,2368.659014,-2068.457845,8956.491898
16149.060193,2442.679609,-1838.629195,9252.574275
16149.060517,2738.761985,-1302.362347,9252.574275
16149.060841,3775.050304,-383.047749,9548.656652
16149.061165,5181.441594,-153.219100,9474.636058
16149.061489,4589.276840,536.266849,9696.697840
16149.061813,4589.276840,919.314598,9400.615463
16149.062137,5403.503377,1378.971896,9770.718434
16149.062461,5033.400406,1378.971896,10140.821405
16149.062785,3627.009116,1072.533697,10436.903782
16149.063109,2664.741391,1302.362347,10214.842000
16149.063434,2072.576638,1685.410096,10066.800811
16149.063758,1628.453072,1608.800546,10881.027347
16149.064082,518.144159,1838.629195,10658.965565
16149.064406,-740.205942,2451.505594,10214.842000
16149.064730,-1554.432478,2528.115143,9474.636058
16149.065054,-888.247130,3524.039291,9326.594869
16149.065378,-1110.308913,3830.477490,8808.450710
16149.065702,-3108.864956,4366.744339,7476.080014
16149.066026,-4145.153275,4596.572988,6957.935855
16149.066350,-4515.256246,4290.134789,6365.771101
16149.066674,-5699.585753,3294.210641,7105.977043
16149.066998,-7105.977043,2681.334243,6883.915261
16149.067322,-7994.224174,2528.115143,6809.894666
16149.067646,-8438.347739,1915.238745,7476.080014
16149.067971,-7846.182985,1302.362347,7698.141797
16149.068295,-7698.141797,766.095498,8734.430116
16149.068619,-7920.203579,459.657299,8956.491898
16149.068943,-6439.791695,-306.438199,9252.574275
16149.069267,-4071.132681,-459.657299,10214.842000
16149.069591,-3256.906145,-842.705048,11325.150913
16149.069915,-2664.741391,-1302.362347,11029.068536
16149.070239,-1480.411884,-919.314598,10732.986159
16149.070563,1480.411884,-766.095498,11177.109724
16149.070887,1480.411884,-1149.143247,11029.068536
16149.071211,2664.741391,-995.924147,10584.944971
16149.071535,4071.132681,-306.438199,9770.718434
16149.071859,4737.318029,-229.828649,9622.677246
16149.072183,5181.441594,0.000000,10140.821405
16149.072508,5181.441594,-612.876398,9548.656652
16149.072832,4589.276840,-612.876398,8660.409521
16149.073156,4811.338623,-1149.143247,9030.512492
16149.073480,4811.338623,-1455.581446,9400.615463
16149.073804,3404.947333,-1915.238745,9326.594869
16149.074128,3108.864956,-1762.019645,9252.574275
16149.074452,3182.885551,-1915.238745,9252.574275
16149.074776,3182.885551,-1532.190996,9104.533087
16149.075100,3478.967927,-1838.629195,9178.553681
16149.075424,3330.926739,-229.828649,8734.430116
16149.075748,3404.947333,-306.438199,9030.512492
16149.076072,3997.112087,153.219100,9474.636058
16149.076396,3923.091493,842.705048,9844.739029
16149.076720,3552.988522,919.314598,10140.821405
16149.077045,3182.885551,1149.143247,9918.759623
16149.077369,2886.803174,1762.019645,10066.800811
16149.077693,2664.741391,1302.362347,10436.903782
16149.078017,1332.370696,1455.581446,11029.068536
16149.078341,814.226536,1915.238745,10658.965565
16149.078665,296.082377,2374.896044,10140.821405
16149.078989,-888.247130,2604.724693,9918.759623
16149.079313,-1628.453072,3294.210641,9252.574275
16149.079637,-2442.679609,4213.525239,8142.265362
16149.079961,-3256.906145,3830.477490,7402.059420
16149.080285,-3849.070898,3907.087040,7179.997637
16149.080609,-5107.421000,3753.867940,7031.956449
16149.080933,-6439.791695,3524.039291,6809.894666
16149.081257,-6587.832884,3217.601092,7031.956449
16149.081582,-7105.977043,2604.724693,7105.977043
16149.081906,-7772.162391,1991.848295,7179.997637
16149.082230,-8808.450710,612.876398,7105.977043
16149.082554,-7994.224174,612.876398,8142.265362
16149.082878,-7105.977043,-229.828649,9104.533087
16149.083202,-6809.894666,-995.924147,9622.677246
16149.083526,-5699.585753,-919.314598,9770.718434
16149.083850,-3997.112087,-1072.533697,10140.821405
16149.084174,-2812.782580,-1685.410096,10288.862594
16149.084498,-444.123565,-842.705048,10658.965565
16149.084822,962.267725,-689.485948,10658.965565
16149.085146,2368.659014,-689.485948,10732.986159
16149.085470,4515.256246,0.000000,10436.903782
16149.085794,5551.544565,0.000000,10436.903782
16149.086119,5181.441594,0.000000,9844.739029
16149.086443,5625.565159,-153.219100,9992.780217
16149.086767,6069.688724,-689.485948,9548.656652
16149.087091,4811.338623,-1072.533697,9400.615463
16149.087415,3923.091493,-1762.019645,9252.574275
16149.087739,3627.009116,-1915.238745,9252.574275
16149.088063,2886.803174,-1991.848295,8956.491898
16149.088387,3627.009116,-2298.286494,9252.574275
16149.088711,3108.864956,-1838.629195,9252.574275
16149.089035,3034.844362,-1149.143247,8882.471304
16149.089359,4145.153275,-459.657299,8660.409521
16149.089683,5403.503377,153.219100,9326.594869
16149.090007,4737.318029,306.438199,9326.594869
16149.090331,4145.153275,766.095498,9252.574275
16149.090656,4589.276840,1225.752797,9178.553681
16149.090980,4219.173869,1149.143247,9548.656652
16149.091304,2812.782580,612.876398,10436.903782
16149.091628,1554.432478,1455.581446,10066.800811
16149.091952,962.267725,1225.752797,10436.903782
16149.092276,592.164754,1225.752797,10881.027347
16149.092600,222.061783,1762.019645,10658.965565
16149.092924,-592.164754,2834.553343,9548.656652
16149.093248,-2072.576638,2911.162892,8808.450710
16149.093572,-1554.432478,3983.696590,8808.450710
16149.093896,-666.185348,4596.572988,8216.285956
16149.094220,-3627.009116,4213.525239,7402.059420
16149.094544,-4737.318029,4060.306139,6735.874072
16149.094868,-5181.441594,3983.696590,6513.812290
16149.095193,-6661.853478,2834.553343,6809.894666
16149.095517,-7846.182985,2451.505594,7402.059420
16149.095841,-8438.347739,1532.190996,7179.997637
16149.096165,-9030.512492,1225.752797,7550.100608
16149.096489,-8290.306550,229.828649,8660.409521
16149.096813,-7550.100608,0.000000,9474.636058
16149.097137,-7698.141797,-383.047749,9548.656652
16149.097461,-6291.750507,-1302.362347,9548.656652
16149.097785,-3923.091493,-536.266849,10658.965565
16149.098109,-1776.494261,-1302.362347,10955.047942
16149.098433,-1998.556043,-1455.581446,10288.862594
16149.098757,0.000000,-1072.533697,9844.739029
16149.099081,2368.659014,-689.485948,10288.862594
16149.099405,3256.906145,-689.485948,10584.944971
16149.099730,3552.988522,-766.095498,10362.883188
16149.100054,4071.132681,-612.876398,9548.656652
16149.100378,4515.256246,-842.705048,9178.553681
16149.100702,5847.626942,229.828649,10214.842000
16149.101026,5625.565159,-842.705048,9696.697840
16149.101350,4071.132681,-1608.800546,9030.512492
16149.101674,4737.318029,-1455.581446,9104.533087
16149.101998,5033.400406,-1302.362347,9770.718434
16149.102322,3701.029710,-1838.629195,9770.718434
16149.102646,3701.029710,-1608.800546,9178.553681
16149.102970,3701.029710,-1838.629195,9770.718434
16149.103294,4367.215058,-1302.362347,9474.636058
16149.103618,3923.091493,-689.485948,9696.697840
16149.103942,4293.194464,-383.047749,9326.594869
16149.104267,3775.050304,76.609550,9252.574275
16149.104591,3701.029710,766.095498,9548.656652
16149.104915,4293.194464,1685.410096,10288.862594
16149.105239,2960.823768,1072.533697,10214.842000
16149.105563,2294.638420,1149.143247,9400.615463
16149.105887,2516.700203,2068.457845,10732.986159
16149.106211,1776.494261,1915.238745,10658.965565
16149.106535,0.000000,1838.629195,10732.986159
16149.106859,-148.041188,2681.334243,9548.656652
16149.107183,-370.102971,3447.429741,9104.533087
16149.107507,-1332.370696,4213.525239,8660.409521
16149.107831,-2220.617826,4213.525239,7846.182985
16149.108155,-3256.906145,4136.915689,7031.956449
16149.108479,-4145.153275,4136.915689,6587.832884
16149.108804,-5403.503377,4213.525239,6809.894666
16149.109128,-5995.668130,4060.306139,7105.977043
16149.109452,-7179.997637,3294.210641,6957.935855
16149.109776,-7550.100608,2451.505594,7105.977043
16149.110100,-7254.018232,1685.410096,7994.224174
16149.110424,-7772.162391,919.314598,8142.265362
16149.110748,-8438.347739,383.047749,8364.327145
16149.111072,-7031.956449,0.000000,9178.553681
16149.111396,-5995.668130,-766.095498,9992.780217
16149.111720,-5107.421000,-1072.533697,10362.883188
16149.112044,-4145.153275,-842.705048,9844.739029
16149.112368,-2516.700203,-1378.971896,10288.862594
16149.112692,-888.247130,-1762.019645,10584.944971
16149.113016,814.226536,-995.924147,10955.047942
16149.113341,2294.638420,-766.095498,10732.986159
16149.113665,3034.844362,-689.485948,10436.903782
16149.113989,4885.359217,-459.657299,10510.924376
16149.114313,6365.771101,-306.438199,9918.759623
16149.114637,5403.503377,-306.438199,9548.656652
16149.114961,5255.462188,-1608.800546,9622.677246
16149.115285,5699.585753,-995.924147,9548.656652
16149.115609,4885.359217,-1608.800546,9474.636058
16149.115933,3627.009116,-2068.457845,9474.636058
16149.116257,2960.823768,-2221.676944,9030.512492
16149.116581,2738.761985,-1991.848295,9030.512492
16149.116905,3775.050304,-2068.457845,9400.615463
16149.117229,3627.009116,-1455.581446,9696.697840
16149.117553,3478.967927,-1149.143247,9178.553681
16149.117878,4737.318029,-383.047749,8882.471304
16149.118202,5699.585753,229.828649,9474.636058
16149.118526,4885.359217,689.485948,9474.636058
16149.118850,4071.132681,76.609550,9992.780217
16149.119174,4441.235652,1149.143247,9474.636058
16149.119498,3701.029710,1455.581446,9992.780217
16149.119822,2220.617826,842.705048,10955.047942
16149.120146,962.267725,1685.410096,10584.944971
16149.120470,740.205942,1685.410096,10288.862594
16149.120794,0.000000,2145.067394,9918.759623
16149.121118,-370.102971,3524.039291,9622.677246
16149.121442,-1702.473667,3064.381992,9030.512492
16149.121766,-2072.576638,4060.306139,7550.100608
16149.122090,-2072.576638,4749.792088,7624.121203
16149.122415,-2516.700203,4749.792088,7550.100608
16149.122739,-4737.318029,4290.134789,7179.997637
16149.123063,-6439.791695,3753.867940,6735.874072
16149.123387,-6365.771101,3907.087040,6587.832884
16149.123711,-7476.080014,2757.943793,7550.100608
16149.124035,-8438.347739,2145.067394,7031.956449
16149.124359,-8882.471304,1225.752797,7476.080014
16149.124683,-8808.450710,689.485948,7846.182985
16149.125007,-7846.182985,306.438199,8512.368333
16149.125331,-6513.812290,306.438199,9474.636058
16149.125655,-6069.688724,-153.219100,9696.697840
16149.125979,-4589.276840,-612.876398,9918.759623
16149.126303,-1850.514855,0.000000,10288.862594
16149.126627,0.000000,-306.438199,10658.965565
16149.126952,148.041188,-459.657299,10881.027347
16149.127276,1332.370696,-229.828649,10658.965565
16149.127600,3552.988522,-153.219100,10807.006753
16149.127924,4293.194464,0.000000,11029.068536
16149.128248,4441.235652,-612.876398,9844.739029
16149.128572,4589.276840,-459.657299,9252.574275
16149.128896,4441.235652,-383.047749,9178.553681
16149.129220,5329.482782,-536.266849,9474.636058
16149.129544,4811.338623,-1149.143247,9474.636058
16149.129868,3330.926739,-1302.362347,9030.512492
16149.130192,4071.132681,-1072.533697,8734.430116
16149.130516,4367.215058,-1685.410096,9030.512492
16149.130840,3478.967927,-2145.067394,9548.656652
16149.131164,2516.700203,-2451.505594,8882.471304
16149.131489,3256.906145,-1838.629195,9252.574275
16149.131813,3701.029710,-1685.410096,9400.615463
16149.132137,3552.988522,-1225.752797,9844.739029
16149.132461,3701.029710,-383.047749,9474.636058
16149.132785,3701.029710,0.000000,9104.533087
16149.133109,3701.029710,153.219100,9918.759623
16149.133433,4219.173869,612.876398,10881.027347
16149.133757,3404.947333,612.876398,10807.006753
16149.134081,2368.659014,1225.752797,10510.924376
16149.134405,2590.720797,1685.410096,10881.027347
16149.134729,2442.679609,1915.238745,11103.089130
16149.135053,1110.308913,2221.676944,10881.027347
16149.135377,0.000000,3064.381992,9474.636058
16149.135701,-740.205942,3830.477490,8364.327145
16149.136026,-1480.411884,3677.258390,8660.409521
16149.136350,-3034.844362,3677.258390,7402.059420
16149.136674,-4441.235652,3907.087040,6883.915261
16149.136998,-5625.565159,3600.648841,6365.771101
16149.137322,-6809.894666,3140.991542,6587.832884
16149.137646,-7624.121203,3064.381992,7105.977043
16149.137970,-8808.450710,2757.943793,6735.874072
16149.138294,-9030.512492,1915.238745,6809.894666
16149.138618,-7994.224174,995.924147,7772.162391
16149.138942,-8142.265362,689.485948,8438.347739
16149.139266,-7846.182985,306.438199,8734.430116
16149.139590,-6439.791695,-306.438199,9252.574275
16149.139914,-5107.421000,536.266849,9696.697840
16149.140238,-3997.112087,-766.095498,10214.842000
16149.140563,-2146.597232,-995.924147,10510.924376
16149.140887,-814.226536,-766.095498,10807.006753
16149.141211,814.226536,-612.876398,11103.089130
16149.141535,2812.782580,0.000000,11547.212695
16149.141859,4145.153275,0.000000,11251.130318
16149.142183,4441.235652,0.000000,10362.883188
16149.142507,6439.791695,1072.533697,10214.842000
16149.142831,7031.956449,612.876398,10584.944971
16149.143155,5921.647536,-536.266849,9474.636058
16149.143479,4885.359217,-306.438199,8882.471304
16149.143803,4811.338623,-536.266849,9104.533087
16149.144127,3775.050304,-1378.971896,9030.512492
16149.144451,2886.803174,-2221.676944,8808.450710
16149.144775,2294.638420,-2451.505594,8438.347739
16149.145100,2220.617826,-1762.019645,8290.306550
16149.145424,2590.720797,-1991.848295,8586.388927
16149.145748,3108.864956,-1608.800546,9474.636058
16149.146072,2886.803174,-995.924147,9326.594869
16149.146396,3923.091493,-459.657299,9400.615463
16149.146720,4885.359217,383.047749,9548.656652
16149.147044,5329.482782,689.485948,10362.883188
16149.147368,3849.070898,919.314598,10362.883188
16149.147692,3701.029710,1532.190996,10584.944971
16149.148016,3849.070898,919.314598,11103.089130
16149.148340,2368.659014,766.095498,11325.150913
16149.148664,1110.308913,1608.800546,11029.068536
16149.148988,962.267725,1455.581446,10362.883188
16149.149312,962.267725,2451.505594,10510.924376
16149.149637,-518.144159,3294.210641,9918.759623
16149.149961,-1332.370696,3907.087040,9030.512492
16149.150285,-2294.638420,4136.915689,7254.018232
16149.150609,-2368.659014,4213.525239,7031.956449
16149.150933,-3108.864956,4443.353888,7105.977043
16149.151257,-5699.585753,4136.915689,7105.977043
16149.151581,-6957.935855,3294.210641,6143.709319
16149.151905,-7550.100608,2221.676944,6291.750507
16149.152229,-9030.512492,1072.533697,6513.812290
16149.152553,-9770.718434,1302.362347,7031.956449
16149.152877,-10288.862594,229.828649,7476.080014
16149.153202,-9474.636058,-306.438199,8068.244768
16149.153526,-8364.327145,-842.705048,9030.512492
16149.153850,-6439.791695,-1072.533697,9252.574275
16149.154174,-6291.750507,-1149.143247,9992.780217
16149.154498,-4293.194464,-1378.971896,10436.903782
16149.154822,-962.267725,-766.095498,11399.171507
16149.155146,370.102971,-995.924147,11843.295072
16149.155470,1406.391290,-919.314598,11251.130318
16149.155794,3034.844362,-689.485948,10807.006753
16149.156118,4737.318029,-306.438199,10732.986159
16149.156442,5699.585753,383.047749,11621.233289
16149.156766,5551.544565,-612.876398,10881.027347
16149.157091,5625.565159,-459.657299,9844.739029
16149.157415,5181.441594,-383.047749,9104.533087
16149.157739,5625.565159,-842.705048,9474.636058
16149.158063,4737.318029,-919.314598,9400.615463
16149.158387,3108.864956,-1225.752797,8438.347739
16149.158711,3997.112087,-1072.533697,8586.388927
16149.159035,4663.297435,-766.095498,8660.409521
16149.159359,3552.988522,-1685.410096,8956.491898
16149.159683,2960.823768,-1532.190996,8660.409521
16149.160007,3256.906145,-919.314598,8660.409521
16149.160331,4589.276840,-306.438199,9104.533087
16149.160656,4367.215058,-536.266849,9178.553681
16149.160980,3923.091493,842.705048,8512.368333
16149.161304,3404.947333,1455.581446,9030.512492
16149.161628,3701.029710,1762.019645,9696.697840
16149.161952,3552.988522,1072.533697,10732.986159
16149.162276,2812.782580,1608.800546,10732.986159
16149.162600,1850.514855,1915.238745,10658.965565
16149.162924,1702.473667,2451.505594,11399.171507
16149.163248,1480.411884,2528.115143,11177.109724
16149.163572,666.185348,3753.867940,10658.965565
16149.163896,-814.226536,3447.429741,9400.615463
16149.164221,-1258.350101,4213.525239,8808.450710
16149.164545,-1628.453072,4290.134789,8142.265362
16149.164869,-3404.947333,4519.963438,7920.203579
16149.165193,-5329.482782,3830.477490,6957.935855
16149.165517,-6735.874072,3600.648841,6439.791695
16149.165841,-7031.956449,2987.772442,6291.750507
16149.166165,-7550.100608,2757.943793,6587.832884
16149.166489,-9104.533087,1991.848295,7105.977043
16149.166813,-9030.512492,1149.143247,7031.956449
16149.167137,-8290.306550,536.266849,7920.203579
16149.167461,-7920.203579,-229.828649,8586.388927
16149.167786,-8068.244768,-536.266849,8364.327145
16149.168110,-6661.853478,-1302.362347,9326.594869
16149.168434,-5033.400406,-1762.019645,10066.800811
16149.168758,-3849.070898,-1991.848295,11029.068536
16149.169082,-2516.700203,-2298.286494,10807.006753
16149.169406,-962.267725,-2145.067394,10658.965565
16149.169730,814.226536,-1838.629195,10955.047942
16149.170054,2960.823768,-1302.362347,11843.295072
16149.170378,3923.091493,-1302.362347,11177.109724
16149.170702,4811.338623,-766.095498,10584.944971
16149.171026,6365.771101,-995.924147,10510.924376
16149.171350,6957.935855,-689.485948,10214.842000
16149.171675,5921.647536,-612.876398,9770.718434
16149.171999,5699.585753,-1072.533697,9474.636058
16149.172323,5329.482782,-1072.533697,9326.594869
16149.172647,4663.297435,-2145.067394,9178.553681
16149.172971,3923.091493,-1991.848295,9178.553681
16149.173295,3701.029710,-1915.238745,8808.450710
16149.173619,3034.844362,-1685.410096,8734.430116
16149.173943,3627.009116,-1838.629195,9252.574275
16149.174267,4145.153275,-766.095498,9030.512492
16149.174591,3997.112087,-536.266849,8438.347739
16149.174915,4293.194464,459.657299,8142.265362
16149.175240,5107.421000,1072.533697,9104.533087
16149.175564,4367.215058,1455.581446,9474.636058
16149.175888,3034.844362,1378.971896,10066.800811
16149.176212,2442.679609,1378.971896,10288.862594
16149.176536,2220.617826,1455.581446,10584.944971
16149.176860,1776.494261,1838.629195,11177.109724
16149.177184,222.061783,1532.190996,10510.924376
16149.177508,-740.205942,2451.505594,10584.944971
16149.177832,-962.267725,3217.601092,9622.677246
16149.178156,-962.267725,3907.087040,9178.553681
16149.178480,-1702.473667,4673.182538,8808.450710
16149.178805,-2738.761985,4979.620737,7920.203579
16149.179129,-3108.864956,5209.449386,7328.038826
16149.179453,-3701.029710,4826.401637,7550.100608
16149.179777,-5551.544565,4749.792088,6883.915261
16149.180101,-7698.141797,3907.087040,6217.729913
16149.180425,-7846.182985,2987.772442,6513.812290
16149.180749,-8068.244768,2145.067394,6957.935855
16149.181073,-9326.594869,995.924147,7624.121203
16149.181397,-9030.512492,459.657299,7624.121203
16149.181721,-7994.224174,-306.438199,7994.224174
16149.182045,-7105.977043,-766.095498,8512.368333
16149.182369,-5699.585753,-229.828649,10140.821405
16149.182694,-4145.153275,0.000000,10214.842000
16149.183018,-3256.906145,-1225.752797,10214.842000
16149.183342,0.000000,-995.924147,10807.006753
16149.183666,2072.576638,-612.876398,11325.150913
16149.183990,1850.514855,-995.924147,10955.047942
16149.184314,2886.803174,-919.314598,11029.068536
16149.184638,4811.338623,-995.924147,10881.027347
16149.184962,4737.318029,-995.924147,10510.924376
16149.185286,4737.318029,-1225.752797,10362.883188
16149.185610,5033.400406,-1149.143247,9474.636058
16149.185934,4885.359217,-1149.143247,9400.615463
16149.186259,5403.503377,-1608.800546,9400.615463
16149.186583,4663.297435,-2298.286494,9696.697840
16149.186907,3627.009116,-1991.848295,8734.430116
16149.187231,3775.050304,-1532.190996,8882.471304
16149.187555,4441.235652,-1915.238745,9178.553681
16149.187879,4367.215058,-2068.457845,9548.656652
16149.188203,3256.906145,-1608.800546,9474.636058
16149.188527,3997.112087,-842.705048,8882.471304
16149.188851,5033.400406,-1302.362347,9474.636058
16149.189175,4367.215058,-459.657299,9474.636058
16149.189499,3552.988522,229.828649,9770.718434
16149.189824,3108.864956,383.047749,9696.697840
16149.190148,2664.741391,536.266849,9992.780217
16149.190472,3034.844362,1378.971896,10955.047942
16149.190796,2368.659014,1838.629195,10955.047942
16149.191120,444.123565,2145.067394,10362.883188
16149.191444,296.082377,2757.943793,10214.842000
16149.191768,962.267725,3064.381992,10066.800811
16149.192092,-1406.391290,3830.477490,9400.615463
16149.192416,-2146.597232,3983.696590,8364.327145
16149.192740,-2368.659014,4596.572988,7994.224174
16149.193064,-3478.967927,4213.525239,7550.100608
16149.193389,-4589.276840,3983.696590,7179.997637
16149.193713,-5773.606348,4060.306139,6587.832884
16149.194037,-7105.977043,3753.867940,6439.791695
16149.194361,-7698.141797,3447.429741,6587.832884
16149.194685,-7402.059420,2451.505594,7624.121203
16149.195009,-7994.224174,1608.800546,7624.121203
16149.195333,-8290.306550,1072.533697,7624.121203
16149.195657,-6661.853478,1685.410096,8290.306550
16149.195981,-5921.647536,306.438199,9030.512492
16149.196305,-5699.585753,0.000000,9696.697840
16149.196629,-4441.235652,-383.047749,9992.780217
16149.196953,-3108.864956,-766.095498,10584.944971
16149.197278,-1924.535449,-1225.752797,10807.006753
16149.197602,-1184.329507,-1149.143247,10881.027347
16149.197926,222.061783,-766.095498,10288.862594
16149.198250,1850.514855,-1149.143247,10732.986159
16149.198574,3330.926739,-842.705048,11029.068536
16149.198898,4367.215058,-306.438199,10584.944971
16149.199222,4367.215058,-383.047749,9918.759623
16149.199546,5847.626942,-306.438199,8956.491898
16149.199870,6439.791695,-306.438199,9400.615463
16149.200194,5773.606348,0.000000,9252.574275
16149.200518,4811.338623,-1302.362347,8734.430116
16149.200843,5033.400406,-1915.238745,8956.491898
16149.201167,4737.318029,-1838.629195,8512.368333
16149.201491,3701.029710,-2374.896044,9030.512492
16149.201815,3404.947333,-2298.286494,9252.574275
16149.202139,3404.947333,-2145.067394,9104.533087
16149.202463,3775.050304,-1915.238745,9326.594869
16149.202787,4367.215058,-1149.143247,9474.636058
16149.203111,4293.194464,0.000000,9400.615463
16149.203435,4293.194464,-306.438199,9252.574275
16149.203759,4737.318029,459.657299,9844.739029
16149.204083,4515.256246,766.095498,10436.903782
16149.204408,2368.659014,689.485948,10584.944971
16149.204732,1998.556043,1225.752797,10658.965565
16149.205056,2072.576638,1302.362347,10955.047942
16149.205380,740.205942,1915.238745,11251.130318
16149.205704,-370.102971,2374.896044,10807.006753
16149.206028,-962.267725,2834.553343,9770.718434
16149.206352,-1776.494261,3294.210641,9030.512492
16149.206676,-1998.556043,3677.258390,8438.347739
16149.207000,-2590.720797,4519.963438,7772.162391
16149.207324,-3997.112087,4519.963438,6883.915261
16149.207648,-5033.400406,4443.353888,6809.894666
16149.207972,-5107.421000,3983.696590,6883.915261
16149.208297,-6809.894666,3600.648841,6661.853478
16149.208621,-8586.388927,2757.943793,6439.791695
16149.208945,-8438.347739,2221.676944,6883.915261
16149.209269,-8142.265362,1608.800546,7402.059420
16149.209593,-8808.450710,459.657299,7994.224174
16149.209917,-8438.347739,-383.047749,7698.141797
16149.210241,-6957.935855,0.000000,8364.327145
16149.210565,-5847.626942,-383.047749,9696.697840
16149.210889,-4293.194464,-612.876398,10658.965565
16149.211213,-2664.741391,-1149.143247,11103.089130
16149.211537,-1406.391290,-1302.362347,10807.006753
16149.211862,1110.308913,-459.657299,11251.130318
16149.212186,3775.050304,-459.657299,11621.233289
16149.212510,3552.988522,-842.705048,11547.212695
16149.212834,3923.091493,-459.657299,11029.068536
16149.213158,5477.523971,-459.657299,10732.986159
16149.213482,5477.523971,-689.485948,10436.903782
16149.213806,5181.441594,-766.095498,9548.656652
16149.214130,4441.235652,-689.485948,9252.574275
16149.214454,4515.256246,-1149.143247,8882.471304
16149.214778,4663.297435,-1991.848295,8956.491898
16149.215102,4219.173869,-1838.629195,8586.388927
16149.215427,2664.741391,-1762.019645,8216.285956
16149.215751,3108.864956,-1685.410096,8512.368333
16149.216075,4515.256246,-1838.629195,8956.491898
16149.216399,4145.153275,-1991.848295,9474.636058
16149.216723,3034.844362,-1072.533697,9474.636058
16149.217047,3997.112087,153.219100,9474.636058
16149.217371,5033.400406,-689.485948,9474.636058
16149.217695,4589.276840,0.000000,10658.965565
16149.218019,3775.050304,612.876398,10658.965565
16149.218343,3034.844362,766.095498,10214.842000
16149.218667,2960.823768,995.924147,10436.903782
16149.218992,2812.782580,2298.286494,10807.006753
16149.219316,1554.432478,1991.848295,10732.986159
16149.219640,962.267725,2604.724693,9548.656652
16149.219964,962.267725,3753.867940,9770.718434
16149.220288,1184.329507,3524.039291,9918.759623
16149.220612,-888.247130,4290.134789,9030.512492
16149.220936,-2368.659014,4290.134789,7920.203579
16149.221260,-3034.844362,4519.963438,7402.059420
16149.221584,-4219.173869,4519.963438,7402.059420
16149.221908,-5847.626942,3064.381992,7105.977043
16149.222232,-7254.018232,3294.210641,6143.709319
16149.222556,-8438.347739,3064.381992,6143.709319
16149.222881,-8882.471304,2145.067394,6883.915261
16149.223205,-8808.450710,1455.581446,7179.997637
16149.223529,-8808.450710,919.314598,7476.080014
16149.223853,-8586.388927,919.314598,7846.182985
16149.224177,-6513.812290,919.314598,8438.347739
16149.224501,-5181.441594,153.219100,9400.615463
16149.224825,-4663.297435,0.000000,10288.862594
16149.225149,-3923.091493,-689.485948,10510.924376
16149.225473,-1776.494261,-766.095498,10658.965565
16149.225797,-518.144159,-1532.190996,11473.192101
16149.226121,518.144159,-1378.971896,11695.253884
16149.226446,1776.494261,-1149.143247,11251.130318
16149.226770,2886.803174,-842.705048,11029.068536
16149.227094,3552.988522,-1072.533697,10881.027347
16149.227418,4811.338623,-459.657299,10732.986159
16149.227742,4959.379811,-383.047749,10066.800811
16149.228066,5403.503377,-459.657299,9104.533087
16149.228390,6069.688724,-536.266849,8882.471304
16149.228714,4959.379811,-612.876398,8512.368333
16149.229038,3701.029710,-1532.190996,8290.306550
16149.229362,3997.112087,-1685.410096,8512.368333
16149.229686,3701.029710,-1838.629195,8586.388927
16149.230011,2738.761985,-1991.848295,9252.574275
16149.230335,2738.761985,-2451.505594,9104.533087
16149.230659,3627.009116,-1608.800546,8882.471304
16149.230983,4145.153275,-1225.752797,8734.430116
16149.231307,4219.173869,-229.828649,9178.553681
16149.231631,4811.338623,229.828649,9474.636058
16149.231955,4293.194464,766.095498,10066.800811
16149.232279,4737.318029,919.314598,10362.883188
16149.232603,5107.421000,1302.362347,11103.089130
16149.232927,2812.782580,1455.581446,10807.006753
16149.233251,2294.638420,2145.067394,10732.986159
16149.233575,2368.659014,1685.410096,11103.089130
16149.233900,1184.329507,1915.238745,10436.903782
16149.234224,-444.123565,2528.115143,10584.944971
16149.234548,-1184.329507,2834.553343,9252.574275
16149.234872,-1924.535449,3600.648841,8438.347739
16149.235196,-2664.741391,3907.087040,8216.285956
16149.235520,-3478.967927,4366.744339,7550.100608
16149.235844,-4959.379811,4213.525239,6661.853478
16149.236168,-5921.647536,4290.134789,6439.791695
16149.236492,-5773.606348,3753.867940,6513.812290
16149.236816,-7105.977043,3294.210641,6587.832884
16149.237140,-8882.471304,2451.505594,6883.915261
16149.237465,-8882.471304,1608.800546,6957.935855
16149.237789,-7772.162391,1302.362347,7328.038826
16149.238113,-8216.285956,-842.705048,8068.244768
16149.238437,-7994.224174,459.657299,8290.306550
16149.238761,-6439.791695,-689.485948,9326.594869
16149.239085,-5403.503377,-689.485948,10140.821405
16149.239409,-3923.091493,-1149.143247,11251.130318
16149.239733,-2368.659014,-1149.143247,11473.192101
16149.240057,-888.247130,-995.924147,11103.089130
16149.240381,1924.535449,-612.876398,11769.274478
16149.240705,4071.132681,-536.266849,11399.171507
16149.241030,3701.029710,-383.047749,11547.212695
16149.241354,4071.132681,-536.266849,10288.862594
16149.241678,5995.668130,-306.438199,10140.821405
16149.242002,6291.750507,-229.828649,9992.780217
16149.242326,5033.400406,-1378.971896,9770.718434
16149.242650,4441.235652,-1455.581446,8660.409521
16149.242974,4367.215058,-1302.362347,8660.409521
16149.243298,4145.153275,-2068.457845,8808.450710
16149.243622,3478.967927,-2298.286494,9104.533087
16149.243946,2442.679609,-2221.676944,8586.388927
16149.244270,2886.803174,-2145.067394,8660.409521
16149.244595,4663.297435,-1072.533697,9178.553681
16149.244919,4885.359217,-1915.238745,9178.553681
16149.245243,3552.988522,-689.485948,9326.594869
16149.245567,4367.215058,0.000000,9252.574275
16149.245891,5329.482782,383.047749,9844.739029
16149.246215,4811.338623,383.047749,10288.862594
16149.246539,3775.050304,842.705048,10436.903782
16149.246863,3034.844362,1532.190996,10362.883188
16149.247187,2368.659014,1838.629195,10436.903782
16149.247511,2812.782580,1149.143247,11251.130318
16149.247835,1628.453072,1991.848295,11177.109724
16149.248159,0.000000,2757.943793,10584.944971
16149.248484,296.082377,3600.648841,9622.677246
16149.248808,222.061783,3983.696590,9992.780217
16149.249132,-1184.329507,4673.182538,8882.471304
16149.249456,-2886.803174,4826.401637,7402.059420
16149.249780,-3256.906145,4443.353888,6735.874072
16149.250104,-4737.318029,4136.915689,6439.791695
16149.250428,-6217.729913,3677.258390,6809.894666
16149.250752,-7846.182985,3370.820191,6291.750507
16149.251076,-9326.594869,2451.505594,6217.729913
16149.251400,-9326.594869,2681.334243,6809.894666
16149.251724,-8290.306550,919.314598,7402.059420
16149.252048,-8808.450710,153.219100,7328.038826
16149.252372,-8586.388927,0.000000,7846.182985
16149.252696,-6365.771101,229.828649,9252.574275
16149.253020,-5033.400406,-459.657299,10140.821405
16149.253344,-4589.276840,-766.095498,10362.883188
16149.253668,-2812.782580,-689.485948,10955.047942
16149.253992,-1332.370696,-842.705048,11325.150913
16149.254316,444.123565,-766.095498,11473.192101
16149.254640,1924.535449,-1455.581446,11621.233289
16149.254964,2812.782580,-1149.143247,10881.027347
16149.255288,3034.844362,-1225.752797,10955.047942
16149.255612,4811.338623,-919.314598,10584.944971
16149.255936,5773.606348,-689.485948,10732.986159
16149.256260,5033.400406,-842.705048,9844.739029
16149.256584,5477.523971,-1608.800546,8734.430116
16149.256908,6217.729913,-842.705048,9104.533087
16149.257232,4737.318029,-1532.190996,8734.430116
16149.257556,3701.029710,-2068.457845,8956.491898
16149.257880,3775.050304,-1915.238745,8364.327145
16149.258204,3552.988522,-2145.067394,8734.430116
16149.258528,2590.720797,-2528.115143,8734.430116
16149.258852,3034.844362,-2221.676944,8512.368333
16149.259177,3034.844362,-1838.629195,8068.244768
16149.259501,3923.091493,-1149.143247,9326.594869
16149.259825,3997.112087,-612.876398,9992.780217
16149.260149,3923.091493,0.000000,9918.759623
16149.260473,3923.091493,153.219100,10288.862594
16149.260797,4663.297435,1455.581446,10510.924376
16149.261121,4219.173869,1532.190996,11325.150913
16149.261445,2368.659014,1532.190996,10955.047942
16149.261769,1998.556043,1225.752797,10510.924376
16149.262093,1628.453072,2528.115143,10881.027347
16149.262417,1036.288319,2987.772442,10807.006753
16149.262741,-296.082377,3447.429741,9696.697840
16149.263065,-740.205942,3447.429741,9252.574275
16149.263389,-2368.659014,4060.306139,7846.182985
16149.263713,-2516.700203,4596.572988,7328.038826
16149.264037,-3849.070898,4519.963438,7698.141797
16149.264361,-6217.729913,4060.306139,6883.915261
16149.264685,-7328.038826,3753.867940,6365.771101
16149.265009,-7031.956449,3370.820191,6957.935855
16149.265333,-7994.224174,2834.553343,7031.956449
16149.265657,-9474.636058,1762.019645,7031.956449
16149.265981,-9178.553681,1532.190996,7105.977043
16149.266305,-7994.224174,536.266849,7772.162391
16149.266629,-7328.038826,536.266849,8660.409521
16149.266953,-6735.874072,229.828649,8956.491898
16149.267277,-5551.544565,-229.828649,9326.594869
16149.267601,-3997.112087,-229.828649,9992.780217
16149.267925,-1776.494261,-766.095498,10436.903782
16149.268249,-962.267725,-842.705048,11621.233289
16149.268573,592.164754,-1378.971896,11029.068536
16149.268897,2886.803174,-459.657299,11177.109724
16149.269221,4663.297435,-536.266849,11473.192101
16149.269545,4293.194464,-766.095498,11325.150913
16149.269869,4811.338623,-919.314598,10214.842000
16149.270193,5921.647536,0.000000,10066.800811
16149.270517,5921.647536,-1072.533697,9474.636058
16149.270841,5033.400406,-1455.581446,9474.636058
16149.271165,4219.173869,-1915.238745,9030.512492
16149.271489,3627.009116,-2451.505594,8216.285956
16149.271813,3775.050304,-2528.115143,8956.491898
16149.272137,3256.906145,-2528.115143,9326.594869
16149.272461,2442.679609,-2145.067394,9030.512492
16149.272785,2368.659014,-2451.505594,8734.430116
16149.273109,4515.256246,-2145.067394,9770.718434
16149.273433,4737.318029,-1915.238745,9696.697840
16149.273757,3997.112087,-995.924147,9696.697840
16149.274081,4367.215058,0.000000,9474.636058
16149.274405,4959.379811,383.047749,10140.821405
16149.274729,4589.276840,689.485948,10584.944971
16149.275053,3701.029710,919.314598,10140.821405
16149.275377,2368.659014,1302.362347,9696.697840
16149.275701,1998.556043,1225.752797,10362.883188
16149.276025,1776.494261,2068.457845,10955.047942
16149.276349,1036.288319,2374.896044,10881.027347
16149.276673,-740.205942,3217.601092,9918.759623
16149.276997,-962.267725,4136.915689,8808.450710
16149.277321,-296.082377,4596.572988,8882.471304
16149.277645,-1628.453072,4903.011187,8142.265362
16149.277969,-3330.926739,4443.353888,7476.080014
16149.278293,-5107.421000,4213.525239,6809.894666
16149.278617,-5847.626942,3907.087040,6217.729913
16149.278941,-7105.977043,3447.429741,6957.935855
16149.279265,-8364.327145,3600.648841,6291.750507
16149.279589,-9104.533087,2374.896044,6291.750507
16149.279913,-9474.636058,1455.581446,6587.832884
16149.280237,-8216.285956,1608.800546,7698.141797
16149.280562,-7624.121203,919.314598,8364.327145
16149.280886,-7772.162391,689.485948,8290.306550
16149.281210,-5699.585753,536.266849,9474.636058
16149.281534,-3256.906145,76.609550,10214.842000
16149.281858,-2812.782580,76.609550,10658.965565
16149.282182,-2072.576638,-1225.752797,10658.965565
16149.282506,0.000000,-766.095498,11029.068536
16149.282830,1480.411884,-612.876398,11399.171507
16149.283154,2368.659014,-995.924147,11473.192101
16149.283478,3182.885551,-766.095498,11177.109724
16149.283802,3997.112087,-842.705048,10140.821405
16149.284126,4885.359217,-995.924147,10140.821405
16149.284450,5995.668130,0.000000,10362.883188
16149.284774,5255.462188,-842.705048,9696.697840
16149.285098,4441.235652,-919.314598,8512.368333
16149.285422,5625.565159,-1072.533697,8808.450710
16149.285746,4589.276840,-1915.238745,8882.471304
16149.286070,3034.844362,-2604.724693,9178.553681
16149.286394,2886.803174,-2681.334243,8734.430116
16149.286718,3701.029710,-2451.505594,8660.409521
16149.287042,3182.885551,-2834.553343,9474.636058
16149.287366,3404.947333,-2451.505594,9696.697840
16149.287690,3627.009116,-1302.362347,9252.574275
16149.288014,3775.050304,-919.314598,9474.636058
16149.288338,4737.318029,-306.438199,10214.842000
16149.288662,5033.400406,1149.143247,10584.944971
16149.288986,3849.070898,842.705048,10436.903782
16149.289310,4293.194464,1608.800546,9918.759623
16149.289634,4441.235652,1762.019645,11029.068536
16149.289958,2442.679609,1991.848295,11325.150913
16149.290282,1184.329507,2221.676944,10288.862594
16149.290606,814.226536,2681.334243,10066.800811
16149.290930,-592.164754,2757.943793,9474.636058
16149.291254,-1036.288319,3830.477490,9104.533087
16149.291578,-2146.597232,3447.429741,8586.388927
16149.291902,-3256.906145,4213.525239,7402.059420
16149.292226,-4367.215058,3907.087040,7179.997637
16149.292550,-4959.379811,4136.915689,7105.977043
16149.292874,-6587.832884,4136.915689,6365.771101
16149.293198,-7846.182985,4136.915689,5921.647536
16149.293522,-8068.244768,3217.601092,6217.729913
16149.293846,-7550.100608,2834.553343,6809.894666
16149.294170,-8808.450710,1915.238745,7476.080014
16149.294494,-8660.409521,1378.971896,7772.162391
16149.294818,-7254.018232,536.266849,8586.388927
16149.295142,-6661.853478,0.000000,9548.656652
16149.295466,-5625.565159,0.000000,9696.697840
16149.295790,-5033.400406,-919.314598,10140.821405
16149.296114,-3701.029710,-995.924147,10510.924376
16149.296438,-962.267725,-1149.143247,11547.212695
16149.296762,592.164754,-689.485948,11843.295072
16149.297086,1036.288319,-842.705048,11473.192101
16149.297410,3552.988522,-306.438199,11029.068536
16149.297734,5847.626942,153.219100,11251.130318
16149.298058,5551.544565,153.219100,10288.862594
16149.298382,5477.523971,-153.219100,9622.677246
16149.298706,6883.915261,0.000000,9400.615463
16149.299030,6365.771101,-76.609550,8808.450710
16149.299354,4737.318029,-1225.752797,8808.450710
16149.299678,3849.070898,-1455.581446,8364.327145
16149.300002,3701.029710,-1532.190996,7846.182985
16149.300326,2960.823768,-2451.505594,8290.306550
16149.300650,2886.803174,-2374.896044,9252.574275
16149.300974,2664.741391,-2374.896044,9030.512492
16149.301298,2664.741391,-1991.848295,8956.491898
16149.301622,4367.215058,-1225.752797,9548.656652
16149.301946,4885.359217,-842.705048,10066.800811
16149.302271,3849.070898,-842.705048,9992.780217
16149.302595,4515.256246,383.047749,10214.842000
16149.302919,4293.194464,689.485948,10732.986159
16149.303243,3997.112087,536.266849,11325.150913
16149.303567,2738.761985,459.657299,11325.150913
16149.303891,2146.597232,995.924147,10658.965565
16149.304215,1332.370696,1838.629195,11103.089130
16149.304539,1184.329507,2145.067394,10584.944971
16149.304863,814.226536,2834.553343,10066.800811
16149.305187,-888.247130,3370.820191,9474.636058
16149.305511,-1110.308913,4596.572988,7994.224174
16149.305835,-1110.308913,4443.353888,7920.203579
16149.306159,-1776.494261,4749.792088,7476.080014
16149.306483,-4663.297435,4213.525239,6883.915261
16149.306807,-5921.647536,4213.525239,6069.688724
16149.307131,-5921.647536,3217.601092,5995.668130
16149.307455,-7105.977043,2834.553343,6883.915261
16149.307779,-8586.388927,2068.457845,6143.709319
16149.308103,-9474.636058,1378.971896,6957.935855
16149.308427,-9178.553681,612.876398,7476.080014
16149.308751,-8068.244768,229.828649,8364.327145
16149.309075,-7328.038826,153.219100,8956.491898
16149.309399,-7328.038826,-995.924147,8882.471304
16149.309723,-5181.441594,153.219100,9622.677246
16149.310047,-2664.741391,0.000000,10955.047942
16149.310371,-1850.514855,-1149.143247,11621.233289
16149.310695,-1702.473667,-1302.362347,11251.130318
16149.311019,518.144159,-1302.362347,11325.150913
16149.311343,2886.803174,-842.705048,11621.233289
16149.311667,3627.009116,-612.876398,11547.212695
16149.311991,4367.215058,-383.047749,10658.965565
16149.312315,5625.565159,-306.438199,9992.780217
16149.312639,6143.709319,-536.266849,8808.450710
16149.312963,6217.729913,-383.047749,9474.636058
16149.313287,5921.647536,-383.047749,9252.574275
16149.313611,4737.318029,-612.876398,8512.368333
16149.313935,4737.318029,-995.924147,8734.430116
16149.314259,4959.379811,-1455.581446,9030.512492
16149.314583,2886.803174,-1991.848295,8512.368333
16149.314907,2664.741391,-1685.410096,8586.388927
16149.315231,2442.679609,-1991.848295,8734.430116
16149.315555,2960.823768,-1991.848295,9178.553681
16149.315879,2516.700203,-1455.581446,9622.677246
16149.316203,2664.741391,-842.705048,9326.594869
16149.316527,3108.864956,-383.047749,9178.553681
16149.316851,3552.988522,459.657299,10288.862594
16149.317175,3701.029710,229.828649,10584.944971
16149.317499,3182.885551,1302.362347,10510.924376
16149.317823,3108.864956,1685.410096,10140.821405
16149.318147,3404.947333,2298.286494,11029.068536
16149.318471,2664.741391,2528.115143,11325.150913
16149.318795,1406.391290,2374.896044,10732.986159
16149.319119,1036.288319,3447.429741,9918.759623
16149.319443,814.226536,3983.696590,9622.677246
16149.319767,-1036.288319,3907.087040,8882.471304
16149.320091,-2368.659014,4213.525239,7698.141797
16149.320415,-3182.885551,4290.134789,7179.997637
16149.320739,-4737.318029,4060.306139,7105.977043
16149.321063,-6217.729913,3370.820191,7031.956449
16149.321387,-6365.771101,3600.648841,6661.853478
16149.321711,-7772.162391,3294.210641,6069.688724
16149.322035,-8290.306550,2374.896044,6291.750507
16149.322359,-7846.182985,2068.457845,7254.018232
16149.322683,-8290.306550,1302.362347,7179.997637
16149.323007,-8068.244768,766.095498,7624.121203
16149.323331,-6365.771101,459.657299,8734.430116
16149.323655,-5625.565159,76.609550,9548.656652
16149.323980,-5181.441594,-842.705048,9844.739029
16149.324304,-3997.112087,-383.047749,10214.842000
16149.324628,-2368.659014,-919.314598,10955.047942
16149.324952,-592.164754,-1302.362347,11251.130318
16149.325276,1036.288319,-1302.362347,11843.295072
16149.325600,1998.556043,-1225.752797,11103.089130
16149.325924,3849.070898,-919.314598,11251.130318
16149.326248,5329.482782,-306.438199,10732.986159
16149.326572,5329.482782,-612.876398,10436.903782
16149.326896,4959.379811,-1149.143247,9918.759623
16149.327220,5477.523971,-689.485948,9474.636058
16149.327544,5625.565159,-1225.752797,9326.594869
16149.327868,4071.132681,-1532.190996,8660.409521
16149.328192,3034.844362,-2221.676944,8882.471304
16149.328516,2886.803174,-1838.629195,8068.244768
16149.328840,2886.803174,-2221.676944,8586.388927
16149.329164,2812.782580,-2528.115143,9252.574275
16149.329488,2590.720797,-2145.067394,9474.636058
16149.329812,2664.741391,-1378.971896,9104.533087
16149.330136,4071.132681,-1072.533697,9474.636058
16149.330460,4885.359217,-459.657299,10288.862594
16149.330784,3775.050304,-383.047749,10140.821405
16149.331108,3256.906145,153.219100,9770.718434
16149.331432,3478.967927,459.657299,10066.800811
16149.331756,3256.906145,459.657299,10362.883188
16149.332080,2220.617826,1072.533697,10658.965565
16149.332404,1406.391290,1378.971896,10436.903782
16149.332728,888.247130,2451.505594,10288.862594
16149.333052,370.102971,2298.286494,10510.924376
16149.333376,518.144159,2528.115143,9696.697840
16149.333700,-814.226536,3600.648841,8882.471304
16149.334024,-1702.473667,3677.258390,8216.285956
16149.334348,-1554.432478,4519.963438,8068.244768
16149.334672,-2664.741391,4060.306139,8068.244768
16149.334996,-4811.338623,3140.991542,7624.121203
16149.335320,-5995.668130,3447.429741,6661.853478
16149.335644,-6143.709319,4213.525239,6957.935855
16149.335968,-6957.935855,2987.772442,7624.121203
16149.336292,-8068.244768,2374.896044,7476.080014
16149.336616,-8068.244768,1608.800546,7105.977043
16149.336940,-7920.203579,1455.581446,7328.038826
16149.337264,-7031.956449,1455.581446,8068.244768
16149.337588,-5255.462188,229.828649,9178.553681
16149.337912,-5329.482782,1149.143247,9030.512492
16149.338236,-3701.029710,536.266849,9770.718434
16149.338560,-1258.350101,76.609550,10807.006753
16149.338884,-1258.350101,-306.438199,10881.027347
16149.339208,-518.144159,-689.485948,10881.027347
16149.339532,1110.308913,-536.266849,10807.006753
16149.339856,2590.720797,-536.266849,11103.089130
16149.340180,3404.947333,-766.095498,11103.089130
16149.340504,3701.029710,-612.876398,10066.800811
16149.340828,4293.194464,-459.657299,9474.636058
16149.341152,4737.318029,-612.876398,9326.594869
16149.341476,4885.359217,-383.047749,9030.512492
16149.341800,5033.400406,-383.047749,8660.409521
16149.342124,4293.194464,-459.657299,8364.327145
16149.342448,4589.276840,-919.314598,8586.388927
16149.342772,4145.153275,-1685.410096,8734.430116
16149.343096,2960.823768,-2298.286494,9326.594869
16149.343420,2886.803174,-1915.238745,9326.594869
16149.343744,3404.947333,-1915.238745,9918.759623
16149.344068,3256.906145,-1762.019645,10066.800811
16149.344392,3552.988522,-995.924147,10066.800811
16149.344716,3552.988522,-536.266849,9622.677246
16149.345040,3552.988522,-1302.362347,10214.842000
16149.345365,3701.029710,-229.828649,10584.944971
16149.345689,3404.947333,383.047749,10807.006753
16149.346013,2664.741391,842.705048,10510.924376
16149.346337,2812.782580,1378.971896,10288.862594
16149.346661,2590.720797,1225.752797,10807.006753
16149.346985,1628.453072,2451.505594,10658.965565
16149.347309,74.020594,2145.067394,10214.842000
16149.347633,-592.164754,2528.115143,9326.594869
16149.347957,-1332.370696,2681.334243,9030.512492
16149.348281,-2664.741391,2987.772442,8512.368333
16149.348605,-4145.153275,2987.772442,7698.141797
16149.348929,-4811.338623,2757.943793,7105.977043
16149.349253,-5699.585753,2834.553343,7254.018232
16149.349577,-6365.771101,3064.381992,6735.874072
16149.349901,-7328.038826,2528.115143,7254.018232
16149.350225,-7994.224174,2374.896044,6661.853478
16149.350549,-6957.935855,2374.896044,7476.080014
16149.350873,-6365.771101,1915.238745,7920.203579
16149.351197,-6809.894666,1685.410096,8068.244768
16149.351521,-6439.791695,919.314598,8586.388927
16149.351845,-4885.359217,383.047749,8882.471304
16149.352168,-4515.256246,229.828649,9844.739029
16149.352492,-3330.926739,-306.438199,10214.842000
16149.352816,-2442.679609,-383.047749,10362.883188
16149.353140,-1258.350101,-383.047749,10732.986159
16149.353464,0.000000,-1302.362347,10955.047942
16149.353788,2146.597232,-536.266849,11473.192101
16149.354112,2442.679609,0.000000,10955.047942
16149.354436,3775.050304,0.000000,10362.883188
16149.354760,5699.585753,536.266849,9918.759623
16149.355084,5995.668130,536.266849,9622.677246
16149.355408,4885.359217,153.219100,9252.574275
16149.355732,5773.606348,-383.047749,8808.450710
16149.356056,5255.462188,-612.876398,8364.327145
16149.356380,4589.276840,-842.705048,8956.491898
16149.356704,2886.803174,-2068.457845,8586.388927
16149.357028,2590.720797,-1838.629195,8808.450710
16149.357351,2442.679609,-2068.457845,8882.471304
16149.357675,3034.844362,-1915.238745,9918.759623
16149.357999,2960.823768,-1378.971896,9844.739029
16149.358323,2516.700203,-1149.143247,9474.636058
16149.358647,4515.256246,0.000000,9400.615463
16149.358971,5329.482782,306.438199,10362.883188
16149.359295,4071.132681,536.266849,10510.924376
16149.359619,3775.050304,689.485948,10214.842000
16149.359943,4145.153275,919.314598,10362.883188
16149.360267,3627.009116,1225.752797,10436.903782
16149.360591,1924.535449,1225.752797,10214.842000
16149.360915,962.267725,1608.800546,9918.759623
16149.361239,444.123565,2298.286494,9326.594869
16149.361563,-370.102971,2374.896044,9992.780217
16149.361887,-962.267725,2681.334243,9548.656652
16149.362210,-2072.576638,2757.943793,8586.388927
16149.362534,-2960.823768,3677.258390,7402.059420
16149.362858,-3330.926739,4213.525239,7402.059420
16149.363182,-3849.070898,2911.162892,7550.100608
16149.363506,-5551.544565,2528.115143,7105.977043
16149.363830,-7105.977043,2451.505594,6735.874072
16149.364154,-7179.997637,1991.848295,7031.956449
16149.364478,-7846.182985,1149.143247,7698.141797
16149.364802,-8290.306550,842.705048,7402.059420
16149.365126,-7994.224174,76.609550,7624.121203
16149.365450,-7328.038826,0.000000,7994.224174
16149.365774,-5773.606348,229.828649,9474.636058
16149.366098,-4367.215058,-229.828649,9770.718434
16149.366422,-4293.194464,-306.438199,10214.842000
16149.366746,-2738.761985,-383.047749,10214.842000
16149.367069,-148.041188,-459.657299,11103.089130
16149.367393,814.226536,-995.924147,11547.212695
16149.367717,1036.288319,-1072.533697,11399.171507
16149.368041,2294.638420,-306.438199,10732.986159
16149.368365,3478.967927,-536.266849,10807.006753
16149.368689,3627.009116,-612.876398,10510.924376
16149.369013,4071.132681,-306.438199,9548.656652
16149.369337,4293.194464,-153.219100,8808.450710
16149.369661,4367.215058,-306.438199,8364.327145
16149.369985,4737.318029,306.438199,8808.450710
16149.370309,4145.153275,-536.266849,8290.306550
16149.370633,3034.844362,-1072.533697,8512.368333
16149.370957,3404.947333,-1149.143247,8882.471304
16149.371281,3478.967927,-1685.410096,9474.636058
16149.371605,2368.659014,-2068.457845,9770.718434
16149.371929,2368.659014,-1685.410096,9252.574275
16149.372252,3256.906145,-1455.581446,10066.800811
16149.372576,3552.988522,-995.924147,9918.759623
16149.372900,2960.823768,-919.314598,10436.903782
16149.373224,3849.070898,76.609550,10214.842000
16149.373548,3775.050304,766.095498,10214.842000
16149.373872,3701.029710,1149.143247,10214.842000
16149.374196,4145.153275,2451.505594,10510.924376
16149.374520,3108.864956,1685.410096,9918.759623
16149.374844,2368.659014,2145.067394,9918.759623
16149.375168,3256.906145,2757.943793,10584.944971
16149.375492,1998.556043,3064.381992,9918.759623
16149.375816,222.061783,3370.820191,9326.594869
16149.376140,-296.082377,3753.867940,8660.409521
16149.376464,-592.164754,3753.867940,8290.306550
16149.376788,-2072.576638,4060.306139,8512.368333
16149.377111,-3997.112087,3677.258390,7254.018232
16149.377435,-5329.482782,3753.867940,6291.750507
16149.377759,-5847.626942,3140.991542,6513.812290
16149.378083,-6661.853478,2911.162892,7105.977043
16149.378407,-7550.100608,2757.943793,7476.080014
16149.378731,-8364.327145,1608.800546,7328.038826
16149.379055,-7994.224174,1302.362347,7179.997637
16149.379379,-6587.832884,919.314598,8068.244768
16149.379703,-7402.059420,383.047749,8216.285956
16149.380027,-7105.977043,0.000000,8808.450710
16149.380351,-4885.359217,-383.047749,9474.636058
16149.380675,-3701.029710,-689.485948,10436.903782
16149.380999,-3182.885551,-1072.533697,10658.965565
16149.381323,-1628.453072,-1072.533697,10955.047942
16149.381647,296.082377,-1149.143247,11177.109724
16149.381970,1702.473667,-1149.143247,11547.212695
16149.382294,3330.926739,-612.876398,11917.315666
16149.382618,4367.215058,-306.438199,10658.965565
16149.382942,4811.338623,-459.657299,9770.718434
16149.383266,5847.626942,306.438199,9326.594869
16149.383590,5995.668130,459.657299,9400.615463
16149.383914,5107.421000,-919.314598,9400.615463
16149.384238,3849.070898,-1072.533697,8882.471304
16149.384562,3478.967927,-1225.752797,8660.409521
16149.384886,2220.617826,-2068.457845,8438.347739
16149.385210,592.164754,-2681.334243,8290.306550
16149.385534,592.164754,-3064.381992,8068.244768
16149.385858,592.164754,-2604.724693,8438.347739
16149.386182,1850.514855,-2298.286494,9030.512492
16149.386506,2442.679609,-1762.019645,9992.780217
16149.386830,3108.864956,-1225.752797,9474.636058
16149.387153,4737.318029,0.000000,9992.780217
16149.387477,5699.585753,459.657299,10732.986159
16149.387801,5403.503377,919.314598,10658.965565
16149.388125,4885.359217,766.095498,10584.944971
16149.388449,4663.297435,2145.067394,10658.965565
16149.388773,4589.276840,1532.190996,11103.089130
16149.389097,2960.823768,1838.629195,11325.150913
16149.389421,1332.370696,1991.848295,10362.883188
16149.389745,888.247130,2298.286494,9844.739029
16149.390069,0.000000,2911.162892,9400.615463
16149.390393,-888.247130,4213.525239,8956.491898
16149.390717,-2220.617826,4213.525239,7772.162391
16149.391041,-3256.906145,3907.087040,7105.977043
16149.391365,-3701.029710,4060.306139,7105.977043
16149.391689,-4589.276840,3983.696590,6957.935855
16149.392012,-7031.956449,3140.991542,6809.894666
16149.392336,-8068.244768,2757.943793,6365.771101
16149.392660,-7846.182985,1991.848295,6809.894666
16149.392984,-7772.162391,1915.238745,7624.121203
16149.393308,-8808.450710,995.924147,7476.080014
16149.393632,-7846.182985,689.485948,7772.162391
16149.393956,-6513.812290,459.657299,8808.450710
16149.394280,-5255.462188,306.438199,9474.636058
16149.394604,-4367.215058,0.000000,10584.944971
16149.394928,-3552.988522,-383.047749,10584.944971
16149.395252,-1554.432478,-689.485948,10584.944971
16149.395576,592.164754,-306.438199,11103.089130
16149.395900,1924.535449,-383.047749,11769.274478
16149.396224,1480.411884,-536.266849,11251.130318
16149.396548,2886.803174,-766.095498,10732.986159
16149.396871,4663.297435,-459.657299,10510.924376
16149.397195,4589.276840,-536.266849,10140.821405
16149.397519,4589.276840,306.438199,10214.842000
16149.397843,4367.215058,-229.828649,8290.306550
16149.398167,4663.297435,229.828649,8956.491898
16149.398491,4441.235652,-995.924147,8438.347739
16149.398815,3256.906145,-1378.971896,8586.388927
16149.399139,1998.556043,-1762.019645,8068.244768
16149.399463,2738.761985,-1685.410096,8586.388927
16149.399787,3404.947333,-1762.019645,9548.656652
16149.400111,2146.597232,-2068.457845,10140.821405
16149.400435,2590.720797,-2145.067394,9104.533087
16149.400759,3404.947333,-1149.143247,9252.574275
16149.401083,3997.112087,-1149.143247,9770.718434
16149.401407,3849.070898,-766.095498,10436.903782
16149.401731,3923.091493,-229.828649,10288.862594
16149.402054,3923.091493,306.438199,9992.780217
16149.402378,3627.009116,76.609550,10807.006753
16149.402702,3552.988522,995.924147,10658.965565
16149.403026,3108.864956,1302.362347,11103.089130
16149.403350,2072.576638,2068.457845,10436.903782
16149.403674,1702.473667,2374.896044,10807.006753
16149.403998,1776.494261,2604.724693,10436.903782
16149.404322,592.164754,3064.381992,9400.615463
