#time,accel_x,accel_y,accel_z
28978.227720,-3627.009116,1532.190996,9548.656652
28978.228049,-4515.256246,1072.533697,9844.739029
28978.228378,-4885.359217,995.924147,10066.800811
28978.228707,-4885.359217,1149.143247,9770.718434
28978.229036,-4811.338623,1838.629195,9474.636058
28978.229365,-3701.029710,2068.457845,8956.491898
28978.229693,-1628.453072,1915.238745,8512.368333
28978.230022,-962.267725,3753.867940,7476.080014
28978.230351,-1258.350101,5056.230287,7105.977043
28978.230680,-740.205942,3140.991542,6439.791695
28978.231009,-1110.308913,2298.286494,6069.688724
28978.231338,-1924.535449,2834.553343,6883.915261
28978.231666,-1554.432478,3524.039291,6957.935855
28978.231995,-1110.308913,3447.429741,8364.327145
28978.232324,-962.267725,3370.820191,9696.697840
28978.232653,-592.164754,3370.820191,10732.986159
28978.232982,-1110.308913,3140.991542,10436.903782
28978.233310,-962.267725,2987.772442,10881.027347
28978.233639,-296.082377,4060.306139,11473.192101
28978.233968,-1406.391290,4826.401637,11917.315666
28978.234297,-2294.638420,3983.696590,11325.150913
28978.234626,-2738.761985,2604.724693,10955.047942
28978.234955,-3627.009116,2451.505594,11621.233289
28978.235283,-4293.194464,3600.648841,11251.130318
28978.235612,-4441.235652,3447.429741,11251.130318
28978.235941,-4515.256246,3140.991542,11029.068536
28978.236270,-4515.256246,3370.820191,10288.862594
28978.236599,-4885.359217,4519.963438,9844.739029
28978.236928,-5107.421000,5439.278036,8512.368333
28978.237256,-4145.153275,5515.887586,7328.038826
28978.237585,-2960.823768,5822.325785,7624.121203
28978.237914,-2516.700203,7124.688131,7698.141797
28978.238243,-3552.988522,7201.297681,6661.853478
28978.238572,-3034.844362,6205.373534,6069.688724
28978.238901,-1776.494261,5362.668486,5625.565159
28978.239229,-1776.494261,5439.278036,5995.668130
28978.239558,-1628.453072,5515.887586,5477.523971
28978.239887,-1776.494261,4749.792088,5995.668130
28978.240216,-2072.576638,3753.867940,7031.956449
28978.240545,-1924.535449,2374.896044,8216.285956
28978.240873,-2516.700203,2374.896044,8956.491898
28978.241202,-2738.761985,1072.533697,9400.615463
28978.241531,-1850.514855,383.047749,11251.130318
28978.241860,-2072.576638,0.000000,13619.789333
28978.242189,-3552.988522,919.314598,13027.624579
28978.242518,-3034.844362,459.657299,11843.295072
28978.242846,-666.185348,-383.047749,12287.418637
28978.243175,-592.164754,842.705048,11843.295072
28978.243504,-962.267725,2221.676944,10362.883188
28978.243833,518.144159,1991.848295,8808.450710
28978.244162,592.164754,0.000000,8512.368333
28978.244491,888.247130,842.705048,8512.368333
28978.244819,444.123565,842.705048,8586.388927
28978.245148,592.164754,0.000000,8438.347739
28978.245477,962.267725,-1225.752797,8808.450710
28978.245806,1776.494261,-2374.896044,10214.842000
28978.246135,296.082377,-1532.190996,9770.718434
28978.246464,-814.226536,0.000000,9844.739029
28978.246792,-592.164754,-1072.533697,11177.109724
28978.247121,-1554.432478,76.609550,11843.295072
28978.247450,-2960.823768,1915.238745,12139.377449
28978.247779,-4441.235652,3140.991542,11547.212695
28978.248108,-5329.482782,3447.429741,10140.821405
28978.248436,-5329.482782,4290.134789,9844.739029
28978.248765,-4663.297435,4443.353888,10288.862594
28978.249094,-5625.565159,6281.983084,8068.244768
28978.249423,-4885.359217,5669.106685,5847.626942
28978.249752,-3404.947333,4366.744339,5477.523971
28978.250080,-3849.070898,4213.525239,5699.585753
28978.250409,-4737.318029,4213.525239,5699.585753
28978.250737,-4885.359217,2374.896044,6661.853478
28978.251066,-4515.256246,-1838.629195,8216.285956
28978.251395,-5477.523971,-1685.410096,9622.677246
28978.251723,-5551.544565,-766.095498,10214.842000
28978.252052,-4219.173869,383.047749,11399.171507
28978.252380,-2738.761985,1455.581446,12435.459826
28978.252709,-518.144159,3140.991542,12583.501014
28978.253038,2294.638420,5056.230287,10807.006753
28978.253366,4293.194464,8503.660028,8290.306550
28978.253695,5847.626942,9729.412825,7550.100608
28978.254023,4441.235652,9882.631924,7994.224174
28978.254352,1776.494261,8810.098227,8364.327145
28978.254681,74.020594,6741.640382,9474.636058
28978.255009,-2146.597232,4290.134789,10214.842000
28978.255338,-5477.523971,1378.971896,10288.862594
28978.255666,-7031.956449,383.047749,9770.718434
28978.255995,-5329.482782,-612.876398,9474.636058
28978.256324,-3701.029710,153.219100,9178.553681
28978.256652,-2294.638420,1302.362347,8808.450710
28978.256981,-1110.308913,3447.429741,7476.080014
28978.257309,1332.370696,5132.839837,5403.503377
28978.257638,3997.112087,4596.572988,4737.318029
28978.257967,4811.338623,4136.915689,5921.647536
28978.258295,3330.926739,5362.668486,6217.729913
28978.258624,3478.967927,3677.258390,6735.874072
28978.258952,4737.318029,1149.143247,8734.430116
28978.259281,3182.885551,-842.705048,10732.986159
28978.259610,222.061783,-1072.533697,11251.130318
28978.259938,-1258.350101,-2451.505594,11843.295072
28978.260267,-1184.329507,-3217.601092,13101.645173
28978.260595,-2368.659014,-1991.848295,14952.160028
28978.260924,-3923.091493,-229.828649,14137.933492
28978.261252,-4219.173869,766.095498,11251.130318
28978.261581,-2516.700203,0.000000,8734.430116
28978.261910,0.000000,153.219100,9030.512492
28978.262238,-222.061783,2681.334243,9178.553681
28978.262567,-1554.432478,3677.258390,7846.182985
28978.262895,74.020594,766.095498,7402.059420
28978.263224,-518.144159,-3064.381992,8438.347739
28978.263553,-1258.350101,-4060.306139,8438.347739
28978.263881,-1554.432478,-4290.134789,7476.080014
28978.264210,-888.247130,-5439.278036,8956.491898
28978.264538,-296.082377,-6052.154434,9992.780217
28978.264867,444.123565,-6052.154434,11399.171507
28978.265196,-1258.350101,-4136.915689,11695.253884
28978.265524,-1776.494261,-2298.286494,12065.356855
28978.265853,-962.267725,-919.314598,12731.542202
28978.266181,-1332.370696,766.095498,13545.768739
28978.266510,-2146.597232,3294.210641,11029.068536
28978.266839,-1702.473667,4596.572988,7476.080014
28978.267167,0.000000,4979.620737,6661.853478
28978.267496,370.102971,5592.497135,6143.709319
28978.267824,74.020594,6971.469032,5107.421000
28978.268153,814.226536,4519.963438,4071.132681
28978.268482,962.267725,1072.533697,3627.009116
28978.268810,74.020594,-1225.752797,5255.462188
28978.269139,-148.041188,-2528.115143,6735.874072
28978.269467,0.000000,-3983.696590,6439.791695
28978.269796,2368.659014,-6818.249932,8586.388927
28978.270125,1850.514855,-7048.078582,12805.562797
28978.270453,518.144159,-3600.648841,15766.386565
28978.270782,1480.411884,-842.705048,15988.448347
28978.271110,2886.803174,-689.485948,15914.427753
28978.271439,740.205942,1532.190996,15988.448347
28978.271768,-296.082377,6741.640382,13841.851115
28978.272096,1480.411884,9652.803275,10807.006753
28978.272425,3182.885551,9806.022374,8068.244768
28978.272753,2368.659014,8810.098227,6439.791695
28978.273082,2664.741391,9882.631924,4737.318029
28978.273411,2590.720797,9499.584175,2812.782580
28978.273739,1110.308913,5592.497135,1924.535449
28978.274068,-148.041188,-229.828649,2220.617826
28978.274396,-1776.494261,-2987.772442,3256.906145
28978.274725,-2146.597232,-4673.182538,4145.153275
28978.275054,-2146.597232,-7431.126331,7328.038826
28978.275382,-3034.844362,-10112.460574,11695.253884
28978.275711,-4071.132681,-8810.098227,15396.283594
28978.276039,-1702.473667,-5132.839837,17394.839637
28978.276368,518.144159,-1915.238745,18727.210333
28978.276697,-1184.329507,1225.752797,18209.066173
28978.277025,-1110.308913,4979.620737,16358.551318
28978.277354,592.164754,8427.050478,13545.768739
28978.277682,2368.659014,10418.898773,9474.636058
28978.278011,3330.926739,10648.727422,6365.771101
28978.278340,2886.803174,10265.679673,3849.070898
28978.278668,1702.473667,8503.660028,1850.514855
28978.278997,-296.082377,4673.182538,1332.370696
28978.279325,-1628.453072,-1608.800546,1480.411884
28978.279654,-4145.153275,-7201.297681,2220.617826
28978.279983,-5329.482782,-10878.556072,1924.535449
28978.280311,-5181.441594,-12334.137518,5699.585753
28978.280640,-5625.565159,-13176.842566,10362.883188
28978.280968,-6513.812290,-12487.356617,15618.345376
28978.281297,-3923.091493,-10801.946522,18949.272115
28978.281626,592.164754,-7737.564530,19097.313304
28978.281954,1554.432478,-995.924147,19467.416275
28978.282283,1998.556043,5975.544884,17098.757260
28978.282611,3701.029710,10265.679673,12879.583391
28978.282940,6439.791695,11261.603821,9178.553681
28978.283269,6883.915261,11184.994271,6957.935855
28978.283597,8068.244768,12487.356617,4589.276840
28978.283926,6661.853478,10648.727422,2146.597232
28978.284254,2664.741391,6358.592633,370.102971
28978.284583,518.144159,-229.828649,-888.247130
28978.284912,-962.267725,-6281.983084,592.164754
28978.285240,-3330.926739,-10955.165621,1184.329507
28978.285569,-5107.421000,-13023.623466,4071.132681
28978.285897,-4663.297435,-14709.033562,10807.006753
28978.286226,-5181.441594,-12563.966167,16876.695478
28978.286555,-5403.503377,-9806.022374,21465.972318
28978.286883,-962.267725,-8427.050478,21539.992912
28978.287212,2146.597232,-3524.039291,21614.013506
28978.287540,1924.535449,5362.668486,19097.313304
28978.287869,3997.112087,12563.966167,14730.098246
28978.288198,7550.100608,15092.081311,10140.821405
28978.288526,7698.141797,15551.738609,7328.038826
28978.288855,8216.285956,15934.786358,5107.421000
28978.289183,8734.430116,14325.985813,1924.535449
28978.289512,4293.194464,10265.679673,296.082377
28978.289841,-222.061783,3677.258390,-1702.473667
28978.290169,-1036.288319,-3753.867940,-740.205942
28978.290498,-3923.091493,-9882.631924,1184.329507
28978.290826,-8734.430116,-12180.918418,4885.359217
28978.291155,-9252.574275,-14555.814462,10362.883188
28978.291484,-9474.636058,-14479.204912,14952.160028
28978.291812,-10140.821405,-11108.384721,19911.539840
28978.292141,-5995.668130,-9269.755526,20059.581028
28978.292469,-592.164754,-4213.525239,20503.704593
28978.292798,-1702.473667,5515.887586,19541.436869
28978.293127,-666.185348,13330.061665,14952.160028
28978.293455,5551.544565,14632.424012,10214.842000
28978.293784,7920.203579,17007.320056,7031.956449
28978.294112,7328.038826,20454.749797,3182.885551
28978.294441,9104.533087,16777.491406,962.267725
28978.294769,7328.038826,12180.918418,-888.247130
28978.295098,592.164754,6205.373534,-2442.679609
28978.295427,-2368.659014,-766.095498,-3997.112087
28978.295755,-3330.926739,-9039.926876,-1036.288319
28978.296084,-8660.409521,-13023.623466,5033.400406
28978.296412,-10807.006753,-15704.957709,9992.780217
28978.296741,-9844.739029,-19612.044749,16062.468941
28978.297070,-9844.739029,-17543.586904,20281.642811
28978.297398,-9030.512492,-12410.747068,22058.137072
28978.297727,-2368.659014,-6588.421283,21836.075289
28978.298055,1628.453072,2221.676944,22798.343014
28978.298384,2516.700203,10035.851024,19097.313304
28978.298713,6439.791695,14096.157163,11547.212695
28978.299041,11473.192101,16854.100956,7105.977043
28978.299370,12065.356855,20454.749797,3330.926739
28978.299698,12509.480420,19612.044749,962.267725
28978.300027,13841.851115,13023.623466,-814.226536
28978.300356,7254.018232,7584.345430,-2146.597232
28978.300684,814.226536,1378.971896,-4737.318029
28978.301013,740.205942,-7660.954980,-3627.009116
28978.301341,-4293.194464,-14632.424012,3034.844362
28978.301670,-10436.903782,-16011.395908,9400.615463
28978.301999,-10140.821405,-19305.606550,15544.324782
28978.302327,-8364.327145,-20531.359346,21021.848753
28978.302656,-10807.006753,-15398.519510,23982.672521
28978.302984,-7402.059420,-9499.584175,22576.281231
28978.303313,-666.185348,-2221.676944,23908.651927
28978.303642,814.226536,5592.497135,21614.013506
28978.303970,3330.926739,11261.603821,14211.954086
28978.304299,7698.141797,14172.766713,8734.430116
28978.304627,7624.121203,19995.092498,4071.132681
28978.304956,10807.006753,21374.064394,-0.000000
28978.305285,16062.468941,15015.471761,-888.247130
28978.305613,8586.388927,10112.460574,-3182.885551
28978.305942,-296.082377,4136.915689,-6809.894666
28978.306270,-444.123565,-4673.182538,-7105.977043
28978.306599,-2960.823768,-12104.308868,2442.679609
28978.306928,-9474.636058,-13866.328514,10436.903782
28978.307256,-8956.491898,-17390.367805,14434.015869
28978.307585,-13767.830521,-19382.216099,18875.251521
28978.307913,-17246.798449,-17696.806004,21539.992912
28978.308242,-7994.224174,-12487.356617,23982.672521
28978.308571,-1554.432478,-2451.505594,27017.516883
28978.308899,-5033.400406,8427.050478,22428.240043
28978.309228,-3108.864956,10495.508323,12879.583391
28978.309556,4737.318029,11338.213370,8438.347739
28978.309885,9622.677246,25051.322785,6513.812290
28978.310214,14878.139434,29801.114872,962.267725
28978.310542,14952.160028,17926.634653,-3182.885551
28978.310871,6069.688724,9959.241474,-9178.553681
28978.311199,1480.411884,7967.393179,-10732.986159
28978.311528,3923.091493,2987.772442,-5329.482782
28978.311857,888.247130,-6588.421283,2220.617826
28978.312185,-7402.059420,-13559.890315,7179.997637
28978.312514,-13175.665768,-18769.339701,10584.944971
28978.312842,-16284.530724,-19918.482948,17764.942608
28978.313171,-10881.027347,-18233.072852,25759.166782
28978.313500,-3256.906145,-12563.966167,29756.278868
28978.313828,-4811.338623,-2987.772442,28423.908173
28978.314157,-4885.359217,3753.867940,20651.745782
28978.314485,1406.391290,7890.783629,16136.489536
28978.314814,8364.327145,16547.662757,12879.583391
28978.315143,16284.530724,27196.390179,7476.080014
28978.315471,19615.457463,26506.904231,1036.288319
28978.315800,12805.562797,18769.339701,-5329.482782
28978.316128,9622.677246,12334.137518,-11473.192101
28978.316457,10436.903782,8580.269578,-7254.018232
28978.316786,7476.080014,2757.943793,-2368.659014
28978.317114,1036.288319,-6358.592633,-296.082377
28978.317443,-7624.121203,-17466.977354,4589.276840
28978.317771,-15322.262999,-21833.721693,10436.903782
28978.318100,-15692.365970,-21220.845295,21095.869347
28978.318429,-9400.615463,-20837.797546,28423.908173
28978.318757,-7846.182985,-16930.710506,30274.423028
28978.319086,-8438.347739,-7967.393179,26203.290347
28978.319414,-7476.080014,1915.238745,21762.054695
28978.319743,-1776.494261,8120.612279,16728.654289
28978.320072,7772.162391,10418.898773,13767.830521
28978.320400,13767.830521,18003.244203,8660.409521
28978.320729,13323.706956,28881.800275,-2442.679609
28978.321057,11843.295072,20378.140247,-7698.141797
28978.321386,11917.315666,9039.926876,-11695.253884
28978.321715,8068.244768,7737.564530,-5477.523971
28978.322043,3330.926739,3753.867940,-3034.844362
28978.322372,1332.370696,-7737.564530,-3552.988522
28978.322700,-7328.038826,-17696.806004,4071.132681
28978.323029,-15692.365970,-18769.339701,10807.006753
28978.323358,-16210.510130,-18692.730151,20873.807564
28978.323686,-11695.253884,-21986.940793,28571.949361
28978.324015,-11843.295072,-19612.044749,30570.505405
28978.324343,-7920.203579,-9882.631924,23908.651927
28978.324672,-5551.544565,4290.134789,20799.786970
28978.325001,-7105.977043,12180.918418,15248.242405
28978.325329,2516.700203,9729.412825,10732.986159
28978.325658,15544.324782,14555.814462,10140.821405
28978.325986,16062.468941,32252.620466,962.267725
28978.326315,11843.295072,25587.589633,-5477.523971
28978.326644,11029.068536,8886.707777,-11325.150913
28978.326972,8364.327145,5745.716235,-8808.450710
28978.327301,2220.617826,6358.592633,-1184.329507
28978.327629,4071.132681,-6205.373534,-2812.782580
28978.327958,-5329.482782,-16164.615008,6143.709319
28978.328286,-17172.777854,-16241.224558,9178.553681
28978.328615,-16210.510130,-15245.300410,17912.983796
28978.328944,-9030.512492,-21297.454844,29386.175897
28978.329272,-9252.574275,-17466.977354,30718.546593
28978.329601,-8512.368333,-5975.544884,24352.775492
28978.329929,-4145.153275,3907.087040,19763.498651
28978.330258,-1554.432478,12257.527968,15692.365970
28978.330587,7772.162391,13176.842566,11695.253884
28978.330915,18357.107362,19688.654299,9252.574275
28978.331244,18949.272115,29954.333972,-222.061783
28978.331572,14656.077652,23978.789087,-4293.194464
28978.331901,14211.954086,11797.870669,-10658.965565
28978.332230,10658.965565,7507.735880,-9030.512492
28978.332558,4293.194464,5286.058936,-1258.350101
28978.332887,3182.885551,-6894.859482,-1850.514855
28978.333215,-4885.359217,-16471.053207,6661.853478
28978.333544,-16506.592507,-18003.244203,11991.336260
28978.333873,-18061.024985,-19382.216099,19763.498651
28978.334201,-11695.253884,-22676.426741,27905.764013
28978.334530,-9326.594869,-18999.168350,30200.402434
28978.334858,-9326.594869,-6128.763984,26055.249158
28978.335187,-6809.894666,3983.696590,20133.601622
28978.335516,-4589.276840,9806.022374,13545.768739
28978.335844,5107.421000,9576.193725,10881.027347
28978.336173,14508.036463,16011.395908,10214.842000
28978.336501,14878.139434,29035.019374,-0.000000
28978.336830,10362.883188,22140.159892,-6513.812290
28978.337159,10214.842000,8427.050478,-12213.398043
28978.337487,9400.615463,4519.963438,-8882.471304
28978.337816,3997.112087,5439.278036,-1332.370696
28978.338144,1628.453072,-5745.716235,-1036.288319
28978.338473,-7624.121203,-17390.367805,5847.626942
28978.338802,-15766.386565,-21603.893044,11991.336260
28978.339130,-15618.345376,-19305.606550,21317.931130
28978.339459,-10807.006753,-19535.435199,29016.072926
28978.339787,-10214.842000,-17926.634653,29756.278868
28978.340116,-9104.533087,-9346.365076,25241.022622
28978.340445,-6735.874072,1685.410096,21317.931130
28978.340773,-4589.276840,10801.946522,14508.036463
28978.341102,5107.421000,11031.775171,10955.047942
28978.341430,13619.789333,16164.615008,9548.656652
28978.341759,14582.057057,27809.266577,-518.144159
28978.342088,11399.171507,22446.598091,-5847.626942
28978.342416,10584.944971,9499.584175,-12139.377449
28978.342745,8586.388927,4673.182538,-8956.491898
28978.343073,3404.947333,3064.381992,-2368.659014
28978.343402,2442.679609,-7277.907231,-2442.679609
28978.343731,-7698.141797,-15934.786358,6883.915261
28978.344059,-14952.160028,-19382.216099,13027.624579
28978.344388,-14285.974681,-19535.435199,20355.663405
28978.344716,-8808.450710,-21603.893044,28645.969955
28978.345045,-7476.080014,-15551.738609,31828.855506
28978.345374,-5477.523971,-4903.011187,25463.084405
28978.345702,-5995.668130,5209.449386,21243.910535
28978.346031,-2368.659014,10955.165621,14878.139434
28978.346359,10658.965565,11491.432470,12139.377449
28978.346688,18875.251521,22293.378992,8808.450710
28978.347017,15988.448347,31639.744067,-1776.494261
28978.347345,11769.274478,19382.216099,-6217.729913
28978.347674,12065.356855,9346.365076,-12583.501014
28978.348002,6957.935855,7967.393179,-7031.956449
28978.348331,2590.720797,3447.429741,-2960.823768
28978.348660,1628.453072,-10725.336972,-3256.906145
28978.348988,-8882.471304,-17160.539155,5625.565159
28978.349317,-16876.695478,-16930.710506,11251.130318
28978.349645,-15026.180623,-18692.730151,22132.157666
28978.349974,-9326.594869,-21833.721693,29608.237680
28978.350303,-8586.388927,-15934.786358,28794.011144
28978.350631,-5847.626942,-4060.306139,24648.857869
28978.350960,-4367.215058,6435.202183,21317.931130
28978.351288,-2516.700203,12717.185267,15026.180623
28978.351617,7105.977043,11031.775171,11473.192101
28978.351945,15840.407159,17160.539155,9770.718434
28978.352274,13841.851115,29188.238474,-1110.308913
28978.352602,7994.224174,21757.112143,-6217.729913
28978.352931,8808.450710,7584.345430,-12361.439231
28978.353259,6735.874072,3600.648841,-8290.306550
28978.353587,2812.782580,1991.848295,-1702.473667
28978.353916,1850.514855,-8427.050478,-1480.411884
28978.354244,-9474.636058,-16624.272307,4663.297435
28978.354573,-16654.633695,-19918.482948,10584.944971
28978.354901,-11843.295072,-19075.777900,22206.178260
28978.355230,-6587.832884,-19152.387450,32050.917289
28978.355558,-8142.265362,-13789.718964,30940.608376
28978.355886,-5847.626942,-6435.202183,24352.775492
28978.356215,-4367.215058,2757.943793,21688.034101
28978.356543,-2442.679609,11874.480219,16284.530724
28978.356872,8290.306550,12487.356617,12879.583391
28978.357200,14508.036463,17083.929605,8734.430116
28978.357529,11991.336260,27349.609279,-1702.473667
28978.357857,9696.697840,20684.578446,-6587.832884
28978.358186,10881.027347,9346.365076,-11399.171507
28978.358514,5773.606348,5745.716235,-7994.224174
28978.358842,814.226536,1838.629195,-4367.215058
28978.359171,0.000000,-10572.117872,-4071.132681
28978.359499,-9474.636058,-17160.539155,5033.400406
28978.359828,-16136.489536,-18003.244203,12139.377449
28978.360156,-14137.933492,-18922.558801,21391.951724
28978.360485,-9252.574275,-20761.187996,28423.908173
28978.360813,-7328.038826,-17160.539155,29608.237680
28978.361141,-3256.906145,-4979.620737,24944.940245
28978.361470,-3997.112087,7354.516781,21762.054695
28978.361798,-3627.009116,12947.013916,14359.995275
28978.362127,9992.780217,11031.775171,12805.562797
28978.362455,19837.519246,18999.168350,10436.903782
28978.362784,15840.407159,32712.277765,-740.205942
28978.363112,10881.027347,20531.359346,-5921.647536
28978.363441,11103.089130,8427.050478,-13397.727550
28978.363769,6883.915261,6358.592633,-7105.977043
28978.364097,2442.679609,3677.258390,-2442.679609
28978.364426,2220.617826,-10189.070123,-2886.803174
28978.364754,-11103.089130,-18003.244203,5181.441594
28978.365083,-17838.963202,-18539.511052,9696.697840
28978.365411,-13841.851115,-19612.044749,21021.848753
28978.365740,-8808.450710,-21220.845295,30644.525999
28978.366068,-9992.780217,-14785.643111,29904.320057
28978.366396,-6661.853478,-5056.230287,22798.343014
28978.366725,-3923.091493,4290.134789,21836.075289
28978.367053,-2738.761985,12563.966167,17394.839637
28978.367382,8216.285956,13176.842566,13471.748144
28978.367710,17172.777854,17390.367805,9548.656652
28978.368039,14434.015869,28039.095227,592.164754
28978.368367,9326.594869,22599.817191,-4737.318029
28978.368696,10658.965565,10418.898773,-10584.944971
28978.369024,7328.038826,4826.401637,-7476.080014
28978.369352,2442.679609,459.657299,-3552.988522
28978.369681,1554.432478,-9193.145976,-2812.782580
28978.370009,-8438.347739,-15475.129060,4737.318029
28978.370338,-16506.592507,-17160.539155,10732.986159
28978.370666,-13693.809927,-19382.216099,20355.663405
28978.370995,-7105.977043,-21374.064394,29978.340651
28978.371323,-7179.997637,-14709.033562,30126.381839
28978.371651,-5699.585753,-3753.867940,23538.548956
28978.371980,-4071.132681,3907.087040,20799.786970
28978.372308,-2368.659014,11108.384721,16358.551318
28978.372637,7846.182985,12104.308868,13619.789333
28978.372965,15248.242405,18003.244203,10436.903782
28978.373294,11843.295072,29111.628924,-1184.329507
28978.373622,7698.141797,21680.502593,-6735.874072
28978.373951,10584.944971,9806.022374,-11917.315666
28978.374279,6143.709319,5898.935335,-7179.997637
28978.374607,-222.061783,2757.943793,-2664.741391
28978.374936,-666.185348,-9576.193725,-4367.215058
28978.375264,-9400.615463,-17926.634653,4071.132681
28978.375593,-16358.551318,-18156.463303,11325.150913
28978.375921,-14211.954086,-18079.853753,20799.786970
28978.376250,-8808.450710,-20454.749797,28349.887579
28978.376578,-7846.182985,-16164.615008,29534.217086
28978.376906,-2886.803174,-6665.030833,23908.651927
28978.377235,-2738.761985,5439.278036,23834.631332
28978.377563,-4441.235652,14019.547613,17394.839637
28978.377892,6957.935855,12487.356617,11769.274478
28978.378220,18505.148550,15321.909960,11621.233289
28978.378549,15766.386565,31716.353617,1258.350101
28978.378877,9696.697840,24744.884585,-6291.750507
28978.379206,11177.109724,10112.460574,-11991.336260
28978.379534,8808.450710,4903.011187,-8660.409521
28978.379862,2072.576638,4673.182538,-2960.823768
28978.380191,3256.906145,-7354.516781,-4367.215058
28978.380519,-6735.874072,-16624.272307,4441.235652
28978.380848,-17172.777854,-18079.853753,9400.615463
28978.381176,-14952.160028,-20378.140247,19171.333898
28978.381505,-7846.182985,-22446.598091,29016.072926
28978.381833,-7105.977043,-17160.539155,32050.917289
28978.382161,-6513.812290,-5439.278036,24944.940245
28978.382490,-4293.194464,4060.306139,23168.445985
28978.382818,-1702.473667,10418.898773,18431.127956
28978.383147,7105.977043,11644.651570,14508.036463
28978.383475,16136.489536,16777.491406,11103.089130
28978.383804,15248.242405,29571.286223,444.123565
28978.384132,11399.171507,23289.303139,-5403.503377
28978.384461,11177.109724,10418.898773,-10955.047942
28978.384789,6661.853478,5439.278036,-9030.512492
28978.385117,1184.329507,2374.896044,-4145.153275
28978.385446,2368.659014,-10035.851024,-4589.276840
28978.385774,-7476.080014,-17083.929605,4367.215058
28978.386103,-16876.695478,-17083.929605,9622.677246
28978.386431,-15174.221811,-18539.511052,19245.354492
28978.386760,-7476.080014,-21757.112143,28423.908173
28978.387088,-5847.626942,-17466.977354,30570.505405
28978.387416,-4959.379811,-5362.668486,24796.899057
28978.387745,-3701.029710,6281.983084,22354.219448
28978.388073,-3404.947333,12793.794817,16950.716072
28978.388402,5921.647536,11338.213370,13027.624579
28978.388730,14434.015869,14249.376263,11843.295072
28978.389059,12065.356855,29035.019374,1110.308913
28978.389387,7105.977043,24898.103685,-6587.832884
28978.389716,8438.347739,10112.460574,-12287.418637
28978.390044,6291.750507,4749.792088,-8882.471304
28978.390372,222.061783,3294.210641,-3182.885551
28978.390701,-740.205942,-6971.469032,-6069.688724
28978.391029,-8808.450710,-17083.929605,2368.659014
28978.391358,-16580.613101,-19382.216099,9474.636058
28978.391686,-14359.995275,-17543.586904,19689.478057
28978.392015,-7846.182985,-19228.997000,29534.217086
28978.392343,-6587.832884,-18156.463303,30570.505405
28978.392671,-4959.379811,-9499.584175,25241.022622
28978.393000,-2960.823768,2757.943793,24426.796086
28978.393328,-2368.659014,13406.671215,19985.560434
28978.393657,5255.462188,14172.766713,15248.242405
28978.393985,15322.262999,14172.766713,12287.418637
28978.394314,16580.613101,27196.390179,1850.514855
28978.394642,10584.944971,28039.095227,-5847.626942
28978.394971,10658.965565,13789.718964,-11843.295072
28978.395299,10066.800811,4979.620737,-10362.883188
28978.395627,3256.906145,2987.772442,-3478.967927
28978.395956,1480.411884,-5362.668486,-5329.482782
28978.396284,-4959.379811,-15934.786358,2664.741391
28978.396613,-16062.468941,-19382.216099,9474.636058
28978.396941,-16580.613101,-19765.263848,16654.633695
28978.397270,-9178.553681,-22829.645840,26573.393318
28978.397598,-6735.874072,-20607.968896,32421.020260
28978.397926,-5847.626942,-9193.145976,26055.249158
28978.398255,-5329.482782,2681.334243,23686.590144
28978.398583,-3034.844362,10495.508323,18949.272115
28978.398912,7550.100608,12027.699319,15248.242405
28978.399240,16580.613101,16088.005458,13101.645173
28978.399569,16136.489536,30490.600820,666.185348
28978.399897,12435.459826,26506.904231,-6661.853478
28978.400226,10436.903782,12563.966167,-11473.192101
28978.400554,7402.059420,7124.688131,-11251.130318
28978.400882,2516.700203,4136.915689,-4959.379811
28978.401211,1184.329507,-6971.469032,-6291.750507
28978.401539,-6587.832884,-17160.539155,888.247130
28978.401868,-17172.777854,-19535.435199,7698.141797
28978.402196,-17172.777854,-19075.777900,18061.024985
28978.402525,-10881.027347,-21680.502593,28571.949361
28978.402853,-8586.388927,-20684.578446,32791.123231
28978.403181,-6439.791695,-11568.042020,26499.372724
28978.403510,-3256.906145,1838.629195,25167.002028
28978.403838,-3330.926739,12180.918418,20503.704593
28978.404167,2368.659014,13483.280765,16210.510130
28978.404495,14211.954086,12334.137518,13989.892304
28978.404824,14656.077652,25587.589633,4293.194464
28978.405152,8734.430116,30107.553071,-5699.585753
28978.405481,8364.327145,14479.204912,-11843.295072
28978.405809,8734.430116,6588.421283,-12731.542202
28978.406137,4219.173869,5286.058936,-4515.256246
28978.406466,2146.597232,-1532.190996,-4885.359217
28978.406794,-6143.709319,-14632.424012,-1406.391290
28978.407123,-18653.189738,-19305.606550,5181.441594
28978.407451,-15396.283594,-19305.606550,15396.283594
28978.407780,-8734.430116,-19612.044749,27313.599260
28978.408108,-9104.533087,-18539.511052,31014.628970
28978.408436,-6883.915261,-12104.308868,26055.249158
28978.408765,-1924.535449,-1838.629195,25759.166782
28978.409093,-3256.906145,10265.679673,22132.157666
28978.409422,3478.967927,13559.890315,16284.530724
28978.409750,14137.933492,13483.280765,13101.645173
28978.410079,16136.489536,26047.246932,2590.720797
28978.410407,13989.892304,30873.648569,-4737.318029
28978.410736,12213.398043,16317.834107,-9252.574275
28978.411064,8512.368333,7354.516781,-12953.603985
28978.411392,2812.782580,3677.258390,-4663.297435
28978.411721,1258.350101,-4903.011187,-4663.297435
28978.412049,-3997.112087,-15475.129060,444.123565
28978.412378,-15026.180623,-19458.825649,10288.862594
28978.412706,-16950.716072,-20684.578446,15618.345376
28978.413035,-12139.377449,-22216.769442,25092.981434
28978.413363,-6291.750507,-22140.159892,31088.649564
28978.413691,-3552.988522,-10878.556072,29830.299463
28978.414020,-2664.741391,2757.943793,24944.940245
28978.414348,-3552.988522,12104.308868,18949.272115
28978.414677,4663.297435,13176.842566,13175.665768
28978.415005,16284.530724,13636.499864,12287.418637
28978.415334,17987.004391,27656.047478,4293.194464
28978.415662,10955.047942,29494.676673,-6439.791695
28978.415991,6365.771101,13789.718964,-10140.821405
28978.416319,6883.915261,4903.011187,-12953.603985
28978.416647,3404.947333,3524.039291,-4737.318029
28978.416976,-888.247130,-4136.915689,-4737.318029
28978.417304,-8734.430116,-17390.367805,-1776.494261
28978.417633,-17838.963202,-22293.378992,7179.997637
28978.417961,-17098.757260,-20378.140247,16950.716072
28978.418290,-10436.903782,-19075.777900,28571.949361
28978.418618,-7772.162391,-19612.044749,31976.896694
28978.418946,-6069.688724,-13176.842566,24870.919651
28978.419275,-3552.988522,0.000000,24870.919651
28978.419603,-666.185348,12257.527968,22206.178260
28978.419932,7254.018232,17160.539155,16654.633695
28978.420260,16136.489536,13713.109414,12213.398043
28978.420589,15618.345376,22982.864940,3034.844362
28978.420917,10510.924376,28575.362075,-4811.338623
28978.421246,9770.718434,16471.053207,-8512.368333
28978.421574,8808.450710,7354.516781,-8364.327145
28978.421902,3701.029710,1149.143247,-4737.318029
28978.422231,740.205942,-5209.449386,-4737.318029
28978.422559,-5995.668130,-14555.814462,-888.247130
28978.422888,-16950.716072,-17466.977354,7994.224174
28978.423216,-15026.180623,-19152.387450,16506.592507
28978.423545,-8586.388927,-20761.187996,26129.269753
28978.423873,-7105.977043,-18003.244203,30718.546593
28978.424201,-4589.276840,-9882.631924,23760.610738
28978.424530,-2146.597232,2757.943793,22502.260637
28978.424858,-3627.009116,12640.575717,19689.478057
28978.425187,4293.194464,13406.671215,14359.995275
28978.425515,14063.912898,12487.356617,13175.665768
28978.425844,12361.439231,24515.055936,4737.318029
28978.426172,9252.574275,28498.752526,-4959.379811
28978.426501,10510.924376,14555.814462,-8882.471304
28978.426829,7772.162391,7277.907231,-10066.800811
28978.427157,0.000000,2911.162892,-5551.544565
28978.427486,-370.102971,-5209.449386,-6143.709319
28978.427814,-3404.947333,-14479.204912,-1480.411884
28978.428143,-14211.954086,-16317.834107,8142.265362
28978.428471,-15100.201217,-16854.100956,15840.407159
28978.428800,-9548.656652,-19765.263848,23982.672521
28978.429128,-6439.791695,-19382.216099,29164.114115
28978.429456,-4219.173869,-9806.022374,27091.537477
28978.429785,-222.061783,1532.190996,24574.837274
28978.430113,-2590.720797,11721.261119,20429.683999
28978.430442,740.205942,13253.452115,14211.954086
28978.430770,14063.912898,11261.603821,13693.809927
28978.431099,17987.004391,23059.474490,8364.327145
28978.431427,10066.800811,30720.429470,-2664.741391
28978.431756,7550.100608,14938.862211,-7772.162391
28978.432084,7179.997637,4290.134789,-11843.295072
28978.432412,1554.432478,1762.019645,-5477.523971
28978.432741,740.205942,-3370.820191,-3997.112087
28978.433069,-2442.679609,-14862.252661,666.185348
28978.433398,-16506.592507,-18539.511052,7179.997637
28978.433726,-18505.148550,-19305.606550,12879.583391
28978.434055,-9400.615463,-21374.064394,24648.857869
28978.434383,-5699.585753,-19612.044749,30940.608376
28978.434711,-6735.874072,-9499.584175,27017.516883
28978.435040,-2368.659014,383.047749,23686.590144
28978.435368,0.000000,9422.974625,20429.683999
28978.435697,3775.050304,14862.252661,15026.180623
28978.436025,13397.727550,14479.204912,13323.706956
28978.436354,16506.592507,21680.502593,5551.544565
28978.436682,10955.047942,26889.951980,-2590.720797
28978.437011,7402.059420,16317.834107,-7031.956449
28978.437339,6587.832884,6588.421283,-11103.089130
28978.437667,1480.411884,1608.800546,-7105.977043
28978.437996,-666.185348,-5515.887586,-5551.544565
28978.438324,-4145.153275,-15092.081311,-518.144159
28978.438653,-16506.592507,-16471.053207,7698.141797
28978.438981,-18209.066173,-17083.929605,14137.933492
28978.439310,-9992.780217,-20301.530697,23538.548956
28978.439638,-5033.400406,-20071.702048,29312.155303
28978.439966,-4293.194464,-8886.707777,27017.516883
28978.440295,-740.205942,4443.353888,22798.343014
28978.440623,-962.267725,11491.432470,20355.663405
28978.440952,3330.926739,13559.890315,14211.954086
28978.441280,15026.180623,13483.280765,14063.912898
28978.441609,16876.695478,23595.741338,7994.224174
28978.441937,8956.491898,27885.876127,-2368.659014
28978.442266,5995.668130,15475.129060,-8808.450710
28978.442594,7402.059420,5898.935335,-10955.047942
28978.442922,1702.473667,2911.162892,-3701.029710
28978.443251,-1776.494261,-3677.258390,-5033.400406
28978.443579,-5995.668130,-14938.862211,-2294.638420
28978.443908,-15618.345376,-18233.072852,6587.832884
28978.444236,-15470.304188,-15781.567259,15470.304188
28978.444565,-8808.450710,-16088.005458,25018.960840
28978.444893,-6217.729913,-18845.949251,28497.928767
28978.445221,-5403.503377,-11108.384721,25092.981434
28978.445550,222.061783,0.000000,23168.445985
28978.445878,0.000000,12104.308868,21391.951724
28978.446207,4145.153275,15704.957709,15396.283594
28978.446535,14508.036463,12793.794817,13101.645173
28978.446864,17764.942608,20378.140247,7105.977043
28978.447192,11843.295072,29418.067123,-1628.453072
28978.447521,8364.327145,17390.367805,-7402.059420
28978.447849,8882.471304,5745.716235,-10362.883188
28978.448177,3552.988522,459.657299,-4811.338623
28978.448506,-370.102971,-4443.353888,-4663.297435
28978.448834,-2960.823768,-13789.718964,-1258.350101
28978.449163,-14508.036463,-17773.415554,8142.265362
28978.449491,-17616.901420,-18233.072852,13545.768739
28978.449820,-10510.924376,-20761.187996,23538.548956
28978.450147,-5551.544565,-20224.921147,29978.340651
28978.450476,-5477.523971,-10955.165621,25463.084405
28978.450804,-3182.885551,1149.143247,21688.034101
28978.451133,-2516.700203,10955.165621,19911.539840
28978.451461,3923.091493,13406.671215,14285.974681
28978.451790,15766.386565,12870.404366,13545.768739
28978.452119,16358.551318,21144.235745,7550.100608
28978.452447,9474.636058,27196.390179,-2368.659014
28978.452776,8216.285956,15245.300410,-7476.080014
28978.453104,7254.018232,5362.668486,-9918.759623
28978.453433,814.226536,689.485948,-3775.050304
28978.453761,-1480.411884,-6741.640382,-4589.276840
28978.454090,-4811.338623,-14555.814462,-1628.453072
28978.454418,-15544.324782,-18386.291952,8364.327145
28978.454747,-17764.942608,-17696.806004,14730.098246
28978.455075,-11769.274478,-19382.216099,23760.610738
28978.455404,-6735.874072,-19382.216099,28349.887579
28978.455732,-5699.585753,-10112.460574,25759.166782
28978.456061,-1628.453072,2145.067394,23612.569550
28978.456389,-888.247130,12563.966167,19171.333898
28978.456718,2442.679609,15168.690860,12509.480420
28978.457046,13397.727550,12563.966167,11695.253884
28978.457375,18579.169144,19382.216099,7105.977043
28978.457703,11769.274478,29418.067123,-1850.514855
28978.458032,6883.915261,17543.586904,-6883.915261
28978.458361,6809.894666,5132.839837,-11769.274478
28978.458689,3701.029710,0.000000,-4959.379811
28978.459018,444.123565,-2834.553343,-1998.556043
28978.459346,-4293.194464,-12410.747068,-0.000000
28978.459675,-15544.324782,-17620.196454,7920.203579
28978.460003,-15544.324782,-19535.435199,14211.954086
28978.460332,-9326.594869,-17926.634653,25167.002028
28978.460660,-5699.585753,-16317.834107,29904.320057
28978.460989,-5329.482782,-8350.440928,25241.022622
28978.461317,-2294.638420,0.000000,21762.054695
28978.461646,-1850.514855,8810.098227,19467.416275
28978.461974,3627.009116,14862.252661,14359.995275
28978.462303,13989.892304,14555.814462,13915.871710
28978.462631,16210.510130,20914.407095,6735.874072
28978.462960,10658.965565,26277.075581,-2516.700203
28978.463288,8216.285956,15858.176809,-7402.059420
28978.463617,7920.203579,7660.954980,-10214.842000
28978.463945,3775.050304,1991.848295,-5033.400406
28978.464274,444.123565,-5286.058936,-4589.276840
28978.464603,-4145.153275,-13942.938064,-1110.308913
28978.464931,-13767.830521,-16624.272307,8586.388927
28978.465260,-14804.118840,-17007.320056,15026.180623
28978.465588,-11029.068536,-18692.730151,22280.198854
28978.465917,-7772.162391,-20531.359346,28349.887579
28978.466245,-5699.585753,-11184.994271,25315.043216
28978.466574,-2368.659014,1225.752797,22946.384202
28978.466902,-4367.215058,11031.775171,19245.354492
28978.467231,1850.514855,12180.918418,13397.727550
28978.467559,14878.139434,11261.603821,12953.603985
28978.467888,16580.613101,22599.817191,6143.709319
28978.468216,11029.068536,29494.676673,-3182.885551
28978.468545,9252.574275,14862.252661,-7254.018232
28978.468873,7031.956449,5822.325785,-9400.615463
28978.469202,296.082377,1915.238745,-4145.153275
28978.469530,-148.041188,-6128.763984,-3330.926739
28978.469859,-4071.132681,-16547.662757,592.164754
28978.470188,-16580.613101,-16930.710506,8438.347739
28978.470516,-16432.571912,-17773.415554,15026.180623
28978.470845,-9252.574275,-20914.407095,25167.002028
28978.471173,-6365.771101,-19612.044749,30718.546593
28978.471502,-4885.359217,-9499.584175,26425.352129
28978.471830,592.164754,1608.800546,23908.651927
28978.472159,518.144159,11951.089769,20873.807564
28978.472487,2368.659014,15704.957709,13693.809927
28978.472816,13101.645173,12563.966167,11029.068536
28978.473144,16876.695478,18539.511052,6291.750507
28978.473473,10362.883188,28192.314326,-2442.679609
28978.473801,5773.606348,17313.758255,-6513.812290
28978.474130,2516.700203,4596.572988,-10436.903782
28978.474458,-1998.556043,-2757.943793,-5329.482782
28978.474787,-3330.926739,-8197.221829,-2812.782580
28978.475115,-4737.318029,-15168.690860,-0.000000
28978.475444,-17320.819043,-16088.005458,7772.162391
28978.475772,-16802.674883,-17543.586904,12657.521608
28978.476101,-6661.853478,-18462.901502,23982.672521
28978.476430,-1776.494261,-15858.176809,30940.608376
28978.476758,-2960.823768,-5056.230287,26721.434506
28978.477087,0.000000,2911.162892,20133.601622
28978.477415,1924.535449,10495.508323,16728.654289
28978.477744,5847.626942,16547.662757,12657.521608
28978.478072,15840.407159,16930.710506,11991.336260
28978.478401,16432.571912,21680.502593,5995.668130
28978.478729,7624.121203,23289.303139,-3404.947333
28978.479058,4885.359217,13866.328514,-7624.121203
28978.479386,5403.503377,5669.106685,-7179.997637
28978.479715,0.000000,1532.190996,-2738.761985
28978.480043,-2886.803174,-7507.735880,-5107.421000
28978.480372,-6439.791695,-17620.196454,-1258.350101
28978.480700,-14137.933492,-17466.977354,8216.285956
28978.481029,-13027.624579,-13559.890315,16506.592507
28978.481357,-5625.565159,-14938.862211,24796.899057
28978.481686,-4293.194464,-17160.539155,29016.072926
28978.482014,-2960.823768,-9499.584175,23834.631332
28978.482343,1628.453072,1762.019645,22650.301825
28978.482672,-370.102971,13406.671215,19393.395680
28978.483000,4441.235652,14709.033562,13841.851115
28978.483329,15840.407159,11338.213370,13101.645173
28978.483657,16432.571912,19688.654299,7994.224174
28978.483986,7624.121203,26430.294681,-2072.576638
28978.484314,5995.668130,14096.157163,-6957.935855
28978.484643,5699.585753,3370.820191,-6439.791695
28978.484971,-1776.494261,-612.876398,-2590.720797
28978.485300,-1702.473667,-6971.469032,-3997.112087
28978.485628,-3552.988522,-15475.129060,888.247130
28978.485957,-16284.530724,-16164.615008,5995.668130
28978.486285,-15840.407159,-17007.320056,13175.665768
28978.486614,-6661.853478,-19305.606550,23834.631332
28978.486942,-5329.482782,-15398.519510,29904.320057
28978.487271,-5403.503377,-6435.202183,23834.631332
28978.487599,1776.494261,766.095498,19689.478057
28978.487928,518.144159,11261.603821,19319.375086
28978.488257,2368.659014,17237.148705,13471.748144
28978.488585,13175.665768,13942.938064,10658.965565
28978.488914,15692.365970,15628.348159,5773.606348
28978.489242,8586.388927,23595.741338,-1184.329507
28978.489571,6069.688724,16930.710506,-4663.297435
28978.489899,3775.050304,5362.668486,-7772.162391
28978.490228,-2220.617826,-3140.991542,-4293.194464
28978.490556,-3775.050304,-9959.241474,-2442.679609
28978.490885,-2812.782580,-14785.643111,592.164754
28978.491213,-12213.398043,-14172.766713,7624.121203
28978.491542,-16358.551318,-15398.519510,13249.686362
28978.491870,-8586.388927,-18462.901502,22724.322419
28978.492199,-1924.535449,-16854.100956,28868.031738
28978.492527,-2294.638420,-3830.477490,27609.681637
28978.492856,962.267725,5056.230287,21762.054695
28978.493184,2072.576638,11184.994271,16876.695478
28978.493513,1480.411884,14555.814462,10807.006753
28978.493841,12287.418637,13942.938064,9918.759623
28978.494170,17024.736666,19688.654299,8586.388927
28978.494499,8438.347739,24668.275036,-370.102971
28978.494827,2738.761985,15475.129060,-5847.626942
28978.495156,3627.009116,3524.039291,-9252.574275
28978.495484,222.061783,-2451.505594,-2886.803174
28978.495813,-3404.947333,-5898.935335,-3552.988522
28978.496141,-3701.029710,-14709.033562,-592.164754
28978.496470,-10881.027347,-16624.272307,8290.306550
28978.496798,-13915.871710,-14479.204912,14952.160028
28978.497127,-7846.182985,-14479.204912,23834.631332
28978.497455,-1184.329507,-16241.224558,27905.764013
28978.497784,-2368.659014,-8120.612279,25833.187376
28978.498112,148.041188,2834.553343,22280.198854
28978.498441,1998.556043,10418.898773,18505.148550
28978.498769,2516.700203,15398.519510,13027.624579
28978.499098,11251.130318,13176.842566,11473.192101
28978.499426,16358.551318,16930.710506,7994.224174
28978.499755,8660.409521,24591.665486,-1184.329507
28978.500083,3108.864956,17160.539155,-7328.038826
28978.500412,4367.215058,4596.572988,-8956.491898
28978.500741,148.041188,-2145.067394,-3849.070898
28978.501069,-2886.803174,-5898.935335,-4219.173869
28978.501398,-2590.720797,-14402.595362,-1406.391290
28978.501726,-12139.377449,-16854.100956,8216.285956
28978.502055,-17172.777854,-15628.348159,13767.830521
28978.502383,-8216.285956,-16854.100956,22724.322419
28978.502712,-1406.391290,-18539.511052,30052.361245
28978.503040,-3701.029710,-9576.193725,26055.249158
28978.503369,-1850.514855,1608.800546,20429.683999
28978.503697,-148.041188,11261.603821,18949.272115
28978.504026,3552.988522,15092.081311,14359.995275
28978.504354,13249.686362,13713.109414,12657.521608
28978.504683,14434.015869,17850.025103,6217.729913
28978.505011,7550.100608,24132.008187,-3108.864956
28978.505340,4441.235652,16394.443657,-6661.853478
28978.505668,3552.988522,6052.154434,-7920.203579
28978.505997,-1702.473667,-383.047749,-3108.864956
28978.506326,-3997.112087,-7890.783629,-3552.988522
28978.506654,-4663.297435,-16241.224558,-2516.700203
28978.506983,-13989.892304,-17083.929605,5403.503377
28978.507311,-16728.654289,-15245.300410,13545.768739
28978.507640,-8734.430116,-16394.443657,23612.569550
28978.507968,-2442.679609,-16930.710506,29608.237680
28978.508297,-1924.535449,-8197.221829,27461.640448
28978.508625,2664.741391,2757.943793,22798.343014
28978.508954,3034.844362,12947.013916,18875.251521
28978.509282,2738.761985,16854.100956,14137.933492
28978.509611,12435.459826,13176.842566,11843.295072
28978.509939,17616.901420,16624.272307,8882.471304
28978.510268,10510.924376,25127.932334,-962.267725
28978.510596,3849.070898,18003.244203,-5403.503377
28978.510925,2368.659014,5669.106685,-8660.409521
28978.511253,-370.102971,-2221.676944,-4367.215058
28978.511582,-1924.535449,-7814.174080,-2220.617826
28978.511910,-3404.947333,-14938.862211,-1850.514855
28978.512239,-14434.015869,-16547.662757,5255.462188
28978.512568,-15026.180623,-16930.710506,11843.295072
28978.512896,-6661.853478,-16547.662757,23612.569550
28978.513225,-2516.700203,-14785.643111,29978.340651
28978.513553,-2738.761985,-6665.030833,25759.166782
28978.513882,814.226536,842.705048,21317.931130
28978.514210,1406.391290,9499.584175,18505.148550
28978.514539,2368.659014,16854.100956,12953.603985
28978.514867,11843.295072,14019.547613,11177.109724
28978.515196,14804.118840,16854.100956,6735.874072
28978.515524,8808.450710,23365.912689,-1184.329507
28978.515853,4737.318029,16854.100956,-5625.565159
28978.516181,4441.235652,7431.126331,-8216.285956
28978.516510,1184.329507,-1608.800546,-3997.112087
28978.516838,-1998.556043,-8044.002729,-3775.050304
28978.517167,-3256.906145,-14785.643111,-2146.597232
28978.517495,-11843.295072,-15934.786358,7105.977043
28978.517824,-14211.954086,-15781.567259,13471.748144
28978.518152,-8142.265362,-17466.977354,23094.425390
28978.518481,-3478.967927,-17696.806004,29534.217086
28978.518810,-2146.597232,-9729.412825,27239.578666
28978.519138,666.185348,1225.752797,22724.322419
28978.519467,-1480.411884,10418.898773,19023.292709
28978.519795,2220.617826,14555.814462,13027.624579
28978.520124,14359.995275,12717.185267,12657.521608
28978.520452,14730.098246,20148.311597,8068.244768
28978.520781,7846.182985,26813.342430,-2072.576638
28978.521109,5329.482782,15398.519510,-5625.565159
28978.521438,2960.823768,5286.058936,-8142.265362
28978.521766,-2146.597232,612.876398,-4293.194464
28978.522095,-2294.638420,-6894.859482,-4293.194464
28978.522423,-5033.400406,-15704.957709,-2368.659014
28978.522752,-15470.304188,-17083.929605,4145.153275
28978.523080,-15692.365970,-15858.176809,13249.686362
28978.523409,-7994.224174,-18616.120601,24648.857869
28978.523737,-4959.379811,-16854.100956,30792.567187
28978.524066,-4441.235652,-9116.536426,26203.290347
28978.524395,2368.659014,0.000000,22428.240043
28978.524723,3552.988522,11031.775171,20577.725188
28978.525052,2516.700203,17696.806004,15544.324782
28978.525380,12213.398043,14249.376263,12953.603985
28978.525709,17468.860231,14938.862211,7254.018232
28978.526037,10955.047942,25894.027832,518.144159
28978.526366,6587.832884,19612.044749,-5255.462188
28978.526694,4663.297435,7814.174080,-9474.636058
28978.527023,296.082377,-995.924147,-4811.338623
28978.527351,-2960.823768,-5515.887586,-2220.617826
28978.527680,-2146.597232,-13406.671215,-4071.132681
28978.528008,-14730.098246,-17007.320056,2886.803174
28978.528337,-17838.963202,-17237.148705,8956.491898
28978.528665,-9326.594869,-18309.682402,21465.972318
28978.528994,-3849.070898,-16777.491406,31014.628970
28978.529322,-5107.421000,-8120.612279,28127.825796
28978.529651,-444.123565,-995.924147,21688.034101
28978.529979,518.144159,6741.640382,18727.210333
28978.530308,1480.411884,15551.738609,13471.748144
28978.530637,13915.871710,15858.176809,12583.501014
28978.530965,18283.086767,18539.511052,8734.430116
28978.531294,12287.418637,24898.103685,148.041188
28978.531622,7254.018232,17620.196454,-5255.462188
28978.531951,6143.709319,7814.174080,-7846.182985
28978.532279,1258.350101,1378.971896,-2960.823768
28978.532608,-2960.823768,-6281.983084,-2220.617826
28978.532936,-2960.823768,-16624.272307,-3108.864956
28978.533265,-11917.315666,-18539.511052,6069.688724
28978.533593,-15988.448347,-16241.224558,13323.706956
28978.533922,-10807.006753,-17237.148705,22428.240043
28978.534250,-5403.503377,-19075.777900,29608.237680
28978.534579,-5255.462188,-11874.480219,29238.134709
28978.534907,-1332.370696,0.000000,23760.610738
28978.535236,-962.267725,9499.584175,19541.436869
28978.535564,-740.205942,14938.862211,11621.233289
28978.535893,12361.439231,13789.718964,11029.068536
28978.536221,18209.066173,19612.044749,8438.347739
28978.536550,9844.739029,28958.409824,-1258.350101
28978.536879,3478.967927,18233.072852,-8142.265362
28978.537207,4219.173869,6128.763984,-8364.327145
28978.537536,0.000000,689.485948,-3775.050304
28978.537864,-3182.885551,-4519.963438,-3775.050304
28978.538193,-4293.194464,-15704.957709,-2590.720797
28978.538521,-15988.448347,-19305.606550,4885.359217
28978.538850,-17542.880825,-17237.148705,11325.150913
28978.539178,-8734.430116,-17773.415554,23538.548956
28978.539507,-3627.009116,-18692.730151,31384.731941
28978.539835,-4737.318029,-9576.193725,26869.475695
28978.540164,-222.061783,919.314598,21317.931130
28978.540492,1554.432478,10648.727422,19911.539840
28978.540821,3849.070898,17083.929605,14285.974681
28978.541149,14063.912898,17390.367805,12657.521608
28978.541478,16136.489536,18845.949251,7105.977043
28978.541806,9696.697840,24132.008187,-1110.308913
28978.542135,5255.462188,18156.463303,-4811.338623
28978.542464,5255.462188,8580.269578,-5995.668130
28978.542792,0.000000,612.876398,-4071.132681
28978.543121,-2886.803174,-8810.098227,-6143.709319
28978.543449,-4737.318029,-15858.176809,-3997.112087
28978.543778,-13841.851115,-15245.300410,3701.029710
28978.544106,-15396.283594,-14172.766713,11843.295072
28978.544435,-7328.038826,-18386.291952,21984.116477
28978.544763,-2886.803174,-19305.606550,29534.217086
28978.545092,-2516.700203,-9269.755526,26055.249158
28978.545420,2072.576638,3600.648841,21836.075289
28978.545749,1406.391290,11568.042020,19467.416275
28978.546077,3478.967927,13483.280765,14359.995275
28978.546406,14508.036463,12027.699319,14211.954086
28978.546734,16728.654289,17466.977354,9474.636058
28978.547063,8438.347739,26277.075581,666.185348
28978.547391,6365.771101,16164.615008,-5625.565159
28978.547720,7105.977043,6128.763984,-7105.977043
28978.548048,1702.473667,229.828649,-1628.453072
28978.548377,-1998.556043,-5439.278036,-2738.761985
28978.548706,-3256.906145,-14479.204912,-3478.967927
28978.549034,-12213.398043,-18233.072852,3034.844362
28978.549363,-14285.974681,-15934.786358,12361.439231
28978.549691,-8882.471304,-16088.005458,22650.301825
28978.550020,-4663.297435,-16854.100956,28942.052332
28978.550348,-3849.070898,-10801.946522,26203.290347
28978.550677,1036.288319,-1455.581446,22946.384202
28978.551005,0.000000,10572.117872,19319.375086
28978.551334,-1184.329507,16394.443657,13989.892304
28978.551662,9474.636058,11721.261119,11843.295072
28978.551991,15322.262999,13713.109414,9400.615463
28978.552319,8808.450710,25127.932334,3256.906145
28978.552648,3997.112087,21680.502593,-5403.503377
28978.552976,3701.029710,7354.516781,-9178.553681
28978.553305,0.000000,-2221.676944,-4663.297435
28978.553633,-4071.132681,-5669.106685,-3404.947333
28978.553962,-1998.556043,-10801.946522,-3108.864956
28978.554290,-10807.006753,-14402.595362,5329.482782
28978.554619,-17616.901420,-15551.738609,9844.739029
28978.554947,-11103.089130,-18616.120601,18431.127956
28978.555276,-2812.782580,-19228.997000,28645.969955
28978.555604,-3182.885551,-9269.755526,27905.764013
28978.555933,-1850.514855,1838.629195,22132.157666
28978.556261,1184.329507,8350.440928,19097.313304
28978.556590,1702.473667,15321.909960,14730.098246
28978.556918,9992.780217,15245.300410,12805.562797
28978.557247,15248.242405,17390.367805,9696.697840
28978.557575,10955.047942,24361.836836,666.185348
28978.557904,6217.729913,20301.530697,-4219.173869
28978.558232,5551.544565,9422.974625,-8586.388927
28978.558561,1332.370696,1608.800546,-5255.462188
28978.558889,-3775.050304,-4826.401637,-2664.741391
28978.559218,-3034.844362,-12640.575717,-3478.967927
28978.559546,-9622.677246,-16471.053207,4441.235652
28978.559875,-15840.407159,-16394.443657,11029.068536
28978.560203,-11843.295072,-16700.881856,18949.272115
28978.560531,-3256.906145,-18845.949251,27979.784608
28978.560860,-1850.514855,-12027.699319,28127.825796
28978.561188,444.123565,689.485948,24056.693115
28978.561517,3775.050304,9576.193725,20503.704593
28978.561845,1554.432478,14938.862211,14804.118840
28978.562174,9400.615463,12334.137518,12583.501014
28978.562502,17172.777854,13636.499864,11103.089130
28978.562831,14063.912898,22982.864940,3627.009116
28978.563159,5329.482782,21757.112143,-3256.906145
28978.563488,3923.091493,9116.536426,-8882.471304
28978.563816,3404.947333,-2145.067394,-5995.668130
28978.564145,-1924.535449,-6052.154434,-1702.473667
28978.564473,-2590.720797,-11797.870669,-2738.761985
28978.564802,-9326.594869,-16317.834107,3404.947333
28978.565130,-14804.118840,-17237.148705,9474.636058
28978.565459,-11103.089130,-16547.662757,18283.086767
28978.565787,-3552.988522,-17313.758255,27683.702231
28978.566116,-2812.782580,-12257.527968,27313.599260
28978.566444,-1406.391290,-2604.724693,22872.363608
28978.566773,1184.329507,7048.078582,19911.539840
28978.567101,0.000000,14402.595362,15618.345376
28978.567430,7179.997637,14479.204912,12805.562797
28978.567758,13545.768739,13866.328514,10214.842000
28978.568087,10881.027347,20148.311597,2220.617826
28978.568415,4367.215058,22599.817191,-5033.400406
28978.568744,3627.009116,11951.089769,-8290.306550
28978.569072,1184.329507,1685.410096,-5329.482782
28978.569401,-3775.050304,-5898.935335,-2960.823768
28978.569729,-4071.132681,-12410.747068,-3552.988522
28978.570058,-10066.800811,-15781.567259,3701.029710
28978.570386,-16654.633695,-15245.300410,9622.677246
28978.570715,-13027.624579,-16624.272307,17542.880825
28978.571043,-4737.318029,-18692.730151,27831.743419
28978.571372,-2146.597232,-13330.061665,28942.052332
28978.571700,-740.205942,-459.657299,23686.590144
28978.572029,-1110.308913,9499.584175,19763.498651
28978.572357,-518.144159,14785.643111,14508.036463
28978.572686,9992.780217,15398.519510,13101.645173
28978.573014,17024.736666,17160.539155,10807.006753
28978.573343,12139.377449,25587.589633,2146.597232
28978.573671,5847.626942,20991.016645,-4145.153275
28978.574000,5255.462188,9959.241474,-8882.471304
28978.574328,2368.659014,2911.162892,-4515.256246
28978.574657,-2072.576638,-3907.087040,-1406.391290
28978.574985,-2220.617826,-12410.747068,-4145.153275
28978.575313,-10732.986159,-17160.539155,2516.700203
28978.575642,-16284.530724,-16317.834107,9548.656652
28978.575970,-10658.965565,-17007.320056,18505.148550
28978.576299,-4145.153275,-18769.339701,28423.908173
28978.576627,-3701.029710,-12870.404366,28423.908173
28978.576956,-592.164754,-2068.457845,23168.445985
28978.577284,3256.906145,8044.002729,21539.992912
28978.577613,74.020594,15475.129060,15100.201217
28978.577941,7994.224174,13942.938064,10658.965565
28978.578270,16802.674883,12257.527968,9548.656652
28978.578598,15322.262999,22829.645840,3775.050304
28978.578927,7846.182985,23595.741338,-2738.761985
28978.579255,5699.585753,10648.727422,-8364.327145
28978.579584,3478.967927,-1072.533697,-6513.812290
28978.579912,-666.185348,-6281.983084,-2442.679609
28978.580241,222.061783,-11491.432470,-3775.050304
28978.580569,-7402.059420,-15321.909960,3404.947333
28978.580898,-15026.180623,-17160.539155,9030.512492
28978.581226,-9622.677246,-17620.196454,18505.148550
28978.581555,-2442.679609,-17696.806004,30126.381839
28978.581883,-3552.988522,-11721.261119,28497.928767
28978.582212,-2812.782580,-2987.772442,22946.384202
28978.582540,-148.041188,4979.620737,19171.333898
28978.582869,-1998.556043,12717.185267,14508.036463
28978.583197,7328.038826,13789.718964,12731.542202
28978.583526,11991.336260,13942.938064,11621.233289
28978.583854,7476.080014,19765.263848,2368.659014
28978.584183,3034.844362,19228.997000,-4737.318029
28978.584511,4367.215058,10572.117872,-6661.853478
28978.584840,1110.308913,2911.162892,-4071.132681
28978.585168,-3404.947333,-5822.325785,-5181.441594
28978.585497,-2886.803174,-12717.185267,-4293.194464
28978.585825,-8216.285956,-15168.690860,3627.009116
28978.586154,-13767.830521,-12870.404366,11547.212695
28978.586482,-9400.615463,-14402.595362,18505.148550
28978.586811,-3108.864956,-18156.463303,27387.619854
28978.587139,-2886.803174,-12717.185267,28201.846390
28978.587468,814.226536,-689.485948,24500.816680
28978.587796,1332.370696,9652.803275,21317.931130
28978.588125,-2368.659014,15245.300410,15100.201217
28978.588453,7698.141797,13023.623466,12213.398043
28978.588782,17172.777854,15245.300410,11621.233289
28978.589110,11029.068536,27272.999729,3627.009116
28978.589439,4367.215058,22982.864940,-5625.565159
28978.589767,4811.338623,9499.584175,-10362.883188
28978.590096,666.185348,2757.943793,-5551.544565
28978.590424,-4737.318029,-1149.143247,-4367.215058
28978.590752,-1332.370696,-10112.460574,-5403.503377
28978.591081,-10658.965565,-17237.148705,2368.659014
28978.591409,-19023.292709,-14555.814462,8586.388927
28978.591738,-11843.295072,-16241.224558,18579.169144
28978.592066,-2294.638420,-19995.092498,29164.114115
28978.592395,-2738.761985,-13636.499864,29164.114115
28978.592723,-740.205942,-1762.019645,23982.672521
28978.593052,5773.606348,7967.393179,21095.869347
28978.593380,4737.318029,16930.710506,16432.571912
28978.593709,10066.800811,16471.053207,12509.480420
28978.594037,18209.066173,15475.129060,9474.636058
28978.594366,17394.839637,23289.303139,2368.659014
28978.594694,8438.347739,23902.179538,-3330.926739
28978.595023,3627.009116,11874.480219,-9104.533087
28978.595351,222.061783,0.000000,-7846.182985
28978.595680,-5107.421000,-7431.126331,-2590.720797
28978.596008,-4145.153275,-13100.233016,-1480.411884
28978.596337,-9918.759623,-17773.415554,4959.379811
28978.596665,-19689.478057,-19075.777900,9696.697840
28978.596994,-15692.365970,-20531.359346,16432.571912
28978.597322,-3701.029710,-21527.283494,28942.052332
28978.597651,-1332.370696,-13253.452115,30422.464216
28978.597979,-2146.597232,-689.485948,25315.043216
28978.598308,592.164754,5669.106685,20133.601622
28978.598636,1998.556043,10342.289223,14878.139434
28978.598965,9992.780217,13789.718964,13101.645173
28978.599293,16876.695478,16394.443657,11843.295072
28978.599622,12953.603985,22369.988542,2590.720797
28978.599950,3775.050304,19152.387450,-5921.647536
28978.600279,3997.112087,9652.803275,-10140.821405
28978.600607,3701.029710,153.219100,-4367.215058
28978.600936,-2442.679609,-3983.696590,-2294.638420
28978.601264,-4959.379811,-11184.994271,-4071.132681
28978.601593,-9918.759623,-19382.216099,2886.803174
28978.601921,-14508.036463,-18616.120601,12139.377449
28978.602250,-10881.027347,-15015.471761,20281.642811
28978.602578,-3478.967927,-16317.834107,27683.702231
28978.602907,-3034.844362,-14019.547613,26499.372724
28978.603235,-296.082377,-4519.963438,22872.363608
28978.603564,518.144159,9422.974625,21836.075289
28978.603892,1258.350101,17926.634653,16284.530724
28978.604221,9178.553681,15704.957709,12139.377449
28978.604549,14878.139434,14555.814462,8512.368333
28978.604878,10510.924376,22753.036291,2146.597232
28978.605206,2886.803174,23442.522239,-6217.729913
28978.605535,3849.070898,11721.261119,-8734.430116
28978.605863,518.144159,689.485948,-2664.741391
28978.606191,-5477.523971,-6894.859482,-2590.720797
28978.606520,-4663.297435,-11951.089769,-4663.297435
28978.606848,-10510.924376,-14785.643111,2368.659014
28978.607177,-17320.819043,-14632.424012,10066.800811
28978.607505,-10436.903782,-16317.834107,17838.963202
28978.607834,-1628.453072,-17773.415554,26943.496289
28978.608162,-444.123565,-10112.460574,27461.640448
28978.608491,814.226536,2298.286494,21539.992912
28978.608819,3330.926739,11338.213370,19467.416275
28978.609148,3627.009116,16547.662757,16136.489536
28978.609476,11325.150913,15704.957709,13915.871710
28978.609805,16728.654289,16930.710506,10214.842000
28978.610133,12139.377449,22753.036291,3034.844362
28978.610462,5255.462188,19688.654299,-3775.050304
28978.610790,4071.132681,9959.241474,-8290.306550
28978.611119,370.102971,536.266849,-3256.906145
28978.611447,-4515.256246,-7277.907231,-814.226536
28978.611776,-4367.215058,-13023.623466,-4071.132681
28978.612104,-9400.615463,-16624.272307,3330.926739
28978.612433,-15322.262999,-16394.443657,10214.842000
28978.612761,-11399.171507,-17160.539155,17764.942608
28978.613090,-2146.597232,-18692.730151,26869.475695
28978.613418,0.000000,-11644.651570,28053.805202
28978.613747,962.267725,1225.752797,24204.734303
28978.614075,3849.070898,8963.317327,20207.622217
28978.614404,2294.638420,14096.157163,15544.324782
28978.614732,8882.471304,13176.842566,13323.706956
28978.615061,16136.489536,14325.985813,12509.480420
28978.615389,12287.418637,21910.331243,4959.379811
28978.615718,3923.091493,21067.626195,-4811.338623
28978.616046,2368.659014,8044.002729,-9992.780217
28978.616375,888.247130,-1915.238745,-5107.421000
28978.616703,-3108.864956,-5209.449386,-1184.329507
28978.617032,-4145.153275,-11031.775171,-2812.782580
28978.617360,-10066.800811,-16547.662757,2738.761985
28978.617689,-15914.427753,-18845.949251,8586.388927
28978.618017,-11399.171507,-17466.977354,17987.004391
28978.618346,-3997.112087,-16088.005458,26647.413912
28978.618674,-2072.576638,-11568.042020,27683.702231
28978.619003,-962.267725,-2681.334243,22650.301825
28978.619331,1184.329507,6052.154434,20873.807564
28978.619660,-592.164754,15858.176809,17024.736666
28978.619988,5107.421000,15934.786358,13767.830521
28978.620317,12805.562797,13713.109414,10807.006753
28978.620645,11695.253884,19995.092498,3849.070898
28978.620973,4589.276840,23825.569988,-4293.194464
28978.621302,2886.803174,13866.328514,-10066.800811
28978.621630,1480.411884,2068.457845,-6365.771101
28978.621959,-2960.823768,-6971.469032,-2442.679609
28978.622287,-2812.782580,-10648.727422,-4441.235652
28978.622616,-6809.894666,-12640.575717,2072.576638
28978.622944,-13249.686362,-13789.718964,9178.553681
28978.623273,-10658.965565,-15551.738609,16580.613101
28978.623601,-2886.803174,-18156.463303,26277.310941
28978.623930,888.247130,-12334.137518,29386.175897
28978.624258,592.164754,-766.095498,24648.857869
28978.624587,-222.061783,7967.393179,21762.054695
28978.624915,-222.061783,14019.547613,16728.654289
28978.625244,9918.759623,14632.424012,14804.118840
28978.625572,15322.262999,16854.100956,12509.480420
28978.625901,11251.130318,23519.131789,2960.823768
28978.626229,5181.441594,20761.187996,-5403.503377
28978.626558,4737.318029,11261.603821,-9770.718434
28978.626886,1184.329507,3217.601092,-3997.112087
28978.627215,-2738.761985,-5132.839837,-2072.576638
28978.627543,-3182.885551,-13253.452115,-4737.318029
28978.627872,-8956.491898,-17160.539155,222.061783
28978.628200,-15026.180623,-16854.100956,8142.265362
28978.628529,-9918.759623,-17390.367805,18283.086767
28978.628857,-2146.597232,-18769.339701,28349.887579
28978.629186,-1036.288319,-13483.280765,29090.093521
28978.629514,1406.391290,-3524.039291,24574.837274
28978.629843,5329.482782,7814.174080,21614.013506
28978.630171,2812.782580,16471.053207,17616.901420
28978.630500,7920.203579,16394.443657,13471.748144
28978.630828,15914.427753,13330.061665,11473.192101
28978.631157,13323.706956,19228.997000,4293.194464
28978.631485,4737.318029,22293.378992,-4367.215058
28978.631814,1036.288319,11568.042020,-10732.986159
28978.632142,-1406.391290,-383.047749,-8438.347739
28978.632471,-5033.400406,-9193.145976,-3256.906145
28978.632799,-4145.153275,-12563.966167,-2738.761985
28978.633128,-10584.944971,-15934.786358,1850.514855
28978.633456,-18505.148550,-18233.072852,7179.997637
28978.633785,-12657.521608,-20301.530697,16580.613101
28978.634113,-3108.864956,-19152.387450,28423.908173
28978.634442,-1480.411884,-11568.042020,29534.217086
28978.634770,-1258.350101,-1915.238745,24870.919651
28978.635099,1184.329507,3217.601092,21317.931130
28978.635427,148.041188,12640.575717,17764.942608
28978.635756,7179.997637,16930.710506,14952.160028
28978.636084,14656.077652,17160.539155,12287.418637
28978.636412,10658.965565,21220.845295,3034.844362
28978.636741,2812.782580,21297.454844,-4589.276840
28978.637069,2812.782580,13100.233016,-10658.965565
28978.637398,1850.514855,3217.601092,-5551.544565
28978.637726,-2738.761985,-5592.497135,-5107.421000
28978.638055,-2590.720797,-12334.137518,-5773.606348
28978.638383,-7550.100608,-14709.033562,1110.308913
28978.638712,-13767.830521,-12487.356617,11251.130318
28978.639040,-9474.636058,-16164.615008,19023.292709
28978.639369,-2960.823768,-21297.454844,26943.496289
28978.639697,-1850.514855,-15015.471761,28497.928767
28978.640026,1332.370696,-1378.971896,24500.816680
28978.640354,2294.638420,9652.803275,23464.528361
28978.640683,370.102971,14709.033562,17616.901420
28978.641011,9030.512492,14096.157163,14952.160028
28978.641340,16062.468941,17007.320056,13767.830521
28978.641668,9696.697840,25740.808733,2442.679609
28978.641997,3404.947333,22829.645840,-7550.100608
28978.642325,4959.379811,10572.117872,-11177.109724
28978.642654,888.247130,4673.182538,-4885.359217
28978.642982,-3404.947333,-919.314598,-4145.153275
28978.643311,-962.267725,-10572.117872,-5625.565159
28978.643639,-7920.203579,-17773.415554,-592.164754
28978.643968,-16506.592507,-16471.053207,5625.565159
28978.644296,-9030.512492,-16394.443657,17616.901420
28978.644625,-370.102971,-17543.586904,29978.340651
28978.644953,-1850.514855,-12257.527968,30718.546593
28978.645282,814.226536,-4903.011187,23834.631332
28978.645610,6143.709319,4213.525239,21095.869347
28978.645939,2812.782580,16088.005458,18949.272115
28978.646267,7179.997637,18616.120601,16728.654289
28978.646596,14878.139434,15628.348159,13175.665768
28978.646924,11769.274478,18539.511052,4293.194464
28978.647253,2960.823768,21833.721693,-3404.947333
28978.647581,1406.391290,13406.671215,-11325.150913
28978.647910,-1184.329507,3524.039291,-8808.450710
28978.648238,-5255.462188,-6588.421283,-5773.606348
28978.648567,-3849.070898,-12947.013916,-3256.906145
28978.648895,-7920.203579,-16471.053207,666.185348
28978.649224,-17394.839637,-16471.053207,5625.565159
28978.649552,-14211.954086,-18233.072852,14211.954086
28978.649881,-3330.926739,-19841.873398,26869.475695
28978.650209,0.000000,-13406.671215,29904.320057
28978.650538,74.020594,-3447.429741,25907.207970
28978.650866,3256.906145,3907.087040,21910.095883
28978.651194,740.205942,11261.603821,19023.292709
28978.651523,6217.729913,16011.395908,16950.716072
28978.651851,16062.468941,16471.053207,15692.365970
28978.652180,13027.624579,19458.825649,5699.585753
28978.652508,3997.112087,20837.797546,-5477.523971
28978.652837,3923.091493,13253.452115,-11917.315666
28978.653165,3034.844362,5515.887586,-7254.018232
28978.653494,-3997.112087,-3064.381992,-4515.256246
28978.653822,-5329.482782,-12027.699319,-4071.132681
28978.654151,-7994.224174,-18999.168350,962.267725
28978.654480,-16728.654289,-17620.196454,8438.347739
28978.654808,-15396.283594,-16547.662757,17098.757260
28978.655137,-6143.709319,-21220.845295,26129.269753
28978.655465,-2442.679609,-18462.901502,28719.990550
28978.655794,-592.164754,-7737.564530,25167.002028
28978.656122,3182.885551,4443.353888,23390.507767
28978.656451,1036.288319,14479.204912,20281.642811
28978.656779,4441.235652,17620.196454,15692.365970
28978.657108,16284.530724,15628.348159,13693.809927
28978.657436,16728.654289,21144.235745,5329.482782
28978.657765,7402.059420,27809.266577,-4737.318029
28978.658093,5255.462188,17850.025103,-12731.542202
28978.658422,4737.318029,5669.106685,-9326.594869
28978.658750,-1924.535449,-2221.676944,-3552.988522
28978.659079,-2738.761985,-7048.078582,-4663.297435
28978.659407,-5921.647536,-14785.643111,-1036.288319
28978.659736,-17468.860231,-18462.901502,6291.750507
28978.660065,-16580.613101,-17313.758255,12361.439231
28978.660393,-4663.297435,-19152.387450,24574.837274
28978.660722,-518.144159,-15321.909960,29460.196492
28978.661050,-2442.679609,-3983.696590,24278.754898
28978.661379,666.185348,5132.839837,20651.745782
28978.661707,2664.741391,13023.623466,19319.375086
28978.662036,7105.977043,18233.072852,17172.777854
28978.662364,13323.706956,18386.291952,14211.954086
28978.662693,12583.501014,21833.721693,4589.276840
28978.663021,6291.750507,23519.131789,-4071.132681
28978.663350,3701.029710,16930.710506,-8882.471304
28978.663678,2368.659014,8120.612279,-4293.194464
28978.664007,-2812.782580,-1608.800546,-2294.638420
28978.664335,-3108.864956,-12257.527968,-5033.400406
28978.664664,-8438.347739,-19535.435199,-814.226536
28978.664993,-17764.942608,-17160.539155,8216.285956
28978.665321,-15248.242405,-14785.643111,14878.139434
28978.665650,-5033.400406,-19535.435199,24426.796086
28978.665978,-1036.288319,-19305.606550,28423.908173
28978.666307,74.020594,-6894.859482,25315.043216
28978.666635,3330.926739,8580.269578,22280.198854
28978.666964,2664.741391,16394.443657,18431.127956
28978.667292,7402.059420,14709.033562,15618.345376
28978.667621,15470.304188,13253.452115,15100.201217
28978.667949,15100.201217,21374.064394,5255.462188
28978.668278,6513.812290,26660.123330,-5255.462188
28978.668606,3923.091493,16394.443657,-10732.986159
28978.668935,3997.112087,2987.772442,-8216.285956
28978.669263,-2294.638420,-4519.963438,-2738.761985
28978.669592,-4515.256246,-10572.117872,-2516.700203
28978.669920,-9548.656652,-17543.586904,-1406.391290
28978.670249,-17542.880825,-21220.845295,4441.235652
28978.670578,-14878.139434,-20837.797546,13101.645173
28978.670906,-6587.832884,-20071.702048,23982.672521
28978.671235,-2590.720797,-15934.786358,29164.114115
28978.671563,-1628.453072,-8044.002729,25759.166782
28978.671892,518.144159,459.657299,22872.363608
28978.672220,518.144159,10648.727422,19911.539840
28978.672549,5551.544565,16854.100956,18061.024985
28978.672877,13989.892304,15781.567259,14285.974681
28978.673206,14211.954086,18079.853753,6291.750507
28978.673534,9178.553681,22140.159892,-1776.494261
28978.673863,5181.441594,17160.539155,-9474.636058
28978.674191,4515.256246,6665.030833,-6883.915261
28978.674520,148.041188,-4903.011187,-1924.535449
28978.674848,-3552.988522,-11874.480219,-3627.009116
28978.675177,-7031.956449,-15781.567259,-740.205942
28978.675505,-13545.768739,-17620.196454,6661.853478
28978.675834,-14063.912898,-17620.196454,13175.665768
28978.676163,-6291.750507,-19995.092498,23464.528361
28978.676491,-666.185348,-16011.395908,29238.134709
28978.676820,-370.102971,-6205.373534,25611.125593
28978.677148,-1184.329507,5132.839837,22502.260637
28978.677477,74.020594,14325.985813,18505.148550
28978.677805,8808.450710,16624.272307,16136.489536
28978.678134,16506.592507,18539.511052,13323.706956
28978.678462,12657.521608,23825.569988,3627.009116
28978.678791,6069.688724,24668.275036,-4293.194464
28978.679119,5625.565159,15015.471761,-9770.718434
28978.679448,3256.906145,6818.249932,-5995.668130
28978.679776,-2886.803174,-2221.676944,-2960.823768
28978.680105,-3256.906145,-10418.898773,-4589.276840
28978.680433,-7994.224174,-16777.491406,-2516.700203
28978.680762,-16136.489536,-17696.806004,5107.421000
28978.681091,-13471.748144,-17160.539155,15322.262999
28978.681419,-5551.544565,-17543.586904,26499.372724
28978.681748,-1776.494261,-13942.938064,29978.340651
28978.682076,814.226536,-5669.106685,26277.310941
28978.682405,3552.988522,4826.401637,24130.713709
28978.682733,296.082377,15015.471761,19911.539840
28978.683062,4737.318029,18309.682402,14656.077652
28978.683390,15396.283594,14555.814462,13619.789333
28978.683719,13175.665768,20071.702048,5773.606348
28978.684047,5477.523971,25587.589633,-3849.070898
28978.684376,3404.947333,16854.100956,-10584.944971
28978.684704,1258.350101,4213.525239,-8882.471304
28978.685033,-4145.153275,-4749.792088,-4811.338623
28978.685361,-3997.112087,-11108.384721,-3775.050304
28978.685690,-7698.141797,-15704.957709,-1850.514855
28978.686018,-17098.757260,-17390.367805,4515.256246
28978.686347,-13767.830521,-18692.730151,13249.686362
28978.686676,-3923.091493,-19152.387450,25981.228564
28978.687004,-666.185348,-14019.547613,29682.258274
28978.687333,74.020594,-6052.154434,25241.022622
28978.687661,2664.741391,1532.190996,21910.095883
28978.687990,962.267725,11644.651570,19541.436869
28978.688318,5403.503377,17313.758255,17024.736666
28978.688647,14434.015869,14709.033562,15100.201217
28978.688975,12435.459826,16624.272307,6587.832884
28978.689304,5921.647536,19612.044749,-2072.576638
28978.689632,3256.906145,15475.129060,-7402.059420
28978.689961,1110.308913,6052.154434,-5181.441594
28978.690289,-4663.297435,-5056.230287,-3627.009116
28978.690618,-4885.359217,-13636.499864,-4811.338623
28978.690946,-7105.977043,-17390.367805,-296.082377
28978.691275,-14952.160028,-13789.718964,6439.791695
28978.691604,-13027.624579,-14096.157163,13249.686362
28978.691932,-4811.338623,-19765.263848,23020.404796
28978.692261,-444.123565,-17696.806004,27387.619854
28978.692589,2294.638420,-5286.058936,26129.269753
28978.692918,5699.585753,8273.831378,22872.363608
28978.693246,3552.988522,16317.834107,17616.901420
28978.693575,7550.100608,16394.443657,14508.036463
28978.693903,18283.086767,16777.491406,13693.809927
28978.694232,17024.736666,23212.693589,5847.626942
28978.694560,6587.832884,26506.904231,-2812.782580
28978.694889,3701.029710,15168.690860,-8882.471304
28978.695217,1332.370696,4213.525239,-8290.306550
28978.695546,-5847.626942,-2834.553343,-3627.009116
28978.695874,-5033.400406,-10648.727422,-3330.926739
28978.696203,-9474.636058,-17083.929605,-888.247130
28978.696531,-20651.745782,-18462.901502,4219.173869
28978.696860,-17246.798449,-18692.730151,12509.480420
28978.697189,-7328.038826,-20224.921147,26055.249158
28978.697517,-4145.153275,-16011.395908,29016.072926
28978.697846,-2442.679609,-6741.640382,24870.919651
28978.698174,3182.885551,2911.162892,23168.445985
28978.698503,2960.823768,13330.061665,20503.704593
28978.698831,6661.853478,19765.263848,15248.242405
28978.699160,16580.613101,16700.881856,13989.892304
28978.699488,18135.045579,19305.606550,7105.977043
28978.699817,9622.677246,24821.494135,-1406.391290
28978.700145,5403.503377,18156.463303,-8512.368333
28978.700474,4145.153275,7048.078582,-9104.533087
28978.700802,-2368.659014,-3907.087040,-4515.256246
28978.701131,-3552.988522,-10572.117872,-3108.864956
28978.701459,-5699.585753,-15628.348159,-148.041188
28978.701788,-16876.695478,-17007.320056,5995.668130
28978.702116,-16728.654289,-18769.339701,11695.253884
28978.702445,-6587.832884,-21144.235745,23094.425390
28978.702774,-1628.453072,-15858.176809,28719.990550
28978.703102,-2368.659014,-4366.744339,25611.125593
28978.703431,2516.700203,3907.087040,20207.622217
28978.703759,1258.350101,11644.651570,18579.169144
28978.704088,3849.070898,16471.053207,14656.077652
28978.704416,13915.871710,15092.081311,14285.974681
28978.704745,12953.603985,17543.586904,8364.327145
28978.705073,3997.112087,20991.016645,-222.061783
28978.705402,2442.679609,15321.909960,-8142.265362
28978.705730,2294.638420,4213.525239,-5847.626942
28978.706059,-3552.988522,-4136.915689,-2146.597232
28978.706387,-4959.379811,-10418.898773,-3404.947333
28978.706716,-6291.750507,-16394.443657,-148.041188
28978.707044,-13619.789333,-16317.834107,6513.812290
28978.707373,-13471.748144,-14325.985813,13915.871710
28978.707702,-4515.256246,-16700.881856,23168.445985
28978.708030,1036.288319,-15015.471761,26499.372724
28978.708359,1480.411884,-6435.202183,24130.713709
28978.708687,5181.441594,5286.058936,21317.931130
28978.709016,3849.070898,16241.224558,18875.251521
28978.709344,4811.338623,19612.044749,13545.768739
28978.709673,15174.221811,15551.738609,11991.336260
28978.710001,14211.954086,18462.901502,6291.750507
28978.710330,3552.988522,25357.760984,-2516.700203
28978.710658,370.102971,17390.367805,-9918.759623
28978.710987,1998.556043,3524.039291,-7105.977043
28978.711315,-5551.544565,-5822.325785,-2220.617826
28978.711644,-6291.750507,-10112.460574,-2738.761985
28978.711972,-6439.791695,-15398.519510,592.164754
28978.712301,-16580.613101,-16777.491406,5921.647536
28978.712629,-17172.777854,-17390.367805,11843.295072
28978.712958,-5255.462188,-19305.606550,23168.445985
28978.713287,592.164754,-15321.909960,27683.702231
28978.713615,-962.267725,-4443.353888,24352.775492
28978.713944,4367.215058,4903.011187,21836.075289
28978.714272,6365.771101,12640.575717,21169.889941
28978.714601,7624.121203,18539.511052,17320.819043
28978.714929,16062.468941,16777.491406,14285.974681
28978.715258,17098.757260,17773.415554,7402.059420
28978.715586,10214.842000,22599.817191,-1036.288319
28978.715915,5255.462188,18692.730151,-7994.224174
28978.716243,2738.761985,7660.954980,-7179.997637
28978.716572,-3552.988522,-2757.943793,-1998.556043
28978.716900,-6217.729913,-10265.679673,-4071.132681
28978.717229,-6513.812290,-16471.053207,-444.123565
28978.717557,-15544.324782,-18616.120601,5921.647536
28978.717886,-19245.354492,-17237.148705,10732.986159
28978.718215,-10584.944971,-19075.777900,20355.663405
28978.718543,-1258.350101,-16624.272307,28423.908173
28978.718872,-592.164754,-5515.887586,26351.331535
28978.719200,2516.700203,5592.497135,20799.786970
28978.719529,4441.235652,11568.042020,17320.819043
28978.719857,3108.864956,15858.176809,13323.706956
28978.720186,12731.542202,16317.834107,12731.542202
28978.720514,17320.819043,18233.072852,9252.574275
28978.720843,8882.471304,22140.159892,74.020594
28978.721171,1184.329507,16088.005458,-7846.182985
28978.721500,2220.617826,2911.162892,-8068.244768
28978.721828,-2072.576638,-4826.401637,-0.000000
28978.722157,-5477.523971,-9116.536426,666.185348
28978.722485,-6143.709319,-16547.662757,2146.597232
28978.722814,-13249.686362,-20991.016645,6587.832884
28978.723142,-15544.324782,-18079.853753,12953.603985
28978.723471,-8068.244768,-15398.519510,21910.095883
28978.723800,814.226536,-13330.061665,27461.640448
28978.724128,222.061783,-6511.811733,23686.590144
28978.724457,2072.576638,2145.067394,20207.622217
28978.724785,3997.112087,11261.603821,18209.066173
28978.725114,3997.112087,18845.949251,13619.789333
28978.725442,10955.047942,17390.367805,10658.965565
28978.725771,15470.304188,16241.224558,6439.791695
28978.726099,8290.306550,19075.777900,-1184.329507
28978.726428,518.144159,17007.320056,-9548.656652
28978.726756,1036.288319,5209.449386,-8216.285956
28978.727085,-740.205942,-4979.620737,-888.247130
28978.727413,-5107.421000,-9652.803275,-1554.432478
28978.727742,-5033.400406,-15245.300410,2442.679609
28978.728070,-11843.295072,-18845.949251,8290.306550
28978.728399,-14804.118840,-16700.881856,13619.789333
28978.728727,-5773.606348,-16394.443657,21910.095883
28978.729056,3034.844362,-15015.471761,27609.681637
28978.729385,2516.700203,-5132.839837,25092.981434
28978.729713,1850.514855,6205.373534,19911.539840
28978.730042,4145.153275,13636.499864,18949.272115
28978.730370,7994.224174,17237.148705,15766.386565
28978.730699,13471.748144,17696.806004,13545.768739
28978.731027,12805.562797,18769.339701,5995.668130
28978.731356,5699.585753,18922.558801,-2516.700203
28978.731684,1036.288319,13713.109414,-7920.203579
28978.732013,-962.267725,3983.696590,-6439.791695
28978.732341,-4589.276840,-4213.525239,-296.082377
28978.732670,-6143.709319,-12027.699319,-1776.494261
28978.732998,-8364.327145,-16854.100956,1406.391290
28978.733327,-13767.830521,-18079.853753,6513.812290
28978.733655,-13693.809927,-16088.005458,14285.974681
28978.733984,-4811.338623,-15704.957709,23020.404796
28978.734313,666.185348,-12793.794817,27239.578666
28978.734641,1998.556043,-3983.696590,23168.445985
28978.734970,5403.503377,5286.058936,20577.725188
28978.735298,4663.297435,15168.690860,18135.045579
28978.735627,3849.070898,17850.025103,13101.645173
28978.735955,11621.233289,15168.690860,12583.501014
28978.736284,12361.439231,15704.957709,7031.956449
28978.736612,3182.885551,20224.921147,-2590.720797
28978.736941,-1998.556043,15168.690860,-9400.615463
28978.737269,-2146.597232,2451.505594,-7772.162391
28978.737598,-4885.359217,-4519.963438,-666.185348
28978.737926,-5699.585753,-9806.022374,-444.123565
28978.738255,-7105.977043,-15475.129060,2294.638420
28978.738583,-15174.221811,-17083.929605,6439.791695
28978.738912,-14211.954086,-15015.471761,13027.624579
28978.739240,-2368.659014,-14172.766713,21317.931130
28978.739569,2368.659014,-11874.480219,26795.455100
28978.739898,2146.597232,-2604.724693,24278.754898
28978.740226,6735.874072,5592.497135,19023.292709
28978.740555,7402.059420,13330.061665,18949.272115
28978.740883,5255.462188,18079.853753,15396.283594
28978.741212,11103.089130,17160.539155,12435.459826
28978.741540,13619.789333,17160.539155,7179.997637
28978.741869,6809.894666,20684.578446,-1036.288319
28978.742197,370.102971,17390.367805,-7031.956449
28978.742526,-1776.494261,4443.353888,-8512.368333
28978.742854,-4515.256246,-3830.477490,-3182.885551
28978.743183,-6291.750507,-9959.241474,-1702.473667
28978.743511,-5403.503377,-14555.814462,2368.659014
28978.743840,-10436.903782,-15168.690860,7254.018232
28978.744168,-14211.954086,-14632.424012,11621.233289
28978.744497,-6513.812290,-14938.862211,18949.272115
28978.744826,2072.576638,-15092.081311,26351.331535
28978.745154,4071.132681,-4749.792088,25759.166782
28978.745483,5551.544565,5822.325785,21614.013506
28978.745811,5329.482782,11338.213370,19319.375086
28978.746140,4441.235652,15398.519510,14952.160028
28978.746468,13989.892304,16011.395908,13619.789333
28978.746797,15914.427753,17850.025103,8808.450710
28978.747125,6735.874072,18845.949251,-1776.494261
28978.747454,-1258.350101,14709.033562,-6809.894666
28978.747782,-1702.473667,3140.991542,-7994.224174
28978.748111,-3849.070898,-4749.792088,-962.267725
28978.748439,-5773.606348,-11491.432470,814.226536
28978.748768,-6661.853478,-17466.977354,3108.864956
28978.749096,-12879.583391,-19841.873398,4811.338623
28978.749425,-15544.324782,-17926.634653,11843.295072
28978.749753,-6513.812290,-17543.586904,19689.478057
28978.750082,1258.350101,-15551.738609,25389.063811
28978.750411,1480.411884,-4519.963438,25759.166782
28978.750739,5625.565159,5592.497135,21539.992912
28978.751068,8956.491898,12947.013916,18949.272115
28978.751396,5403.503377,16624.272307,13767.830521
28978.751725,10066.800811,15934.786358,9548.656652
28978.752053,15692.365970,15168.690860,7328.038826
28978.752382,8438.347739,19535.435199,-0.000000
28978.752710,-1702.473667,18003.244203,-5181.441594
28978.753039,-4737.318029,4903.011187,-7772.162391
28978.753367,-5181.441594,-6281.983084,-1480.411884
28978.753696,-7328.038826,-12257.527968,-370.102971
28978.754024,-9030.512492,-16317.834107,4367.215058
28978.754353,-15544.324782,-18462.901502,5921.647536
28978.754681,-17246.798449,-16930.710506,10658.965565
28978.755010,-6069.688724,-16164.615008,19763.498651
28978.755338,2664.741391,-12947.013916,27387.619854
28978.755667,1480.411884,-1302.362347,25611.125593
28978.755995,4145.153275,8044.002729,20207.622217
28978.756324,7476.080014,13559.890315,17542.880825
28978.756652,7994.224174,18309.682402,13323.706956
28978.756981,14582.057057,20991.016645,11843.295072
28978.757309,16654.633695,21603.893044,6143.709319
28978.757638,7254.018232,22216.769442,-1776.494261
28978.757966,814.226536,16547.662757,-7550.100608
28978.758295,1628.453072,5132.839837,-5255.462188
28978.758623,-3108.864956,-383.047749,666.185348
28978.758952,-7624.121203,-9193.145976,-1702.473667
28978.759280,-9030.512492,-18156.463303,2072.576638
28978.759609,-15174.221811,-19995.092498,5995.668130
28978.759937,-17246.798449,-14479.204912,11917.315666
28978.760266,-7031.956449,-15321.909960,20651.745782
28978.760594,-1406.391290,-16241.224558,25315.043216
28978.760923,-1776.494261,-7277.907231,22576.281231
28978.761251,3034.844362,3217.601092,20873.807564
28978.761580,3775.050304,12717.185267,20947.828159
28978.761908,4071.132681,18386.291952,15248.242405
28978.762237,14730.098246,16471.053207,13027.624579
28978.762565,19467.416275,16777.491406,6587.832884
28978.762894,7920.203579,22369.988542,-2442.679609
28978.763222,2886.803174,18692.730151,-8734.430116
28978.763551,5181.441594,5975.544884,-6217.729913
28978.763880,592.164754,-1991.848295,888.247130
28978.764208,-4515.256246,-8427.050478,1850.514855
28978.764537,-5329.482782,-16471.053207,3478.967927
28978.764865,-13101.645173,-19458.825649,4737.318029
28978.765194,-17246.798449,-19382.216099,8882.471304
28978.765522,-5699.585753,-20607.968896,19319.375086
28978.765851,444.123565,-16241.224558,27461.640448
28978.766179,-1554.432478,-3753.867940,25241.022622
28978.766508,2516.700203,3753.867940,21465.972318
28978.766836,4515.256246,8427.050478,19245.354492
28978.767165,2812.782580,17160.539155,14582.057057
28978.767493,11547.212695,18079.853753,10436.903782
28978.767822,15766.386565,15858.176809,5699.585753
28978.768150,7920.203579,17160.539155,-2664.741391
28978.768479,74.020594,16011.395908,-5329.482782
28978.768807,-1628.453072,5439.278036,-4071.132681
28978.769136,-6291.750507,-4903.011187,1110.308913
28978.769464,-9474.636058,-14249.376263,518.144159
28978.769793,-8290.306550,-20607.968896,3849.070898
28978.770121,-13249.686362,-19995.092498,7476.080014
28978.770450,-18653.189738,-17160.539155,9548.656652
28978.770778,-8290.306550,-18462.901502,18801.230927
28978.771107,2368.659014,-17007.320056,27979.784608
28978.771435,2368.659014,-4290.134789,26499.372724
28978.771764,4737.318029,7431.126331,22946.384202
28978.772092,7105.977043,11414.822920,18579.169144
28978.772421,4959.379811,17773.415554,13767.830521
28978.772749,14063.912898,19688.654299,10140.821405
28978.773078,19615.457463,20684.578446,6957.935855
28978.773406,9622.677246,21603.893044,-3330.926739
28978.773735,-888.247130,17850.025103,-9104.533087
28978.774063,370.102971,6971.469032,-8586.388927
28978.774392,-2664.741391,-995.924147,444.123565
28978.774720,-7920.203579,-8427.050478,444.123565
28978.775049,-9548.656652,-17543.586904,296.082377
28978.775377,-13767.830521,-20454.749797,4293.194464
28978.775706,-15840.407159,-16471.053207,8882.471304
28978.776034,-7254.018232,-13176.842566,19615.457463
28978.776363,1332.370696,-14019.547613,26129.269753
28978.776691,1036.288319,-6818.249932,25389.063811
28978.777020,3627.009116,2451.505594,23168.445985
28978.777348,6883.915261,10265.679673,22428.240043
28978.777677,6883.915261,18616.120601,17468.860231
28978.778005,13619.789333,20454.749797,12805.562797
28978.778334,19985.560434,18769.339701,5329.482782
28978.778662,12435.459826,21450.673944,-1702.473667
28978.778991,1406.391290,19228.997000,-8586.388927
28978.779319,1406.391290,9193.145976,-8660.409521
28978.779648,-1184.329507,-2298.286494,444.123565
28978.779976,-7031.956449,-9806.022374,1110.308913
28978.780305,-7179.997637,-16011.395908,2146.597232
28978.780633,-12509.480420,-18845.949251,6291.750507
28978.780962,-17616.901420,-17160.539155,8882.471304
28978.781290,-10214.842000,-18769.339701,17616.901420
28978.781619,666.185348,-18539.511052,26573.393318
28978.781947,1406.391290,-6511.811733,24870.919651
28978.782276,2072.576638,5592.497135,21762.054695
28978.782604,3923.091493,11874.480219,19319.375086
28978.782933,5847.626942,18616.120601,15766.386565
28978.783262,14137.933492,19305.606550,12361.439231
28978.783590,15840.407159,18156.463303,5033.400406
28978.783919,8142.265362,18769.339701,-3923.091493
28978.784247,-518.144159,16164.615008,-7328.038826
28978.784576,-1332.370696,7431.126331,-6143.709319
28978.784904,-5403.503377,-2451.505594,2960.823768
28978.785233,-9474.636058,-12410.747068,3034.844362
28978.785561,-9844.739029,-19612.044749,1332.370696
28978.785890,-15470.304188,-20837.797546,5625.565159
28978.786218,-18209.066173,-18079.853753,10436.903782
28978.786547,-9992.780217,-17390.367805,19319.375086
28978.786875,-1332.370696,-16930.710506,27313.599260
28978.787204,814.226536,-8273.831378,24352.775492
28978.787532,5033.400406,2451.505594,22576.281231
28978.787861,6439.791695,12104.308868,20503.704593
28978.788189,4663.297435,20531.359346,15100.201217
28978.788518,14582.057057,18309.682402,11843.295072
28978.788846,19171.333898,17773.415554,7772.162391
28978.789175,9326.594869,22063.550342,-2960.823768
28978.789503,1406.391290,19995.092498,-9474.636058
28978.789832,814.226536,8963.317327,-8142.265362
28978.790160,-2664.741391,-689.485948,592.164754
28978.790489,-4959.379811,-9116.536426,962.267725
28978.790817,-7031.956449,-16547.662757,962.267725
28978.791146,-14804.118840,-18539.511052,2664.741391
28978.791474,-15026.180623,-17083.929605,5921.647536
28978.791803,-5995.668130,-15858.176809,18209.066173
28978.792131,1332.370696,-14785.643111,25833.187376
28978.792460,888.247130,-5286.058936,23612.569550
28978.792788,5477.523971,1378.971896,21836.075289
28978.793117,6809.894666,9422.974625,20799.786970
28978.793445,4737.318029,18539.511052,16802.674883
28978.793774,11325.150913,18539.511052,14508.036463
28978.794102,15692.365970,16700.881856,7476.080014
28978.794431,9400.615463,17926.634653,-666.185348
28978.794759,1998.556043,17083.929605,-4589.276840
28978.795088,1036.288319,9729.412825,-6365.771101
28978.795416,-2812.782580,-536.266849,-0.000000
28978.795745,-5625.565159,-11644.651570,1554.432478
28978.796073,-5107.421000,-17390.367805,2146.597232
28978.796402,-11103.089130,-17773.415554,7179.997637
28978.796730,-14582.057057,-15321.909960,9696.697840
28978.797059,-8068.244768,-17926.634653,16210.510130
28978.797387,-740.205942,-19612.044749,25315.043216
28978.797716,2516.700203,-10112.460574,25685.146187
28978.798044,5033.400406,3447.429741,24056.693115
28978.798373,4441.235652,11338.213370,21984.116477
28978.798701,3108.864956,17083.929605,16876.695478
28978.799030,11991.336260,15321.909960,11917.315666
28978.799358,16358.551318,17160.539155,7105.977043
28978.799687,7920.203579,21220.845295,-3478.967927
28978.800015,296.082377,18539.511052,-7994.224174
28978.800344,-1036.288319,8044.002729,-8364.327145
28978.800672,-5329.482782,-919.314598,-0.000000
28978.801001,-8586.388927,-8044.002729,1850.514855
28978.801329,-9178.553681,-17466.977354,-0.000000
28978.801658,-15470.304188,-20684.578446,2146.597232
28978.801987,-19689.478057,-19458.825649,7105.977043
28978.802315,-11917.315666,-17696.806004,16580.613101
28978.802644,-2368.659014,-15704.957709,27239.578666
28978.802972,0.000000,-8350.440928,26499.372724
28978.803301,3923.091493,1838.629195,22798.343014
28978.803629,8512.368333,9576.193725,20873.807564
28978.803958,4737.318029,20607.968896,16728.654289
28978.804286,9918.759623,21680.502593,12731.542202
28978.804615,19097.313304,17773.415554,10436.903782
28978.804943,13101.645173,20071.702048,1776.494261
28978.805272,1554.432478,21067.626195,-5847.626942
28978.805600,-296.082377,13406.671215,-9104.533087
28978.805929,-2368.659014,1378.971896,-3404.947333
28978.806257,-5773.606348,-8044.002729,518.144159
28978.806586,-5625.565159,-15321.909960,1554.432478
28978.806914,-12139.377449,-16700.881856,4589.276840
28978.807243,-18579.169144,-16241.224558,4515.256246
28978.807571,-10955.047942,-16624.272307,12953.603985
28978.807900,296.082377,-15551.738609,25018.960840
28978.808228,1628.453072,-6128.763984,25907.207970
28978.808557,2960.823768,2681.334243,21984.116477
28978.808885,7254.018232,6665.030833,20947.828159
28978.809214,5107.421000,14632.424012,17838.963202
28978.809542,9474.636058,19995.092498,15248.242405
28978.809871,17468.860231,19305.606550,11399.171507
28978.810199,13397.727550,18003.244203,-888.247130
28978.810528,3552.988522,17696.806004,-6217.729913
28978.810856,3478.967927,11644.651570,-7846.182985
28978.811185,1332.370696,4749.792088,-518.144159
28978.811513,-4959.379811,-5592.497135,2442.679609
28978.811842,-4737.318029,-17696.806004,2220.617826
28978.812170,-8438.347739,-22140.159892,5625.565159
28978.812499,-15692.365970,-17850.025103,7994.224174
28978.812827,-10140.821405,-15398.519510,15470.304188
28978.813156,-888.247130,-18922.558801,25315.043216
28978.813484,1184.329507,-13713.109414,26277.310941
28978.813813,4441.235652,-689.485948,24352.775492
28978.814141,8068.244768,8733.488677,22428.240043
28978.814470,3182.885551,18156.463303,17912.983796
28978.814798,7105.977043,18462.901502,11695.253884
28978.815127,18357.107362,15551.738609,8882.471304
28978.815455,11991.336260,18079.853753,-2146.597232
28978.815784,740.205942,19765.263848,-9030.512492
28978.816112,-814.226536,9806.022374,-10362.883188
28978.816441,-4515.256246,-459.657299,-1554.432478
28978.816769,-10066.800811,-7814.174080,3034.844362
28978.817098,-7920.203579,-17850.025103,4367.215058
28978.817426,-14063.912898,-22523.207641,5477.523971
28978.817755,-22872.363608,-21450.673944,5033.400406
28978.818083,-14804.118840,-19535.435199,12953.603985
28978.818412,-2368.659014,-18692.730151,26499.372724
28978.818740,-592.164754,-9346.365076,28423.908173
28978.819069,0.000000,2757.943793,23834.631332
28978.819397,6439.791695,7201.297681,21243.910535
28978.819726,5921.647536,16547.662757,18061.024985
28978.820054,10362.883188,22369.988542,11843.295072
28978.820383,18653.189738,20607.968896,7698.141797
28978.820711,14952.160028,19075.777900,-888.247130
28978.821040,2738.761985,19305.606550,-6587.832884
28978.821369,1850.514855,12870.404366,-8364.327145
28978.821697,1628.453072,3677.258390,592.164754
28978.822026,-4589.276840,-6894.859482,2442.679609
28978.822354,-5773.606348,-17160.539155,888.247130
28978.822683,-10807.006753,-20837.797546,4293.194464
28978.823011,-18579.169144,-17007.320056,7550.100608
28978.823340,-10881.027347,-14862.252661,14211.954086
28978.823668,-296.082377,-16777.491406,26129.269753
28978.823997,-592.164754,-10189.070123,25537.104999
28978.824325,1924.535449,2834.553343,21836.075289
28978.824654,5921.647536,9039.926876,20355.663405
28978.824982,5403.503377,16317.834107,17838.963202
28978.825311,12065.356855,20148.311597,13249.686362
28978.825639,18579.169144,21450.673944,9104.533087
28978.825968,12731.542202,22063.550342,-2590.720797
28978.826296,3034.844362,18079.853753,-8660.409521
28978.826625,4145.153275,9806.022374,-8808.450710
28978.826953,2368.659014,3524.039291,2072.576638
28978.827282,-4219.173869,-4366.744339,4219.173869
28978.827610,-5847.626942,-16700.881856,1184.329507
28978.827939,-9844.739029,-22753.036291,2960.823768
28978.828267,-15618.345376,-18922.558801,9400.615463
28978.828596,-10140.821405,-14402.595362,16728.654289
28978.828924,-2368.659014,-15858.176809,26203.290347
28978.829253,-1554.432478,-12640.575717,26277.310941
28978.829581,1554.432478,-2987.772442,22206.178260
28978.829910,4589.276840,7431.126331,20059.581028
28978.830238,1184.329507,18539.511052,16728.654289
28978.830567,6143.709319,19841.873398,10066.800811
28978.830895,15248.242405,16471.053207,5403.503377
28978.831224,11029.068536,18309.682402,-296.082377
28978.831552,-296.082377,20301.530697,-7698.141797
28978.831881,-814.226536,11644.651570,-8734.430116
28978.832209,-2146.597232,-1378.971896,-0.000000
28978.832538,-8586.388927,-9806.022374,2960.823768
28978.832866,-7624.121203,-15704.957709,814.226536
28978.833195,-8734.430116,-20224.921147,5033.400406
28978.833523,-16728.654289,-19535.435199,7328.038826
28978.833852,-14211.954086,-18462.901502,16432.571912
28978.834180,-1036.288319,-17696.806004,26795.455100
28978.834509,1924.535449,-9882.631924,29534.217086
28978.834837,1480.411884,-153.219100,24056.693115
28978.835166,3034.844362,6818.249932,20725.766376
28978.835494,4145.153275,16471.053207,15766.386565
28978.835823,11177.109724,20991.016645,11547.212695
28978.836151,17320.819043,20684.578446,8364.327145
28978.836480,11103.089130,21067.626195,1258.350101
28978.836808,1702.473667,20991.016645,-5255.462188
28978.837137,148.041188,13176.842566,-6883.915261
28978.837465,-1776.494261,1149.143247,-592.164754
28978.837794,-7105.977043,-7431.126331,1110.308913
28978.838122,-7920.203579,-15015.471761,-2960.823768
28978.838451,-10510.924376,-18539.511052,1702.473667
28978.838779,-15100.201217,-17237.148705,8956.491898
28978.839108,-11843.295072,-15398.519510,17098.757260
28978.839436,0.000000,-15858.176809,25611.125593
28978.839765,3404.947333,-11184.994271,27017.516883
28978.840094,4737.318029,536.266849,21836.075289
28978.840422,9030.512492,10648.727422,21317.931130
28978.840751,8142.265362,18309.682402,14952.160028
28978.841079,12731.542202,21067.626195,11399.171507
28978.841408,19763.498651,20684.578446,8882.471304
28978.841736,14656.077652,21986.940793,740.205942
28978.842065,3330.926739,20531.359346,-7105.977043
28978.842393,-1628.453072,12487.356617,-8290.306550
28978.842722,-3330.926739,536.266849,-2590.720797
28978.843050,-7031.956449,-7890.783629,1776.494261
28978.843379,-8808.450710,-16854.100956,-740.205942
28978.843707,-12065.356855,-22676.426741,2368.659014
28978.844036,-16728.654289,-20991.016645,9400.615463
28978.844364,-13545.768739,-16854.100956,18801.230927
28978.844693,-888.247130,-16700.881856,26795.455100
28978.845021,2812.782580,-13100.233016,28868.031738
28978.845350,2072.576638,-2145.067394,23686.590144
28978.845678,6291.750507,8044.002729,19319.375086
28978.846007,7105.977043,17083.929605,16580.613101
28978.846335,9918.759623,18922.558801,13471.748144
28978.846664,14730.098246,16088.005458,8586.388927
28978.846992,12805.562797,16011.395908,2664.741391
28978.847321,2146.597232,18309.682402,-3849.070898
28978.847649,-3182.885551,11644.651570,-7031.956449
28978.847978,-2368.659014,-1225.752797,-1036.288319
28978.848306,-5921.647536,-9806.022374,1702.473667
28978.848635,-7994.224174,-14938.862211,-444.123565
28978.848963,-10732.986159,-18845.949251,3701.029710
28978.849292,-15766.386565,-19535.435199,7772.162391
28978.849620,-14137.933492,-16930.710506,16728.654289
28978.849949,-2294.638420,-17007.320056,24796.899057
28978.850277,3182.885551,-11261.603821,28201.846390
28978.850606,4293.194464,76.609550,22576.281231
28978.850934,4367.215058,10955.165621,18283.086767
28978.851263,4737.318029,18462.901502,12731.542202
28978.851591,11769.274478,21220.845295,9474.636058
28978.851920,18061.024985,20761.187996,8216.285956
28978.852248,11177.109724,22906.255390,1998.556043
28978.852577,1554.432478,20991.016645,-4367.215058
28978.852905,-666.185348,11568.042020,-4589.276840
28978.853234,-3256.906145,1225.752797,-370.102971
28978.853562,-6883.915261,-7660.954980,-0.000000
28978.853891,-8142.265362,-16241.224558,-1998.556043
28978.854219,-13619.789333,-19152.387450,740.205942
28978.854548,-17616.901420,-17083.929605,7772.162391
28978.854876,-11843.295072,-16394.443657,20133.601622
28978.855205,-1924.535449,-16011.395908,26869.475695
28978.855533,0.000000,-9806.022374,26795.455100
28978.855862,3997.112087,-1149.143247,20059.581028
28978.856190,7772.162391,9039.926876,19245.354492
28978.856519,4293.194464,20224.921147,15100.201217
28978.856847,10732.986159,22063.550342,11843.295072
28978.857175,21243.910535,17160.539155,7254.018232
28978.857504,13249.686362,20071.702048,3627.009116
28978.857832,2072.576638,22063.550342,-5847.626942
28978.858161,444.123565,13559.890315,-8068.244768
28978.858489,-814.226536,229.828649,-2442.679609
28978.858818,-5181.441594,-9422.974625,962.267725
28978.859146,-5255.462188,-16241.224558,444.123565
28978.859475,-9474.636058,-17543.586904,4219.173869
28978.859803,-15914.427753,-17543.586904,6883.915261
28978.860132,-11029.068536,-19918.482948,17468.860231
28978.860460,1184.329507,-19841.873398,26869.475695
28978.860788,1850.514855,-8733.488677,29460.196492
28978.861117,1998.556043,2068.457845,23686.590144
28978.861445,7920.203579,5975.544884,19689.478057
28978.861774,5107.421000,12717.185267,14878.139434
28978.862102,7550.100608,18539.511052,9104.533087
28978.862431,15174.221811,17850.025103,9252.574275
28978.862759,11991.336260,18079.853753,4145.153275
28978.863088,1332.370696,19612.044749,-1036.288319
28978.863416,-1110.308913,9652.803275,-4737.318029
28978.863745,-4367.215058,-2528.115143,-3182.885551
28978.864073,-9622.677246,-9882.631924,-2812.782580
28978.864402,-8808.450710,-16624.272307,-2442.679609
28978.864730,-8438.347739,-19382.216099,4663.297435
28978.865058,-15988.448347,-17543.586904,9622.677246
28978.865387,-13397.727550,-16854.100956,18653.189738
28978.865715,-1850.514855,-18462.901502,27091.537477
28978.866044,1702.473667,-12563.966167,27757.722825
28978.866372,2886.803174,0.000000,22724.322419
28978.866701,6217.729913,8580.269578,19319.375086
28978.867029,2220.617826,17313.758255,13619.789333
28978.867358,7550.100608,19612.044749,7846.182985
28978.867686,17616.901420,17466.977354,8660.409521
28978.868015,12435.459826,20914.407095,2664.741391
28978.868343,-1628.453072,22753.036291,-5033.400406
28978.868671,-2368.659014,11108.384721,-7550.100608
28978.869000,-2146.597232,-2221.676944,-2146.597232
28978.869328,-8068.244768,-7660.954980,-1998.556043
28978.869657,-7772.162391,-14938.862211,-2960.823768
28978.869985,-9252.574275,-18462.901502,1998.556043
28978.870314,-17098.757260,-16930.710506,7179.997637
28978.870642,-10288.862594,-15475.129060,20503.704593
28978.870971,3404.947333,-17160.539155,30200.402434
28978.871299,2516.700203,-9652.803275,29904.320057
28978.871628,2664.741391,1149.143247,22798.343014
28978.871956,9622.677246,9193.145976,18727.210333
28978.872285,8142.265362,19612.044749,15026.180623
28978.872613,10658.965565,22293.378992,9770.718434
28978.872941,18283.086767,18692.730151,8808.450710
28978.873270,13619.789333,18692.730151,2368.659014
28978.873598,814.226536,22676.426741,-2738.761985
28978.873927,-1332.370696,13713.109414,-6957.935855
28978.874255,-3256.906145,-766.095498,-3404.947333
28978.874584,-9474.636058,-11721.261119,-3256.906145
28978.874912,-8586.388927,-17620.196454,-2590.720797
28978.875241,-8882.471304,-18769.339701,4293.194464
28978.875569,-17024.736666,-16164.615008,9178.553681
28978.875898,-11695.253884,-15628.348159,19911.539840
28978.876226,3330.926739,-18309.682402,29090.093521
28978.876554,5403.503377,-10035.851024,29460.196492
28978.876883,4959.379811,3830.477490,23982.672521
28978.877211,9770.718434,10955.165621,16950.716072
28978.877540,7550.100608,17237.148705,12361.439231
28978.877868,9474.636058,19458.825649,9474.636058
28978.878197,16358.551318,18386.291952,9474.636058
28978.878525,9548.656652,20454.749797,4219.173869
28978.878854,-3627.009116,20607.968896,-2368.659014
28978.879182,-5107.421000,8580.269578,-7698.141797
28978.879511,-5995.668130,-5056.230287,-4515.256246
28978.879839,-11991.336260,-10801.946522,-2590.720797
28978.880167,-12139.377449,-15704.957709,-4293.194464
28978.880496,-11769.274478,-19612.044749,2886.803174
28978.880824,-16062.468941,-18845.949251,9622.677246
28978.881153,-12213.398043,-14709.033562,20577.725188
28978.881481,1628.453072,-16088.005458,29978.340651
28978.881810,5551.544565,-10801.946522,28497.928767
28978.882138,4737.318029,-459.657299,23464.528361
28978.882467,7994.224174,8503.660028,18727.210333
28978.882795,6661.853478,19075.777900,14137.933492
28978.883124,9326.594869,20378.140247,9696.697840
28978.883452,17542.880825,16317.834107,9844.739029
28978.883781,13471.748144,19075.777900,4441.235652
28978.884109,-296.082377,23212.693589,-1776.494261
28978.884437,-2738.761985,12717.185267,-9326.594869
28978.884766,-2738.761985,-3830.477490,-4737.318029
28978.885094,-9696.697840,-12104.308868,-2812.782580
28978.885423,-10288.862594,-15092.081311,-4589.276840
28978.885751,-10288.862594,-17850.025103,3627.009116
28978.886080,-16654.633695,-18769.339701,9770.718434
28978.886408,-13027.624579,-18845.949251,19615.457463
28978.886737,2368.659014,-18999.168350,29756.278868
28978.887065,7105.977043,-10265.679673,30348.443622
28978.887394,5403.503377,3447.429741,24500.816680
28978.887722,10066.800811,11108.384721,17912.983796
28978.888050,11621.233289,18233.072852,13175.665768
28978.888379,13693.809927,22063.550342,10955.047942
28978.888707,18431.127956,21297.454844,10066.800811
28978.889036,14137.933492,20071.702048,3923.091493
28978.889364,1702.473667,19918.482948,-592.164754
28978.889693,-3552.988522,11797.870669,-6513.812290
28978.890021,-4071.132681,-2757.943793,-5847.626942
28978.890350,-10288.862594,-12640.575717,-2664.741391
28978.890678,-11991.336260,-17390.367805,-4219.173869
28978.891007,-12805.562797,-19458.825649,2072.576638
28978.891335,-16876.695478,-19152.387450,9622.677246
28978.891664,-13323.706956,-17160.539155,19393.395680
28978.891992,0.000000,-16624.272307,29534.217086
28978.892320,5847.626942,-9652.803275,29756.278868
28978.892649,6513.812290,3677.258390,23464.528361
28978.892977,8068.244768,11261.603821,18061.024985
28978.893306,6513.812290,16700.881856,11769.274478
28978.893634,11325.150913,19305.606550,9992.780217
28978.893963,16728.654289,18156.463303,11621.233289
28978.894291,8734.430116,21374.064394,5773.606348
28978.894620,-3701.029710,19841.873398,-2886.803174
28978.894948,-5033.400406,8427.050478,-9326.594869
28978.895277,-4959.379811,-4749.792088,-6217.729913
28978.895605,-10955.047942,-10189.070123,-3775.050304
28978.895933,-11325.150913,-15092.081311,-4885.359217
28978.896262,-13989.892304,-17773.415554,1702.473667
28978.896590,-17098.757260,-17773.415554,10140.821405
28978.896919,-10214.842000,-17160.539155,20503.704593
28978.897247,1480.411884,-16624.272307,28868.031738
28978.897576,4367.215058,-8963.317327,30052.361245
28978.897904,6217.729913,1149.143247,24130.713709
28978.898233,9918.759623,8503.660028,19763.498651
28978.898561,8808.450710,16700.881856,14359.995275
28978.898890,11473.192101,19841.873398,12435.459826
28978.899218,17542.880825,19382.216099,10140.821405
28978.899547,13915.871710,22523.207641,4959.379811
28978.899875,3552.988522,22676.426741,-1702.473667
28978.900203,-1036.288319,12487.356617,-9030.512492
28978.900532,-4811.338623,-842.705048,-9178.553681
28978.900860,-11251.130318,-11721.261119,-5255.462188
28978.901189,-11399.171507,-17160.539155,-5181.441594
28978.901517,-12805.562797,-17696.806004,5625.565159
28978.901846,-17690.922014,-16930.710506,12139.377449
28978.902174,-14804.118840,-18692.730151,18875.251521
28978.902503,-1110.308913,-22063.550342,27535.661042
28978.902831,6291.750507,-13713.109414,30792.567187
28978.903160,7179.997637,4443.353888,26055.249158
28978.903488,9178.553681,14096.157163,18431.127956
28978.903816,9252.574275,16471.053207,12583.501014
28978.904145,12879.583391,17313.758255,10140.821405
28978.904473,19467.416275,21986.940793,10658.965565
28978.904802,15692.365970,25204.541884,5625.565159
28978.905130,2886.803174,21603.893044,-1628.453072
28978.905459,-3923.091493,9882.631924,-8956.491898
28978.905787,-5847.626942,-3217.601092,-7994.224174
28978.906116,-10658.965565,-9806.022374,-2220.617826
28978.906444,-12065.356855,-16700.881856,-3627.009116
28978.906773,-14211.954086,-20301.530697,1850.514855
28978.907101,-17764.942608,-20991.016645,9770.718434
28978.907429,-12953.603985,-17620.196454,19615.457463
28978.907758,592.164754,-15321.909960,29164.114115
28978.908086,6291.750507,-10189.070123,30348.443622
28978.908415,6513.812290,1378.971896,22946.384202
28978.908743,10807.006753,10955.165621,17024.736666
28978.909072,11251.130318,19152.387450,14508.036463
28978.909400,12805.562797,21067.626195,10732.986159
28978.909729,18431.127956,18156.463303,11029.068536
28978.910057,13101.645173,18233.072852,5699.585753
28978.910386,-1998.556043,19995.092498,-1850.514855
28978.910714,-6587.832884,11108.384721,-9030.512492
28978.911043,-6513.812290,-2604.724693,-6735.874072
28978.911371,-11621.233289,-12487.356617,-3627.009116
28978.911699,-13175.665768,-19228.997000,-3034.844362
28978.912028,-15618.345376,-20761.187996,3256.906145
28978.912356,-19245.354492,-18922.558801,10288.862594
28978.912685,-11695.253884,-17696.806004,20651.745782
28978.913013,2960.823768,-17850.025103,29830.299463
28978.913342,6069.688724,-9806.022374,29386.175897
28978.913670,8808.450710,2681.334243,22354.219448
28978.913999,13101.645173,10878.556072,17394.839637
28978.914327,11695.253884,19382.216099,15692.365970
28978.914656,14211.954086,22293.378992,12509.480420
28978.914984,18949.272115,19918.482948,10436.903782
28978.915312,11991.336260,19535.435199,3256.906145
28978.915641,-296.082377,20378.140247,-2368.659014
28978.915969,-3552.988522,12563.966167,-7920.203579
28978.916298,-6513.812290,0.000000,-5551.544565
28978.916626,-13471.748144,-11414.822920,-4367.215058
28978.916955,-13397.727550,-20148.311597,-5033.400406
28978.917283,-14063.912898,-19765.263848,3034.844362
28978.917612,-19245.354492,-15015.471761,10510.924376
28978.917940,-13915.871710,-15781.567259,18209.066173
28978.918269,0.000000,-20301.530697,27091.537477
28978.918597,5033.400406,-13100.233016,29312.155303
28978.918926,8956.491898,3217.601092,24722.878463
28978.919254,13101.645173,13942.938064,20429.683999
28978.919582,9474.636058,18845.949251,13693.809927
28978.919911,11547.212695,19305.606550,10214.842000
28978.920239,21688.034101,18156.463303,10807.006753
28978.920568,14656.077652,22982.864940,5625.565159
28978.920896,-74.020594,24515.055936,-1406.391290
28978.921225,-4515.256246,12257.527968,-7254.018232
28978.921553,-5477.523971,-2681.334243,-7772.162391
28978.921882,-12509.480420,-10572.117872,-4663.297435
28978.922210,-11695.253884,-17313.758255,-5403.503377
28978.922539,-14211.954086,-18999.168350,370.102971
28978.922867,-21317.931130,-17313.758255,7846.182985
28978.923195,-15322.262999,-16317.834107,17468.860231
28978.923524,1110.308913,-20224.921147,27831.743419
28978.923852,4737.318029,-12563.966167,30348.443622
28978.924181,5181.441594,2374.896044,24352.775492
28978.924509,13175.665768,10495.508323,20133.601622
28978.924838,13767.830521,16088.005458,16580.613101
28978.925166,11029.068536,20531.359346,11177.109724
28978.925495,18357.107362,17696.806004,9918.759623
28978.925823,16358.551318,19152.387450,6661.853478
28978.926152,1702.473667,22599.817191,-0.000000
28978.926480,-6513.812290,15551.738609,-6291.750507
28978.926809,-6069.688724,-2374.896044,-8290.306550
28978.927137,-12805.562797,-14172.766713,-6439.791695
28978.927465,-15322.262999,-19535.435199,-5847.626942
28978.927794,-14063.912898,-19612.044749,3997.112087
28978.928122,-18579.169144,-17390.367805,11547.212695
28978.928451,-16284.530724,-17160.539155,18579.169144
28978.928779,296.082377,-20607.968896,26499.372724
28978.929108,9696.697840,-13636.499864,29830.299463
28978.929436,7994.224174,4519.963438,26055.249158
28978.929765,12879.583391,14555.814462,19319.375086
28978.930093,13915.871710,16471.053207,14878.139434
28978.930422,12731.542202,17926.634653,11621.233289
28978.930750,17246.798449,18922.558801,11029.068536
28978.931078,14804.118840,19765.263848,6291.750507
28978.931407,1554.432478,20148.311597,-0.000000
28978.931735,-7105.977043,13023.623466,-7254.018232
28978.932064,-5699.585753,-1991.848295,-8586.388927
28978.932392,-11991.336260,-11261.603821,-5181.441594
28978.932721,-16580.613101,-16164.615008,-6809.894666
28978.933049,-14730.098246,-19612.044749,592.164754
28978.933378,-18135.045579,-18845.949251,10436.903782
28978.933706,-16580.613101,-15015.471761,17320.819043
28978.934035,-1480.411884,-16930.710506,24870.919651
28978.934363,7328.038826,-14402.595362,28719.990550
28978.934691,7031.956449,153.219100,24278.754898
28978.935020,12287.418637,11951.089769,19393.395680
28978.935348,12213.398043,18922.558801,17987.004391
28978.935677,11547.212695,22063.550342,12361.439231
28978.936005,19467.416275,19995.092498,11251.130318
28978.936334,19245.354492,19918.482948,6957.935855
28978.936662,4589.276840,23442.522239,-814.226536
28978.936991,-6365.771101,16854.100956,-9474.636058
28978.937319,-4589.276840,229.828649,-8808.450710
28978.937648,-9992.780217,-9576.193725,-3627.009116
28978.937976,-13915.871710,-15245.300410,-4293.194464
28978.938305,-13841.851115,-18539.511052,2146.597232
28978.938633,-20651.745782,-18922.558801,7698.141797
28978.938961,-20725.766376,-17850.025103,13693.809927
28978.939290,-2738.761985,-21144.235745,24574.837274
28978.939618,6735.874072,-14862.252661,30940.608376
28978.939947,4367.215058,2757.943793,26869.475695
28978.940275,9918.759623,11338.213370,18875.251521
28978.940604,13249.686362,13406.671215,15840.407159
28978.940932,13989.892304,19152.387450,13619.789333
28978.941261,18801.230927,22982.864940,11843.295072
28978.941589,20429.683999,21603.893044,7402.059420
28978.941918,7698.141797,19152.387450,148.041188
28978.942246,-3923.091493,13713.109414,-6587.832884
28978.942574,-3330.926739,1149.143247,-8364.327145
28978.942903,-7031.956449,-8963.317327,-3330.926739
28978.943231,-12731.542202,-17237.148705,-3404.947333
28978.943560,-13841.851115,-20837.797546,2368.659014
28978.943888,-17690.922014,-20684.578446,9326.594869
28978.944217,-17542.880825,-18003.244203,16358.551318
28978.944545,-4441.235652,-19995.092498,23982.672521
28978.944874,4885.359217,-16317.834107,29238.134709
28978.945202,5403.503377,-459.657299,25537.104999
28978.945531,9696.697840,11568.042020,20725.766376
28978.945859,10955.047942,14325.985813,15396.283594
28978.946188,11029.068536,17620.196454,11029.068536
28978.946516,17838.963202,18999.168350,10881.027347
28978.946844,16358.551318,21680.502593,6809.894666
28978.947173,4441.235652,21757.112143,-740.205942
28978.947501,-4959.379811,13330.061665,-7402.059420
28978.947830,-5403.503377,-1149.143247,-9030.512492
28978.948158,-9474.636058,-9806.022374,-3256.906145
28978.948487,-13767.830521,-14785.643111,-3627.009116
28978.948815,-15100.201217,-18616.120601,444.123565
28978.949144,-17690.922014,-19688.654299,8216.285956
28978.949472,-15174.221811,-17313.758255,16876.695478
28978.949801,-3478.967927,-15781.567259,25315.043216
28978.950129,4589.276840,-11338.213370,28275.866984
28978.950457,4737.318029,-459.657299,23834.631332
28978.950786,9622.677246,8733.488677,18875.251521
28978.951114,10732.986159,15704.957709,16580.613101
28978.951443,10140.821405,21527.283494,12731.542202
28978.951771,15692.365970,21144.235745,11399.171507
28978.952100,16580.613101,20148.311597,7698.141797
28978.952428,5033.400406,20837.797546,-296.082377
28978.952757,-4515.256246,16547.662757,-6513.812290
28978.953085,-5699.585753,2451.505594,-7624.121203
28978.953414,-9696.697840,-9652.803275,-4145.153275
28978.953742,-13619.789333,-16241.224558,-4071.132681
28978.954071,-12879.583391,-16854.100956,2146.597232
28978.954399,-16728.654289,-16624.272307,8808.450710
28978.954728,-16728.654289,-15858.176809,15322.262999
28978.955056,-3849.070898,-18386.291952,24204.734303
28978.955385,6291.750507,-14709.033562,29090.093521
28978.955713,7698.141797,383.047749,25537.104999
28978.956042,10140.821405,10878.556072,18949.272115
28978.956370,10807.006753,15934.786358,15248.242405
28978.956699,13175.665768,19458.825649,12139.377449
28978.957027,20281.642811,21144.235745,12583.501014
28978.957355,17764.942608,21527.283494,7179.997637
28978.957684,6217.729913,20531.359346,-814.226536
28978.958012,-2516.700203,14249.376263,-7105.977043
28978.958341,-4219.173869,1302.362347,-8438.347739
28978.958669,-8290.306550,-8427.050478,-2960.823768
28978.958998,-12731.542202,-16241.224558,-2960.823768
28978.959326,-14434.015869,-20301.530697,-518.144159
28978.959655,-17616.901420,-20071.702048,7402.059420
28978.959983,-16950.716072,-18233.072852,16876.695478
28978.960312,-5403.503377,-18539.511052,25018.960840
28978.960640,3182.885551,-15858.176809,28719.990550
28978.960969,5699.585753,-3753.867940,25315.043216
28978.961297,10584.944971,8810.098227,20503.704593
28978.961626,11991.336260,16930.710506,16062.468941
28978.961954,10288.862594,19688.654299,9622.677246
28978.962283,17690.922014,17160.539155,9992.780217
28978.962611,16876.695478,18462.901502,9252.574275
28978.962940,4811.338623,21986.940793,518.144159
28978.963268,-4663.297435,15015.471761,-6217.729913
28978.963597,-6883.915261,-2834.553343,-8734.430116
28978.963925,-11695.253884,-12334.137518,-4515.256246
28978.964254,-13545.768739,-16088.005458,-1036.288319
28978.964582,-13323.706956,-18156.463303,3627.009116
28978.964911,-18505.148550,-18769.339701,8882.471304
28978.965239,-17468.860231,-18845.949251,15692.365970
28978.965568,-3775.050304,-17696.806004,23834.631332
28978.965896,5921.647536,-10572.117872,27831.743419
28978.966225,6439.791695,2604.724693,24870.919651
28978.966553,10066.800811,9806.022374,17690.922014
28978.966882,12287.418637,14709.033562,15026.180623
28978.967210,11547.212695,21067.626195,11843.295072
28978.967538,15988.448347,21067.626195,11103.089130
28978.967867,15026.180623,19765.263848,7476.080014
28978.968195,4737.318029,18845.949251,666.185348
28978.968524,-4737.318029,13253.452115,-5773.606348
28978.968852,-6513.812290,1762.019645,-6735.874072
28978.969181,-11251.130318,-8733.488677,-2812.782580
28978.969509,-13989.892304,-16241.224558,-3849.070898
28978.969838,-12509.480420,-19152.387450,2442.679609
28978.970166,-16358.551318,-17466.977354,9844.739029
28978.970495,-16284.530724,-14019.547613,15248.242405
28978.970823,-3108.864956,-16164.615008,23020.404796
28978.971152,5699.585753,-13483.280765,27239.578666
28978.971480,7772.162391,0.000000,24204.734303
28978.971809,11547.212695,11951.089769,18875.251521
28978.972137,11251.130318,18156.463303,13471.748144
28978.972466,12287.418637,20914.407095,9104.533087
28978.972794,20947.828159,19918.482948,10584.944971
28978.973123,17764.942608,21374.064394,7476.080014
28978.973451,5329.482782,22293.378992,-222.061783
28978.973780,-2664.741391,13942.938064,-6143.709319
28978.974108,-2886.803174,-229.828649,-6513.812290
28978.974437,-7994.224174,-8350.440928,-2294.638420
28978.974765,-11177.109724,-13559.890315,-1998.556043
28978.975094,-12287.418637,-18233.072852,2442.679609
28978.975422,-17838.963202,-19228.997000,7994.224174
28978.975751,-17172.777854,-17237.148705,15100.201217
28978.976079,-3108.864956,-18309.682402,24796.899057
28978.976408,2960.823768,-12487.356617,29978.340651
28978.976736,2368.659014,-459.657299,24574.837274
28978.977065,9696.697840,6588.421283,18209.066173
28978.977393,11991.336260,13636.499864,15248.242405
28978.977722,8734.430116,21220.845295,11473.192101
28978.978050,15766.386565,19841.873398,8512.368333
28978.978378,17838.963202,16088.005458,7624.121203
28978.978707,5107.421000,19612.044749,2516.700203
28978.979035,-4663.297435,16011.395908,-3701.029710
28978.979364,-4145.153275,-536.266849,-6957.935855
28978.979692,-9474.636058,-11644.651570,-4219.173869
28978.980021,-12953.603985,-17390.367805,-2738.761985
28978.980349,-11029.068536,-18156.463303,3552.988522
28978.980678,-16580.613101,-16777.491406,10066.800811
28978.981006,-17987.004391,-16164.615008,15100.201217
28978.981335,-4515.256246,-19305.606550,24130.713709
28978.981663,5625.565159,-13559.890315,29756.278868
28978.981992,4441.235652,1302.362347,24426.796086
28978.982320,7994.224174,9806.022374,16654.633695
28978.982649,11695.253884,10801.946522,13397.727550
28978.982977,9696.697840,18156.463303,11473.192101
28978.983306,15396.283594,21603.893044,10214.842000
28978.983634,17912.983796,19841.873398,7920.203579
28978.983963,7031.956449,17620.196454,1332.370696
28978.984291,-4071.132681,13176.842566,-5699.585753
28978.984620,-3478.967927,1455.581446,-8290.306550
28978.984948,-7698.141797,-7967.393179,-2590.720797
28978.985277,-14063.912898,-13942.938064,-2368.659014
28978.985605,-11843.295072,-19075.777900,2146.597232
28978.985934,-14582.057057,-19612.044749,10658.965565
28978.986262,-17468.860231,-15398.519510,15396.283594
28978.986591,-7105.977043,-15245.300410,23168.445985
28978.986919,4589.276840,-14632.424012,29090.093521
28978.987248,3775.050304,-1915.238745,24796.899057
28978.987576,7920.203579,8963.317327,16358.551318
28978.987905,11843.295072,14096.157163,12953.603985
28978.988233,9104.533087,20684.578446,9400.615463
28978.988561,15988.448347,23902.179538,7698.141797
28978.988890,20725.766376,22063.550342,8290.306550
28978.989218,9474.636058,21144.235745,1850.514855
28978.989547,-5107.421000,16241.224558,-6217.729913
28978.989875,-3552.988522,1762.019645,-7772.162391
28978.990204,-6439.791695,-8656.879127,-1184.329507
28978.990532,-11843.295072,-13253.452115,-1184.329507
28978.990861,-10584.944971,-18462.901502,5255.462188
28978.991189,-14434.015869,-19765.263848,10066.800811
28978.991518,-18283.086767,-17160.539155,15322.262999
28978.991846,-6069.688724,-16471.053207,24278.754898
28978.992175,6809.894666,-13559.890315,29978.340651
28978.992503,3701.029710,1149.143247,25315.043216
