#time,accel_x,accel_y,accel_z
5317.312865,-1776.494261,1455.581446,10362.883188
5317.313187,-2146.597232,1378.971896,9326.594869
5317.313510,-2072.576638,2987.772442,9474.636058
5317.313832,-1924.535449,2528.115143,9918.759623
5317.314155,-666.185348,2911.162892,9622.677246
5317.314477,1258.350101,3677.258390,7994.224174
5317.314800,222.061783,3753.867940,7105.977043
5317.315122,-518.144159,3294.210641,7476.080014
5317.315445,-370.102971,2834.553343,8364.327145
5317.315767,222.061783,2451.505594,7328.038826
5317.316090,518.144159,2834.553343,6587.832884
5317.316412,-296.082377,1762.019645,7994.224174
5317.316735,-148.041188,1302.362347,9622.677246
5317.317057,740.205942,1838.629195,9696.697840
5317.317379,1184.329507,2221.676944,9622.677246
5317.317702,1036.288319,1915.238745,9474.636058
5317.318024,1110.308913,1608.800546,11103.089130
5317.318347,2294.638420,1072.533697,11103.089130
5317.318669,3997.112087,2604.724693,10214.842000
5317.318992,2738.761985,2451.505594,9400.615463
5317.319314,2220.617826,1685.410096,10807.006753
5317.319637,2294.638420,1532.190996,11029.068536
5317.319959,2886.803174,1685.410096,10140.821405
5317.320282,3627.009116,2528.115143,9326.594869
5317.320604,2294.638420,1149.143247,10288.862594
5317.320927,1998.556043,1225.752797,10732.986159
5317.321249,2664.741391,1838.629195,10140.821405
5317.321572,3627.009116,2068.457845,9548.656652
5317.321894,3330.926739,2451.505594,9696.697840
5317.322217,2664.741391,2528.115143,10732.986159
5317.322539,3997.112087,2528.115143,10584.944971
5317.322861,4811.338623,3370.820191,8660.409521
5317.323184,4219.173869,3830.477490,8512.368333
5317.323506,4737.318029,3447.429741,9548.656652
5317.323829,4663.297435,4136.915689,9400.615463
5317.324151,5181.441594,5056.230287,8290.306550
5317.324474,5181.441594,5286.058936,7624.121203
5317.324796,3627.009116,4366.744339,8512.368333
5317.325119,3330.926739,4366.744339,8660.409521
5317.325441,3552.988522,4443.353888,8438.347739
5317.325764,2664.741391,4673.182538,8216.285956
5317.326086,1554.432478,4366.744339,8660.409521
5317.326409,814.226536,3447.429741,9474.636058
5317.326731,1702.473667,3524.039291,8956.491898
5317.327054,2294.638420,4749.792088,7772.162391
5317.327376,1998.556043,5056.230287,8068.244768
5317.327699,2368.659014,4826.401637,9030.512492
5317.328021,3108.864956,5745.716235,9030.512492
5317.328343,4071.132681,6281.983084,7994.224174
5317.328666,3108.864956,5975.544884,8364.327145
5317.328988,1480.411884,5056.230287,9326.594869
5317.329311,740.205942,4749.792088,9770.718434
5317.329633,1036.288319,4673.182538,9326.594869
5317.329956,-370.102971,3600.648841,8882.471304
5317.330278,-1332.370696,3294.210641,9326.594869
5317.330601,-740.205942,2757.943793,9844.739029
5317.330923,1110.308913,2757.943793,9252.574275
5317.331246,0.000000,3064.381992,8586.388927
5317.331568,-666.185348,2221.676944,8586.388927
5317.331891,-296.082377,1838.629195,9918.759623
5317.332213,-370.102971,1915.238745,9992.780217
5317.332536,0.000000,1991.848295,9844.739029
5317.332858,-740.205942,1455.581446,10436.903782
5317.333180,-1258.350101,1149.143247,11473.192101
5317.333503,-222.061783,842.705048,10807.006753
5317.333825,296.082377,1455.581446,9400.615463
5317.334148,1776.494261,1455.581446,8364.327145
5317.334470,2294.638420,1685.410096,8660.409521
5317.334793,4293.194464,1991.848295,9104.533087
5317.335115,5551.544565,2298.286494,8956.491898
5317.335438,4589.276840,2451.505594,8364.327145
5317.335760,4441.235652,1225.752797,9918.759623
5317.336083,3552.988522,0.000000,10807.006753
5317.336405,3034.844362,383.047749,10658.965565
5317.336728,2220.617826,-229.828649,11325.150913
5317.337048,-444.123565,-1302.362347,11251.130318
5317.337371,-1110.308913,-1838.629195,11103.089130
5317.337693,0.000000,-1149.143247,9400.615463
5317.338016,1480.411884,766.095498,8068.244768
5317.338339,2886.803174,2374.896044,8142.265362
5317.338661,4737.318029,3294.210641,9400.615463
5317.338984,6513.812290,4213.525239,7846.182985
5317.339306,6735.874072,4903.011187,7254.018232
5317.339629,6217.729913,4443.353888,7994.224174
5317.339951,4367.215058,3600.648841,10584.944971
5317.340274,1924.535449,2451.505594,11695.253884
5317.340596,1110.308913,1762.019645,11177.109724
5317.340919,740.205942,919.314598,10362.883188
5317.341242,-814.226536,459.657299,10140.821405
5317.341564,-1258.350101,1378.971896,9918.759623
5317.341887,-296.082377,2145.067394,8512.368333
5317.342209,1406.391290,3524.039291,7105.977043
5317.342532,2590.720797,4903.011187,6513.812290
5317.342854,2442.679609,5132.839837,7772.162391
5317.343177,3404.947333,6281.983084,8068.244768
5317.343500,3849.070898,7431.126331,7179.997637
5317.343822,2960.823768,6128.763984,8586.388927
5317.344145,2664.741391,6358.592633,10436.903782
5317.344467,1480.411884,5056.230287,11843.295072
5317.344790,1036.288319,4366.744339,10584.944971
5317.345112,-296.082377,3294.210641,9696.697840
5317.345435,-1998.556043,2068.457845,10140.821405
5317.345757,-2590.720797,1302.362347,9252.574275
5317.346080,-1406.391290,2451.505594,7846.182985
5317.346403,-444.123565,2374.896044,6365.771101
5317.346725,-296.082377,3217.601092,6957.935855
5317.347048,-222.061783,3524.039291,7698.141797
5317.347370,2368.659014,4136.915689,7402.059420
5317.347693,2738.761985,4596.572988,7846.182985
5317.348015,1258.350101,4749.792088,9252.574275
5317.348338,740.205942,3370.820191,11991.336260
5317.348660,148.041188,1532.190996,11029.068536
5317.348983,0.000000,1838.629195,10362.883188
5317.349306,-1480.411884,919.314598,10658.965565
5317.349628,-2738.761985,-459.657299,10955.047942
5317.349951,-1036.288319,-995.924147,9696.697840
5317.350273,-1332.370696,-766.095498,7846.182985
5317.350596,-1850.514855,-1072.533697,7105.977043
5317.350918,-1554.432478,-1455.581446,7105.977043
5317.351241,518.144159,-459.657299,8290.306550
5317.351563,2590.720797,689.485948,8142.265362
5317.351886,1628.453072,1455.581446,8734.430116
5317.352209,1702.473667,919.314598,10214.842000
5317.352531,2516.700203,536.266849,11917.315666
5317.352854,1628.453072,-306.438199,11621.233289
5317.353176,814.226536,-536.266849,10807.006753
5317.353499,444.123565,-1532.190996,11399.171507
5317.353821,-592.164754,-2221.676944,11029.068536
5317.354144,-296.082377,-2068.457845,10436.903782
5317.354467,0.000000,-1608.800546,8808.450710
5317.354789,296.082377,-1149.143247,8290.306550
5317.355112,-1036.288319,-2221.676944,8734.430116
5317.355434,-296.082377,-1685.410096,8438.347739
5317.355757,1480.411884,-919.314598,7698.141797
5317.356079,1036.288319,76.609550,8290.306550
5317.356402,-222.061783,-383.047749,10658.965565
5317.356724,-1480.411884,-1302.362347,11251.130318
5317.357047,-592.164754,-229.828649,10732.986159
5317.357370,-1110.308913,0.000000,10140.821405
5317.357692,-2738.761985,-1915.238745,10881.027347
5317.358015,-2442.679609,-1838.629195,10881.027347
5317.358337,-1924.535449,-1302.362347,10066.800811
5317.358660,-1924.535449,-766.095498,8364.327145
5317.358982,-2146.597232,-1225.752797,7994.224174
5317.359305,-2442.679609,-995.924147,8438.347739
5317.359627,-1110.308913,-995.924147,8586.388927
5317.359950,444.123565,153.219100,7698.141797
5317.360273,592.164754,612.876398,7846.182985
5317.360595,1036.288319,1225.752797,10288.862594
5317.360918,444.123565,1455.581446,11399.171507
5317.361240,1184.329507,1762.019645,10658.965565
5317.361563,1850.514855,2068.457845,9918.759623
5317.361885,-148.041188,1455.581446,11547.212695
5317.362208,-444.123565,842.705048,10732.986159
5317.362531,518.144159,1149.143247,10066.800811
5317.362853,444.123565,1302.362347,8808.450710
5317.363176,-1554.432478,1072.533697,8142.265362
5317.363498,-1776.494261,383.047749,7624.121203
5317.363821,-296.082377,766.095498,7105.977043
5317.364143,-296.082377,1455.581446,5995.668130
5317.364466,0.000000,919.314598,6365.771101
5317.364788,370.102971,1838.629195,7846.182985
5317.365111,888.247130,3140.991542,8956.491898
5317.365434,1776.494261,3370.820191,8956.491898
5317.365756,1554.432478,3294.210641,9548.656652
5317.366079,1110.308913,2834.553343,10658.965565
5317.366401,1480.411884,2451.505594,11547.212695
5317.366724,888.247130,2145.067394,10732.986159
5317.367046,1036.288319,1838.629195,9178.553681
5317.367369,592.164754,689.485948,9992.780217
5317.367691,-296.082377,306.438199,9178.553681
5317.368014,444.123565,76.609550,7846.182985
5317.368337,0.000000,536.266849,6957.935855
5317.368659,-296.082377,536.266849,8068.244768
5317.368982,-962.267725,459.657299,7920.203579
5317.369304,222.061783,842.705048,7179.997637
5317.369627,1850.514855,1762.019645,7772.162391
5317.369949,0.000000,1991.848295,8808.450710
5317.370272,-518.144159,1532.190996,10214.842000
5317.370594,148.041188,1378.971896,10584.944971
5317.370917,-1036.288319,1225.752797,10658.965565
5317.371240,-1924.535449,76.609550,10436.903782
5317.371562,-2220.617826,-1149.143247,11325.150913
5317.371885,-888.247130,-1302.362347,10584.944971
5317.372207,-1332.370696,-1072.533697,9474.636058
5317.372530,-2590.720797,-1685.410096,8734.430116
5317.372852,-1554.432478,-1915.238745,8808.450710
5317.373175,-2146.597232,-1838.629195,8734.430116
5317.373498,-888.247130,-1149.143247,7772.162391
5317.373820,1258.350101,0.000000,7920.203579
5317.374143,1184.329507,1072.533697,9252.574275
5317.374465,518.144159,229.828649,11251.130318
5317.374788,666.185348,229.828649,10807.006753
5317.375110,444.123565,0.000000,11029.068536
5317.375433,-222.061783,0.000000,11547.212695
5317.375755,-2368.659014,-919.314598,12583.501014
5317.376078,-74.020594,-2068.457845,10807.006753
5317.376401,74.020594,-1302.362347,10140.821405
5317.376723,-2146.597232,-1838.629195,8956.491898
5317.377046,-2516.700203,-2834.553343,9474.636058
5317.377368,-2368.659014,-2604.724693,8216.285956
5317.377691,-1258.350101,-1608.800546,8068.244768
5317.378013,-592.164754,-766.095498,7105.977043
5317.378336,-740.205942,-1225.752797,7698.141797
5317.378658,740.205942,0.000000,9252.574275
5317.378981,1036.288319,1455.581446,9104.533087
5317.379304,1258.350101,1838.629195,9326.594869
5317.379626,1998.556043,1915.238745,9622.677246
5317.379949,1258.350101,1302.362347,11177.109724
5317.380271,1406.391290,1072.533697,9844.739029
5317.380594,1184.329507,766.095498,9252.574275
5317.380916,222.061783,689.485948,8808.450710
5317.381239,-370.102971,-689.485948,9030.512492
5317.381561,-888.247130,-536.266849,8364.327145
5317.381884,-222.061783,229.828649,7402.059420
5317.382207,-814.226536,766.095498,7698.141797
5317.382529,-1776.494261,459.657299,8216.285956
5317.382852,0.000000,1225.752797,8216.285956
5317.383174,1332.370696,2451.505594,9252.574275
5317.383497,518.144159,3677.258390,9770.718434
5317.383819,444.123565,2681.334243,11103.089130
5317.384142,962.267725,2604.724693,11029.068536
5317.384465,962.267725,2604.724693,10436.903782
5317.384787,-1406.391290,1608.800546,9326.594869
5317.385110,-2072.576638,612.876398,9326.594869
5317.385432,-592.164754,1532.190996,9252.574275
5317.385755,-1332.370696,612.876398,7994.224174
5317.386077,-814.226536,612.876398,7476.080014
5317.386400,-1702.473667,536.266849,7624.121203
5317.386722,-1776.494261,306.438199,8216.285956
5317.387045,-888.247130,1302.362347,8660.409521
5317.387368,888.247130,2528.115143,7402.059420
5317.387690,1628.453072,2681.334243,9474.636058
5317.388013,814.226536,2987.772442,10658.965565
5317.388335,1036.288319,2528.115143,11029.068536
5317.388658,2220.617826,2221.676944,9918.759623
5317.388980,0.000000,1838.629195,9844.739029
5317.389303,-888.247130,0.000000,10732.986159
5317.389625,-1480.411884,-766.095498,10066.800811
5317.389948,0.000000,-766.095498,8734.430116
5317.390271,-296.082377,229.828649,7920.203579
5317.390593,-2146.597232,-1225.752797,8290.306550
5317.390916,-1554.432478,-1685.410096,8438.347739
5317.391238,-888.247130,-919.314598,8142.265362
5317.391561,-222.061783,-76.609550,8216.285956
5317.391883,1184.329507,536.266849,8660.409521
5317.392206,1110.308913,842.705048,11103.089130
5317.392528,2294.638420,2068.457845,11769.274478
5317.392851,3775.050304,1915.238745,10066.800811
5317.393174,2146.597232,1302.362347,10214.842000
5317.393496,1776.494261,1072.533697,11621.233289
5317.393819,0.000000,0.000000,11399.171507
5317.394141,1036.288319,-153.219100,8512.368333
5317.394464,1480.411884,0.000000,8734.430116
5317.394786,-2516.700203,-995.924147,8956.491898
5317.395109,-1924.535449,-1608.800546,8808.450710
5317.395432,-814.226536,-919.314598,7994.224174
5317.395754,-1480.411884,383.047749,8142.265362
5317.396077,-1776.494261,0.000000,8290.306550
5317.396399,-814.226536,0.000000,8586.388927
5317.396722,1480.411884,2451.505594,8882.471304
5317.397044,1554.432478,3370.820191,8364.327145
5317.397367,222.061783,2987.772442,9178.553681
5317.397689,1406.391290,2145.067394,10214.842000
5317.398012,444.123565,1915.238745,10436.903782
5317.398335,-518.144159,1532.190996,9770.718434
5317.398657,-962.267725,766.095498,9548.656652
5317.398980,-2146.597232,-766.095498,9992.780217
5317.399302,-2220.617826,-536.266849,9548.656652
5317.399625,-2516.700203,-766.095498,8438.347739
5317.399947,-2072.576638,0.000000,8364.327145
5317.400270,-2146.597232,766.095498,8808.450710
5317.400592,-2146.597232,689.485948,9030.512492
5317.400915,814.226536,1608.800546,7476.080014
5317.401238,1554.432478,2911.162892,7846.182985
5317.401560,740.205942,2987.772442,8956.491898
5317.401883,592.164754,2987.772442,11251.130318
5317.402205,666.185348,2221.676944,10214.842000
5317.402528,74.020594,2068.457845,10140.821405
5317.402850,-1628.453072,459.657299,9918.759623
5317.403173,-2590.720797,-612.876398,10510.924376
5317.403496,-296.082377,0.000000,10510.924376
5317.403818,-1628.453072,0.000000,8882.471304
5317.404141,-1850.514855,-383.047749,7846.182985
5317.404463,-1850.514855,-1302.362347,8364.327145
5317.404786,-888.247130,0.000000,8364.327145
5317.405108,814.226536,842.705048,7994.224174
5317.405431,1702.473667,1608.800546,7031.956449
5317.405753,2294.638420,2451.505594,9400.615463
5317.406076,2368.659014,3294.210641,10807.006753
5317.406399,2146.597232,2604.724693,9992.780217
5317.406721,2442.679609,2604.724693,8956.491898
5317.407044,814.226536,1455.581446,10214.842000
5317.407366,-1258.350101,-153.219100,10807.006753
5317.407689,-592.164754,-689.485948,9992.780217
5317.408011,-370.102971,0.000000,9030.512492
5317.408334,-1480.411884,-459.657299,8808.450710
5317.408656,-2368.659014,-1225.752797,8512.368333
5317.408979,-592.164754,-1072.533697,7550.100608
5317.409302,1332.370696,459.657299,7920.203579
5317.409624,370.102971,1072.533697,7846.182985
5317.409947,1184.329507,842.705048,9400.615463
5317.410269,2294.638420,1685.410096,9178.553681
5317.410592,2368.659014,2298.286494,10362.883188
5317.410914,1924.535449,2298.286494,9548.656652
5317.411237,592.164754,1532.190996,10066.800811
5317.411559,74.020594,766.095498,11177.109724
5317.411882,-1554.432478,-229.828649,11103.089130
5317.412205,-1924.535449,-995.924147,9770.718434
5317.412527,-2220.617826,-995.924147,8956.491898
5317.412850,-2812.782580,-1225.752797,9844.739029
5317.413172,-2294.638420,-1762.019645,8290.306550
5317.413495,-2072.576638,-612.876398,7550.100608
5317.413817,-1628.453072,-689.485948,7698.141797
5317.414140,-1850.514855,-383.047749,9178.553681
5317.414463,-1184.329507,-229.828649,8882.471304
5317.414785,1110.308913,1608.800546,9474.636058
5317.415108,888.247130,1991.848295,10214.842000
5317.415430,-666.185348,1378.971896,11473.192101
5317.415753,74.020594,153.219100,11843.295072
5317.416075,74.020594,306.438199,10955.047942
5317.416398,-1776.494261,-689.485948,9696.697840
5317.416720,-2590.720797,-2068.457845,9992.780217
5317.417043,-1332.370696,-1608.800546,9474.636058
5317.417366,-814.226536,-919.314598,8956.491898
5317.417688,-888.247130,-1225.752797,7179.997637
5317.418011,-962.267725,-1532.190996,6957.935855
5317.418333,-962.267725,-766.095498,7920.203579
5317.418656,-148.041188,306.438199,8734.430116
5317.418978,1998.556043,1072.533697,8216.285956
5317.419301,2664.741391,1838.629195,9104.533087
5317.419623,1480.411884,2145.067394,11251.130318
5317.419946,1184.329507,1838.629195,11251.130318
5317.420269,1702.473667,1149.143247,10955.047942
5317.420591,1036.288319,459.657299,9844.739029
5317.420914,-518.144159,0.000000,10584.944971
5317.421236,-370.102971,-1149.143247,10066.800811
5317.421559,592.164754,-229.828649,8734.430116
5317.421881,-518.144159,76.609550,7920.203579
5317.422204,-740.205942,-459.657299,7476.080014
5317.422526,-296.082377,-766.095498,7476.080014
5317.422849,814.226536,842.705048,7254.018232
5317.423172,1110.308913,1762.019645,7624.121203
5317.423494,1184.329507,1915.238745,8364.327145
5317.423817,1998.556043,2451.505594,10066.800811
5317.424139,2072.576638,3524.039291,10732.986159
5317.424462,1184.329507,3983.696590,10140.821405
5317.424784,1110.308913,2374.896044,10214.842000
5317.425107,296.082377,2451.505594,11251.130318
5317.425430,-370.102971,766.095498,10140.821405
5317.425752,-888.247130,76.609550,8734.430116
5317.426075,-1036.288319,383.047749,8068.244768
5317.426397,-2146.597232,76.609550,8364.327145
5317.426720,-3404.947333,-306.438199,7550.100608
5317.427042,-1998.556043,459.657299,7105.977043
5317.427365,-1554.432478,153.219100,6957.935855
5317.427687,-2590.720797,842.705048,7920.203579
5317.428010,-1110.308913,1302.362347,8734.430116
5317.428333,444.123565,2145.067394,9474.636058
5317.428655,0.000000,2987.772442,10214.842000
5317.428978,222.061783,2681.334243,10584.944971
5317.429300,1480.411884,1838.629195,10732.986159
5317.429623,296.082377,1762.019645,11029.068536
5317.429945,0.000000,1072.533697,10510.924376
5317.430268,-1628.453072,-1302.362347,9918.759623
5317.430590,-1258.350101,-1149.143247,9474.636058
5317.430913,-2220.617826,-1225.752797,9252.574275
5317.431236,-2368.659014,-1762.019645,8808.450710
5317.431558,-2738.761985,-1608.800546,8142.265362
5317.431881,-2812.782580,-2145.067394,7772.162391
5317.432203,-1850.514855,-1378.971896,8586.388927
5317.432526,-1036.288319,-306.438199,8068.244768
5317.432848,592.164754,919.314598,8364.327145
5317.433171,1110.308913,1455.581446,10732.986159
5317.433493,1480.411884,1455.581446,11399.171507
5317.433816,3256.906145,1149.143247,10658.965565
5317.434139,2294.638420,919.314598,10955.047942
5317.434461,-222.061783,-1149.143247,11177.109724
5317.434784,-296.082377,-2298.286494,11325.150913
5317.435106,0.000000,-2374.896044,10066.800811
5317.435429,-296.082377,-1685.410096,9252.574275
5317.435751,-1776.494261,-2528.115143,8586.388927
5317.436074,-1702.473667,-2681.334243,8068.244768
5317.436397,74.020594,-1302.362347,8512.368333
5317.436719,444.123565,0.000000,7105.977043
5317.437042,1036.288319,536.266849,7698.141797
5317.437364,1924.535449,1608.800546,9030.512492
5317.437687,2812.782580,2911.162892,10436.903782
5317.438009,3256.906145,3294.210641,9474.636058
5317.438332,2590.720797,2604.724693,9770.718434
5317.438654,888.247130,536.266849,10584.944971
5317.438977,-444.123565,0.000000,11621.233289
5317.439300,-962.267725,-689.485948,9918.759623
5317.439622,-1036.288319,-919.314598,8956.491898
5317.439945,-2590.720797,-1149.143247,9178.553681
5317.440267,-4219.173869,-2221.676944,9104.533087
5317.440590,-2368.659014,-1149.143247,8660.409521
5317.440912,-740.205942,0.000000,7698.141797
5317.441235,-814.226536,842.705048,7846.182985
5317.441557,0.000000,1685.410096,8882.471304
5317.441880,2368.659014,3064.381992,8956.491898
5317.442202,3256.906145,4749.792088,9104.533087
5317.442525,1628.453072,4136.915689,9474.636058
5317.442847,1258.350101,2987.772442,11251.130318
5317.443170,1332.370696,2757.943793,11251.130318
5317.443492,74.020594,1915.238745,10436.903782
5317.443815,-666.185348,612.876398,9474.636058
5317.444137,-2886.803174,-689.485948,9474.636058
5317.444460,-3775.050304,-1149.143247,9474.636058
5317.444782,-3034.844362,-1378.971896,8068.244768
5317.445105,-2516.700203,-1149.143247,6883.915261
5317.445427,-1258.350101,689.485948,7031.956449
5317.445750,-1184.329507,766.095498,8290.306550
5317.446072,962.267725,2068.457845,8586.388927
5317.446395,3478.967927,3370.820191,8068.244768
5317.446717,2294.638420,3983.696590,9622.677246
5317.447040,2072.576638,3524.039291,11473.192101
5317.447362,1702.473667,2911.162892,11695.253884
5317.447685,2072.576638,2528.115143,10362.883188
5317.448007,148.041188,995.924147,9696.697840
5317.448330,-1776.494261,-1072.533697,10436.903782
5317.448652,-2146.597232,-1608.800546,9844.739029
5317.448975,-1406.391290,-1608.800546,8290.306550
5317.449297,-2294.638420,-1838.629195,7624.121203
5317.449620,-2220.617826,-2068.457845,6957.935855
5317.449942,-1406.391290,-536.266849,8660.409521
5317.450265,-296.082377,153.219100,8290.306550
5317.450587,1998.556043,842.705048,7550.100608
5317.450910,2368.659014,1915.238745,7994.224174
5317.451232,3404.947333,3064.381992,11177.109724
5317.451555,2590.720797,3294.210641,11843.295072
5317.451877,2812.782580,2987.772442,11177.109724
5317.452200,2442.679609,1685.410096,10807.006753
5317.452522,-370.102971,0.000000,10881.027347
5317.452845,-1110.308913,-1149.143247,10881.027347
5317.453167,-296.082377,-766.095498,9696.697840
5317.453490,-666.185348,-766.095498,8364.327145
5317.453812,-2442.679609,-1838.629195,8808.450710
5317.454135,-1850.514855,-2374.896044,7846.182985
5317.454457,0.000000,-919.314598,7254.018232
5317.454780,74.020594,153.219100,6957.935855
5317.455102,222.061783,995.924147,8808.450710
5317.455425,1406.391290,1915.238745,9622.677246
5317.455747,1998.556043,2987.772442,10510.924376
5317.456070,1776.494261,3524.039291,11103.089130
5317.456392,666.185348,2604.724693,11399.171507
5317.456715,-1184.329507,1762.019645,11917.315666
5317.457037,-1924.535449,1455.581446,10510.924376
5317.457360,-2516.700203,-306.438199,9622.677246
5317.457682,-2146.597232,0.000000,8808.450710
5317.458005,-3256.906145,-842.705048,8142.265362
5317.458327,-3330.926739,-1762.019645,8438.347739
5317.458650,-2664.741391,-1455.581446,6661.853478
5317.458972,-2590.720797,-689.485948,6291.750507
5317.459295,-2516.700203,0.000000,7476.080014
5317.459617,-1406.391290,-459.657299,8068.244768
5317.459940,222.061783,1532.190996,8808.450710
5317.460262,1776.494261,3600.648841,9104.533087
5317.460585,518.144159,2681.334243,10362.883188
5317.460907,1184.329507,2451.505594,10584.944971
5317.461230,1184.329507,2298.286494,11399.171507
5317.461552,0.000000,1685.410096,10807.006753
5317.461875,0.000000,229.828649,10288.862594
5317.462197,0.000000,-383.047749,9992.780217
5317.462520,0.000000,-689.485948,8956.491898
5317.462842,-1036.288319,-689.485948,8438.347739
5317.463165,-1258.350101,-1072.533697,7698.141797
5317.463487,-444.123565,-766.095498,7624.121203
5317.463810,-740.205942,-306.438199,8660.409521
5317.464132,1554.432478,1455.581446,8512.368333
5317.464455,3034.844362,2145.067394,8660.409521
5317.464777,1998.556043,3370.820191,10362.883188
5317.465100,2220.617826,3064.381992,11029.068536
5317.465422,2072.576638,2528.115143,10732.986159
5317.465745,1110.308913,2528.115143,10362.883188
5317.466067,-370.102971,1685.410096,10807.006753
5317.466390,-1332.370696,-536.266849,10510.924376
5317.466712,-518.144159,-689.485948,9252.574275
5317.467035,-1924.535449,-612.876398,8290.306550
5317.467357,-3256.906145,-1378.971896,7994.224174
5317.467680,-3256.906145,-2298.286494,7920.203579
5317.468002,-2442.679609,-1225.752797,7402.059420
5317.468325,-1184.329507,0.000000,7105.977043
5317.468647,-1110.308913,0.000000,7031.956449
5317.468970,888.247130,1072.533697,8216.285956
5317.469292,2442.679609,2757.943793,9992.780217
5317.469615,2146.597232,2987.772442,10066.800811
5317.469937,1998.556043,2911.162892,10214.842000
5317.470260,2294.638420,2604.724693,11769.274478
5317.470582,592.164754,1685.410096,11769.274478
5317.470905,666.185348,-459.657299,10066.800811
5317.471227,444.123565,-459.657299,9104.533087
5317.471550,-370.102971,-383.047749,8660.409521
5317.471872,-1998.556043,-1378.971896,8586.388927
5317.472195,-1850.514855,-1762.019645,7994.224174
5317.472517,-1110.308913,-1225.752797,7476.080014
5317.472840,-1554.432478,-766.095498,7920.203579
5317.473162,-1406.391290,-383.047749,8512.368333
5317.473485,814.226536,1149.143247,9030.512492
5317.473807,1110.308913,2068.457845,9844.739029
5317.474130,0.000000,2068.457845,10807.006753
5317.474452,518.144159,1762.019645,12361.439231
5317.474775,444.123565,1302.362347,11621.233289
5317.475097,-592.164754,689.485948,10658.965565
5317.475420,-1554.432478,-919.314598,10066.800811
5317.475742,-1554.432478,-1455.581446,9918.759623
5317.476065,-2146.597232,-1302.362347,8660.409521
5317.476387,-2146.597232,-1915.238745,7254.018232
5317.476710,-2294.638420,-2145.067394,7402.059420
5317.477032,-2368.659014,-1455.581446,7105.977043
5317.477355,-1554.432478,-1149.143247,8586.388927
5317.477677,74.020594,-229.828649,7846.182985
5317.478000,1406.391290,1608.800546,8364.327145
5317.478322,1998.556043,2145.067394,9252.574275
5317.478644,1406.391290,2757.943793,11695.253884
5317.478967,3552.988522,2834.553343,10881.027347
5317.479289,3256.906145,2374.896044,10807.006753
5317.479612,666.185348,1149.143247,10658.965565
5317.479934,222.061783,229.828649,11029.068536
5317.480257,222.061783,-995.924147,9844.739029
5317.480579,74.020594,76.609550,9178.553681
5317.480902,-1702.473667,-229.828649,7624.121203
5317.481224,-3256.906145,-1915.238745,7476.080014
5317.481547,-1776.494261,-995.924147,7179.997637
5317.481869,-1258.350101,-153.219100,6883.915261
5317.482192,-962.267725,459.657299,7328.038826
5317.482514,296.082377,1072.533697,8068.244768
5317.482837,740.205942,2068.457845,10436.903782
5317.483159,1628.453072,3294.210641,10288.862594
5317.483482,1036.288319,3140.991542,9696.697840
5317.483804,-148.041188,2145.067394,10510.924376
5317.484127,-1184.329507,1455.581446,12139.377449
5317.484449,-2220.617826,306.438199,10288.862594
5317.484772,-666.185348,383.047749,8512.368333
5317.485094,-1776.494261,153.219100,8882.471304
5317.485417,-3849.070898,-1149.143247,9252.574275
5317.485739,-2664.741391,-2221.676944,7624.121203
5317.486062,-1850.514855,-612.876398,7402.059420
5317.486384,-1332.370696,383.047749,7846.182985
5317.486707,-1036.288319,76.609550,8956.491898
5317.487029,1110.308913,1072.533697,9622.677246
5317.487352,4145.153275,2757.943793,9400.615463
5317.487674,2664.741391,3370.820191,9252.574275
5317.487997,1776.494261,2911.162892,10807.006753
5317.488319,2294.638420,2298.286494,12213.398043
5317.488642,888.247130,1532.190996,10658.965565
5317.488964,1332.370696,919.314598,8956.491898
5317.489287,0.000000,-306.438199,9178.553681
5317.489609,-2072.576638,-306.438199,9252.574275
5317.489932,-1998.556043,-1072.533697,9252.574275
5317.490254,-2368.659014,-1685.410096,6661.853478
5317.490577,-1480.411884,-1378.971896,7105.977043
5317.490899,-2368.659014,-1225.752797,7994.224174
5317.491222,-888.247130,-229.828649,8808.450710
5317.491544,2516.700203,1455.581446,8364.327145
5317.491867,2220.617826,2681.334243,8438.347739
5317.492189,1628.453072,2298.286494,10510.924376
5317.492512,1628.453072,1915.238745,11029.068536
5317.492834,1628.453072,1915.238745,10140.821405
5317.493157,1554.432478,1685.410096,9992.780217
5317.493479,-222.061783,-153.219100,9844.739029
5317.493802,-1036.288319,-842.705048,10436.903782
5317.494124,-592.164754,-766.095498,9474.636058
5317.494447,-1480.411884,-459.657299,9178.553681
5317.494769,-962.267725,-1302.362347,7550.100608
5317.495092,-1332.370696,-919.314598,8364.327145
5317.495414,-814.226536,-383.047749,9252.574275
5317.495737,518.144159,459.657299,8586.388927
5317.496059,1110.308913,1149.143247,8364.327145
5317.496382,1184.329507,1685.410096,10510.924376
5317.496704,296.082377,1532.190996,11325.150913
5317.497027,962.267725,2451.505594,11177.109724
5317.497349,296.082377,1991.848295,9992.780217
5317.497672,-1554.432478,689.485948,10288.862594
5317.497994,-2960.823768,-842.705048,10510.924376
5317.498317,-2146.597232,-1225.752797,9326.594869
5317.498639,-2368.659014,-306.438199,7698.141797
5317.498962,-3552.988522,-1762.019645,7994.224174
5317.499284,-2886.803174,-1378.971896,8290.306550
5317.499607,-1184.329507,-995.924147,7994.224174
5317.499929,-740.205942,0.000000,7031.956449
5317.500252,-1332.370696,0.000000,7402.059420
5317.500574,74.020594,383.047749,9326.594869
5317.500897,962.267725,1225.752797,10140.821405
5317.501219,1184.329507,2221.676944,10436.903782
5317.501542,1480.411884,1302.362347,10584.944971
5317.501864,-148.041188,1149.143247,10807.006753
5317.502187,-296.082377,459.657299,11251.130318
5317.502509,-148.041188,-459.657299,10140.821405
5317.502832,0.000000,-383.047749,9326.594869
5317.503154,-740.205942,-306.438199,9252.574275
5317.503477,-1110.308913,-1149.143247,9030.512492
5317.503799,444.123565,-1225.752797,7846.182985
5317.504122,370.102971,1072.533697,7031.956449
5317.504444,222.061783,536.266849,8142.265362
5317.504767,592.164754,76.609550,9104.533087
5317.505089,2738.761985,1149.143247,9474.636058
5317.505412,3330.926739,2528.115143,9770.718434
5317.505734,1776.494261,2681.334243,10732.986159
5317.506057,1480.411884,1685.410096,11843.295072
5317.506379,1702.473667,1991.848295,11769.274478
5317.506702,814.226536,1685.410096,10881.027347
5317.507024,444.123565,76.609550,9844.739029
5317.507347,-740.205942,-76.609550,10140.821405
5317.507669,-888.247130,306.438199,9548.656652
5317.507992,-1036.288319,0.000000,7772.162391
5317.508314,-962.267725,-306.438199,7179.997637
5317.508637,-592.164754,612.876398,6513.812290
5317.508959,-1480.411884,612.876398,7920.203579
5317.509282,-222.061783,919.314598,7105.977043
5317.509604,2220.617826,2757.943793,7328.038826
5317.509927,1628.453072,3217.601092,8512.368333
5317.510249,518.144159,3600.648841,10362.883188
5317.510572,1036.288319,2681.334243,10807.006753
5317.510894,1332.370696,3524.039291,9474.636058
5317.511217,518.144159,2757.943793,10584.944971
5317.511539,-1776.494261,1378.971896,11251.130318
5317.511862,-1184.329507,459.657299,10584.944971
5317.512184,-1776.494261,229.828649,8956.491898
5317.512507,-3108.864956,-306.438199,7772.162391
5317.512829,-3108.864956,-919.314598,8068.244768
5317.513152,-3627.009116,0.000000,7105.977043
5317.513474,-2220.617826,-766.095498,7550.100608
5317.513797,-1554.432478,229.828649,6661.853478
5317.514119,-1332.370696,919.314598,7846.182985
5317.514442,-518.144159,1838.629195,9326.594869
5317.514764,-518.144159,2451.505594,10436.903782
5317.515087,-518.144159,2374.896044,10436.903782
5317.515409,0.000000,1685.410096,10881.027347
5317.515732,-888.247130,536.266849,11399.171507
5317.516054,-740.205942,-612.876398,10807.006753
5317.516377,-444.123565,-766.095498,9474.636058
5317.516699,-962.267725,-995.924147,9770.718434
5317.517022,-1258.350101,-1455.581446,9548.656652
5317.517344,-1406.391290,-1685.410096,8956.491898
5317.517667,518.144159,-1302.362347,7402.059420
5317.517989,-148.041188,-919.314598,7920.203579
5317.518312,0.000000,-1072.533697,8882.471304
5317.518634,2368.659014,766.095498,9474.636058
5317.518957,2442.679609,1838.629195,10362.883188
5317.519279,2812.782580,2681.334243,10658.965565
5317.519602,2294.638420,1532.190996,12213.398043
5317.519924,2590.720797,1685.410096,11029.068536
5317.520247,1480.411884,689.485948,10658.965565
5317.520569,666.185348,-536.266849,8956.491898
5317.520892,222.061783,-766.095498,10066.800811
5317.521214,-444.123565,-919.314598,9326.594869
5317.521537,-1110.308913,-1608.800546,8364.327145
5317.521859,-444.123565,-1302.362347,6735.874072
5317.522182,-1110.308913,-459.657299,7179.997637
5317.522504,-1332.370696,-306.438199,7476.080014
5317.522827,0.000000,459.657299,8808.450710
5317.523149,1258.350101,1378.971896,7402.059420
5317.523472,1628.453072,2374.896044,9252.574275
5317.523794,0.000000,2528.115143,11473.192101
5317.524117,740.205942,2068.457845,11251.130318
5317.524439,1628.453072,2604.724693,10955.047942
5317.524762,-1184.329507,2145.067394,9918.759623
5317.525084,-1776.494261,-153.219100,10214.842000
5317.525407,-2368.659014,-536.266849,9104.533087
5317.525729,-1998.556043,-459.657299,8216.285956
5317.526052,-2072.576638,-153.219100,7254.018232
5317.526374,-3182.885551,-766.095498,7179.997637
5317.526697,-2294.638420,0.000000,7402.059420
5317.527019,-444.123565,459.657299,7624.121203
5317.527342,-296.082377,2221.676944,7698.141797
5317.527664,1332.370696,2834.553343,8882.471304
5317.527987,1702.473667,3677.258390,11399.171507
5317.528309,2294.638420,3983.696590,11843.295072
5317.528632,2220.617826,3524.039291,11103.089130
5317.528954,888.247130,2374.896044,11029.068536
5317.529277,0.000000,1685.410096,11621.233289
5317.529599,-1776.494261,-689.485948,10807.006753
5317.529922,-1332.370696,-689.485948,9104.533087
5317.530244,-2146.597232,-459.657299,8364.327145
5317.530567,-4145.153275,-1762.019645,8068.244768
5317.530889,-3552.988522,-2298.286494,7698.141797
5317.531212,-2146.597232,-1455.581446,6809.894666
5317.531534,-2146.597232,-536.266849,6883.915261
5317.531857,-1184.329507,229.828649,8068.244768
5317.532179,296.082377,536.266849,9178.553681
5317.532502,3182.885551,2757.943793,9326.594869
5317.532824,2368.659014,2834.553343,9844.739029
5317.533147,1702.473667,2145.067394,10732.986159
5317.533469,2368.659014,1838.629195,11843.295072
5317.533792,1702.473667,1455.581446,11325.150913
5317.534114,1406.391290,0.000000,9770.718434
5317.534437,1184.329507,-842.705048,9178.553681
5317.534759,-518.144159,-995.924147,9548.656652
5317.535082,-296.082377,-1378.971896,8660.409521
5317.535404,0.000000,-1225.752797,7772.162391
5317.535727,0.000000,-919.314598,7105.977043
5317.536049,-740.205942,-689.485948,8660.409521
5317.536372,0.000000,-536.266849,9030.512492
5317.536694,3330.926739,1838.629195,8438.347739
5317.537017,3108.864956,2987.772442,8734.430116
5317.537339,1184.329507,2451.505594,10436.903782
5317.537662,1184.329507,1915.238745,11917.315666
5317.537984,1554.432478,2298.286494,10214.842000
5317.538307,1332.370696,1838.629195,9918.759623
5317.538629,-1036.288319,153.219100,9770.718434
5317.538952,-2220.617826,-842.705048,10510.924376
5317.539274,-2368.659014,-1149.143247,9030.512492
5317.539597,-2368.659014,-153.219100,7994.224174
5317.539919,-3034.844362,-1149.143247,7994.224174
5317.540242,-3849.070898,-1149.143247,8364.327145
5317.540564,-3552.988522,-766.095498,8586.388927
5317.540887,-962.267725,0.000000,7254.018232
5317.541209,370.102971,1532.190996,7105.977043
5317.541532,1480.411884,2911.162892,9252.574275
5317.541855,518.144159,3217.601092,10732.986159
5317.542177,1036.288319,2987.772442,10436.903782
5317.542500,1998.556043,3140.991542,9622.677246
5317.542822,592.164754,2374.896044,10881.027347
5317.543145,-1554.432478,383.047749,11103.089130
5317.543467,-962.267725,153.219100,10436.903782
5317.543790,-888.247130,229.828649,9326.594869
5317.544112,-2442.679609,-842.705048,8290.306550
5317.544435,-2960.823768,-1838.629195,8882.471304
5317.544757,-1924.535449,-1608.800546,8068.244768
5317.545080,-1332.370696,-842.705048,7254.018232
5317.545402,-1258.350101,-229.828649,7179.997637
5317.545725,0.000000,383.047749,8586.388927
5317.546047,1184.329507,1225.752797,9474.636058
5317.546370,1406.391290,2145.067394,9696.697840
5317.546692,1924.535449,2221.676944,10140.821405
5317.547015,1258.350101,1762.019645,10955.047942
5317.547337,-148.041188,1072.533697,11325.150913
5317.547660,0.000000,-536.266849,10362.883188
5317.547982,370.102971,-689.485948,8882.471304
5317.548305,-740.205942,-766.095498,9252.574275
5317.548627,-1184.329507,-1302.362347,9474.636058
5317.548950,-592.164754,-1991.848295,8660.409521
5317.549272,370.102971,-1149.143247,6883.915261
5317.549595,0.000000,-536.266849,7698.141797
5317.549918,148.041188,-612.876398,8438.347739
5317.550240,1628.453072,306.438199,9252.574275
5317.550563,3034.844362,2757.943793,9178.553681
5317.550885,2368.659014,2834.553343,10436.903782
5317.551208,1628.453072,1838.629195,11251.130318
5317.551530,1332.370696,1915.238745,11917.315666
5317.551853,74.020594,1838.629195,11473.192101
5317.552175,-1184.329507,153.219100,10584.944971
5317.552498,-1628.453072,-919.314598,10140.821405
5317.552820,-2220.617826,-919.314598,9326.594869
5317.553143,-1998.556043,-1608.800546,8068.244768
5317.553465,-2590.720797,-1762.019645,6587.832884
5317.553788,-2220.617826,-1302.362347,6587.832884
5317.554110,-2072.576638,-459.657299,6883.915261
5317.554433,-1628.453072,459.657299,7254.018232
5317.554755,1036.288319,1072.533697,6809.894666
5317.555078,2220.617826,2451.505594,8956.491898
5317.555400,1406.391290,3830.477490,10807.006753
5317.555723,1184.329507,3294.210641,13101.645173
5317.556045,814.226536,2604.724693,12139.377449
5317.556368,0.000000,2145.067394,12657.521608
5317.556690,-1924.535449,536.266849,12583.501014
5317.557013,-1850.514855,-689.485948,11251.130318
5317.557335,-1184.329507,-766.095498,9030.512492
5317.557658,-2220.617826,-536.266849,7846.182985
5317.557980,-2960.823768,-1685.410096,6883.915261
5317.558303,-2146.597232,-1762.019645,6143.709319
5317.558626,-1998.556043,-536.266849,5995.668130
5317.558948,0.000000,689.485948,5921.647536
5317.559271,962.267725,1378.971896,6957.935855
5317.559593,1924.535449,3140.991542,9104.533087
5317.559916,2146.597232,3830.477490,11029.068536
5317.560238,1998.556043,3140.991542,11251.130318
5317.560561,1924.535449,2451.505594,12583.501014
5317.560883,1628.453072,1915.238745,12583.501014
5317.561206,444.123565,306.438199,12065.356855
5317.561528,814.226536,-153.219100,9918.759623
5317.561851,888.247130,-1302.362347,9992.780217
5317.562173,74.020594,-842.705048,9178.553681
5317.562496,74.020594,-1762.019645,7698.141797
5317.562818,888.247130,-995.924147,6735.874072
5317.563141,370.102971,0.000000,7105.977043
5317.563463,370.102971,76.609550,7254.018232
5317.563786,2220.617826,1302.362347,7920.203579
5317.564108,3627.009116,2834.553343,8438.347739
5317.564431,1258.350101,3753.867940,10362.883188
5317.564753,1110.308913,3064.381992,10881.027347
5317.565076,1628.453072,2068.457845,11991.336260
5317.565398,666.185348,1838.629195,10732.986159
5317.565721,-1554.432478,229.828649,10140.821405
5317.566043,-2294.638420,-1072.533697,10140.821405
5317.566366,-1998.556043,-919.314598,10288.862594
5317.566688,-3034.844362,-1225.752797,8586.388927
5317.567011,-2516.700203,-1915.238745,7031.956449
5317.567334,-2812.782580,-1532.190996,6809.894666
5317.567656,-3256.906145,-1072.533697,7994.224174
5317.567979,-1332.370696,0.000000,8216.285956
5317.568301,444.123565,842.705048,7846.182985
5317.568624,1702.473667,2298.286494,8808.450710
5317.568946,1036.288319,3524.039291,10510.924376
5317.569269,1924.535449,3447.429741,11547.212695
5317.569591,2886.803174,3677.258390,10214.842000
5317.569914,1258.350101,2911.162892,10807.006753
5317.570236,-518.144159,1225.752797,11103.089130
5317.570559,-1184.329507,76.609550,10584.944971
5317.570881,-1998.556043,-306.438199,8512.368333
5317.571204,-2368.659014,-306.438199,7624.121203
5317.571526,-4515.256246,-1762.019645,7254.018232
5317.571849,-4811.338623,-1608.800546,7328.038826
5317.572171,-4145.153275,-1149.143247,7846.182985
5317.572494,-3256.906145,-995.924147,7402.059420
5317.572816,-1554.432478,0.000000,7846.182985
5317.573139,-296.082377,1225.752797,9918.759623
5317.573461,518.144159,2068.457845,11029.068536
5317.573784,2294.638420,2528.115143,10362.883188
5317.574106,2368.659014,2604.724693,10510.924376
5317.574429,1480.411884,1915.238745,11769.274478
5317.574751,1702.473667,919.314598,10881.027347
5317.575074,1628.453072,229.828649,9400.615463
5317.575396,2146.597232,612.876398,9104.533087
5317.575719,-592.164754,-229.828649,9252.574275
5317.576042,-1184.329507,-1915.238745,8586.388927
5317.576364,0.000000,-1378.971896,7698.141797
5317.576687,-814.226536,-306.438199,7402.059420
5317.577009,-296.082377,-536.266849,8290.306550
5317.577332,592.164754,229.828649,8808.450710
5317.577654,2886.803174,2221.676944,9770.718434
5317.577977,3404.947333,3447.429741,9844.739029
5317.578299,1184.329507,2757.943793,9918.759623
5317.578622,2442.679609,2528.115143,10732.986159
5317.578944,1110.308913,2451.505594,11251.130318
5317.579267,222.061783,1455.581446,9696.697840
5317.579589,74.020594,306.438199,9474.636058
5317.579912,-1480.411884,0.000000,9326.594869
5317.580234,-2738.761985,-1225.752797,9326.594869
5317.580557,-2368.659014,-1302.362347,7254.018232
5317.580879,-3034.844362,-1608.800546,7179.997637
5317.581202,-3849.070898,-1225.752797,6809.894666
5317.581524,-3701.029710,-1762.019645,8586.388927
5317.581847,-962.267725,-536.266849,8290.306550
5317.582169,814.226536,1685.410096,8142.265362
5317.582492,-296.082377,2451.505594,9326.594869
5317.582814,592.164754,1915.238745,11991.336260
5317.583137,1258.350101,2451.505594,11177.109724
5317.583459,1702.473667,3140.991542,10807.006753
5317.583782,0.000000,1762.019645,10881.027347
5317.584104,-1406.391290,0.000000,11251.130318
5317.584427,-1258.350101,0.000000,10436.903782
5317.584750,-1332.370696,-459.657299,8808.450710
5317.585072,-1924.535449,-919.314598,7698.141797
5317.585395,-2516.700203,-2145.067394,7476.080014
5317.585717,-2812.782580,-1838.629195,8068.244768
5317.586040,-1332.370696,-1149.143247,7105.977043
5317.586362,0.000000,0.000000,6735.874072
5317.586685,370.102971,689.485948,7698.141797
5317.587007,1258.350101,2068.457845,10288.862594
5317.587330,518.144159,2221.676944,10288.862594
5317.587652,1998.556043,2145.067394,10436.903782
5317.587975,1924.535449,2221.676944,11621.233289
5317.588297,-148.041188,229.828649,11843.295072
5317.588620,296.082377,0.000000,11769.274478
5317.588942,740.205942,229.828649,10066.800811
5317.589265,0.000000,0.000000,9252.574275
5317.589587,-592.164754,-1608.800546,8734.430116
5317.589910,0.000000,-1608.800546,7994.224174
5317.590232,74.020594,-459.657299,6883.915261
5317.590555,74.020594,-383.047749,7254.018232
5317.590877,1332.370696,229.828649,7550.100608
5317.591200,2664.741391,1302.362347,8882.471304
5317.591522,2294.638420,2681.334243,10066.800811
5317.591845,2368.659014,3064.381992,10584.944971
5317.592167,2146.597232,2604.724693,11547.212695
5317.592490,740.205942,1915.238745,11843.295072
5317.592813,74.020594,1608.800546,11547.212695
5317.593135,-444.123565,766.095498,9918.759623
5317.593458,-740.205942,536.266849,9474.636058
5317.593780,-1702.473667,383.047749,8808.450710
5317.594103,-1924.535449,-766.095498,7920.203579
5317.594425,-1702.473667,-229.828649,6809.894666
5317.594748,-1776.494261,842.705048,6883.915261
5317.595070,-1406.391290,-306.438199,6809.894666
5317.595393,-518.144159,306.438199,7254.018232
5317.595715,1776.494261,2298.286494,8290.306550
5317.596038,1998.556043,3447.429741,9696.697840
5317.596360,740.205942,3524.039291,10732.986159
5317.596683,888.247130,3140.991542,11843.295072
5317.597005,370.102971,2528.115143,11325.150913
5317.597328,-1110.308913,2145.067394,10881.027347
5317.597650,-1554.432478,842.705048,10732.986159
5317.597973,-1184.329507,153.219100,10436.903782
5317.598295,-1924.535449,-383.047749,9622.677246
5317.598618,-2886.803174,-842.705048,7624.121203
5317.598940,-3627.009116,-766.095498,6883.915261
5317.599263,-3108.864956,-1608.800546,6809.894666
5317.599585,-2368.659014,-612.876398,7402.059420
5317.599908,-444.123565,0.000000,7254.018232
5317.600230,740.205942,1225.752797,8290.306550
5317.600553,-222.061783,1762.019645,10436.903782
5317.600875,-370.102971,1532.190996,11843.295072
5317.601198,0.000000,1838.629195,11325.150913
5317.601521,222.061783,1378.971896,10436.903782
5317.601843,-518.144159,842.705048,11325.150913
5317.602166,222.061783,-459.657299,10807.006753
5317.602488,1406.391290,0.000000,9474.636058
5317.602811,148.041188,0.000000,8808.450710
5317.603133,-1036.288319,-1608.800546,7994.224174
5317.603456,-814.226536,-2145.067394,7402.059420
5317.603778,-444.123565,-1225.752797,6661.853478
5317.604101,518.144159,-612.876398,7179.997637
5317.604423,74.020594,-383.047749,7920.203579
5317.604746,1332.370696,0.000000,9548.656652
5317.605068,1850.514855,1072.533697,10510.924376
5317.605391,1184.329507,1455.581446,10584.944971
5317.605713,1110.308913,1302.362347,9918.759623
5317.606036,1702.473667,1532.190996,11843.295072
5317.606358,592.164754,842.705048,10658.965565
5317.606681,740.205942,-383.047749,9400.615463
5317.607003,444.123565,-383.047749,8586.388927
5317.607326,-1036.288319,-1072.533697,8882.471304
5317.607648,-1554.432478,-1532.190996,8216.285956
5317.607971,-1406.391290,-1762.019645,7846.182985
5317.608293,-740.205942,-1225.752797,7624.121203
5317.608616,-2294.638420,-1149.143247,8438.347739
5317.608938,-1184.329507,-766.095498,8734.430116
5317.609261,1036.288319,383.047749,9252.574275
5317.609583,592.164754,2221.676944,9844.739029
5317.609906,222.061783,2298.286494,11621.233289
5317.610229,74.020594,1762.019645,12361.439231
5317.610551,370.102971,2221.676944,11473.192101
5317.610874,0.000000,1685.410096,9696.697840
5317.611196,-1184.329507,612.876398,9104.533087
5317.611519,-1184.329507,76.609550,9474.636058
5317.611841,-1850.514855,0.000000,8512.368333
5317.612164,-1850.514855,-153.219100,7772.162391
5317.612486,-1850.514855,-383.047749,6217.729913
5317.612809,-2368.659014,0.000000,7105.977043
5317.613131,-1924.535449,-153.219100,8364.327145
5317.613454,-666.185348,995.924147,7994.224174
5317.613776,1184.329507,1608.800546,8660.409521
5317.614099,1036.288319,2298.286494,9474.636058
5317.614421,518.144159,1915.238745,11547.212695
5317.614744,1702.473667,2528.115143,11621.233289
5317.615066,1332.370696,2528.115143,10362.883188
5317.615389,-296.082377,1608.800546,10066.800811
5317.615711,1184.329507,76.609550,10066.800811
5317.616034,962.267725,0.000000,9474.636058
5317.616356,444.123565,766.095498,8216.285956
5317.616679,-1036.288319,-383.047749,8586.388927
5317.617001,-1702.473667,-1302.362347,7772.162391
5317.617324,-1110.308913,-689.485948,8068.244768
5317.617646,-888.247130,1072.533697,7328.038826
5317.617969,-74.020594,0.000000,7550.100608
5317.618291,1480.411884,0.000000,8734.430116
5317.618614,1480.411884,995.924147,10066.800811
5317.618937,2516.700203,1991.848295,10510.924376
5317.619259,1776.494261,1685.410096,10362.883188
5317.619582,814.226536,1608.800546,10881.027347
5317.619904,74.020594,-459.657299,11695.253884
5317.620227,1184.329507,0.000000,9548.656652
5317.620549,1924.535449,612.876398,9178.553681
5317.620872,592.164754,842.705048,9992.780217
5317.621194,-1110.308913,-536.266849,10066.800811
5317.621517,148.041188,-766.095498,9178.553681
5317.621839,444.123565,306.438199,8068.244768
5317.622162,-518.144159,-153.219100,8068.244768
5317.622484,-888.247130,306.438199,9474.636058
5317.622807,814.226536,1225.752797,9918.759623
5317.623129,1776.494261,2145.067394,10066.800811
5317.623452,-296.082377,2145.067394,9696.697840
5317.623774,-1110.308913,1072.533697,10807.006753
5317.624097,-1554.432478,995.924147,10881.027347
5317.624419,-2368.659014,612.876398,9252.574275
5317.624742,-1850.514855,459.657299,7698.141797
5317.625064,-2590.720797,-229.828649,7698.141797
5317.625387,-3701.029710,-153.219100,8882.471304
5317.625709,-3404.947333,-153.219100,8438.347739
5317.626032,-3108.864956,76.609550,7402.059420
5317.626354,-1702.473667,1225.752797,7994.224174
5317.626677,-1480.411884,1378.971896,9178.553681
5317.626999,-592.164754,2068.457845,9030.512492
5317.627322,3034.844362,2298.286494,7920.203579
5317.627645,2146.597232,3370.820191,8290.306550
5317.627967,1406.391290,3447.429741,10436.903782
5317.628290,1258.350101,2757.943793,11177.109724
5317.628612,1258.350101,3217.601092,10436.903782
5317.628935,962.267725,2145.067394,9696.697840
5317.629257,-1480.411884,306.438199,9474.636058
5317.629580,-1998.556043,0.000000,9770.718434
5317.629902,-2072.576638,306.438199,9474.636058
5317.630225,-2368.659014,153.219100,8586.388927
5317.630547,-2146.597232,-229.828649,8290.306550
5317.630870,-2442.679609,-383.047749,8290.306550
5317.631192,-666.185348,459.657299,8068.244768
5317.631515,740.205942,995.924147,6809.894666
5317.631837,962.267725,1608.800546,7550.100608
5317.632160,1258.350101,2068.457845,10807.006753
5317.632482,1110.308913,2374.896044,11103.089130
5317.632805,1776.494261,2451.505594,10436.903782
5317.633127,2294.638420,2145.067394,9622.677246
5317.633450,0.000000,0.000000,10955.047942
5317.633772,444.123565,-459.657299,9992.780217
5317.634095,1628.453072,229.828649,9918.759623
5317.634417,888.247130,689.485948,8956.491898
5317.634740,-148.041188,0.000000,9178.553681
5317.635062,444.123565,-459.657299,8660.409521
5317.635385,1628.453072,383.047749,7105.977043
5317.635708,1184.329507,536.266849,6809.894666
5317.636030,1702.473667,1225.752797,7994.224174
5317.636353,2368.659014,842.705048,9622.677246
5317.636675,1628.453072,2374.896044,10066.800811
5317.636998,1332.370696,2374.896044,9770.718434
5317.637320,-296.082377,919.314598,10436.903782
5317.637643,-962.267725,536.266849,11029.068536
5317.637965,-1776.494261,-383.047749,11325.150913
5317.638288,-2072.576638,-1532.190996,9178.553681
5317.638610,-2220.617826,-995.924147,9252.574275
5317.638933,-3552.988522,-612.876398,9474.636058
5317.639255,-3775.050304,-2221.676944,9326.594869
5317.639578,-3108.864956,-1455.581446,7698.141797
5317.639900,-2146.597232,-612.876398,7698.141797
5317.640223,-1776.494261,-612.876398,7920.203579
5317.640546,-888.247130,-536.266849,8956.491898
5317.640868,370.102971,1225.752797,8512.368333
5317.641191,1184.329507,1915.238745,9474.636058
5317.641514,-814.226536,1455.581446,11325.150913
5317.641836,-592.164754,1072.533697,11547.212695
5317.642159,740.205942,842.705048,11177.109724
5317.642482,-740.205942,153.219100,10584.944971
5317.642804,-1184.329507,-842.705048,9696.697840
5317.643127,-1036.288319,-1455.581446,10288.862594
5317.643449,-888.247130,-383.047749,8882.471304
5317.643772,-370.102971,-229.828649,7920.203579
5317.644095,-814.226536,-459.657299,7105.977043
5317.644417,-666.185348,-612.876398,7624.121203
5317.644740,-962.267725,-306.438199,8142.265362
5317.645063,-148.041188,919.314598,7772.162391
5317.645385,1776.494261,1608.800546,8142.265362
5317.645708,1110.308913,1838.629195,9918.759623
5317.646031,592.164754,1455.581446,10881.027347
5317.646353,1332.370696,1762.019645,11399.171507
5317.646676,814.226536,1302.362347,10955.047942
5317.646999,-518.144159,459.657299,10658.965565
5317.647321,-1110.308913,-1225.752797,10436.903782
5317.647644,296.082377,-383.047749,9252.574275
5317.647967,444.123565,-229.828649,8290.306550
5317.648289,-518.144159,0.000000,8068.244768
5317.648612,-592.164754,-766.095498,8364.327145
5317.648935,-296.082377,-229.828649,8216.285956
5317.649257,518.144159,842.705048,7920.203579
5317.649580,1036.288319,1149.143247,8290.306550
5317.649903,1554.432478,1915.238745,9474.636058
5317.650225,3034.844362,3907.087040,10436.903782
5317.650548,2368.659014,3294.210641,10881.027347
5317.650871,2368.659014,2451.505594,10436.903782
5317.651193,1998.556043,2221.676944,10584.944971
5317.651516,148.041188,1302.362347,11251.130318
5317.651839,296.082377,1072.533697,9844.739029
5317.652161,-296.082377,612.876398,8882.471304
5317.652484,-888.247130,153.219100,8660.409521
5317.652807,-2368.659014,0.000000,8364.327145
5317.653129,-2294.638420,-1225.752797,7772.162391
5317.653452,-1332.370696,536.266849,7328.038826
5317.653774,-2146.597232,1149.143247,7402.059420
5317.654097,-2220.617826,766.095498,8142.265362
5317.654420,-148.041188,1532.190996,8216.285956
5317.654742,444.123565,2374.896044,8808.450710
5317.655065,0.000000,2987.772442,10436.903782
5317.655388,-370.102971,2604.724693,11103.089130
5317.655710,-592.164754,1685.410096,11029.068536
5317.656033,-740.205942,1072.533697,9844.739029
5317.656356,-1628.453072,76.609550,8956.491898
5317.656678,-1776.494261,-612.876398,8956.491898
5317.657001,-1850.514855,-612.876398,9474.636058
5317.657324,-2442.679609,-536.266849,8290.306550
5317.657646,-1776.494261,-1378.971896,7402.059420
5317.657969,-2960.823768,-1762.019645,7624.121203
5317.658292,-1554.432478,-1302.362347,7772.162391
5317.658614,-888.247130,-459.657299,9030.512492
5317.658937,518.144159,689.485948,8956.491898
5317.659260,1702.473667,1608.800546,10807.006753
5317.659582,2146.597232,2298.286494,10955.047942
5317.659905,2590.720797,2068.457845,11399.171507
5317.660228,3256.906145,1532.190996,10732.986159
5317.660550,1036.288319,383.047749,11547.212695
5317.660873,592.164754,-995.924147,10584.944971
5317.661196,592.164754,-1685.410096,10288.862594
5317.661518,592.164754,-1685.410096,8808.450710
5317.661841,-1406.391290,-2911.162892,9030.512492
5317.662164,-2368.659014,-2987.772442,7920.203579
5317.662486,-2072.576638,-2604.724693,8586.388927
5317.662809,-888.247130,-1378.971896,7402.059420
5317.663132,-296.082377,-459.657299,8068.244768
5317.663454,666.185348,459.657299,9104.533087
5317.663777,1850.514855,1149.143247,11103.089130
5317.664100,2220.617826,1532.190996,11103.089130
5317.664422,2072.576638,1915.238745,10436.903782
5317.664745,1406.391290,1149.143247,11399.171507
5317.665067,-370.102971,842.705048,12583.501014
5317.665390,-666.185348,0.000000,11399.171507
5317.665713,444.123565,-612.876398,8586.388927
5317.666035,-370.102971,-766.095498,8216.285956
5317.666358,-3034.844362,-1532.190996,7920.203579
5317.666681,-3330.926739,-1685.410096,8290.306550
5317.667003,-1184.329507,0.000000,6587.832884
5317.667326,-888.247130,995.924147,6291.750507
5317.667649,-962.267725,1149.143247,7254.018232
5317.667971,888.247130,2451.505594,9252.574275
5317.668294,3256.906145,3983.696590,9400.615463
5317.668617,2072.576638,4979.620737,10066.800811
5317.668939,444.123565,3753.867940,11103.089130
5317.669262,1036.288319,2834.553343,11399.171507
5317.669585,-222.061783,2604.724693,11399.171507
5317.669907,-222.061783,1838.629195,9622.677246
5317.670230,-1258.350101,766.095498,9622.677246
5317.670553,-2516.700203,0.000000,8734.430116
5317.670875,-2516.700203,0.000000,7698.141797
5317.671198,-2812.782580,-306.438199,5625.565159
5317.671521,-2368.659014,76.609550,5921.647536
5317.671843,-1998.556043,459.657299,6439.791695
5317.672166,-1110.308913,612.876398,7328.038826
5317.672489,1924.535449,2374.896044,7476.080014
5317.672811,1628.453072,3370.820191,8956.491898
5317.673134,814.226536,3217.601092,10658.965565
5317.673457,666.185348,2298.286494,11843.295072
5317.673779,1480.411884,2298.286494,10658.965565
5317.674102,740.205942,1455.581446,10362.883188
5317.674425,-962.267725,0.000000,10288.862594
5317.674747,-1628.453072,-1762.019645,10288.862594
5317.675070,-888.247130,-1225.752797,9252.574275
5317.675393,-1332.370696,-766.095498,7772.162391
5317.675715,-888.247130,-1455.581446,7105.977043
5317.676038,-148.041188,-995.924147,8364.327145
5317.676360,1406.391290,-766.095498,8586.388927
5317.676683,2664.741391,229.828649,8290.306550
5317.677006,3404.947333,1225.752797,8438.347739
5317.677328,3627.009116,1838.629195,11251.130318
5317.677651,3034.844362,2298.286494,12805.562797
5317.677974,2960.823768,1838.629195,11991.336260
5317.678296,3404.947333,1225.752797,12213.398043
5317.678619,444.123565,306.438199,12065.356855
5317.678942,-1258.350101,-1608.800546,12287.418637
5317.679264,-1332.370696,-2145.067394,10732.986159
5317.679587,-1406.391290,-1378.971896,9178.553681
5317.679910,-3330.926739,-2145.067394,7920.203579
5317.680232,-3997.112087,-2221.676944,7328.038826
5317.680555,-1998.556043,-2068.457845,7179.997637
5317.680878,-1332.370696,-766.095498,5773.606348
5317.681200,-2146.597232,0.000000,6883.915261
5317.681523,-962.267725,459.657299,8290.306550
5317.681846,-370.102971,995.924147,9770.718434
5317.682168,-370.102971,2834.553343,10214.842000
5317.682491,-592.164754,2145.067394,11029.068536
5317.682814,-1332.370696,1149.143247,11843.295072
5317.683136,-2072.576638,689.485948,11843.295072
5317.683459,-2146.597232,-306.438199,10288.862594
5317.683782,-1184.329507,-459.657299,8882.471304
5317.684104,-1406.391290,0.000000,8512.368333
5317.684427,-2072.576638,-612.876398,7920.203579
5317.684750,-1628.453072,0.000000,7031.956449
5317.685072,-592.164754,-306.438199,5625.565159
5317.685395,-962.267725,1149.143247,5921.647536
5317.685718,0.000000,919.314598,7920.203579
5317.686040,740.205942,1685.410096,8660.409521
5317.686363,3108.864956,3294.210641,9474.636058
5317.686686,1480.411884,3600.648841,11399.171507
5317.687008,1332.370696,2834.553343,11473.192101
5317.687331,518.144159,2068.457845,12509.480420
5317.687653,592.164754,1838.629195,11029.068536
5317.687976,-666.185348,1149.143247,11621.233289
5317.688299,-888.247130,153.219100,10140.821405
5317.688621,-1036.288319,-306.438199,10362.883188
5317.688944,-296.082377,0.000000,7624.121203
5317.689267,-962.267725,-612.876398,7402.059420
5317.689589,-962.267725,0.000000,6809.894666
5317.689912,-1184.329507,459.657299,8586.388927
5317.690235,0.000000,612.876398,7328.038826
5317.690557,1998.556043,1838.629195,7994.224174
5317.690880,2294.638420,2451.505594,8438.347739
5317.691203,1036.288319,2911.162892,10881.027347
5317.691525,2368.659014,3217.601092,11843.295072
5317.691848,1924.535449,3140.991542,11103.089130
5317.692171,1628.453072,2374.896044,10584.944971
5317.692493,518.144159,995.924147,10584.944971
5317.692816,296.082377,0.000000,9548.656652
5317.693139,518.144159,0.000000,8808.450710
5317.693461,-962.267725,153.219100,7328.038826
5317.693784,-1406.391290,-1302.362347,7920.203579
5317.694107,-1776.494261,-919.314598,6883.915261
5317.694429,-1258.350101,-306.438199,7179.997637
5317.694752,-1110.308913,-383.047749,6291.750507
5317.695075,-740.205942,153.219100,7698.141797
5317.695397,592.164754,1302.362347,8882.471304
5317.695720,592.164754,1838.629195,10658.965565
5317.696043,148.041188,1608.800546,11251.130318
5317.696365,592.164754,1685.410096,11177.109724
5317.696688,0.000000,995.924147,11399.171507
5317.697011,-296.082377,229.828649,10288.862594
5317.697333,-370.102971,-766.095498,9622.677246
5317.697656,-1110.308913,-766.095498,9474.636058
5317.697978,-2294.638420,-1762.019645,9622.677246
5317.698301,-2294.638420,-2604.724693,8216.285956
5317.698624,-2368.659014,-1532.190996,7328.038826
5317.698946,-2294.638420,-1838.629195,7476.080014
5317.699269,-2368.659014,-1608.800546,7772.162391
5317.699592,-370.102971,-842.705048,8364.327145
5317.699914,1110.308913,766.095498,9400.615463
5317.700237,74.020594,1608.800546,10362.883188
5317.700560,-296.082377,1302.362347,11917.315666
5317.700882,370.102971,1455.581446,12213.398043
5317.701205,592.164754,383.047749,11399.171507
5317.701528,-444.123565,0.000000,10881.027347
5317.701850,-296.082377,-1455.581446,10288.862594
5317.702173,-1110.308913,-1608.800546,10362.883188
5317.702496,-1406.391290,-1608.800546,9178.553681
5317.702818,-1480.411884,-1915.238745,8068.244768
5317.703141,-1480.411884,-2068.457845,6809.894666
5317.703464,-1258.350101,-995.924147,7105.977043
5317.703786,444.123565,0.000000,8142.265362
5317.704109,1998.556043,1225.752797,7846.182985
5317.704432,2886.803174,2451.505594,8512.368333
5317.704754,1776.494261,2757.943793,10288.862594
5317.705077,2220.617826,2757.943793,11177.109724
5317.705400,3404.947333,2987.772442,10584.944971
5317.705722,1702.473667,2757.943793,10214.842000
5317.706045,148.041188,1149.143247,11695.253884
5317.706368,296.082377,229.828649,10362.883188
5317.706690,0.000000,0.000000,9178.553681
5317.707013,-666.185348,383.047749,7105.977043
5317.707336,-2368.659014,76.609550,7402.059420
5317.707658,-2072.576638,76.609550,6957.935855
5317.707981,-1332.370696,612.876398,7179.997637
5317.708304,-444.123565,995.924147,6365.771101
5317.708626,148.041188,1532.190996,7328.038826
5317.708949,296.082377,2451.505594,9696.697840
5317.709271,962.267725,3447.429741,11695.253884
5317.709594,1480.411884,3753.867940,11399.171507
5317.709917,222.061783,3217.601092,11843.295072
5317.710239,-1036.288319,1991.848295,11843.295072
5317.710562,-1480.411884,459.657299,11103.089130
5317.710885,-1036.288319,536.266849,8660.409521
5317.711207,-370.102971,766.095498,7994.224174
5317.711530,-2368.659014,229.828649,7624.121203
5317.711853,-2368.659014,-689.485948,7254.018232
5317.712175,-814.226536,689.485948,6513.812290
5317.712498,-888.247130,1762.019645,6291.750507
5317.712821,-222.061783,459.657299,7624.121203
5317.713143,518.144159,1762.019645,8734.430116
5317.713466,2516.700203,3294.210641,10362.883188
5317.713789,2516.700203,3447.429741,10510.924376
5317.714111,370.102971,2757.943793,11843.295072
5317.714434,814.226536,2068.457845,11991.336260
5317.714757,592.164754,766.095498,11547.212695
5317.715079,-592.164754,-229.828649,10436.903782
5317.715402,-222.061783,-383.047749,9400.615463
5317.715725,-1702.473667,-1149.143247,8660.409521
5317.716047,-2368.659014,-1838.629195,8586.388927
5317.716370,-2442.679609,-1991.848295,7179.997637
5317.716693,-2220.617826,-1455.581446,6735.874072
5317.717015,-2146.597232,-766.095498,6883.915261
5317.717338,-962.267725,-766.095498,8586.388927
5317.717661,1702.473667,0.000000,8734.430116
5317.717983,2442.679609,1072.533697,8882.471304
5317.718306,740.205942,1762.019645,10881.027347
5317.718629,666.185348,1149.143247,13027.624579
5317.718951,1480.411884,919.314598,12213.398043
5317.719274,1702.473667,306.438199,11029.068536
5317.719597,148.041188,-689.485948,10436.903782
5317.719919,-666.185348,-1991.848295,10732.986159
5317.720242,518.144159,-1225.752797,9696.697840
5317.720564,0.000000,-766.095498,8882.471304
5317.720887,-1184.329507,-1455.581446,7402.059420
5317.721210,-1332.370696,-1915.238745,8216.285956
5317.721532,-1036.288319,-1378.971896,8068.244768
5317.721855,148.041188,-536.266849,7402.059420
5317.722178,1258.350101,536.266849,6809.894666
5317.722500,666.185348,1149.143247,9474.636058
5317.722823,444.123565,1225.752797,11325.150913
5317.723146,-370.102971,1608.800546,11251.130318
5317.723468,518.144159,1838.629195,10436.903782
5317.723791,-740.205942,919.314598,10584.944971
5317.724114,-2664.741391,-842.705048,10658.965565
5317.724436,-2220.617826,-1149.143247,9770.718434
5317.724759,-1628.453072,-383.047749,8364.327145
5317.725082,-2516.700203,-612.876398,7920.203579
5317.725404,-3701.029710,-1455.581446,8364.327145
5317.725727,-2146.597232,-1608.800546,7624.121203
5317.726050,-518.144159,0.000000,6661.853478
5317.726372,-222.061783,383.047749,6661.853478
5317.726695,666.185348,1149.143247,8512.368333
5317.727018,2072.576638,1991.848295,9474.636058
5317.727340,1702.473667,2987.772442,10066.800811
5317.727663,1850.514855,2911.162892,10362.883188
5317.727986,1184.329507,2221.676944,11473.192101
5317.728308,1332.370696,1838.629195,11251.130318
5317.728631,592.164754,229.828649,10807.006753
5317.728954,740.205942,536.266849,9326.594869
5317.729276,296.082377,0.000000,9696.697840
5317.729599,-1628.453072,0.000000,9252.574275
5317.729922,-888.247130,-766.095498,9474.636058
5317.730244,222.061783,-383.047749,7254.018232
5317.730567,0.000000,306.438199,7772.162391
5317.730889,0.000000,689.485948,8512.368333
5317.731212,888.247130,536.266849,8956.491898
5317.731535,2442.679609,2221.676944,9252.574275
5317.731857,1480.411884,1991.848295,9770.718434
5317.732180,444.123565,2221.676944,11399.171507
5317.732503,518.144159,1838.629195,11843.295072
5317.732825,222.061783,1915.238745,11029.068536
5317.733148,-444.123565,689.485948,10807.006753
5317.733471,-740.205942,306.438199,9400.615463
5317.733793,-1110.308913,76.609550,9918.759623
5317.734116,-370.102971,459.657299,8290.306550
5317.734439,-1258.350101,0.000000,7550.100608
5317.734761,-222.061783,76.609550,6513.812290
5317.735084,-666.185348,306.438199,7550.100608
5317.735407,-444.123565,842.705048,7550.100608
5317.735729,1554.432478,1915.238745,7402.059420
5317.736052,2442.679609,3294.210641,8364.327145
5317.736375,1776.494261,3447.429741,10881.027347
5317.736697,1258.350101,3370.820191,11399.171507
5317.737020,1776.494261,3140.991542,10881.027347
5317.737343,370.102971,2451.505594,10288.862594
5317.737665,-1702.473667,842.705048,10214.842000
5317.737988,-1702.473667,-459.657299,9400.615463
5317.738311,-1850.514855,-766.095498,7772.162391
5317.738633,-3182.885551,-689.485948,7105.977043
5317.738956,-4219.173869,-1302.362347,7031.956449
5317.739279,-3701.029710,-1915.238745,7179.997637
5317.739601,-3701.029710,-1302.362347,7179.997637
5317.739924,-2664.741391,-536.266849,7328.038826
5317.740247,-1924.535449,76.609550,8660.409521
5317.740569,0.000000,536.266849,9474.636058
5317.740892,1110.308913,1225.752797,11103.089130
5317.741214,444.123565,1608.800546,12065.356855
5317.741537,1184.329507,1455.581446,11917.315666
5317.741860,296.082377,689.485948,13249.686362
5317.742182,-444.123565,-536.266849,12065.356855
5317.742505,222.061783,-1149.143247,10732.986159
5317.742827,-518.144159,-612.876398,10288.862594
5317.743150,-222.061783,-1072.533697,10066.800811
5317.743473,-444.123565,-2221.676944,7846.182985
5317.743795,296.082377,-1762.019645,7772.162391
5317.744118,0.000000,-612.876398,7328.038826
5317.744441,-518.144159,-766.095498,7994.224174
5317.744763,1258.350101,-229.828649,8068.244768
5317.745086,2886.803174,1838.629195,9104.533087
5317.745408,2368.659014,2374.896044,10140.821405
5317.745731,1628.453072,1915.238745,11769.274478
5317.746054,1850.514855,2068.457845,12509.480420
5317.746376,1776.494261,1532.190996,11399.171507
5317.746699,0.000000,459.657299,10066.800811
5317.747022,-888.247130,-383.047749,9030.512492
5317.747344,-592.164754,-995.924147,8438.347739
5317.747667,-1184.329507,-612.876398,7476.080014
5317.747989,-1332.370696,-995.924147,6735.874072
5317.748312,-1110.308913,-383.047749,5995.668130
5317.748635,-1998.556043,-229.828649,6513.812290
5317.748957,-1110.308913,536.266849,7476.080014
5317.749280,962.267725,1378.971896,7846.182985
5317.749602,1998.556043,2681.334243,8512.368333
5317.749925,1258.350101,3294.210641,10510.924376
5317.750248,666.185348,2911.162892,12213.398043
5317.750570,1924.535449,3064.381992,11843.295072
5317.750893,666.185348,2681.334243,10362.883188
5317.751216,-1406.391290,1149.143247,10732.986159
5317.751538,-1702.473667,0.000000,10732.986159
5317.751861,-1554.432478,-229.828649,9400.615463
5317.752183,-962.267725,0.000000,7698.141797
5317.752506,-2220.617826,76.609550,7328.038826
5317.752829,-2960.823768,-459.657299,7550.100608
5317.753151,-2146.597232,76.609550,7476.080014
5317.753474,-1332.370696,1072.533697,7624.121203
5317.753797,0.000000,1455.581446,7698.141797
5317.754119,1258.350101,2451.505594,9400.615463
5317.754442,1258.350101,2911.162892,11621.233289
5317.754764,888.247130,2911.162892,10732.986159
5317.755087,-370.102971,2221.676944,10658.965565
5317.755410,592.164754,995.924147,11325.150913
5317.755732,-1110.308913,0.000000,11399.171507
5317.756055,-1184.329507,-995.924147,9252.574275
5317.756377,-592.164754,-1149.143247,8512.368333
5317.756700,-2072.576638,-1378.971896,8364.327145
5317.757023,-2738.761985,-1762.019645,7846.182985
5317.757345,-1702.473667,-1762.019645,7179.997637
5317.757668,-1184.329507,-995.924147,6587.832884
5317.757991,-740.205942,0.000000,7698.141797
5317.758313,74.020594,-153.219100,9104.533087
5317.758636,2516.700203,1302.362347,9770.718434
5317.758958,2590.720797,2068.457845,10362.883188
5317.759281,1036.288319,1302.362347,10955.047942
5317.759604,1184.329507,995.924147,12213.398043
5317.759926,1702.473667,536.266849,11917.315666
5317.760249,592.164754,0.000000,11473.192101
5317.760572,666.185348,-1302.362347,10066.800811
5317.760894,0.000000,-1915.238745,9770.718434
5317.761217,-740.205942,-1685.410096,8808.450710
5317.761539,222.061783,-1149.143247,8290.306550
5317.761862,814.226536,-689.485948,7105.977043
5317.762185,0.000000,0.000000,7624.121203
5317.762507,0.000000,0.000000,8660.409521
5317.762830,1776.494261,995.924147,8586.388927
5317.763152,2886.803174,2757.943793,8808.450710
5317.763475,1628.453072,3447.429741,9844.739029
5317.763798,1406.391290,2374.896044,11177.109724
5317.764120,1406.391290,1838.629195,11177.109724
5317.764443,370.102971,2451.505594,10436.903782
5317.764766,-1554.432478,919.314598,9770.718434
5317.765088,-3182.885551,-1072.533697,9474.636058
5317.765411,-2960.823768,-995.924147,9326.594869
5317.765733,-2812.782580,0.000000,8142.265362
5317.766056,-3034.844362,-842.705048,7105.977043
5317.766379,-3478.967927,0.000000,7031.956449
5317.766701,-2590.720797,0.000000,7402.059420
5317.767024,-888.247130,1225.752797,7402.059420
5317.767347,444.123565,2145.067394,6661.853478
5317.767669,1036.288319,3064.381992,8290.306550
5317.767992,1184.329507,3294.210641,10807.006753
5317.768314,1406.391290,3294.210641,11621.233289
5317.768637,1850.514855,3677.258390,10362.883188
5317.768960,1036.288319,2681.334243,10658.965565
5317.769282,-1924.535449,459.657299,11621.233289
5317.769605,-2368.659014,-459.657299,10955.047942
5317.769927,-1184.329507,-306.438199,9696.697840
5317.770250,-2368.659014,-689.485948,8438.347739
5317.770573,-3552.988522,-2068.457845,7994.224174
5317.770895,-2146.597232,-2298.286494,8290.306550
5317.771218,-814.226536,0.000000,6883.915261
5317.771541,-666.185348,612.876398,6513.812290
5317.771863,666.185348,459.657299,7476.080014
5317.772186,1776.494261,1302.362347,9474.636058
5317.772508,2146.597232,2681.334243,10584.944971
5317.772831,2590.720797,3140.991542,10955.047942
5317.773154,2812.782580,3370.820191,12139.377449
5317.773476,1258.350101,1455.581446,12657.521608
5317.773799,74.020594,-612.876398,12657.521608
5317.774122,0.000000,-919.314598,10807.006753
5317.774444,148.041188,-919.314598,10140.821405
5317.774767,-1480.411884,-1608.800546,9252.574275
5317.775089,-1480.411884,-2068.457845,8068.244768
5317.775412,-592.164754,-1685.410096,6439.791695
5317.775735,-962.267725,-536.266849,5847.626942
5317.776057,-666.185348,-612.876398,6587.832884
5317.776380,592.164754,153.219100,7179.997637
5317.776702,2442.679609,2068.457845,7772.162391
5317.777025,3108.864956,2987.772442,9030.512492
5317.777348,740.205942,2374.896044,11029.068536
5317.777670,1184.329507,2451.505594,11991.336260
5317.777993,1554.432478,2068.457845,11473.192101
5317.778316,666.185348,1072.533697,10288.862594
5317.778638,-444.123565,-612.876398,9918.759623
5317.778961,-740.205942,-689.485948,9474.636058
5317.779283,-1036.288319,-919.314598,9400.615463
5317.779606,-1776.494261,-1072.533697,7624.121203
5317.779929,-2146.597232,-995.924147,7031.956449
5317.780251,-1998.556043,-1378.971896,6365.771101
5317.780574,-2294.638420,-229.828649,8068.244768
5317.780897,-592.164754,229.828649,7476.080014
5317.781219,740.205942,1225.752797,8290.306550
5317.781542,518.144159,1762.019645,9992.780217
5317.781864,-370.102971,1838.629195,11325.150913
5317.782187,-222.061783,1838.629195,11843.295072
5317.782510,-370.102971,2374.896044,11621.233289
5317.782832,-1628.453072,306.438199,12435.459826
5317.783155,-1554.432478,-766.095498,11621.233289
5317.783478,-962.267725,-1608.800546,10955.047942
5317.783800,-1480.411884,-1072.533697,8808.450710
5317.784123,-2368.659014,-1762.019645,8290.306550
5317.784445,-2072.576638,-1608.800546,7105.977043
5317.784768,-1258.350101,-995.924147,7179.997637
5317.785091,0.000000,-536.266849,6217.729913
5317.785413,740.205942,0.000000,6587.832884
5317.785736,2294.638420,842.705048,8290.306550
5317.786058,3404.947333,2374.896044,10732.986159
5317.786381,2368.659014,2528.115143,11843.295072
5317.786704,1998.556043,2681.334243,12361.439231
5317.787026,1554.432478,2068.457845,12509.480420
5317.787349,0.000000,995.924147,12139.377449
5317.787672,0.000000,0.000000,9844.739029
5317.787994,0.000000,-689.485948,8438.347739
5317.788317,-814.226536,-1225.752797,7550.100608
5317.788639,-2368.659014,-1378.971896,7254.018232
5317.788962,-2146.597232,-1225.752797,5477.523971
5317.789285,-1036.288319,-995.924147,4959.379811
5317.789607,-1406.391290,-229.828649,5329.482782
5317.789930,0.000000,995.924147,7328.038826
5317.790253,1702.473667,1838.629195,9326.594869
5317.790575,1406.391290,3217.601092,10955.047942
5317.790898,1184.329507,3524.039291,11843.295072
5317.791220,2146.597232,3217.601092,13101.645173
5317.791543,3034.844362,3600.648841,12583.501014
5317.791866,1036.288319,2604.724693,11103.089130
5317.792188,740.205942,1532.190996,10214.842000
5317.792511,962.267725,459.657299,9770.718434
5317.792833,0.000000,842.705048,8068.244768
5317.793156,-814.226536,536.266849,7179.997637
5317.793479,-1332.370696,76.609550,6661.853478
5317.793801,-2146.597232,306.438199,6513.812290
5317.794124,-1702.473667,383.047749,6957.935855
5317.794447,-444.123565,689.485948,6809.894666
5317.794769,-370.102971,2298.286494,8290.306550
5317.795092,-962.267725,2528.115143,10140.821405
5317.795414,-1184.329507,2451.505594,11769.274478
5317.795737,74.020594,2528.115143,11621.233289
5317.796060,370.102971,2987.772442,10881.027347
5317.796382,-1998.556043,1302.362347,11547.212695
5317.796705,-2220.617826,-536.266849,10732.986159
5317.797028,-814.226536,-383.047749,9474.636058
5317.797350,-962.267725,0.000000,7920.203579
5317.797673,-2220.617826,-689.485948,7772.162391
5317.797995,-3330.926739,-1455.581446,7328.038826
5317.798318,-1924.535449,-1378.971896,7179.997637
5317.798641,-592.164754,-1378.971896,6587.832884
5317.798963,148.041188,0.000000,6883.915261
5317.799286,888.247130,383.047749,9696.697840
5317.799608,1258.350101,1838.629195,11399.171507
5317.799931,2590.720797,2528.115143,11917.315666
5317.800254,2886.803174,2604.724693,11325.150913
5317.800576,2072.576638,1762.019645,12657.521608
5317.800899,0.000000,1378.971896,13027.624579
5317.801222,222.061783,0.000000,11325.150913
5317.801544,1998.556043,-1302.362347,9400.615463
5317.801867,0.000000,-842.705048,8364.327145
5317.802189,-2590.720797,-1838.629195,8586.388927
5317.802512,-2220.617826,-2221.676944,8364.327145
5317.802835,-740.205942,-1455.581446,7105.977043
5317.803157,-1406.391290,-766.095498,6957.935855
5317.803480,-1258.350101,-842.705048,7550.100608
5317.803803,1258.350101,-153.219100,8660.409521
5317.804125,2294.638420,2451.505594,9918.759623
5317.804448,2294.638420,2987.772442,10214.842000
5317.804770,1554.432478,2145.067394,11621.233289
5317.805093,1776.494261,1378.971896,11991.336260
5317.805416,592.164754,1072.533697,10955.047942
5317.805738,1184.329507,536.266849,9326.594869
5317.806061,74.020594,-153.219100,9474.636058
5317.806383,-1406.391290,-459.657299,9548.656652
5317.806706,-1702.473667,-1149.143247,8734.430116
5317.807029,-2368.659014,-1225.752797,7476.080014
5317.807351,-2664.741391,-1149.143247,7105.977043
5317.807674,-2442.679609,-612.876398,7772.162391
5317.807997,-1554.432478,-536.266849,7772.162391
5317.808319,1480.411884,2068.457845,8068.244768
5317.808642,1110.308913,3064.381992,8586.388927
5317.808964,0.000000,2681.334243,10658.965565
5317.809287,0.000000,2298.286494,10658.965565
5317.809610,370.102971,2681.334243,9474.636058
5317.809932,-222.061783,2374.896044,9696.697840
5317.810255,-2220.617826,1225.752797,10732.986159
5317.810578,-2516.700203,-995.924147,9696.697840
5317.810900,-2664.741391,-1072.533697,8438.347739
5317.811223,-3404.947333,-1225.752797,7994.224174
5317.811545,-3256.906145,-1762.019645,7550.100608
5317.811868,-3923.091493,-1991.848295,9178.553681
5317.812191,-2146.597232,-1072.533697,8142.265362
5317.812513,444.123565,-919.314598,7624.121203
5317.812836,1332.370696,1072.533697,7476.080014
5317.813158,1998.556043,2451.505594,9844.739029
5317.813481,1924.535449,2451.505594,11769.274478
5317.813804,3108.864956,2987.772442,11325.150913
5317.814126,3701.029710,2987.772442,11547.212695
5317.814449,1332.370696,1762.019645,11769.274478
5317.814772,370.102971,-306.438199,11917.315666
5317.815094,444.123565,-612.876398,10436.903782
5317.815417,814.226536,-689.485948,9622.677246
5317.815739,-1332.370696,-1455.581446,8512.368333
5317.816062,-1850.514855,-2374.896044,8882.471304
5317.816385,-370.102971,-1532.190996,8068.244768
5317.816707,-148.041188,-1225.752797,6661.853478
5317.817030,1184.329507,-153.219100,6291.750507
5317.817353,2738.761985,536.266849,8512.368333
5317.817675,2368.659014,2221.676944,9696.697840
5317.817998,2220.617826,3677.258390,10955.047942
5317.818320,2072.576638,2911.162892,10584.944971
5317.818643,592.164754,2145.067394,11621.233289
5317.818966,0.000000,1762.019645,11251.130318
5317.819288,-740.205942,842.705048,10362.883188
5317.819611,-296.082377,0.000000,8142.265362
5317.819933,-370.102971,919.314598,8364.327145
5317.820256,-2516.700203,-459.657299,7994.224174
5317.820579,-2072.576638,-1149.143247,7031.956449
5317.820901,-1850.514855,-383.047749,5329.482782
5317.821224,-1184.329507,0.000000,6143.709319
5317.821547,-370.102971,536.266849,7105.977043
5317.821869,1258.350101,1915.238745,8438.347739
5317.822192,2368.659014,2681.334243,9548.656652
5317.822514,592.164754,3217.601092,10732.986159
5317.822837,592.164754,2604.724693,11695.253884
5317.823160,740.205942,2451.505594,11621.233289
5317.823482,0.000000,2145.067394,11843.295072
5317.823805,-814.226536,1762.019645,11473.192101
5317.824128,-1110.308913,383.047749,11177.109724
5317.824450,-1184.329507,-1072.533697,9770.718434
5317.824773,-1702.473667,0.000000,7920.203579
5317.825095,-2590.720797,-1225.752797,7254.018232
5317.825418,-2812.782580,-919.314598,7846.182985
5317.825741,-3034.844362,-766.095498,8142.265362
5317.826063,-1850.514855,76.609550,7254.018232
5317.826386,74.020594,459.657299,7846.182985
5317.826708,-1554.432478,1685.410096,8882.471304
5317.827031,-962.267725,1455.581446,10881.027347
5317.827354,-666.185348,766.095498,11695.253884
5317.827676,0.000000,1532.190996,10807.006753
5317.827999,-518.144159,612.876398,11177.109724
5317.828322,-962.267725,0.000000,10658.965565
5317.828644,814.226536,0.000000,10140.821405
5317.828967,518.144159,-153.219100,8290.306550
5317.829289,74.020594,-766.095498,8290.306550
5317.829612,148.041188,-1608.800546,7254.018232
5317.829935,296.082377,-995.924147,7402.059420
5317.830257,962.267725,-229.828649,7402.059420
5317.830580,1036.288319,-459.657299,7846.182985
5317.830903,1036.288319,0.000000,8068.244768
5317.831225,2220.617826,1532.190996,9918.759623
5317.831548,2146.597232,2221.676944,10807.006753
5317.831870,2072.576638,2221.676944,11621.233289
5317.832193,1702.473667,1532.190996,11621.233289
5317.832516,1036.288319,1072.533697,11769.274478
5317.832838,518.144159,536.266849,10066.800811
5317.833161,814.226536,536.266849,8586.388927
5317.833483,370.102971,-153.219100,9178.553681
5317.833806,-666.185348,-306.438199,8660.409521
5317.834129,-962.267725,-766.095498,8290.306550
5317.834451,0.000000,76.609550,7328.038826
5317.834774,-1110.308913,459.657299,7402.059420
5317.835097,-1332.370696,-306.438199,7920.203579
5317.835419,1110.308913,459.657299,8364.327145
5317.835742,1332.370696,2604.724693,9400.615463
5317.836064,-148.041188,2528.115143,10214.842000
5317.836387,-518.144159,2221.676944,11399.171507
5317.836710,296.082377,2068.457845,11103.089130
5317.837032,222.061783,1991.848295,10214.842000
5317.837355,-1332.370696,1149.143247,9474.636058
5317.837678,-1184.329507,536.266849,9326.594869
5317.838000,-1702.473667,153.219100,9474.636058
5317.838323,-2590.720797,229.828649,8512.368333
5317.838645,-2738.761985,-459.657299,7179.997637
5317.838968,-2516.700203,-766.095498,6735.874072
5317.839291,-2812.782580,-229.828649,8068.244768
5317.839613,-1628.453072,0.000000,8142.265362
5317.839936,0.000000,842.705048,8364.327145
5317.840258,666.185348,2451.505594,8734.430116
5317.840581,-222.061783,1302.362347,11325.150913
5317.840904,148.041188,919.314598,11177.109724
5317.841226,1554.432478,1762.019645,10288.862594
5317.841549,666.185348,1302.362347,9622.677246
5317.841871,-296.082377,0.000000,11177.109724
5317.842194,-296.082377,-612.876398,10140.821405
5317.842516,-592.164754,-306.438199,9178.553681
5317.842839,0.000000,-689.485948,7920.203579
5317.843161,-1850.514855,-1762.019645,8068.244768
5317.843484,-2220.617826,-2604.724693,8438.347739
5317.843806,-1110.308913,-1378.971896,8956.491898
5317.844129,0.000000,-842.705048,8290.306550
5317.844451,444.123565,0.000000,8956.491898
5317.844774,962.267725,536.266849,10510.924376
5317.845097,1258.350101,1149.143247,11547.212695
5317.845419,2294.638420,1685.410096,9770.718434
5317.845742,1776.494261,1685.410096,10658.965565
5317.846064,1332.370696,766.095498,11029.068536
5317.846387,296.082377,-459.657299,10436.903782
5317.846709,1702.473667,-153.219100,8882.471304
5317.847032,2072.576638,689.485948,8586.388927
5317.847354,-592.164754,76.609550,9326.594869
5317.847677,-74.020594,-842.705048,9252.574275
5317.847999,666.185348,-383.047749,8512.368333
5317.848322,444.123565,689.485948,7994.224174
5317.848644,296.082377,689.485948,8808.450710
5317.848967,518.144159,995.924147,9548.656652
5317.849290,3182.885551,2757.943793,9696.697840
5317.849612,2220.617826,3753.867940,9104.533087
5317.849935,518.144159,3370.820191,10362.883188
5317.850257,1258.350101,2451.505594,10881.027347
5317.850580,-370.102971,1991.848295,10362.883188
5317.850902,-814.226536,1225.752797,9104.533087
5317.851225,-1258.350101,612.876398,8734.430116
5317.851547,-3182.885551,306.438199,9474.636058
5317.851870,-3701.029710,536.266849,9474.636058
5317.852192,-3775.050304,0.000000,7550.100608
5317.852515,-3182.885551,383.047749,6661.853478
5317.852838,-3330.926739,919.314598,7328.038826
5317.853160,-2146.597232,919.314598,8364.327145
5317.853483,888.247130,2145.067394,7920.203579
5317.853805,1036.288319,3447.429741,8216.285956
5317.854128,-296.082377,3524.039291,9992.780217
5317.854450,-370.102971,2757.943793,11399.171507
5317.854773,-370.102971,2757.943793,10658.965565
5317.855095,0.000000,2911.162892,10140.821405
5317.855418,-1554.432478,1149.143247,10214.842000
5317.855740,-2294.638420,-306.438199,10214.842000
5317.856063,-1628.453072,76.609550,9326.594869
5317.856385,-2516.700203,76.609550,7328.038826
5317.856708,-2368.659014,0.000000,6069.688724
5317.857031,-1924.535449,-153.219100,7105.977043
5317.857353,-1332.370696,-229.828649,7772.162391
5317.857676,0.000000,383.047749,7328.038826
5317.857998,1924.535449,1149.143247,6661.853478
5317.858321,1702.473667,1302.362347,9548.656652
5317.858643,1850.514855,2068.457845,10732.986159
5317.858966,1628.453072,1378.971896,11843.295072
5317.859288,2442.679609,1532.190996,10510.924376
5317.859611,1184.329507,459.657299,11251.130318
5317.859933,-666.185348,-1532.190996,10881.027347
5317.860256,0.000000,-2298.286494,10732.986159
5317.860579,148.041188,-1608.800546,9252.574275
5317.860901,0.000000,-1149.143247,8438.347739
5317.861224,-518.144159,-1915.238745,9474.636058
5317.861546,-148.041188,-2145.067394,8956.491898
5317.861869,296.082377,-995.924147,8734.430116
5317.862191,0.000000,-995.924147,7772.162391
5317.862514,1258.350101,-689.485948,10066.800811
5317.862836,1702.473667,76.609550,10658.965565
5317.863159,1184.329507,1685.410096,10807.006753
5317.863481,666.185348,689.485948,10658.965565
5317.863804,-518.144159,-383.047749,10140.821405
5317.864126,-1332.370696,-995.924147,10214.842000
5317.864449,-2072.576638,-1378.971896,9474.636058
5317.864772,-1924.535449,-1532.190996,9474.636058
5317.865094,-1110.308913,-995.924147,9104.533087
5317.865417,-2072.576638,-689.485948,9400.615463
5317.865739,-1258.350101,-1149.143247,8882.471304
5317.866062,-370.102971,-306.438199,7105.977043
5317.866384,-1184.329507,0.000000,7994.224174
5317.866707,-444.123565,612.876398,8734.430116
5317.867029,370.102971,1149.143247,9104.533087
5317.867352,1628.453072,2451.505594,9252.574275
5317.867674,666.185348,2757.943793,10584.944971
5317.867997,-1332.370696,1532.190996,10955.047942
5317.868319,0.000000,1302.362347,11029.068536
5317.868642,-740.205942,1838.629195,10288.862594
5317.868965,-1480.411884,153.219100,9622.677246
5317.869287,-2072.576638,0.000000,9474.636058
5317.869610,-1702.473667,-306.438199,9178.553681
5317.869932,-740.205942,536.266849,7994.224174
5317.870255,-1036.288319,76.609550,6513.812290
5317.870577,-1036.288319,1149.143247,7476.080014
5317.870900,148.041188,1225.752797,8956.491898
5317.871222,0.000000,1455.581446,8290.306550
5317.871545,2220.617826,2451.505594,8142.265362
5317.871867,1850.514855,2681.334243,9696.697840
5317.872190,888.247130,2528.115143,10732.986159
5317.872513,1258.350101,2681.334243,12139.377449
5317.872835,1184.329507,2987.772442,10807.006753
5317.873158,962.267725,2068.457845,10584.944971
5317.873480,-1184.329507,229.828649,9770.718434
5317.873803,-666.185348,-306.438199,8808.450710
5317.874125,518.144159,0.000000,7550.100608
5317.874448,-518.144159,459.657299,7402.059420
5317.874770,-888.247130,-612.876398,7772.162391
5317.875093,-518.144159,0.000000,7920.203579
5317.875415,222.061783,1991.848295,7624.121203
5317.875738,1258.350101,1685.410096,7846.182985
5317.876060,1628.453072,2221.676944,8808.450710
5317.876383,2590.720797,2374.896044,10066.800811
5317.876706,2738.761985,2604.724693,11177.109724
5317.877028,2368.659014,2681.334243,10732.986159
5317.877351,1628.453072,2221.676944,11399.171507
5317.877673,740.205942,1532.190996,10955.047942
5317.877996,0.000000,-383.047749,10807.006753
5317.878318,0.000000,-459.657299,9104.533087
5317.878641,-1036.288319,-383.047749,9030.512492
5317.878963,-1998.556043,-1302.362347,8956.491898
5317.879286,-2664.741391,-1762.019645,8438.347739
5317.879608,-2442.679609,-459.657299,7328.038826
5317.879931,-1776.494261,-536.266849,7698.141797
5317.880254,-3552.988522,-1149.143247,7698.141797
5317.880576,-2368.659014,0.000000,8660.409521
5317.880899,-148.041188,842.705048,9400.615463
5317.881221,-1184.329507,1838.629195,10066.800811
5317.881544,-888.247130,1838.629195,10658.965565
5317.881866,0.000000,1149.143247,11547.212695
5317.882189,222.061783,1149.143247,10955.047942
5317.882511,-518.144159,459.657299,10140.821405
5317.882834,-740.205942,-842.705048,9548.656652
5317.883156,-444.123565,-1532.190996,9696.697840
5317.883479,-1480.411884,-1225.752797,9104.533087
5317.883801,-666.185348,-1072.533697,8216.285956
5317.884124,-1110.308913,-536.266849,7476.080014
5317.884447,-1702.473667,-1302.362347,7476.080014
5317.884769,-444.123565,0.000000,8142.265362
5317.885092,1110.308913,689.485948,8068.244768
5317.885414,1554.432478,2374.896044,8956.491898
5317.885737,1036.288319,2451.505594,10510.924376
5317.886059,518.144159,1838.629195,11991.336260
5317.886382,1480.411884,1532.190996,10658.965565
5317.886704,444.123565,1378.971896,10214.842000
5317.887027,-814.226536,842.705048,10807.006753
5317.887349,-888.247130,-1149.143247,9992.780217
5317.887672,-1332.370696,-1149.143247,8882.471304
5317.887994,-1036.288319,-766.095498,7920.203579
5317.888317,-2220.617826,-1608.800546,7994.224174
5317.888640,-2368.659014,-1149.143247,7846.182985
5317.888962,-370.102971,0.000000,8586.388927
5317.889285,592.164754,919.314598,7920.203579
5317.889607,1628.453072,2145.067394,8290.306550
5317.889930,2220.617826,2451.505594,10140.821405
5317.890252,2960.823768,3600.648841,11103.089130
5317.890575,3256.906145,3753.867940,10807.006753
5317.890897,2664.741391,3217.601092,10362.883188
5317.891220,1924.535449,1915.238745,11325.150913
5317.891542,0.000000,1302.362347,10510.924376
5317.891865,-666.185348,229.828649,9474.636058
5317.892188,0.000000,76.609550,7179.997637
5317.892510,-2220.617826,-383.047749,7624.121203
5317.892833,-3404.947333,-1072.533697,7920.203579
5317.893155,-2146.597232,-842.705048,7624.121203
5317.893478,-1554.432478,0.000000,6439.791695
5317.893800,-1184.329507,1072.533697,7031.956449
5317.894123,-370.102971,919.314598,9326.594869
5317.894445,1480.411884,2528.115143,9696.697840
5317.894768,1554.432478,3600.648841,9992.780217
5317.895090,222.061783,3064.381992,10807.006753
5317.895413,0.000000,2374.896044,11547.212695
5317.895735,-148.041188,1455.581446,11695.253884
5317.896058,-1184.329507,612.876398,10214.842000
5317.896381,-1702.473667,-536.266849,9030.512492
5317.896703,-2368.659014,-1302.362347,8808.450710
5317.897026,-2442.679609,-1608.800546,8882.471304
5317.897348,-2368.659014,-1685.410096,8068.244768
5317.897671,-2738.761985,-1455.581446,7254.018232
5317.897993,-2368.659014,-995.924147,7031.956449
5317.898316,-1332.370696,0.000000,7994.224174
5317.898638,1776.494261,536.266849,8216.285956
5317.898961,3404.947333,2374.896044,9178.553681
5317.899283,1628.453072,2681.334243,10881.027347
5317.899606,1554.432478,1685.410096,12805.562797
5317.899929,1924.535449,1302.362347,12213.398043
5317.900251,1554.432478,1149.143247,11473.192101
5317.900574,296.082377,153.219100,11029.068536
5317.900896,-740.205942,-2145.067394,10658.965565
5317.901219,0.000000,-2145.067394,9252.574275
5317.901541,0.000000,-1685.410096,7994.224174
5317.901864,-888.247130,-1991.848295,7550.100608
5317.902186,-1332.370696,-1915.238745,7624.121203
5317.902509,-1036.288319,-1532.190996,7920.203579
5317.902831,1850.514855,153.219100,7920.203579
5317.903154,3108.864956,612.876398,7550.100608
5317.903476,2590.720797,2298.286494,9696.697840
5317.903799,1776.494261,2681.334243,12139.377449
5317.904122,1554.432478,2374.896044,12139.377449
5317.904444,2146.597232,2374.896044,11177.109724
5317.904767,1702.473667,1838.629195,10214.842000
5317.905089,-740.205942,306.438199,11029.068536
5317.905412,-814.226536,0.000000,9400.615463
5317.905734,148.041188,-536.266849,8586.388927
5317.906057,-1184.329507,-612.876398,6809.894666
5317.906379,-2886.803174,-766.095498,7698.141797
5317.906702,-2368.659014,-995.924147,7624.121203
5317.907024,-814.226536,229.828649,6883.915261
5317.907347,-1036.288319,1302.362347,6809.894666
5317.907669,-1332.370696,2298.286494,8290.306550
5317.907992,0.000000,2451.505594,9918.759623
5317.908315,222.061783,2681.334243,10066.800811
5317.908637,740.205942,3600.648841,9548.656652
5317.908960,296.082377,3294.210641,11029.068536
5317.909282,-1184.329507,2298.286494,11325.150913
5317.909605,-1554.432478,1302.362347,11177.109724
5317.909927,-1406.391290,306.438199,8734.430116
5317.910250,-1332.370696,0.000000,7920.203579
5317.910572,-2294.638420,0.000000,8882.471304
5317.910895,-2294.638420,-76.609550,8438.347739
5317.911217,-1332.370696,0.000000,7846.182985
5317.911540,-1184.329507,383.047749,6883.915261
5317.911863,-1406.391290,612.876398,8216.285956
5317.912185,370.102971,612.876398,7846.182985
5317.912508,1406.391290,2757.943793,9770.718434
5317.912830,2146.597232,2834.553343,9696.697840
5317.913153,148.041188,2374.896044,11621.233289
5317.913475,0.000000,1838.629195,11325.150913
5317.913798,-592.164754,1225.752797,12213.398043
5317.914120,-1850.514855,153.219100,10584.944971
5317.914443,-1036.288319,-919.314598,9770.718434
5317.914765,-1480.411884,-1225.752797,8882.471304
5317.915088,-740.205942,-1378.971896,9400.615463
5317.915410,-1628.453072,-1302.362347,7328.038826
5317.915733,-962.267725,-1302.362347,6957.935855
5317.916056,-444.123565,-1225.752797,7254.018232
5317.916378,-222.061783,-919.314598,8364.327145
5317.916701,1702.473667,689.485948,8142.265362
5317.917023,3182.885551,1762.019645,9104.533087
5317.917346,2516.700203,1685.410096,10807.006753
5317.917668,2516.700203,1455.581446,11769.274478
5317.917991,2368.659014,1608.800546,12213.398043
5317.918313,2294.638420,1762.019645,10658.965565
5317.918636,1036.288319,612.876398,11251.130318
5317.918958,1184.329507,0.000000,9770.718434
5317.919281,1924.535449,-153.219100,9252.574275
5317.919603,296.082377,-383.047749,7550.100608
5317.919926,-370.102971,-689.485948,8290.306550
5317.920249,-1406.391290,-1685.410096,8216.285956
5317.920571,-1110.308913,-1302.362347,7772.162391
5317.920894,-814.226536,-383.047749,7994.224174
5317.921216,-962.267725,0.000000,8808.450710
5317.921539,-814.226536,842.705048,9548.656652
5317.921861,444.123565,1225.752797,9992.780217
5317.922184,-74.020594,1915.238745,10436.903782
5317.922506,-740.205942,2145.067394,10066.800811
5317.922829,-666.185348,1608.800546,11325.150913
5317.923151,-1332.370696,459.657299,10807.006753
5317.923474,-1332.370696,-306.438199,9252.574275
5317.923797,-1110.308913,-153.219100,8142.265362
5317.924119,-2960.823768,0.000000,8734.430116
5317.924442,-2738.761985,-1455.581446,8438.347739
5317.924764,-2368.659014,-995.924147,7920.203579
5317.925087,-1776.494261,-1072.533697,7105.977043
5317.925409,-2368.659014,0.000000,7402.059420
5317.925732,-962.267725,153.219100,8512.368333
5317.926054,666.185348,842.705048,9770.718434
5317.926377,1184.329507,2221.676944,9548.656652
5317.926699,148.041188,2298.286494,10881.027347
5317.927022,962.267725,2451.505594,11547.212695
5317.927344,1850.514855,2298.286494,11621.233289
5317.927667,1406.391290,1762.019645,10362.883188
5317.927990,592.164754,229.828649,10140.821405
5317.928312,444.123565,-1302.362347,9474.636058
5317.928635,-1110.308913,-612.876398,8808.450710
5317.928957,-666.185348,-766.095498,7624.121203
5317.929280,-1184.329507,-1685.410096,7476.080014
5317.929602,-2368.659014,-1378.971896,7994.224174
5317.929925,-1258.350101,-1149.143247,8734.430116
5317.930247,148.041188,-383.047749,8586.388927
5317.930570,1628.453072,1455.581446,8956.491898
5317.930892,1702.473667,2068.457845,10584.944971
5317.931215,888.247130,1532.190996,12065.356855
5317.931538,2664.741391,2451.505594,12065.356855
5317.931860,2590.720797,2604.724693,10732.986159
5317.932183,814.226536,1072.533697,10510.924376
5317.932505,370.102971,0.000000,10510.924376
5317.932828,666.185348,-383.047749,8956.491898
5317.933150,518.144159,0.000000,8216.285956
5317.933473,-592.164754,-153.219100,7328.038826
5317.933795,-1406.391290,-1149.143247,7698.141797
5317.934118,-888.247130,-229.828649,7328.038826
5317.934440,-222.061783,153.219100,7105.977043
5317.934763,444.123565,1302.362347,7254.018232
5317.935085,962.267725,2298.286494,8882.471304
5317.935408,1110.308913,3294.210641,10881.027347
5317.935731,2072.576638,3907.087040,10955.047942
5317.936053,1628.453072,3983.696590,10955.047942
5317.936376,296.082377,2911.162892,10362.883188
5317.936698,-518.144159,2145.067394,11547.212695
5317.937021,-296.082377,1685.410096,9400.615463
5317.937343,666.185348,1608.800546,8808.450710
5317.937666,-592.164754,1225.752797,7920.203579
5317.937988,-3404.947333,76.609550,8956.491898
5317.938311,-2294.638420,-306.438199,8290.306550
5317.938633,-2072.576638,612.876398,6883.915261
5317.938956,-1924.535449,919.314598,7179.997637
5317.939278,-2072.576638,612.876398,8438.347739
5317.939601,-1332.370696,1455.581446,9474.636058
5317.939924,74.020594,2987.772442,9474.636058
5317.940246,-1110.308913,2681.334243,9400.615463
5317.940569,-1406.391290,2068.457845,10436.903782
5317.940891,-1406.391290,1149.143247,10881.027347
5317.941214,-2220.617826,536.266849,10362.883188
5317.941536,-1702.473667,153.219100,8660.409521
5317.941859,-2220.617826,-689.485948,8512.368333
5317.942181,-2368.659014,-1455.581446,7920.203579
5317.942504,-1776.494261,-1225.752797,7920.203579
5317.942826,-1406.391290,-1608.800546,7179.997637
5317.943149,0.000000,-995.924147,7550.100608
5317.943472,148.041188,-1149.143247,8660.409521
5317.943794,1850.514855,-536.266849,9474.636058
5317.944117,4293.194464,1072.533697,9622.677246
5317.944439,3775.050304,1608.800546,10658.965565
5317.944762,2886.803174,1532.190996,12657.521608
5317.945084,3034.844362,383.047749,13397.727550
5317.945407,3627.009116,919.314598,11917.315666
5317.945729,2368.659014,0.000000,10881.027347
5317.946052,-222.061783,-1915.238745,10584.944971
5317.946375,-444.123565,-2374.896044,10140.821405
5317.946697,-888.247130,-1685.410096,9474.636058
5317.947020,-2146.597232,-1838.629195,8216.285956
5317.947342,-2812.782580,-2451.505594,8438.347739
5317.947665,-3330.926739,-2604.724693,8290.306550
5317.947987,-2220.617826,-2298.286494,8438.347739
5317.948310,-518.144159,-995.924147,8068.244768
5317.948633,-1184.329507,383.047749,8808.450710
5317.948955,-518.144159,612.876398,11029.068536
5317.949278,-888.247130,689.485948,11177.109724
5317.949600,-740.205942,1149.143247,9844.739029
5317.949923,1110.308913,1532.190996,9030.512492
5317.950245,-1332.370696,612.876398,9400.615463
5317.950568,-1184.329507,0.000000,9992.780217
5317.950890,444.123565,76.609550,8586.388927
5317.951213,296.082377,766.095498,7920.203579
5317.951536,-518.144159,1072.533697,7994.224174
5317.951858,-518.144159,383.047749,8882.471304
5317.952181,1332.370696,919.314598,8142.265362
5317.952503,1554.432478,2298.286494,7328.038826
5317.952826,1258.350101,2298.286494,8364.327145
5317.953148,1998.556043,2604.724693,9622.677246
5317.953471,1702.473667,3064.381992,10436.903782
5317.953794,1184.329507,3677.258390,9400.615463
5317.954116,592.164754,3064.381992,9696.697840
5317.954439,-1332.370696,2451.505594,9844.739029
5317.954761,-1406.391290,1455.581446,10362.883188
5317.955084,-1628.453072,459.657299,9178.553681
5317.955406,-2220.617826,0.000000,7698.141797
5317.955729,-3330.926739,-459.657299,8142.265362
5317.956051,-3849.070898,-689.485948,8882.471304
5317.956374,-2812.782580,-1149.143247,8068.244768
5317.956697,-2368.659014,-229.828649,7328.038826
5317.957019,-2146.597232,0.000000,7624.121203
5317.957342,-1184.329507,-153.219100,9104.533087
5317.957664,444.123565,995.924147,9326.594869
5317.957987,2664.741391,2757.943793,10362.883188
5317.958309,1702.473667,3064.381992,11177.109724
5317.958632,1924.535449,2451.505594,12139.377449
5317.958955,3256.906145,3140.991542,11547.212695
5317.959277,2368.659014,2451.505594,10288.862594
5317.959600,2516.700203,612.876398,9400.615463
5317.959922,1850.514855,536.266849,9844.739029
5317.960245,1332.370696,229.828649,9548.656652
5317.960567,962.267725,-76.609550,8142.265362
5317.960890,1184.329507,0.000000,6735.874072
5317.961212,518.144159,-229.828649,7994.224174
5317.961535,-1036.288319,-536.266849,7402.059420
5317.961858,-148.041188,0.000000,7920.203579
5317.962180,1628.453072,1455.581446,7698.141797
5317.962503,814.226536,1991.848295,10066.800811
5317.962825,-444.123565,1762.019645,10732.986159
5317.963148,-518.144159,1455.581446,11473.192101
5317.963470,-222.061783,1685.410096,9992.780217
5317.963793,-1258.350101,842.705048,10140.821405
5317.964116,-2516.700203,-536.266849,10214.842000
5317.964438,-2146.597232,-1608.800546,9548.656652
5317.964761,-2368.659014,-1072.533697,8216.285956
5317.965083,-3775.050304,-1608.800546,7920.203579
5317.965406,-3923.091493,-2451.505594,8142.265362
5317.965728,-3849.070898,-2221.676944,7698.141797
5317.966051,-2072.576638,-1302.362347,7994.224174
5317.966374,-1110.308913,-76.609550,8068.244768
5317.966696,-444.123565,995.924147,9252.574275
5317.967019,1110.308913,1685.410096,11029.068536
5317.967341,1258.350101,2068.457845,11325.150913
5317.967664,1184.329507,2374.896044,11399.171507
5317.967986,1850.514855,2451.505594,11547.212695
5317.968309,1110.308913,1685.410096,12509.480420
5317.968631,592.164754,0.000000,11103.089130
5317.968954,296.082377,-383.047749,8586.388927
5317.969277,518.144159,0.000000,8142.265362
5317.969599,-296.082377,-306.438199,8216.285956
5317.969922,-962.267725,-766.095498,7920.203579
5317.970244,-444.123565,-995.924147,7328.038826
5317.970567,-888.247130,-306.438199,7402.059420
5317.970889,-1554.432478,0.000000,7994.224174
5317.971212,-666.185348,536.266849,9474.636058
5317.971535,0.000000,1149.143247,9844.739029
5317.971857,-592.164754,1685.410096,9992.780217
5317.972180,-814.226536,1072.533697,11325.150913
5317.972502,-370.102971,1072.533697,11251.130318
5317.972825,0.000000,995.924147,10066.800811
5317.973147,-1110.308913,0.000000,8068.244768
5317.973470,-666.185348,-919.314598,8364.327145
5317.973792,-592.164754,-612.876398,8364.327145
5317.974115,-444.123565,-229.828649,7920.203579
5317.974438,518.144159,-306.438199,7698.141797
5317.974760,-296.082377,-153.219100,7105.977043
5317.975083,-444.123565,-536.266849,8364.327145
5317.975405,1480.411884,842.705048,9104.533087
5317.975728,2738.761985,1378.971896,9400.615463
5317.976050,3330.926739,2911.162892,10140.821405
5317.976373,1702.473667,2451.505594,12361.439231
5317.976696,1406.391290,2451.505594,13027.624579
5317.977018,1998.556043,2374.896044,11103.089130
5317.977341,0.000000,1532.190996,10362.883188
5317.977663,-1184.329507,-383.047749,9622.677246
5317.977986,-1850.514855,-459.657299,9252.574275
5317.978308,-2072.576638,-383.047749,7328.038826
5317.978631,-2294.638420,-306.438199,7105.977043
5317.978953,-4145.153275,-995.924147,7105.977043
5317.979276,-3404.947333,-689.485948,7920.203579
5317.979599,-2220.617826,459.657299,7772.162391
5317.979921,-888.247130,1532.190996,8364.327145
5317.980244,1110.308913,3217.601092,9474.636058
5317.980566,1702.473667,2987.772442,10955.047942
5317.980889,2294.638420,3753.867940,12065.356855
5317.981211,2294.638420,4290.134789,11991.336260
5317.981534,1332.370696,3217.601092,10881.027347
5317.981857,666.185348,1149.143247,11325.150913
5317.982179,-666.185348,1072.533697,9622.677246
5317.982502,-1036.288319,153.219100,8512.368333
5317.982824,-888.247130,0.000000,6957.935855
5317.983147,-3256.906145,-536.266849,6661.853478
5317.983469,-2368.659014,-1225.752797,6661.853478
5317.983792,-2368.659014,-153.219100,6291.750507
5317.984114,-3034.844362,612.876398,6883.915261
5317.984437,-1406.391290,153.219100,7105.977043
5317.984760,-592.164754,1149.143247,8290.306550
5317.985082,2442.679609,2451.505594,8808.450710
5317.985405,2368.659014,2911.162892,9400.615463
5317.985727,1628.453072,2757.943793,10140.821405
5317.986050,2664.741391,2528.115143,11547.212695
5317.986372,2368.659014,1225.752797,10510.924376
5317.986695,2664.741391,383.047749,9696.697840
5317.987018,3034.844362,153.219100,8956.491898
5317.987340,1554.432478,-536.266849,9770.718434
5317.987663,1480.411884,-1149.143247,9770.718434
5317.987985,1702.473667,-1072.533697,9030.512492
5317.988308,1184.329507,-536.266849,8438.347739
5317.988630,0.000000,-842.705048,9992.780217
5317.988953,444.123565,-1225.752797,10288.862594
5317.989275,1776.494261,153.219100,10436.903782
5317.989598,2368.659014,1685.410096,9548.656652
5317.989921,-444.123565,919.314598,11547.212695
5317.990243,-1184.329507,383.047749,13027.624579
5317.990566,-1480.411884,76.609550,12139.377449
5317.990888,-2738.761985,-612.876398,9770.718434
5317.991211,-4441.235652,-2068.457845,9400.615463
5317.991533,-5773.606348,-2604.724693,9622.677246
5317.991856,-4663.297435,-3064.381992,9104.533087
5317.992179,-4293.194464,-2374.896044,7476.080014
5317.992501,-4589.276840,-2528.115143,7328.038826
5317.992824,-3923.091493,-2451.505594,7105.977043
5317.993146,-3034.844362,-1762.019645,7994.224174
5317.993469,0.000000,0.000000,7476.080014
5317.993791,1702.473667,1302.362347,7402.059420
5317.994114,2812.782580,2374.896044,9104.533087
5317.994436,2368.659014,2451.505594,11399.171507
5317.994759,2664.741391,3064.381992,11399.171507
5317.995082,3775.050304,3370.820191,10214.842000
5317.995404,1776.494261,1991.848295,10288.862594
5317.995727,-444.123565,459.657299,10362.883188
5317.996049,74.020594,-536.266849,9992.780217
5317.996372,-148.041188,0.000000,7920.203579
5317.996694,-2294.638420,-766.095498,7772.162391
5317.997017,-2516.700203,-459.657299,7698.141797
5317.997340,-2368.659014,-1225.752797,7994.224174
5317.997662,-1554.432478,76.609550,6809.894666
5317.997985,-962.267725,919.314598,7476.080014
5317.998307,-518.144159,1532.190996,9400.615463
5317.998630,0.000000,2681.334243,10658.965565
5317.998952,888.247130,3217.601092,10658.965565
5317.999275,1110.308913,3677.258390,10807.006753
5317.999597,814.226536,2987.772442,11769.274478
5317.999920,0.000000,2298.286494,11769.274478
5318.000243,296.082377,1455.581446,10658.965565
5318.000565,888.247130,842.705048,9030.512492
5318.000888,1110.308913,1072.533697,8216.285956
5318.001210,0.000000,383.047749,9326.594869
5318.001533,0.000000,689.485948,8364.327145
5318.001855,962.267725,306.438199,7402.059420
5318.002178,1480.411884,1532.190996,6809.894666
5318.002501,1998.556043,2068.457845,8956.491898
5318.002823,2368.659014,2681.334243,8808.450710
5318.003146,3404.947333,4290.134789,9548.656652
5318.003468,2590.720797,3907.087040,9400.615463
5318.003791,888.247130,3294.210641,9770.718434
5318.004113,666.185348,2911.162892,10362.883188
5318.004436,-370.102971,2451.505594,10732.986159
5318.004758,-1406.391290,919.314598,9104.533087
5318.005081,-1480.411884,-459.657299,8364.327145
5318.005404,-2516.700203,-1378.971896,8068.244768
5318.005726,-3182.885551,-1378.971896,8364.327145
5318.006049,-3627.009116,-1838.629195,6809.894666
5318.006371,-3627.009116,-2374.896044,6809.894666
5318.006694,-3330.926739,-2145.067394,7772.162391
5318.007016,-2590.720797,-1455.581446,8808.450710
5318.007339,-1036.288319,76.609550,9770.718434
5318.007662,-148.041188,1072.533697,9992.780217
5318.007984,-296.082377,459.657299,12213.398043
5318.008307,518.144159,689.485948,12065.356855
5318.008629,148.041188,1302.362347,12583.501014
5318.008952,-444.123565,612.876398,11547.212695
5318.009274,-1702.473667,-689.485948,12065.356855
5318.009597,-740.205942,-2145.067394,9696.697840
5318.009919,-444.123565,-1378.971896,8364.327145
5318.010242,-1480.411884,-1838.629195,7402.059420
5318.010565,-2146.597232,-2604.724693,7402.059420
5318.010887,-1850.514855,-3217.601092,7402.059420
5318.011210,-814.226536,-2451.505594,6735.874072
5318.011532,666.185348,-1378.971896,7476.080014
5318.011855,370.102971,-459.657299,9178.553681
5318.012177,1480.411884,1532.190996,10732.986159
5318.012500,2590.720797,995.924147,12213.398043
5318.012823,2072.576638,1455.581446,11695.253884
5318.013145,2146.597232,1072.533697,12213.398043
5318.013468,962.267725,766.095498,12509.480420
5318.013790,222.061783,-306.438199,11621.233289
5318.014113,1110.308913,-1072.533697,8438.347739
5318.014435,-370.102971,-1608.800546,7772.162391
5318.014758,-592.164754,-1608.800546,7698.141797
5318.015080,-888.247130,-1915.238745,6735.874072
5318.015403,-1554.432478,-1915.238745,7179.997637
5318.015726,-370.102971,-1072.533697,6291.750507
5318.016048,-666.185348,-612.876398,8068.244768
5318.016371,370.102971,842.705048,9252.574275
5318.016693,1776.494261,2221.676944,11325.150913
5318.017016,888.247130,3140.991542,11621.233289
5318.017338,1998.556043,3524.039291,12213.398043
5318.017661,2220.617826,3677.258390,13767.830521
5318.017984,2590.720797,3140.991542,11917.315666
5318.018306,1110.308913,2528.115143,11029.068536
5318.018629,1110.308913,1608.800546,9030.512492
5318.018951,666.185348,995.924147,9030.512492
5318.019274,0.000000,1072.533697,8438.347739
5318.019596,-1480.411884,689.485948,7698.141797
5318.019919,-2294.638420,0.000000,6883.915261
5318.020241,-2960.823768,459.657299,7254.018232
5318.020564,-2072.576638,1455.581446,8290.306550
5318.020887,-962.267725,2757.943793,8956.491898
5318.021209,-666.185348,4519.963438,9622.677246
5318.021532,-666.185348,4826.401637,10955.047942
5318.021854,-740.205942,4979.620737,11695.253884
5318.022177,962.267725,5209.449386,10658.965565
5318.022499,-222.061783,4673.182538,9326.594869
5318.022822,-1924.535449,2681.334243,9770.718434
5318.023145,-1184.329507,1991.848295,8142.265362
5318.023467,-148.041188,2145.067394,7254.018232
5318.023790,-296.082377,2451.505594,5773.606348
5318.024112,-1776.494261,1225.752797,6513.812290
5318.024435,-2590.720797,919.314598,6143.709319
5318.024757,-1850.514855,919.314598,5699.585753
5318.025080,-222.061783,1838.629195,5403.503377
5318.025402,148.041188,2374.896044,6809.894666
5318.025725,0.000000,2911.162892,9400.615463
5318.026048,1110.308913,3294.210641,10436.903782
5318.026370,2146.597232,2757.943793,9252.574275
5318.026693,1554.432478,2757.943793,8882.471304
5318.027015,370.102971,1991.848295,9770.718434
5318.027338,-222.061783,153.219100,10658.965565
5318.027660,740.205942,-612.876398,9030.512492
5318.027983,2368.659014,-766.095498,7402.059420
5318.028306,0.000000,-1838.629195,8882.471304
5318.028628,-1554.432478,-3140.991542,9104.533087
5318.028951,-370.102971,-3064.381992,10584.944971
5318.029273,518.144159,-2374.896044,9104.533087
5318.029596,814.226536,-2451.505594,10362.883188
5318.029918,1110.308913,-2374.896044,11621.233289
5318.030241,2664.741391,-1302.362347,13249.686362
5318.030563,3182.885551,-153.219100,12805.562797
5318.030886,2072.576638,-689.485948,12509.480420
5318.031209,1998.556043,-459.657299,13397.727550
5318.031531,444.123565,-1378.971896,13249.686362
5318.031854,-888.247130,-2911.162892,12213.398043
5318.032176,-1110.308913,-3217.601092,9844.739029
5318.032499,-2516.700203,-4060.306139,9474.636058
5318.032821,-4219.173869,-4826.401637,9104.533087
5318.033144,-4663.297435,-5132.839837,8734.430116
5318.033467,-5107.421000,-4213.525239,7402.059420
5318.033789,-4293.194464,-3370.820191,6809.894666
5318.034112,-3552.988522,-3677.258390,7105.977043
5318.034434,-1776.494261,-2145.067394,7846.182985
5318.034757,888.247130,229.828649,8142.265362
5318.035079,-296.082377,1149.143247,9178.553681
5318.035402,148.041188,1991.848295,10732.986159
5318.035724,1036.288319,1838.629195,10288.862594
5318.036047,1332.370696,1915.238745,9474.636058
5318.036370,1332.370696,1378.971896,9400.615463
5318.036692,444.123565,689.485948,9030.512492
5318.037015,148.041188,306.438199,8512.368333
5318.037337,0.000000,612.876398,7920.203579
5318.037660,-1554.432478,153.219100,7179.997637
5318.037982,-1998.556043,0.000000,7179.997637
5318.038305,-1924.535449,76.609550,7846.182985
5318.038628,-370.102971,919.314598,7772.162391
5318.038950,2294.638420,2451.505594,7328.038826
5318.039273,2072.576638,4213.525239,9400.615463
5318.039595,1480.411884,4596.572988,11177.109724
5318.039918,1406.391290,4596.572988,12065.356855
5318.040240,1554.432478,5209.449386,11177.109724
5318.040563,1480.411884,4519.963438,10955.047942
5318.040885,-962.267725,2987.772442,10807.006753
5318.041208,-666.185348,2604.724693,10214.842000
5318.041531,148.041188,2451.505594,8216.285956
5318.041853,-1184.329507,1762.019645,7179.997637
5318.042176,-2886.803174,995.924147,7402.059420
5318.042498,-2368.659014,766.095498,7698.141797
5318.042821,-444.123565,1455.581446,7179.997637
5318.043143,296.082377,2298.286494,5847.626942
5318.043466,2072.576638,2145.067394,6809.894666
5318.043789,3256.906145,3447.429741,9252.574275
5318.044111,3182.885551,4596.572988,10214.842000
5318.044434,3997.112087,5362.668486,10510.924376
5318.044757,3552.988522,5056.230287,10881.027347
5318.045079,2368.659014,3524.039291,11325.150913
5318.045402,1480.411884,1685.410096,10807.006753
5318.045725,962.267725,1225.752797,9326.594869
5318.046047,1850.514855,766.095498,7624.121203
5318.046370,-1480.411884,-153.219100,8364.327145
5318.046692,-1628.453072,-1072.533697,7772.162391
5318.047015,-2146.597232,-1915.238745,7624.121203
5318.047338,-2442.679609,-1532.190996,5995.668130
5318.047660,-1924.535449,-1915.238745,7846.182985
5318.047983,-1776.494261,-1915.238745,8438.347739
5318.048306,-814.226536,-1225.752797,10214.842000
5318.048628,-296.082377,536.266849,10658.965565
5318.048951,-1998.556043,-229.828649,12361.439231
5318.049274,-1850.514855,-383.047749,12657.521608
5318.049596,-1776.494261,-995.924147,12435.459826
5318.049919,-2146.597232,-1532.190996,11325.150913
5318.050242,-1998.556043,-2681.334243,10510.924376
5318.050564,-2368.659014,-2604.724693,10584.944971
5318.050887,-1702.473667,-2987.772442,9104.533087
5318.051209,-1628.453072,-2987.772442,7550.100608
5318.051532,-1258.350101,-3064.381992,7328.038826
5318.051855,-1110.308913,-3140.991542,8290.306550
5318.052177,-1480.411884,-2757.943793,8882.471304
5318.052500,1258.350101,-1532.190996,9252.574275
5318.052823,2220.617826,0.000000,9770.718434
5318.053145,370.102971,-153.219100,11547.212695
5318.053468,518.144159,306.438199,12213.398043
5318.053791,962.267725,459.657299,12065.356855
5318.054113,962.267725,1149.143247,10510.924376
5318.054436,148.041188,383.047749,10362.883188
5318.054758,0.000000,-306.438199,9918.759623
5318.055081,1184.329507,-383.047749,8512.368333
5318.055404,518.144159,-383.047749,6513.812290
5318.055726,-1776.494261,-612.876398,6957.935855
5318.056049,-1406.391290,-919.314598,7328.038826
5318.056372,-1924.535449,-1149.143247,7994.224174
5318.056694,-1184.329507,-229.828649,7476.080014
5318.057017,222.061783,689.485948,7698.141797
5318.057340,-296.082377,1149.143247,9326.594869
5318.057662,518.144159,2298.286494,11103.089130
5318.057985,444.123565,1762.019645,11029.068536
5318.058308,740.205942,2681.334243,10436.903782
5318.058630,1036.288319,2834.553343,10955.047942
5318.058953,1110.308913,2221.676944,10214.842000
5318.059275,1776.494261,1838.629195,8956.491898
5318.059598,1258.350101,2068.457845,7179.997637
5318.059921,444.123565,2451.505594,8660.409521
5318.060243,-444.123565,612.876398,8216.285956
5318.060566,-296.082377,689.485948,8216.285956
5318.060889,0.000000,766.095498,7328.038826
5318.061211,-888.247130,842.705048,7698.141797
5318.061534,-814.226536,1072.533697,9104.533087
5318.061857,592.164754,2068.457845,9474.636058
5318.062179,74.020594,2911.162892,10288.862594
5318.062502,-1036.288319,2451.505594,10436.903782
5318.062824,-1258.350101,2374.896044,11621.233289
5318.063147,0.000000,2221.676944,10362.883188
5318.063470,666.185348,1991.848295,9030.512492
5318.063792,-592.164754,1532.190996,8660.409521
5318.064115,-518.144159,1455.581446,8734.430116
5318.064438,-962.267725,1149.143247,9030.512492
5318.064760,-444.123565,995.924147,8364.327145
5318.065083,666.185348,919.314598,7550.100608
5318.065406,-666.185348,1072.533697,8438.347739
5318.065728,-814.226536,612.876398,9474.636058
5318.066051,592.164754,842.705048,9326.594869
5318.066374,1554.432478,1991.848295,8660.409521
5318.066696,74.020594,2451.505594,10140.821405
5318.067019,-1406.391290,1302.362347,11695.253884
5318.067341,-1184.329507,1685.410096,10955.047942
5318.067664,0.000000,1225.752797,9178.553681
5318.067987,-1998.556043,306.438199,8290.306550
5318.068309,-2516.700203,-842.705048,8734.430116
5318.068632,-2220.617826,-995.924147,8512.368333
5318.068955,-2368.659014,-842.705048,7254.018232
5318.069277,-1110.308913,-995.924147,6735.874072
5318.069600,-2812.782580,-1991.848295,7031.956449
5318.069923,-2072.576638,-1608.800546,7476.080014
5318.070245,-592.164754,-919.314598,7328.038826
5318.070568,1184.329507,76.609550,7550.100608
5318.070890,3182.885551,919.314598,8734.430116
5318.071213,3701.029710,1225.752797,12139.377449
5318.071536,4515.256246,1455.581446,12139.377449
5318.071858,4589.276840,1608.800546,11769.274478
5318.072181,3478.967927,1455.581446,11843.295072
5318.072504,3182.885551,0.000000,13397.727550
5318.072826,2738.761985,-842.705048,11843.295072
5318.073149,3478.967927,-383.047749,10881.027347
5318.073472,1998.556043,-995.924147,10436.903782
5318.073794,-1332.370696,-1915.238745,10362.883188
5318.074117,-1850.514855,-2757.943793,9622.677246
5318.074440,-1406.391290,-2221.676944,9030.512492
5318.074762,-2220.617826,-1225.752797,8512.368333
5318.075085,-1702.473667,-1302.362347,9030.512492
5318.075407,-1702.473667,-229.828649,10807.006753
5318.075730,-1406.391290,383.047749,10584.944971
5318.076053,-1924.535449,383.047749,9622.677246
5318.076375,-2664.741391,229.828649,10362.883188
5318.076698,-2886.803174,306.438199,11399.171507
5318.077021,-3552.988522,-383.047749,10288.862594
5318.077343,-2886.803174,-995.924147,8364.327145
5318.077666,-2664.741391,-995.924147,7624.121203
5318.077989,-3478.967927,-1302.362347,7476.080014
5318.078311,-2812.782580,-612.876398,7698.141797
5318.078634,-1628.453072,-536.266849,6809.894666
5318.078957,-592.164754,306.438199,6809.894666
5318.079279,-666.185348,612.876398,7476.080014
5318.079602,592.164754,1378.971896,8438.347739
5318.079924,3775.050304,3447.429741,8586.388927
5318.080247,3849.070898,4060.306139,8364.327145
5318.080570,2590.720797,3677.258390,9992.780217
5318.080892,2368.659014,3524.039291,10881.027347
5318.081215,1998.556043,3140.991542,10362.883188
5318.081538,1258.350101,2451.505594,9030.512492
5318.081860,-666.185348,1149.143247,8956.491898
5318.082183,-1850.514855,229.828649,9252.574275
5318.082506,-1850.514855,229.828649,9030.512492
5318.082828,-2738.761985,919.314598,7772.162391
5318.083151,-2368.659014,306.438199,7846.182985
5318.083473,-3108.864956,76.609550,9030.512492
5318.083796,-1924.535449,229.828649,9178.553681
5318.084119,370.102971,1762.019645,8660.409521
5318.084441,962.267725,2911.162892,8882.471304
5318.084764,1776.494261,2911.162892,10881.027347
5318.085087,1036.288319,2451.505594,11177.109724
5318.085409,1406.391290,3217.601092,11547.212695
5318.085732,2442.679609,3677.258390,9770.718434
5318.086055,518.144159,1762.019645,10436.903782
5318.086377,-370.102971,612.876398,9918.759623
5318.086700,1036.288319,612.876398,9030.512492
5318.087023,1702.473667,995.924147,7254.018232
5318.087345,444.123565,919.314598,7179.997637
5318.087668,148.041188,689.485948,7994.224174
5318.087990,2072.576638,995.924147,8660.409521
5318.088313,2812.782580,1838.629195,7550.100608
5318.088636,2146.597232,2068.457845,8438.347739
5318.088958,3108.864956,2298.286494,9918.759623
5318.089281,2442.679609,2298.286494,11103.089130
5318.089604,1554.432478,2757.943793,9992.780217
5318.089926,1406.391290,1762.019645,10881.027347
5318.090249,-1628.453072,536.266849,9622.677246
5318.090572,-3552.988522,-1225.752797,10066.800811
5318.090894,-3478.967927,-2451.505594,8364.327145
5318.091217,-3404.947333,-2757.943793,7698.141797
5318.091539,-4367.215058,-2757.943793,7624.121203
5318.091862,-6143.709319,-2911.162892,8956.491898
5318.092185,-4219.173869,-3753.867940,8808.450710
5318.092507,-3627.009116,-1915.238745,7846.182985
5318.092830,-3552.988522,-1608.800546,7994.224174
5318.093153,-1702.473667,-1915.238745,10288.862594
5318.093475,-296.082377,-612.876398,10881.027347
5318.093798,1110.308913,612.876398,11177.109724
5318.094121,222.061783,459.657299,11473.192101
5318.094443,-740.205942,-1072.533697,11769.274478
5318.094766,0.000000,-995.924147,11177.109724
5318.095089,-444.123565,-1838.629195,9696.697840
5318.095411,-370.102971,-2221.676944,8956.491898
5318.095734,0.000000,-2145.067394,9030.512492
5318.096056,-518.144159,-2528.115143,9178.553681
5318.096379,148.041188,-2221.676944,8142.265362
5318.096702,-296.082377,-1532.190996,7105.977043
5318.097024,-962.267725,-1378.971896,7846.182985
5318.097347,-296.082377,-1149.143247,9030.512492
5318.097670,370.102971,-612.876398,9178.553681
5318.097992,2220.617826,612.876398,9696.697840
5318.098315,1554.432478,995.924147,10510.924376
5318.098638,-370.102971,689.485948,12139.377449
5318.098960,0.000000,1225.752797,11843.295072
5318.099283,-370.102971,383.047749,10732.986159
5318.099605,0.000000,153.219100,9104.533087
5318.099928,-740.205942,-229.828649,9770.718434
5318.100251,-296.082377,-612.876398,9474.636058
5318.100573,518.144159,383.047749,8660.409521
5318.100896,-296.082377,306.438199,7624.121203
5318.101219,148.041188,766.095498,9104.533087
5318.101541,0.000000,1455.581446,8734.430116
5318.101864,888.247130,2528.115143,9178.553681
5318.102187,3108.864956,3447.429741,9326.594869
5318.102509,3034.844362,4596.572988,9548.656652
5318.102832,2368.659014,4673.182538,10881.027347
5318.103155,2516.700203,5362.668486,10955.047942
5318.103477,1998.556043,5132.839837,10510.924376
5318.103800,1850.514855,5439.278036,9030.512492
5318.104122,444.123565,4979.620737,9770.718434
5318.104445,74.020594,3217.601092,7994.224174
5318.104768,0.000000,2911.162892,7254.018232
5318.105090,-888.247130,2987.772442,6143.709319
5318.105413,-2220.617826,2374.896044,6957.935855
5318.105736,-3256.906145,1991.848295,6439.791695
5318.106058,-2072.576638,2681.334243,7105.977043
5318.106381,-962.267725,3370.820191,6365.771101
5318.106704,-1406.391290,3447.429741,7772.162391
5318.107026,962.267725,4519.963438,8586.388927
5318.107349,1036.288319,4903.011187,9992.780217
5318.107672,592.164754,5209.449386,9622.677246
5318.107994,962.267725,5056.230287,10732.986159
5318.108317,370.102971,3753.867940,10214.842000
5318.108639,0.000000,2451.505594,9770.718434
5318.108962,-296.082377,1762.019645,8290.306550
5318.109285,-1110.308913,153.219100,8068.244768
5318.109607,-1628.453072,-459.657299,7550.100608
5318.109930,-2960.823768,-1532.190996,7846.182985
5318.110253,-2886.803174,-1608.800546,7920.203579
5318.110575,-2812.782580,-1762.019645,7476.080014
5318.110898,-3108.864956,-2298.286494,8068.244768
5318.111221,-1332.370696,-2298.286494,8068.244768
5318.111543,370.102971,-383.047749,9696.697840
5318.111866,444.123565,842.705048,10214.842000
5318.112188,518.144159,459.657299,11843.295072
5318.112511,2368.659014,76.609550,11547.212695
5318.112834,3478.967927,-612.876398,10732.986159
5318.113156,2738.761985,-1455.581446,9548.656652
5318.113479,1184.329507,-2681.334243,11621.233289
5318.113802,1110.308913,-3370.820191,11843.295072
5318.114124,592.164754,-3830.477490,11621.233289
5318.114447,0.000000,-4596.572988,10066.800811
5318.114770,-1554.432478,-5209.449386,9696.697840
5318.115092,-1702.473667,-5592.497135,9844.739029
5318.115415,-2294.638420,-4673.182538,10140.821405
5318.115738,0.000000,-3064.381992,9548.656652
5318.116060,0.000000,-2221.676944,10658.965565
5318.116383,-370.102971,-995.924147,12065.356855
