#time,accel_x,accel_y,accel_z
2285.287462,-1628.453072,2145.067394,9622.677246
2285.287784,-1702.473667,1455.581446,11399.171507
2285.288106,-4071.132681,1149.143247,12139.377449
2285.288428,-5181.441594,919.314598,11769.274478
2285.288750,-3256.906145,1455.581446,10881.027347
2285.289072,-222.061783,2451.505594,8956.491898
2285.289394,-666.185348,2298.286494,9030.512492
2285.289716,-592.164754,3370.820191,6291.750507
2285.290038,0.000000,2834.553343,5551.544565
2285.290360,2072.576638,3677.258390,5255.462188
2285.290682,1110.308913,3064.381992,5847.626942
2285.291004,444.123565,2911.162892,6809.894666
2285.291327,0.000000,2834.553343,8364.327145
2285.291649,518.144159,1915.238745,9474.636058
2285.291971,962.267725,995.924147,11621.233289
2285.292293,-740.205942,1532.190996,11769.274478
2285.292615,-1628.453072,612.876398,12213.398043
2285.292937,-296.082377,919.314598,12435.459826
2285.293259,-370.102971,842.705048,12213.398043
2285.293581,-1480.411884,1302.362347,11769.274478
2285.293903,-1702.473667,1455.581446,11029.068536
2285.294225,-1850.514855,2068.457845,9844.739029
2285.294547,-1332.370696,2298.286494,9696.697840
2285.294869,-2294.638420,2374.896044,9622.677246
2285.295191,-4145.153275,2145.067394,9696.697840
2285.295513,-4885.359217,2068.457845,9326.594869
2285.295835,-4737.318029,1991.848295,9548.656652
2285.296157,-5181.441594,2528.115143,9992.780217
2285.296479,-6661.853478,2451.505594,10066.800811
2285.296801,-6365.771101,2681.334243,9474.636058
2285.297124,-5181.441594,3524.039291,9104.533087
2285.297446,-5329.482782,3983.696590,8586.388927
2285.297768,-6365.771101,3983.696590,8586.388927
2285.298090,-6217.729913,4443.353888,7920.203579
2285.298412,-4959.379811,5056.230287,6587.832884
2285.298734,-5033.400406,5132.839837,6513.812290
2285.299056,-5255.462188,4979.620737,6291.750507
2285.299378,-5329.482782,4979.620737,5921.647536
2285.299700,-4737.318029,5132.839837,6365.771101
2285.300022,-4885.359217,4596.572988,7105.977043
2285.300344,-6217.729913,4060.306139,8142.265362
2285.300666,-6365.771101,3907.087040,9030.512492
2285.300988,-5329.482782,4749.792088,9844.739029
2285.301310,-4441.235652,4826.401637,9696.697840
2285.301632,-4737.318029,3983.696590,9696.697840
2285.301954,-4219.173869,4826.401637,10732.986159
2285.302276,-2368.659014,4903.011187,9992.780217
2285.302598,0.000000,4903.011187,9178.553681
2285.302920,444.123565,4673.182538,8438.347739
2285.303243,296.082377,4596.572988,8438.347739
2285.303565,0.000000,4060.306139,8734.430116
2285.303887,222.061783,3524.039291,9474.636058
2285.304209,-148.041188,2834.553343,10066.800811
2285.304531,-1258.350101,2604.724693,10807.006753
2285.304853,-1480.411884,2068.457845,10955.047942
2285.305175,222.061783,2145.067394,11029.068536
2285.305497,888.247130,2528.115143,11621.233289
2285.305819,-1110.308913,2451.505594,11251.130318
2285.306141,-148.041188,2604.724693,10955.047942
2285.306463,1258.350101,2911.162892,8586.388927
2285.306785,2886.803174,3524.039291,7402.059420
2285.307107,2812.782580,3447.429741,6883.915261
2285.307429,1406.391290,2834.553343,7031.956449
2285.307751,2368.659014,1838.629195,7031.956449
2285.308073,1480.411884,1302.362347,8216.285956
2285.308395,-1406.391290,459.657299,9252.574275
2285.308717,-4219.173869,-459.657299,10436.903782
2285.309040,-3997.112087,-842.705048,10066.800811
2285.309362,-2442.679609,-919.314598,10955.047942
2285.309684,-4367.215058,-536.266849,11769.274478
2285.310005,-5329.482782,76.609550,11473.192101
2285.310327,-3849.070898,766.095498,11621.233289
2285.310649,-962.267725,1532.190996,8882.471304
2285.310971,592.164754,2374.896044,7772.162391
2285.311293,-518.144159,2145.067394,7105.977043
2285.311615,-962.267725,1915.238745,6661.853478
2285.311937,-592.164754,2145.067394,6513.812290
2285.312259,-1184.329507,1072.533697,7698.141797
2285.312581,-4219.173869,229.828649,9030.512492
2285.312903,-6069.688724,-842.705048,9696.697840
2285.313225,-6143.709319,-919.314598,11029.068536
2285.313547,-6069.688724,-1302.362347,13027.624579
2285.313869,-6957.935855,-1149.143247,13175.665768
2285.314191,-6661.853478,-229.828649,12065.356855
2285.314513,-4737.318029,1149.143247,9918.759623
2285.314835,-3330.926739,1915.238745,8882.471304
2285.315157,-2368.659014,2374.896044,7624.121203
2285.315479,-2294.638420,3370.820191,7624.121203
2285.315801,-1036.288319,4519.963438,6957.935855
2285.316122,-740.205942,3677.258390,6069.688724
2285.316444,-1924.535449,3217.601092,6587.832884
2285.316766,-2294.638420,2834.553343,7105.977043
2285.317088,-1628.453072,3064.381992,7846.182985
2285.317410,-888.247130,3217.601092,9400.615463
2285.317732,-2146.597232,1685.410096,10436.903782
2285.318054,-2960.823768,2145.067394,10584.944971
2285.318376,-1776.494261,2221.676944,9770.718434
2285.318698,-1036.288319,2528.115143,9400.615463
2285.319020,-740.205942,3140.991542,9844.739029
2285.319342,-666.185348,3370.820191,9400.615463
2285.319664,1036.288319,2681.334243,7254.018232
2285.319986,3552.988522,3217.601092,5625.565159
2285.320308,3552.988522,3753.867940,7624.121203
2285.320630,1850.514855,3753.867940,8290.306550
2285.320952,1554.432478,2451.505594,9474.636058
2285.321274,3404.947333,2221.676944,9992.780217
2285.321596,3330.926739,2068.457845,11473.192101
2285.321918,740.205942,2145.067394,12139.377449
2285.322240,-222.061783,1455.581446,11695.253884
2285.322561,1110.308913,689.485948,11399.171507
2285.322883,1998.556043,995.924147,10807.006753
2285.323205,1184.329507,1455.581446,10732.986159
2285.323527,296.082377,1685.410096,8734.430116
2285.323849,1406.391290,1149.143247,7179.997637
2285.324171,2812.782580,1455.581446,7328.038826
2285.324493,1258.350101,1532.190996,7624.121203
2285.324815,74.020594,995.924147,6661.853478
2285.325137,888.247130,536.266849,5995.668130
2285.325459,2664.741391,-306.438199,7254.018232
2285.325781,666.185348,-612.876398,9992.780217
2285.326103,-2220.617826,-1532.190996,10362.883188
2285.326425,-1924.535449,-2298.286494,10881.027347
2285.326747,-1332.370696,-1838.629195,10807.006753
2285.327069,-1332.370696,-2068.457845,11399.171507
2285.327391,-3330.926739,-1838.629195,11621.233289
2285.327713,-2960.823768,-1072.533697,8882.471304
2285.328035,222.061783,-995.924147,7772.162391
2285.328357,592.164754,-459.657299,8586.388927
2285.328678,-1332.370696,-766.095498,9178.553681
2285.329000,-1258.350101,-1225.752797,8216.285956
2285.329322,592.164754,-1149.143247,8364.327145
2285.329644,592.164754,-1072.533697,10066.800811
2285.329966,-1776.494261,-1991.848295,11029.068536
2285.330288,-2442.679609,-2298.286494,9400.615463
2285.330610,-666.185348,-2374.896044,8808.450710
2285.330932,-592.164754,-2221.676944,10214.842000
2285.331254,-2294.638420,-1991.848295,11991.336260
2285.331576,-2738.761985,-2068.457845,10955.047942
2285.331898,-2516.700203,-1685.410096,9030.512492
2285.332220,-2220.617826,-1378.971896,8364.327145
2285.332542,-2294.638420,-383.047749,8956.491898
2285.332864,-1628.453072,612.876398,7698.141797
2285.333186,-148.041188,842.705048,6365.771101
2285.333508,2072.576638,1378.971896,7476.080014
2285.333830,1554.432478,1455.581446,9104.533087
2285.334152,444.123565,842.705048,9104.533087
2285.334474,444.123565,919.314598,9474.636058
2285.334795,74.020594,459.657299,11103.089130
2285.335117,-518.144159,0.000000,11251.130318
2285.335439,-962.267725,229.828649,10362.883188
2285.335761,-518.144159,-383.047749,8808.450710
2285.336083,-444.123565,0.000000,8956.491898
2285.336405,148.041188,-306.438199,10362.883188
2285.336727,-518.144159,689.485948,10066.800811
2285.337049,0.000000,919.314598,8808.450710
2285.337371,444.123565,2145.067394,9178.553681
2285.337693,1998.556043,2834.553343,8882.471304
2285.338015,2072.576638,3370.820191,8068.244768
2285.338337,2442.679609,3524.039291,6513.812290
2285.338659,3182.885551,2681.334243,7550.100608
2285.338981,2960.823768,3677.258390,9474.636058
2285.339303,2220.617826,2604.724693,10140.821405
2285.339625,1702.473667,1991.848295,9548.656652
2285.339947,1184.329507,1455.581446,9622.677246
2285.340269,888.247130,919.314598,10362.883188
2285.340591,592.164754,919.314598,9548.656652
2285.340913,296.082377,76.609550,8734.430116
2285.341234,222.061783,612.876398,7994.224174
2285.341556,-222.061783,1072.533697,9918.759623
2285.341878,0.000000,995.924147,10066.800811
2285.342200,-814.226536,536.266849,8956.491898
2285.342522,-1110.308913,612.876398,9178.553681
2285.342844,-1110.308913,1455.581446,10436.903782
2285.343166,-1406.391290,1149.143247,9474.636058
2285.343488,-740.205942,1072.533697,7772.162391
2285.343810,-370.102971,229.828649,7328.038826
2285.344132,-1850.514855,689.485948,8734.430116
2285.344454,-1628.453072,842.705048,9030.512492
2285.344776,-962.267725,0.000000,8364.327145
2285.345098,-1480.411884,-842.705048,8068.244768
2285.345420,-2368.659014,-1225.752797,9326.594869
2285.345742,-1776.494261,-383.047749,9992.780217
2285.346064,-666.185348,-383.047749,8808.450710
2285.346386,-888.247130,-1838.629195,8586.388927
2285.346708,-1850.514855,-1991.848295,10510.924376
2285.347030,-1924.535449,-1302.362347,10881.027347
2285.347351,-1406.391290,-1685.410096,10362.883188
2285.347673,-1554.432478,-2145.067394,9770.718434
2285.347995,-2886.803174,-919.314598,11103.089130
2285.348317,-2738.761985,-536.266849,11251.130318
2285.348639,-666.185348,-383.047749,9474.636058
2285.348961,444.123565,-153.219100,8142.265362
2285.349283,0.000000,-76.609550,9400.615463
2285.349605,-296.082377,919.314598,10510.924376
2285.349927,962.267725,306.438199,9104.533087
2285.350249,1406.391290,-383.047749,7402.059420
2285.350571,0.000000,-689.485948,8586.388927
2285.350893,-1184.329507,-689.485948,10288.862594
2285.351215,-666.185348,-459.657299,8290.306550
2285.351537,814.226536,-766.095498,7031.956449
2285.351859,222.061783,-1225.752797,7920.203579
2285.352181,-1924.535449,0.000000,10066.800811
2285.352503,-962.267725,383.047749,9474.636058
2285.352825,592.164754,76.609550,7994.224174
2285.353147,518.144159,612.876398,9030.512492
2285.353469,-1110.308913,1532.190996,10658.965565
2285.353790,1110.308913,2604.724693,9992.780217
2285.354112,4737.318029,2451.505594,7402.059420
2285.354434,4441.235652,2604.724693,7772.162391
2285.354756,2738.761985,2068.457845,10066.800811
2285.355078,2146.597232,2987.772442,10881.027347
2285.355400,3701.029710,1838.629195,8586.388927
2285.355722,2960.823768,1378.971896,9770.718434
2285.356044,0.000000,1532.190996,10955.047942
2285.356366,-1036.288319,919.314598,10436.903782
2285.356688,814.226536,612.876398,8290.306550
2285.357010,888.247130,-153.219100,8438.347739
2285.357332,-1924.535449,689.485948,9992.780217
2285.357654,-3330.926739,306.438199,10436.903782
2285.357976,-666.185348,383.047749,8290.306550
2285.358298,-370.102971,459.657299,7698.141797
2285.358620,-2220.617826,1302.362347,10288.862594
2285.358942,-2442.679609,2221.676944,10510.924376
2285.359264,-296.082377,1685.410096,6883.915261
2285.359586,2072.576638,1685.410096,6661.853478
2285.359907,148.041188,1685.410096,8586.388927
2285.360229,-1702.473667,1915.238745,10140.821405
2285.360551,-296.082377,1072.533697,8660.409521
2285.360873,1110.308913,919.314598,8438.347739
2285.361195,-1184.329507,612.876398,10066.800811
2285.361517,-3552.988522,919.314598,10807.006753
2285.361839,-1554.432478,-229.828649,9178.553681
2285.362161,888.247130,0.000000,8586.388927
2285.362483,-814.226536,-536.266849,10066.800811
2285.362805,-3182.885551,0.000000,11547.212695
2285.363127,-2072.576638,-153.219100,10288.862594
2285.363449,-666.185348,-383.047749,8586.388927
2285.363771,-1110.308913,306.438199,9844.739029
2285.364093,-3701.029710,1302.362347,10955.047942
2285.364415,-3775.050304,459.657299,8660.409521
2285.364737,0.000000,306.438199,6291.750507
2285.365059,-222.061783,459.657299,7994.224174
2285.365381,-2590.720797,1072.533697,9992.780217
2285.365703,-2960.823768,536.266849,9326.594869
2285.366025,222.061783,153.219100,7920.203579
2285.366346,296.082377,229.828649,8956.491898
2285.366668,-2368.659014,612.876398,9548.656652
2285.366990,-2442.679609,306.438199,9696.697840
2285.367312,74.020594,-459.657299,7254.018232
2285.367634,1332.370696,-536.266849,9104.533087
2285.367956,-740.205942,306.438199,11547.212695
2285.368278,-1776.494261,229.828649,10658.965565
2285.368600,296.082377,-536.266849,8586.388927
2285.368922,1702.473667,459.657299,8882.471304
2285.369244,592.164754,1532.190996,10955.047942
2285.369566,0.000000,1608.800546,10140.821405
2285.369888,2812.782580,1685.410096,7328.038826
2285.370210,5477.523971,2298.286494,7994.224174
2285.370532,3478.967927,2374.896044,9474.636058
2285.370854,740.205942,1838.629195,9844.739029
2285.371176,2220.617826,766.095498,8068.244768
2285.371498,2886.803174,1225.752797,8364.327145
2285.371820,814.226536,766.095498,10584.944971
2285.372142,-1036.288319,0.000000,10214.842000
2285.372463,-296.082377,-766.095498,7476.080014
2285.372785,814.226536,-383.047749,7994.224174
2285.373107,-296.082377,-612.876398,9696.697840
2285.373429,-1998.556043,-1302.362347,10732.986159
2285.373751,-1480.411884,-612.876398,9030.512492
2285.374073,962.267725,0.000000,9474.636058
2285.374395,518.144159,689.485948,10955.047942
2285.374717,-888.247130,995.924147,11251.130318
2285.375039,0.000000,1072.533697,9252.574275
2285.375361,2738.761985,1072.533697,8290.306550
2285.375683,2368.659014,1762.019645,8956.491898
2285.376005,370.102971,1762.019645,10214.842000
2285.376327,0.000000,536.266849,9326.594869
2285.376649,518.144159,0.000000,8512.368333
2285.376971,518.144159,153.219100,9622.677246
2285.377293,-1332.370696,229.828649,10584.944971
2285.377615,-2368.659014,0.000000,8734.430116
2285.377937,-1184.329507,76.609550,7254.018232
2285.378259,0.000000,0.000000,8290.306550
2285.378580,-2368.659014,0.000000,10288.862594
2285.378902,-3849.070898,-306.438199,9474.636058
2285.379224,-2516.700203,0.000000,8734.430116
2285.379546,-1628.453072,766.095498,8956.491898
2285.379868,-2146.597232,1072.533697,9622.677246
2285.380190,-2072.576638,1302.362347,8512.368333
2285.380512,-1554.432478,1302.362347,6661.853478
2285.380834,-222.061783,1455.581446,8512.368333
2285.381156,0.000000,1838.629195,10362.883188
2285.381478,-1258.350101,1685.410096,9622.677246
2285.381800,-666.185348,995.924147,8068.244768
2285.382122,296.082377,1225.752797,8734.430116
2285.382444,74.020594,1225.752797,10584.944971
2285.382766,-1258.350101,689.485948,9622.677246
2285.383088,148.041188,536.266849,7920.203579
2285.383410,222.061783,229.828649,8512.368333
2285.383732,-74.020594,536.266849,10288.862594
2285.384054,-1406.391290,306.438199,10510.924376
2285.384376,-370.102971,0.000000,8808.450710
2285.384698,-962.267725,229.828649,9030.512492
2285.385019,-666.185348,1225.752797,9400.615463
2285.385341,0.000000,1532.190996,9770.718434
2285.385663,1480.411884,1455.581446,7105.977043
2285.385985,2072.576638,1378.971896,7772.162391
2285.386307,2368.659014,1838.629195,9474.636058
2285.386629,2072.576638,1685.410096,10436.903782
2285.386951,2368.659014,919.314598,8290.306550
2285.387273,1850.514855,229.828649,9622.677246
2285.387595,1406.391290,459.657299,10658.965565
2285.387917,888.247130,0.000000,10584.944971
2285.388239,1702.473667,-689.485948,9030.512492
2285.388561,1258.350101,-1225.752797,9104.533087
2285.388883,814.226536,-1225.752797,10362.883188
2285.389205,814.226536,-842.705048,10807.006753
2285.389527,444.123565,-229.828649,9400.615463
2285.389849,592.164754,-459.657299,9548.656652
2285.390171,0.000000,-536.266849,10288.862594
2285.390493,814.226536,766.095498,9696.697840
2285.390815,1702.473667,612.876398,7254.018232
2285.391136,1924.535449,383.047749,6957.935855
2285.391458,1258.350101,536.266849,9178.553681
2285.391780,296.082377,459.657299,9548.656652
2285.392102,1258.350101,-459.657299,7846.182985
2285.392424,0.000000,-919.314598,7698.141797
2285.392746,-1702.473667,-919.314598,9474.636058
2285.393068,-2146.597232,-919.314598,10732.986159
2285.393390,-1406.391290,-1455.581446,8882.471304
2285.393712,-1406.391290,-1762.019645,8734.430116
2285.394034,-3108.864956,-1378.971896,9918.759623
2285.394356,-3034.844362,-1302.362347,10955.047942
2285.394678,-518.144159,-229.828649,10214.842000
2285.395000,-888.247130,-919.314598,9178.553681
2285.395322,-2812.782580,153.219100,10807.006753
2285.395644,-2516.700203,1149.143247,11177.109724
2285.395966,-814.226536,995.924147,8142.265362
2285.396288,1258.350101,919.314598,6883.915261
2285.396610,-444.123565,1149.143247,8290.306550
2285.396932,-2146.597232,1532.190996,9474.636058
2285.397254,-370.102971,1608.800546,9326.594869
2285.397575,0.000000,76.609550,7624.121203
2285.397897,-1776.494261,76.609550,9178.553681
2285.398219,-4293.194464,842.705048,9474.636058
2285.398541,-1776.494261,689.485948,9030.512492
2285.398863,444.123565,-536.266849,7105.977043
2285.399185,-962.267725,-229.828649,9030.512492
2285.399507,-2516.700203,1072.533697,11695.253884
2285.399829,-1702.473667,612.876398,10807.006753
2285.400151,-222.061783,0.000000,8808.450710
2285.400473,74.020594,995.924147,10214.842000
2285.400795,-1776.494261,2451.505594,10881.027347
2285.401117,-592.164754,2374.896044,9326.594869
2285.401439,2516.700203,2145.067394,6365.771101
2285.401761,2886.803174,2374.896044,7698.141797
2285.402083,444.123565,3140.991542,10584.944971
2285.402405,74.020594,2221.676944,9326.594869
2285.402727,2516.700203,1991.848295,8660.409521
2285.403049,2146.597232,1532.190996,8512.368333
2285.403371,-740.205942,1838.629195,10510.924376
2285.403692,-1258.350101,1149.143247,9918.759623
2285.404014,740.205942,76.609550,6809.894666
2285.404336,1258.350101,0.000000,7402.059420
2285.404658,-888.247130,153.219100,9770.718434
2285.404980,-2294.638420,76.609550,10288.862594
2285.405302,370.102971,153.219100,9030.512492
2285.405624,2072.576638,919.314598,8438.347739
2285.405946,518.144159,1608.800546,10362.883188
2285.406268,-296.082377,1838.629195,10658.965565
2285.406590,2664.741391,1762.019645,8586.388927
2285.406912,4737.318029,1608.800546,7402.059420
2285.407234,2812.782580,1838.629195,9400.615463
2285.407556,296.082377,1378.971896,11621.233289
2285.407878,518.144159,76.609550,9622.677246
2285.408200,1776.494261,-612.876398,8956.491898
2285.408522,-148.041188,-612.876398,9548.656652
2285.408844,-3923.091493,-919.314598,11621.233289
2285.409166,-3627.009116,-2221.676944,9400.615463
2285.409488,-1184.329507,-2681.334243,7402.059420
2285.409809,-1850.514855,-1991.848295,9030.512492
2285.410131,-4737.318029,-1532.190996,10510.924376
2285.410453,-4515.256246,-1915.238745,8586.388927
2285.410775,-370.102971,-1149.143247,7846.182985
2285.411097,0.000000,-229.828649,8882.471304
2285.411419,-1998.556043,766.095498,10214.842000
2285.411741,-1184.329507,536.266849,8956.491898
2285.412063,1924.535449,919.314598,6883.915261
2285.412385,2738.761985,1225.752797,8216.285956
2285.412707,0.000000,459.657299,10807.006753
2285.413029,-1406.391290,0.000000,10214.842000
2285.413351,740.205942,-306.438199,8882.471304
2285.413673,1332.370696,-459.657299,9474.636058
2285.413995,-1998.556043,-306.438199,11103.089130
2285.414317,-3552.988522,-383.047749,10584.944971
2285.414638,-1850.514855,-612.876398,8586.388927
2285.414960,592.164754,-383.047749,8882.471304
2285.415282,-2146.597232,0.000000,10510.924376
2285.415604,-3923.091493,0.000000,10214.842000
2285.415926,-1702.473667,306.438199,9178.553681
2285.416248,-370.102971,689.485948,8438.347739
2285.416570,-1258.350101,1149.143247,9400.615463
2285.416892,-2664.741391,1455.581446,9030.512492
2285.417214,-592.164754,1762.019645,7031.956449
2285.417536,2368.659014,1915.238745,6883.915261
2285.417858,1850.514855,1991.848295,9030.512492
2285.418179,-296.082377,2221.676944,10066.800811
2285.418501,518.144159,1685.410096,8438.347739
2285.418823,3256.906145,1762.019645,8882.471304
2285.419145,1998.556043,2068.457845,9770.718434
2285.419467,-370.102971,1762.019645,10362.883188
2285.419789,1036.288319,1608.800546,9474.636058
2285.420111,2886.803174,2068.457845,7476.080014
2285.420433,2738.761985,1455.581446,9474.636058
2285.420755,296.082377,1762.019645,10881.027347
2285.421077,-296.082377,1149.143247,9548.656652
2285.421399,1036.288319,766.095498,9030.512492
2285.421720,888.247130,1302.362347,9844.739029
2285.422042,-666.185348,2451.505594,10362.883188
2285.422364,-518.144159,2451.505594,8068.244768
2285.422686,1628.453072,1149.143247,6661.853478
2285.423008,3182.885551,2068.457845,8290.306550
2285.423330,222.061783,1838.629195,10807.006753
2285.423652,-148.041188,919.314598,9548.656652
2285.423974,814.226536,-153.219100,8660.409521
2285.424296,888.247130,-383.047749,8882.471304
2285.424618,-962.267725,383.047749,10288.862594
2285.424939,-1184.329507,0.000000,9844.739029
2285.425261,-814.226536,-1378.971896,7402.059420
2285.425583,0.000000,-1225.752797,8660.409521
2285.425905,-1258.350101,-766.095498,11103.089130
2285.426227,-2960.823768,-1072.533697,10584.944971
2285.426549,-2146.597232,-1378.971896,9178.553681
2285.426871,-518.144159,229.828649,10288.862594
2285.427193,-370.102971,766.095498,11177.109724
2285.427515,-2220.617826,459.657299,9474.636058
2285.427837,-444.123565,0.000000,7550.100608
2285.428159,444.123565,383.047749,8290.306550
2285.428480,888.247130,842.705048,9992.780217
2285.428802,-962.267725,0.000000,9622.677246
2285.429124,-1036.288319,-1608.800546,7772.162391
2285.429446,0.000000,153.219100,9104.533087
2285.429768,-740.205942,0.000000,9696.697840
2285.430090,-1258.350101,-1072.533697,8808.450710
2285.430412,-1332.370696,-1225.752797,7328.038826
2285.430734,0.000000,-612.876398,8364.327145
2285.431056,0.000000,-536.266849,10436.903782
2285.431378,-1110.308913,-306.438199,10214.842000
2285.431700,-1036.288319,-612.876398,9400.615463
2285.432021,-740.205942,-229.828649,9770.718434
2285.432343,-1406.391290,766.095498,10288.862594
2285.432665,-1036.288319,536.266849,10140.821405
2285.432987,-296.082377,689.485948,8216.285956
2285.433309,-148.041188,842.705048,7994.224174
2285.433631,0.000000,1149.143247,9918.759623
2285.433953,-962.267725,842.705048,9992.780217
2285.434275,0.000000,1072.533697,9770.718434
2285.434597,0.000000,919.314598,9030.512492
2285.434919,-444.123565,1072.533697,9844.739029
2285.435241,222.061783,1532.190996,9918.759623
2285.435562,814.226536,842.705048,8364.327145
2285.435884,814.226536,919.314598,7476.080014
2285.436206,1036.288319,1455.581446,9696.697840
2285.436528,740.205942,1072.533697,9844.739029
2285.436850,370.102971,995.924147,8290.306550
2285.437172,1184.329507,1302.362347,8882.471304
2285.437494,444.123565,2068.457845,10140.821405
2285.437816,370.102971,2145.067394,9918.759623
2285.438138,1554.432478,2068.457845,7772.162391
2285.438460,2294.638420,2221.676944,6735.874072
2285.438782,2368.659014,2911.162892,8216.285956
2285.439103,1554.432478,2911.162892,9474.636058
2285.439425,2738.761985,2451.505594,8956.491898
2285.439747,1628.453072,1378.971896,8142.265362
2285.440069,0.000000,995.924147,9770.718434
2285.440391,-1110.308913,689.485948,10881.027347
2285.440713,-296.082377,383.047749,8956.491898
2285.441035,-296.082377,-1455.581446,8586.388927
2285.441357,-2072.576638,-919.314598,9696.697840
2285.441679,-3256.906145,-766.095498,11399.171507
2285.442001,-2146.597232,-1149.143247,10436.903782
2285.442323,-1332.370696,-842.705048,8956.491898
2285.442644,-1998.556043,-536.266849,9548.656652
2285.442966,-1776.494261,689.485948,10732.986159
2285.443288,740.205942,1685.410096,9844.739029
2285.443610,2516.700203,1302.362347,7920.203579
2285.443932,1406.391290,1608.800546,7994.224174
2285.444254,444.123565,1225.752797,9474.636058
2285.444576,666.185348,1225.752797,9326.594869
2285.444898,2072.576638,306.438199,8660.409521
2285.445220,814.226536,0.000000,9400.615463
2285.445542,-2368.659014,0.000000,9992.780217
2285.445863,-1628.453072,-153.219100,9252.574275
2285.446185,-148.041188,-1455.581446,7772.162391
2285.446507,-1554.432478,-1302.362347,8512.368333
2285.446829,-3552.988522,-1378.971896,10658.965565
2285.447151,-3404.947333,-1072.533697,11029.068536
2285.447473,-1184.329507,-689.485948,9770.718434
2285.447795,-1776.494261,-1378.971896,9178.553681
2285.448117,-3108.864956,0.000000,10510.924376
2285.448439,-2664.741391,919.314598,9622.677246
2285.448761,518.144159,459.657299,7105.977043
2285.449083,1776.494261,612.876398,7254.018232
2285.449404,296.082377,1149.143247,9548.656652
2285.449726,-444.123565,1225.752797,10584.944971
2285.450048,1628.453072,612.876398,8734.430116
2285.450370,2220.617826,-306.438199,9622.677246
2285.450692,444.123565,689.485948,10584.944971
2285.451014,-1036.288319,842.705048,10807.006753
2285.451336,1332.370696,536.266849,8586.388927
2285.451658,2886.803174,153.219100,7624.121203
2285.451980,74.020594,229.828649,9474.636058
2285.452302,-2072.576638,459.657299,10510.924376
2285.452624,-222.061783,-306.438199,9918.759623
2285.452945,1036.288319,76.609550,9104.533087
2285.453267,-814.226536,689.485948,10288.862594
2285.453589,-2590.720797,1225.752797,9992.780217
2285.453911,-592.164754,1608.800546,7698.141797
2285.454233,2590.720797,1608.800546,6365.771101
2285.454555,1924.535449,1991.848295,7846.182985
2285.454877,666.185348,2604.724693,9844.739029
2285.455199,444.123565,1915.238745,8586.388927
2285.455521,4071.132681,1225.752797,8290.306550
2285.455843,2294.638420,919.314598,9770.718434
2285.456165,-962.267725,919.314598,10881.027347
2285.456486,-222.061783,229.828649,9474.636058
2285.456808,1850.514855,-536.266849,7624.121203
2285.457130,1628.453072,-1149.143247,9178.553681
2285.457452,-370.102971,0.000000,11695.253884
2285.457774,-2294.638420,-383.047749,10214.842000
2285.458096,-296.082377,-995.924147,8660.409521
2285.458418,666.185348,0.000000,9622.677246
2285.458740,-1258.350101,842.705048,11103.089130
2285.459062,-2146.597232,1072.533697,9548.656652
2285.459384,1332.370696,842.705048,7328.038826
2285.459706,2220.617826,1149.143247,7328.038826
2285.460027,-518.144159,689.485948,9622.677246
2285.460349,-2368.659014,612.876398,10510.924376
2285.460671,-444.123565,0.000000,8808.450710
2285.460993,592.164754,0.000000,8734.430116
2285.461315,-2368.659014,-383.047749,10732.986159
2285.461637,-4219.173869,-766.095498,9918.759623
2285.461959,-2664.741391,-1225.752797,7402.059420
2285.462281,0.000000,-536.266849,7550.100608
2285.462603,-1628.453072,-842.705048,9844.739029
2285.462925,-3849.070898,-612.876398,11029.068536
2285.463247,-1850.514855,-153.219100,9104.533087
2285.463568,1776.494261,459.657299,8882.471304
2285.463890,592.164754,1302.362347,9918.759623
2285.464212,-1924.535449,919.314598,9104.533087
2285.464534,370.102971,1378.971896,8734.430116
2285.464856,2368.659014,1455.581446,7402.059420
2285.465178,1110.308913,1149.143247,9548.656652
2285.465500,-1332.370696,689.485948,11103.089130
2285.465822,-1924.535449,459.657299,9178.553681
2285.466144,-370.102971,-229.828649,8364.327145
2285.466466,-296.082377,229.828649,10066.800811
2285.466787,-3034.844362,612.876398,10510.924376
2285.467109,-2812.782580,153.219100,8808.450710
2285.467431,-962.267725,-76.609550,7254.018232
2285.467753,444.123565,76.609550,9178.553681
2285.468075,-1332.370696,536.266849,11029.068536
2285.468397,-1998.556043,536.266849,9844.739029
2285.468719,74.020594,0.000000,9104.533087
2285.469041,1406.391290,919.314598,9474.636058
2285.469363,222.061783,1608.800546,9992.780217
2285.469685,148.041188,2604.724693,8660.409521
2285.470007,1924.535449,1915.238745,7105.977043
2285.470328,3330.926739,2145.067394,7476.080014
2285.470650,2442.679609,2528.115143,10066.800811
2285.470972,888.247130,2068.457845,9326.594869
2285.471294,1480.411884,1685.410096,8068.244768
2285.471616,3034.844362,1838.629195,8142.265362
2285.471938,1406.391290,1838.629195,10658.965565
2285.472260,74.020594,1149.143247,9474.636058
2285.472582,1110.308913,383.047749,8512.368333
2285.472904,2146.597232,306.438199,7994.224174
2285.473226,888.247130,76.609550,9770.718434
2285.473548,-1554.432478,-306.438199,10658.965565
2285.473869,-1332.370696,0.000000,10436.903782
2285.474191,-148.041188,-306.438199,9992.780217
2285.474513,0.000000,76.609550,10436.903782
2285.474835,-1924.535449,536.266849,10732.986159
2285.475157,-888.247130,0.000000,7920.203579
2285.475479,1554.432478,383.047749,8512.368333
2285.475801,1776.494261,1378.971896,9844.739029
2285.476123,-518.144159,689.485948,9696.697840
2285.476445,-1036.288319,0.000000,8660.409521
2285.476767,592.164754,-383.047749,8438.347739
2285.477089,-148.041188,76.609550,10066.800811
2285.477410,-1480.411884,-306.438199,9474.636058
2285.477732,-1554.432478,-1149.143247,8142.265362
2285.478054,-1184.329507,-1149.143247,6883.915261
2285.478376,-666.185348,0.000000,9104.533087
2285.478698,-2664.741391,-383.047749,10066.800811
2285.479020,-2516.700203,-306.438199,9474.636058
2285.479342,-1628.453072,-842.705048,8956.491898
2285.479664,-444.123565,306.438199,10066.800811
2285.479986,-518.144159,1532.190996,10658.965565
2285.480308,-370.102971,919.314598,8808.450710
2285.480630,296.082377,612.876398,7402.059420
2285.480951,814.226536,1532.190996,9474.636058
2285.481273,518.144159,2068.457845,10881.027347
2285.481595,0.000000,689.485948,9622.677246
2285.481917,-518.144159,383.047749,8956.491898
2285.482239,-888.247130,1149.143247,9918.759623
2285.482561,-1702.473667,689.485948,9918.759623
2285.482883,-1850.514855,0.000000,7624.121203
2285.483205,-1110.308913,0.000000,6661.853478
2285.483527,-1480.411884,612.876398,8068.244768
2285.483849,-1332.370696,383.047749,10066.800811
2285.484171,-1184.329507,459.657299,9696.697840
2285.484492,-962.267725,153.219100,8438.347739
2285.484814,-814.226536,1149.143247,9918.759623
2285.485136,-666.185348,1532.190996,9770.718434
2285.485458,592.164754,1685.410096,9104.533087
2285.485780,2146.597232,2221.676944,7994.224174
2285.486102,1554.432478,2451.505594,8808.450710
2285.486424,1258.350101,2221.676944,9770.718434
2285.486746,2072.576638,1685.410096,9400.615463
2285.487068,2960.823768,1762.019645,8808.450710
2285.487390,2146.597232,1762.019645,10214.842000
2285.487711,444.123565,2068.457845,11103.089130
2285.488033,2072.576638,766.095498,9622.677246
2285.488355,2516.700203,229.828649,7698.141797
2285.488677,1554.432478,383.047749,8734.430116
2285.488999,0.000000,383.047749,10732.986159
2285.489321,0.000000,0.000000,10584.944971
2285.489643,74.020594,-689.485948,8142.265362
2285.489965,-296.082377,-612.876398,9030.512492
2285.490287,-1702.473667,0.000000,9474.636058
2285.490609,-962.267725,306.438199,9030.512492
2285.490931,814.226536,76.609550,7105.977043
2285.491252,962.267725,229.828649,7550.100608
2285.491574,-370.102971,306.438199,9252.574275
2285.491896,0.000000,459.657299,9474.636058
2285.492218,962.267725,612.876398,7772.162391
2285.492540,222.061783,-1762.019645,8660.409521
2285.492862,-1184.329507,-536.266849,11399.171507
2285.493184,-1702.473667,-842.705048,10881.027347
2285.493506,-592.164754,-1685.410096,9104.533087
2285.493828,-296.082377,-2068.457845,9104.533087
2285.494150,-2294.638420,-1915.238745,10732.986159
2285.494472,-2664.741391,-1378.971896,10732.986159
2285.494793,-1332.370696,-995.924147,10214.842000
2285.495115,-148.041188,-536.266849,9844.739029
2285.495437,-1406.391290,-229.828649,10955.047942
2285.495759,-1628.453072,919.314598,10436.903782
2285.496081,1258.350101,766.095498,7772.162391
2285.496403,2738.761985,766.095498,7105.977043
2285.496725,1036.288319,1072.533697,8956.491898
2285.497047,-666.185348,1149.143247,11103.089130
2285.497369,-444.123565,612.876398,8660.409521
2285.497691,888.247130,0.000000,8364.327145
2285.498013,-1480.411884,-306.438199,9696.697840
2285.498334,-4589.276840,0.000000,9992.780217
2285.498656,-2960.823768,-536.266849,8512.368333
2285.498978,-962.267725,-842.705048,7179.997637
2285.499300,-2368.659014,-689.485948,8364.327145
2285.499622,-4737.318029,229.828649,9696.697840
2285.499944,-3256.906145,0.000000,8882.471304
2285.500266,222.061783,306.438199,8512.368333
2285.500588,-740.205942,919.314598,9252.574275
2285.500910,-2590.720797,1991.848295,11177.109724
2285.501232,-296.082377,1915.238745,9474.636058
2285.501554,3108.864956,1608.800546,6513.812290
2285.501875,2812.782580,1991.848295,7624.121203
2285.502197,962.267725,2987.772442,10510.924376
2285.502519,222.061783,2145.067394,9844.739029
2285.502841,3404.947333,1838.629195,8142.265362
2285.503163,3034.844362,1991.848295,9474.636058
2285.503485,74.020594,2451.505594,10584.944971
2285.503807,-592.164754,1915.238745,9474.636058
2285.504129,3478.967927,1532.190996,7105.977043
2285.504451,3256.906145,1072.533697,8586.388927
2285.504773,370.102971,536.266849,10807.006753
2285.505095,-1110.308913,919.314598,10881.027347
2285.505416,518.144159,383.047749,8512.368333
2285.505738,1184.329507,306.438199,8956.491898
2285.506060,-888.247130,1149.143247,11547.212695
2285.506382,-2590.720797,1532.190996,10732.986159
2285.506704,222.061783,306.438199,7105.977043
2285.507026,1406.391290,306.438199,7105.977043
2285.507348,-296.082377,1225.752797,10140.821405
2285.507670,-2146.597232,919.314598,10732.986159
2285.507992,-370.102971,0.000000,9252.574275
2285.508314,1554.432478,229.828649,8808.450710
2285.508635,0.000000,229.828649,9844.739029
2285.508957,-2886.803174,229.828649,10288.862594
2285.509279,-1184.329507,-612.876398,8364.327145
2285.509601,814.226536,-1072.533697,7476.080014
2285.509923,-296.082377,-536.266849,9326.594869
2285.510245,-2590.720797,-612.876398,10510.924376
2285.510567,-2294.638420,-689.485948,8586.388927
2285.510889,296.082377,-766.095498,7846.182985
2285.511211,0.000000,-229.828649,9104.533087
2285.511533,-2220.617826,842.705048,9918.759623
2285.511855,-1850.514855,153.219100,8734.430116
2285.512176,2294.638420,612.876398,8216.285956
2285.512498,1998.556043,689.485948,9178.553681
2285.512820,-962.267725,306.438199,10881.027347
2285.513142,-1480.411884,-229.828649,9474.636058
2285.513464,592.164754,-536.266849,8882.471304
2285.513786,148.041188,-306.438199,10807.006753
2285.514108,-2590.720797,-612.876398,10955.047942
2285.514429,-3849.070898,-1149.143247,9474.636058
2285.514751,-1332.370696,-1225.752797,7772.162391
2285.515073,-370.102971,-919.314598,9252.574275
2285.515395,-2368.659014,-229.828649,10881.027347
2285.515717,-3182.885551,-383.047749,9696.697840
2285.516039,-1110.308913,76.609550,8438.347739
2285.516361,814.226536,1532.190996,9178.553681
2285.516682,-666.185348,1838.629195,9178.553681
2285.517004,-1184.329507,1685.410096,8882.471304
2285.517326,962.267725,1378.971896,6513.812290
2285.517648,2516.700203,1532.190996,7920.203579
2285.517970,1776.494261,1608.800546,9770.718434
2285.518292,0.000000,995.924147,9622.677246
2285.518614,518.144159,995.924147,7994.224174
2285.518935,1332.370696,1149.143247,7550.100608
2285.519257,1406.391290,1225.752797,10436.903782
2285.519579,0.000000,1302.362347,9918.759623
2285.519901,1628.453072,766.095498,8586.388927
2285.520223,3775.050304,919.314598,9104.533087
2285.520545,2960.823768,1532.190996,10436.903782
2285.520867,1110.308913,1072.533697,10658.965565
2285.521188,666.185348,766.095498,9844.739029
2285.521510,2368.659014,919.314598,9474.636058
2285.521832,1850.514855,1455.581446,10807.006753
2285.522154,444.123565,1378.971896,10362.883188
2285.522476,370.102971,536.266849,8438.347739
2285.522798,1554.432478,0.000000,7698.141797
2285.523120,592.164754,76.609550,7920.203579
2285.523442,-962.267725,383.047749,9770.718434
2285.523763,-1036.288319,-612.876398,9326.594869
2285.524085,-370.102971,-689.485948,9030.512492
2285.524407,222.061783,0.000000,10214.842000
2285.524729,-1480.411884,0.000000,9696.697840
2285.525051,-1628.453072,-612.876398,7624.121203
2285.525373,0.000000,-995.924147,8660.409521
2285.525695,-296.082377,0.000000,9474.636058
2285.526016,-888.247130,0.000000,11399.171507
2285.526338,-1554.432478,-919.314598,9918.759623
2285.526660,-1406.391290,-306.438199,9474.636058
2285.526982,-740.205942,383.047749,10066.800811
2285.527304,-888.247130,919.314598,10584.944971
2285.527626,-888.247130,766.095498,8882.471304
2285.527948,0.000000,-459.657299,7994.224174
2285.528269,148.041188,1149.143247,9474.636058
2285.528591,-518.144159,612.876398,10140.821405
2285.528913,-1554.432478,0.000000,10362.883188
2285.529235,-1628.453072,0.000000,8660.409521
2285.529557,-2368.659014,0.000000,9844.739029
2285.529879,-2960.823768,0.000000,9326.594869
2285.530201,-2664.741391,-766.095498,9252.574275
2285.530522,-2516.700203,-459.657299,6587.832884
2285.530844,-3182.885551,-1225.752797,8586.388927
2285.531166,-3923.091493,-536.266849,9918.759623
2285.531488,-2812.782580,-459.657299,9474.636058
2285.531810,-1924.535449,76.609550,9178.553681
2285.532132,-1258.350101,919.314598,9474.636058
2285.532454,-444.123565,1762.019645,9992.780217
2285.532775,592.164754,2221.676944,8438.347739
2285.533097,2368.659014,1838.629195,7698.141797
2285.533419,1998.556043,2068.457845,8734.430116
2285.533741,1554.432478,2604.724693,10584.944971
2285.534063,2072.576638,2221.676944,10140.821405
2285.534385,2368.659014,1838.629195,8882.471304
2285.534707,2146.597232,1225.752797,9992.780217
2285.535028,444.123565,1991.848295,10436.903782
2285.535350,444.123565,1455.581446,9252.574275
2285.535672,1406.391290,612.876398,7994.224174
2285.535994,888.247130,459.657299,8734.430116
2285.536316,0.000000,766.095498,10066.800811
2285.536638,518.144159,1685.410096,9918.759623
2285.536960,1036.288319,459.657299,8142.265362
2285.537281,1332.370696,842.705048,8882.471304
2285.537603,222.061783,459.657299,10584.944971
2285.537925,148.041188,1685.410096,9548.656652
2285.538247,1406.391290,1225.752797,7476.080014
2285.538569,1850.514855,842.705048,7624.121203
2285.538891,0.000000,1149.143247,9252.574275
2285.539213,74.020594,1378.971896,9400.615463
2285.539534,1406.391290,306.438199,8808.450710
2285.539856,814.226536,306.438199,8734.430116
2285.540178,-666.185348,76.609550,11325.150913
2285.540500,-1110.308913,383.047749,11103.089130
2285.540822,1184.329507,229.828649,8364.327145
2285.541144,1332.370696,-766.095498,7920.203579
2285.541466,0.000000,0.000000,10510.924376
2285.541787,-1110.308913,0.000000,11843.295072
2285.542109,0.000000,-306.438199,9326.594869
2285.542431,296.082377,-536.266849,8586.388927
2285.542753,-1554.432478,229.828649,10362.883188
2285.543075,-3034.844362,459.657299,10436.903782
2285.543397,-666.185348,153.219100,7994.224174
2285.543719,1110.308913,-229.828649,6735.874072
2285.544040,-370.102971,1149.143247,8808.450710
2285.544362,-2664.741391,0.000000,10066.800811
2285.544684,-1036.288319,-383.047749,9178.553681
2285.545006,296.082377,-689.485948,8068.244768
2285.545328,-1924.535449,-766.095498,9474.636058
2285.545650,-3923.091493,-153.219100,11843.295072
2285.545972,-2590.720797,-1532.190996,9548.656652
2285.546293,222.061783,-1225.752797,7772.162391
2285.546615,-444.123565,-1762.019645,9326.594869
2285.546937,-2812.782580,-306.438199,11177.109724
2285.547259,-3182.885551,-229.828649,10881.027347
2285.547581,-296.082377,-536.266849,8586.388927
2285.547903,-370.102971,-306.438199,9548.656652
2285.548225,-2368.659014,1302.362347,11473.192101
2285.548546,-1776.494261,1915.238745,8586.388927
2285.548868,2516.700203,1378.971896,6439.791695
2285.549190,3034.844362,2068.457845,7550.100608
2285.549512,148.041188,1915.238745,9992.780217
2285.549834,-814.226536,1532.190996,10510.924376
2285.550156,1850.514855,766.095498,7105.977043
2285.550478,2146.597232,612.876398,7846.182985
2285.550799,0.000000,995.924147,9992.780217
2285.551121,-1480.411884,1302.362347,9474.636058
2285.551443,1258.350101,229.828649,7254.018232
2285.551765,2812.782580,229.828649,8142.265362
2285.552087,74.020594,689.485948,9770.718434
2285.552409,-1036.288319,689.485948,11177.109724
2285.552731,1998.556043,995.924147,9696.697840
2285.553052,3627.009116,1378.971896,9474.636058
2285.553374,1776.494261,1072.533697,10807.006753
2285.553696,740.205942,2528.115143,10881.027347
2285.554018,3256.906145,1915.238745,8142.265362
2285.554340,4737.318029,1838.629195,7624.121203
2285.554662,2516.700203,1532.190996,9992.780217
2285.554984,370.102971,1225.752797,11843.295072
2285.555305,1036.288319,383.047749,9326.594869
2285.555627,1924.535449,0.000000,8364.327145
2285.555949,-370.102971,-229.828649,9992.780217
2285.556271,-2738.761985,383.047749,10066.800811
2285.556593,-2368.659014,-536.266849,8438.347739
2285.556915,814.226536,-1072.533697,7179.997637
2285.557237,0.000000,-1072.533697,8068.244768
2285.557558,-3108.864956,-689.485948,9844.739029
2285.557880,-2738.761985,-612.876398,9992.780217
2285.558202,-962.267725,-306.438199,9030.512492
2285.558524,-74.020594,-612.876398,10066.800811
2285.558846,-2368.659014,459.657299,10436.903782
2285.559168,-2294.638420,459.657299,9104.533087
2285.559490,0.000000,0.000000,7179.997637
2285.559811,1036.288319,306.438199,9400.615463
2285.560133,-814.226536,536.266849,10584.944971
2285.560455,-2072.576638,229.828649,9992.780217
2285.560777,296.082377,-229.828649,9178.553681
2285.561099,592.164754,76.609550,10362.883188
2285.561421,-2146.597232,229.828649,11547.212695
2285.561743,-3256.906145,-306.438199,9548.656652
2285.562064,-1184.329507,-919.314598,7402.059420
2285.562386,0.000000,-842.705048,8068.244768
2285.562708,-2220.617826,76.609550,10362.883188
2285.563030,-3997.112087,-383.047749,8956.491898
2285.563352,-3256.906145,-536.266849,7698.141797
2285.563674,-1924.535449,0.000000,7920.203579
2285.563996,-2590.720797,766.095498,9844.739029
2285.564317,-3256.906145,995.924147,9104.533087
2285.564639,-1036.288319,536.266849,6661.853478
2285.564961,2220.617826,1532.190996,7328.038826
2285.565283,814.226536,1532.190996,9474.636058
2285.565605,-814.226536,1072.533697,9918.759623
2285.565927,666.185348,459.657299,8734.430116
2285.566249,1850.514855,1532.190996,9474.636058
2285.566570,1258.350101,1378.971896,10807.006753
2285.566892,0.000000,842.705048,10658.965565
2285.567214,962.267725,612.876398,9030.512492
2285.567536,2146.597232,459.657299,8438.347739
2285.567858,1332.370696,689.485948,9474.636058
2285.568180,-222.061783,919.314598,11103.089130
2285.568502,-148.041188,995.924147,10214.842000
2285.568823,1850.514855,1302.362347,9326.594869
2285.569145,2294.638420,1762.019645,10288.862594
2285.569467,370.102971,2068.457845,9474.636058
2285.569789,1480.411884,1762.019645,7994.224174
2285.570111,3182.885551,1532.190996,7105.977043
2285.570433,2368.659014,1915.238745,8290.306550
2285.570755,1258.350101,1762.019645,9992.780217
2285.571076,592.164754,1072.533697,8734.430116
2285.571398,666.185348,76.609550,8438.347739
2285.571720,814.226536,383.047749,9770.718434
2285.572042,-814.226536,153.219100,9696.697840
2285.572364,-814.226536,-306.438199,9104.533087
2285.572686,-296.082377,-689.485948,7994.224174
2285.573008,-370.102971,-459.657299,10066.800811
2285.573329,-962.267725,-536.266849,10955.047942
2285.573651,-1776.494261,-306.438199,9844.739029
2285.573973,-1258.350101,-153.219100,9252.574275
2285.574295,-962.267725,612.876398,11399.171507
2285.574617,-444.123565,306.438199,11177.109724
2285.574939,-888.247130,919.314598,9104.533087
2285.575261,222.061783,459.657299,8068.244768
2285.575582,0.000000,383.047749,8216.285956
2285.575904,222.061783,1072.533697,9770.718434
2285.576226,148.041188,919.314598,9104.533087
2285.576548,-740.205942,0.000000,7994.224174
2285.576870,-1036.288319,0.000000,9252.574275
2285.577192,-1776.494261,76.609550,9548.656652
2285.577514,-1850.514855,-536.266849,8734.430116
2285.577835,-1924.535449,-1302.362347,7476.080014
2285.578157,-2220.617826,-1302.362347,9252.574275
2285.578479,-2516.700203,-612.876398,10584.944971
2285.578801,-2368.659014,-766.095498,10288.862594
2285.579123,-1702.473667,-919.314598,8882.471304
2285.579445,-2072.576638,-383.047749,9548.656652
2285.579767,-2886.803174,306.438199,10436.903782
2285.580088,-1554.432478,995.924147,10140.821405
2285.580410,222.061783,842.705048,7550.100608
2285.580732,444.123565,1455.581446,8438.347739
2285.581054,370.102971,2298.286494,9326.594869
2285.581376,962.267725,2221.676944,9992.780217
2285.581698,1776.494261,1685.410096,7846.182985
2285.582020,1332.370696,995.924147,8882.471304
2285.582342,0.000000,1685.410096,10732.986159
2285.582663,-518.144159,1149.143247,8734.430116
2285.582985,518.144159,306.438199,7550.100608
2285.583307,1036.288319,-459.657299,7624.121203
2285.583629,-370.102971,153.219100,9474.636058
2285.583951,-444.123565,612.876398,9992.780217
2285.584273,1036.288319,-229.828649,8142.265362
2285.584595,740.205942,229.828649,9474.636058
2285.584916,0.000000,1838.629195,11473.192101
2285.585238,1110.308913,2145.067394,10584.944971
2285.585560,4293.194464,2451.505594,7772.162391
2285.585882,4441.235652,2221.676944,7402.059420
2285.586204,2960.823768,2681.334243,9918.759623
2285.586526,2220.617826,2528.115143,10955.047942
2285.586848,2886.803174,1149.143247,9400.615463
2285.587169,2516.700203,612.876398,9326.594869
2285.587491,-666.185348,459.657299,10658.965565
2285.587813,-1406.391290,229.828649,10362.883188
2285.588135,0.000000,0.000000,8142.265362
2285.588457,518.144159,-536.266849,7105.977043
2285.588779,-2072.576638,-536.266849,9400.615463
2285.589101,-3034.844362,-1302.362347,10288.862594
2285.589422,-592.164754,-689.485948,9104.533087
2285.589744,148.041188,-306.438199,8660.409521
2285.590066,-2072.576638,229.828649,9992.780217
2285.590388,-2072.576638,383.047749,10362.883188
2285.590710,-444.123565,1149.143247,8290.306550
2285.591032,1776.494261,306.438199,7328.038826
2285.591354,740.205942,459.657299,8290.306550
2285.591675,-1406.391290,612.876398,10066.800811
2285.591997,-888.247130,153.219100,9030.512492
2285.592319,962.267725,-306.438199,8438.347739
2285.592641,-518.144159,0.000000,10140.821405
2285.592963,-3182.885551,-459.657299,10955.047942
2285.593285,-2220.617826,0.000000,9696.697840
2285.593607,592.164754,-383.047749,8882.471304
2285.593928,-962.267725,-1149.143247,9474.636058
2285.594250,-3849.070898,-919.314598,11621.233289
2285.594572,-3627.009116,-1072.533697,10807.006753
2285.594894,-1480.411884,-536.266849,8512.368333
2285.595216,-1184.329507,-459.657299,9474.636058
2285.595538,-3256.906145,153.219100,11251.130318
2285.595860,-3182.885551,612.876398,9918.759623
2285.596181,-592.164754,842.705048,7105.977043
2285.596503,740.205942,612.876398,6957.935855
2285.596825,-962.267725,1302.362347,9252.574275
2285.597147,-1406.391290,1991.848295,9252.574275
2285.597469,1628.453072,1455.581446,7624.121203
2285.597791,2146.597232,536.266849,7994.224174
2285.598113,-296.082377,612.876398,10288.862594
2285.598434,-1332.370696,1149.143247,10658.965565
2285.598756,444.123565,459.657299,7846.182985
2285.599078,2072.576638,306.438199,7698.141797
2285.599400,444.123565,383.047749,10288.862594
2285.599722,-2294.638420,842.705048,11103.089130
2285.600044,296.082377,76.609550,8808.450710
2285.600366,1628.453072,689.485948,9474.636058
2285.600687,296.082377,1455.581446,11103.089130
2285.601009,-888.247130,2221.676944,11769.274478
2285.601331,1406.391290,2145.067394,8438.347739
2285.601653,4737.318029,2374.896044,7476.080014
2285.601975,2960.823768,2528.115143,8512.368333
2285.602297,666.185348,2451.505594,10140.821405
2285.602619,1406.391290,2068.457845,9400.615463
2285.602940,3108.864956,1302.362347,8068.244768
2285.603262,1332.370696,1072.533697,10362.883188
2285.603584,-1258.350101,766.095498,10288.862594
2285.603906,-1184.329507,0.000000,8216.285956
2285.604228,1332.370696,-842.705048,6217.729913
2285.604550,814.226536,-842.705048,8290.306550
2285.604872,-2220.617826,0.000000,10288.862594
2285.605193,-2516.700203,-1302.362347,9770.718434
2285.605515,740.205942,-229.828649,8882.471304
2285.605837,1554.432478,766.095498,9844.739029
2285.606159,-888.247130,1072.533697,11177.109724
2285.606481,-666.185348,1532.190996,9474.636058
2285.606803,2220.617826,1455.581446,8290.306550
2285.607125,2072.576638,1149.143247,8142.265362
2285.607446,-74.020594,1072.533697,10436.903782
2285.607768,-2072.576638,76.609550,9622.677246
2285.608090,-1036.288319,-689.485948,8438.347739
2285.608412,-222.061783,-459.657299,9178.553681
2285.608734,-2220.617826,-383.047749,11177.109724
2285.609056,-3627.009116,-995.924147,9548.656652
2285.609378,-1480.411884,-1378.971896,7105.977043
2285.609699,592.164754,-306.438199,8586.388927
2285.610021,-2072.576638,-536.266849,9918.759623
2285.610343,-2960.823768,-995.924147,10214.842000
2285.610665,-1406.391290,-1149.143247,9474.636058
2285.610987,-592.164754,0.000000,9178.553681
2285.611309,-962.267725,229.828649,10584.944971
2285.611631,-1850.514855,383.047749,9696.697840
2285.611952,-1184.329507,0.000000,7624.121203
2285.612274,1036.288319,995.924147,7402.059420
2285.612596,444.123565,689.485948,9474.636058
2285.612918,-1036.288319,1225.752797,10066.800811
2285.613239,-814.226536,689.485948,9326.594869
2285.613561,444.123565,842.705048,9252.574275
2285.613883,148.041188,306.438199,9844.739029
2285.614204,-1332.370696,383.047749,10436.903782
2285.614526,-1258.350101,229.828649,7846.182985
2285.614848,666.185348,306.438199,8068.244768
2285.615169,666.185348,306.438199,9030.512492
2285.615491,0.000000,919.314598,10436.903782
2285.615813,-1480.411884,459.657299,10066.800811
2285.616135,0.000000,689.485948,9326.594869
2285.616456,814.226536,1762.019645,9178.553681
2285.616778,814.226536,1838.629195,10214.842000
2285.617100,1036.288319,2528.115143,8142.265362
2285.617421,2812.782580,2221.676944,7328.038826
2285.617743,3849.070898,3064.381992,9474.636058
2285.618065,2368.659014,2451.505594,9622.677246
2285.618386,1184.329507,1608.800546,8734.430116
2285.618708,2146.597232,1149.143247,9030.512492
2285.619030,1850.514855,1072.533697,10732.986159
2285.619352,444.123565,995.924147,10436.903782
2285.619673,-296.082377,229.828649,9770.718434
2285.619995,-740.205942,-306.438199,8068.244768
2285.620317,-814.226536,-306.438199,8808.450710
2285.620638,-1480.411884,-689.485948,10140.821405
2285.620960,-1702.473667,-229.828649,10140.821405
2285.621282,-962.267725,-229.828649,9474.636058
2285.621604,296.082377,612.876398,9992.780217
2285.621925,222.061783,1149.143247,10955.047942
2285.622247,0.000000,1149.143247,8586.388927
2285.622569,518.144159,689.485948,7031.956449
2285.622890,1480.411884,1455.581446,7402.059420
2285.623212,1332.370696,536.266849,9252.574275
2285.623534,296.082377,1072.533697,9104.533087
2285.623855,-148.041188,-919.314598,8216.285956
2285.624177,-1406.391290,-1072.533697,9104.533087
2285.624499,-2146.597232,-1149.143247,10066.800811
2285.624821,-2072.576638,-1532.190996,9992.780217
2285.625142,-2220.617826,-1915.238745,8364.327145
2285.625464,-1850.514855,-1991.848295,8956.491898
2285.625786,-2220.617826,-1532.190996,10658.965565
2285.626107,-1480.411884,-766.095498,10510.924376
2285.626429,-1924.535449,-1915.238745,9030.512492
2285.626751,-1480.411884,-842.705048,9844.739029
2285.627072,-1702.473667,536.266849,12139.377449
2285.627394,-814.226536,612.876398,10288.862594
2285.627716,444.123565,229.828649,8068.244768
2285.628038,444.123565,0.000000,7920.203579
2285.628359,-370.102971,229.828649,9770.718434
2285.628681,-296.082377,842.705048,9622.677246
2285.629003,0.000000,0.000000,8808.450710
2285.629324,-666.185348,0.000000,8956.491898
2285.629646,-1924.535449,383.047749,9622.677246
2285.629968,-888.247130,995.924147,8882.471304
2285.630289,296.082377,383.047749,7402.059420
2285.630611,222.061783,0.000000,7476.080014
2285.630933,-518.144159,536.266849,9622.677246
2285.631255,-1850.514855,612.876398,10288.862594
2285.631576,-370.102971,306.438199,8734.430116
2285.631898,0.000000,459.657299,8068.244768
2285.632220,-1036.288319,2298.286494,9622.677246
2285.632541,-1258.350101,2221.676944,10140.821405
2285.632863,1332.370696,2451.505594,8660.409521
2285.633185,2220.617826,1838.629195,7772.162391
2285.633507,1110.308913,2068.457845,9326.594869
2285.633828,444.123565,2298.286494,10881.027347
2285.634150,2072.576638,1685.410096,9992.780217
2285.634472,2664.741391,1072.533697,9104.533087
2285.634793,962.267725,2145.067394,11029.068536
2285.635115,0.000000,2298.286494,11325.150913
2285.635437,814.226536,1302.362347,8290.306550
2285.635758,2146.597232,842.705048,6809.894666
2285.636080,814.226536,995.924147,8512.368333
2285.636402,-1110.308913,1149.143247,9844.739029
2285.636724,-222.061783,919.314598,8364.327145
2285.637045,1258.350101,766.095498,7698.141797
2285.637367,-222.061783,1072.533697,8808.450710
2285.637689,-2072.576638,1762.019645,10584.944971
2285.638010,-296.082377,1532.190996,8808.450710
2285.638332,2442.679609,842.705048,7031.956449
2285.638654,1332.370696,842.705048,8660.409521
2285.638975,-518.144159,1072.533697,11251.130318
2285.639297,0.000000,612.876398,10362.883188
2285.639619,2072.576638,-153.219100,8586.388927
2285.639941,962.267725,-766.095498,10510.924376
2285.640262,-2368.659014,-229.828649,11399.171507
2285.640584,-1924.535449,-766.095498,10510.924376
2285.640906,296.082377,-1072.533697,7920.203579
2285.641227,148.041188,-1685.410096,8512.368333
2285.641549,-2368.659014,-766.095498,10584.944971
2285.641871,-2590.720797,-459.657299,10436.903782
2285.642193,740.205942,-1149.143247,9474.636058
2285.642514,0.000000,-1072.533697,9252.574275
2285.642836,-2738.761985,0.000000,10807.006753
2285.643158,-2220.617826,153.219100,10436.903782
2285.643479,-296.082377,-153.219100,7031.956449
2285.643801,814.226536,-306.438199,7476.080014
2285.644123,-1258.350101,306.438199,9770.718434
2285.644444,-2368.659014,766.095498,9474.636058
2285.644766,-740.205942,0.000000,7994.224174
2285.645088,0.000000,-306.438199,8290.306550
2285.645410,-1924.535449,229.828649,10362.883188
2285.645731,-3330.926739,76.609550,10066.800811
2285.646053,-296.082377,0.000000,7772.162391
2285.646375,2368.659014,0.000000,7105.977043
2285.646696,0.000000,612.876398,9696.697840
2285.647018,-2516.700203,536.266849,10436.903782
2285.647340,-518.144159,153.219100,9696.697840
2285.647661,1480.411884,383.047749,8364.327145
2285.647983,148.041188,842.705048,10732.986159
2285.648305,-1998.556043,1915.238745,11547.212695
2285.648627,-148.041188,1608.800546,8956.491898
2285.648948,2294.638420,1762.019645,7105.977043
2285.649270,2738.761985,2068.457845,8734.430116
2285.649592,-518.144159,1915.238745,9992.780217
2285.649913,888.247130,1762.019645,8438.347739
2285.650235,3404.947333,1532.190996,8734.430116
2285.650557,2220.617826,1685.410096,9992.780217
2285.650878,-888.247130,1838.629195,10584.944971
2285.651200,-370.102971,842.705048,8808.450710
2285.651522,2368.659014,689.485948,6513.812290
2285.651844,1776.494261,1072.533697,8660.409521
2285.652165,-962.267725,919.314598,11029.068536
2285.652487,-2368.659014,306.438199,10362.883188
2285.652809,74.020594,229.828649,8512.368333
2285.653130,814.226536,383.047749,9918.759623
2285.653452,-740.205942,2145.067394,11177.109724
2285.653774,-1184.329507,1838.629195,10362.883188
2285.654096,2664.741391,2451.505594,7328.038826
2285.654417,3775.050304,1915.238745,7624.121203
2285.654739,1702.473667,1838.629195,8808.450710
2285.655061,-222.061783,1915.238745,9696.697840
2285.655382,740.205942,536.266849,8956.491898
2285.655704,1184.329507,536.266849,8290.306550
2285.656026,-666.185348,995.924147,10214.842000
2285.656347,-2368.659014,-383.047749,9992.780217
2285.656669,-1628.453072,-689.485948,7624.121203
2285.656991,148.041188,-1608.800546,7179.997637
2285.657313,-1332.370696,-766.095498,9918.759623
2285.657634,-3404.947333,-766.095498,10658.965565
2285.657956,-2294.638420,-1915.238745,9474.636058
2285.658278,1110.308913,-536.266849,9400.615463
2285.658599,0.000000,1072.533697,10807.006753
2285.658921,-1628.453072,459.657299,10214.842000
2285.659243,0.000000,-229.828649,8586.388927
2285.659564,1998.556043,689.485948,8290.306550
2285.659886,1480.411884,919.314598,10140.821405
2285.660208,-518.144159,919.314598,11399.171507
2285.660530,-888.247130,-1532.190996,9844.739029
2285.660851,0.000000,-919.314598,9104.533087
2285.661173,-962.267725,-536.266849,9770.718434
2285.661495,-3256.906145,-842.705048,10140.821405
2285.661816,-3701.029710,-1302.362347,8290.306550
2285.662138,-1850.514855,-1455.581446,7105.977043
2285.662460,-740.205942,-306.438199,8734.430116
2285.662781,-2072.576638,0.000000,10288.862594
2285.663103,-2960.823768,-536.266849,8438.347739
2285.663425,-1258.350101,-383.047749,8216.285956
2285.663747,-518.144159,919.314598,9474.636058
2285.664068,-1036.288319,1378.971896,10066.800811
2285.664390,-518.144159,842.705048,8068.244768
2285.664712,888.247130,612.876398,6365.771101
2285.665033,1924.535449,2068.457845,8290.306550
2285.665355,888.247130,2068.457845,10140.821405
2285.665677,0.000000,766.095498,9548.656652
2285.665999,962.267725,536.266849,8956.491898
2285.666320,1702.473667,1302.362347,10955.047942
2285.666642,814.226536,1608.800546,11695.253884
2285.666964,296.082377,536.266849,9178.553681
2285.667285,1850.514855,766.095498,9252.574275
2285.667607,1332.370696,1072.533697,9326.594869
2285.667929,222.061783,766.095498,10881.027347
2285.668250,-444.123565,766.095498,10362.883188
2285.668572,0.000000,459.657299,9030.512492
2285.668894,-518.144159,842.705048,9326.594869
2285.669216,-296.082377,1532.190996,10066.800811
2285.669537,0.000000,1532.190996,8882.471304
2285.669859,1184.329507,1378.971896,6439.791695
2285.670181,1480.411884,2145.067394,7476.080014
2285.670502,1332.370696,2068.457845,9252.574275
2285.670824,222.061783,1225.752797,9252.574275
2285.671146,296.082377,383.047749,8660.409521
2285.671467,296.082377,306.438199,9918.759623
2285.671789,-962.267725,536.266849,10584.944971
2285.672111,-888.247130,153.219100,9178.553681
2285.672433,-888.247130,-919.314598,7772.162391
2285.672754,-740.205942,-995.924147,8216.285956
2285.673076,-1332.370696,-306.438199,10510.924376
2285.673398,-1110.308913,76.609550,10881.027347
2285.673719,-888.247130,-306.438199,9770.718434
2285.674041,-370.102971,306.438199,9844.739029
2285.674363,-370.102971,995.924147,11103.089130
2285.674684,370.102971,2068.457845,9992.780217
2285.675006,1406.391290,1838.629195,7772.162391
2285.675328,1332.370696,1149.143247,7846.182985
2285.675650,666.185348,1302.362347,9770.718434
2285.675971,-222.061783,1149.143247,9770.718434
2285.676293,444.123565,76.609550,8586.388927
2285.676615,-518.144159,-766.095498,9178.553681
2285.676936,-2812.782580,153.219100,10214.842000
2285.677258,-2812.782580,-689.485948,9992.780217
2285.677580,-1554.432478,-995.924147,7550.100608
2285.677902,-1480.411884,-1378.971896,7550.100608
2285.678223,-2812.782580,-229.828649,9548.656652
2285.678545,-1924.535449,153.219100,10732.986159
2285.678867,0.000000,229.828649,9474.636058
2285.679188,-666.185348,-612.876398,8660.409521
2285.679510,-2368.659014,1072.533697,10436.903782
2285.679832,-1924.535449,1685.410096,10436.903782
2285.680153,0.000000,1225.752797,8734.430116
2285.680475,1332.370696,995.924147,7846.182985
2285.680797,-296.082377,1072.533697,8956.491898
2285.681119,-592.164754,1608.800546,10140.821405
2285.681440,-148.041188,612.876398,9696.697840
2285.681762,1036.288319,536.266849,8290.306550
2285.682084,0.000000,766.095498,10214.842000
2285.682405,-666.185348,1685.410096,10658.965565
2285.682727,1036.288319,995.924147,9178.553681
2285.683049,2738.761985,229.828649,7179.997637
2285.683370,1036.288319,459.657299,8364.327145
2285.683692,222.061783,1149.143247,10140.821405
2285.684014,222.061783,766.095498,9548.656652
2285.684336,1924.535449,0.000000,8364.327145
2285.684657,1702.473667,459.657299,10436.903782
2285.684979,-1332.370696,1302.362347,11029.068536
2285.685301,-888.247130,1149.143247,8882.471304
2285.685622,2294.638420,383.047749,7179.997637
2285.685944,1480.411884,919.314598,8364.327145
2285.686266,-296.082377,1455.581446,9696.697840
2285.686587,592.164754,1149.143247,10362.883188
2285.686909,2886.803174,459.657299,8660.409521
2285.687231,1850.514855,76.609550,9474.636058
2285.687553,-1628.453072,153.219100,11547.212695
2285.687874,-1480.411884,0.000000,10214.842000
2285.688196,1480.411884,-766.095498,7476.080014
2285.688518,2072.576638,-229.828649,7846.182985
2285.688839,-1110.308913,-459.657299,9992.780217
2285.689161,-2220.617826,-459.657299,10510.924376
2285.689483,-296.082377,-842.705048,8734.430116
2285.689805,74.020594,-766.095498,8734.430116
2285.690126,-1850.514855,76.609550,11325.150913
2285.690448,-2590.720797,612.876398,9770.718434
2285.690770,1480.411884,229.828649,7550.100608
2285.691091,3108.864956,1149.143247,7698.141797
2285.691413,0.000000,1225.752797,9474.636058
2285.691735,-1480.411884,919.314598,10436.903782
2285.692056,296.082377,153.219100,8290.306550
2285.692378,1258.350101,-306.438199,8216.285956
2285.692700,-1850.514855,153.219100,11399.171507
2285.693022,-4219.173869,-383.047749,11473.192101
2285.693343,-1702.473667,-995.924147,8364.327145
2285.693665,148.041188,-995.924147,7402.059420
2285.693987,-2146.597232,-612.876398,10140.821405
2285.694308,-4737.318029,-153.219100,11843.295072
2285.694630,-2960.823768,-383.047749,9992.780217
2285.694952,0.000000,0.000000,9104.533087
2285.695273,-1554.432478,-536.266849,9178.553681
2285.695595,-3997.112087,1455.581446,10362.883188
2285.695917,-2072.576638,1685.410096,8586.388927
2285.696239,1702.473667,1072.533697,6365.771101
2285.696560,1776.494261,1762.019645,8216.285956
2285.696882,-1480.411884,1455.581446,9844.739029
2285.697204,-1628.453072,1378.971896,8660.409521
2285.697525,1332.370696,919.314598,6735.874072
2285.697847,1702.473667,1072.533697,8956.491898
2285.698169,-1184.329507,1455.581446,10066.800811
2285.698491,-1036.288319,1838.629195,8734.430116
2285.698812,2590.720797,612.876398,7402.059420
2285.699134,2886.803174,766.095498,8734.430116
2285.699456,74.020594,689.485948,10658.965565
2285.699777,-962.267725,995.924147,11029.068536
2285.700099,1184.329507,459.657299,9252.574275
2285.700421,2664.741391,1302.362347,10066.800811
2285.700742,74.020594,1762.019645,11029.068536
2285.701064,-814.226536,2068.457845,10807.006753
2285.701386,1480.411884,1685.410096,7476.080014
2285.701708,3552.988522,1378.971896,7031.956449
2285.702029,1776.494261,1608.800546,9474.636058
2285.702351,-814.226536,2068.457845,10436.903782
2285.702673,222.061783,612.876398,7402.059420
2285.702994,2368.659014,383.047749,8216.285956
2285.703316,-296.082377,229.828649,9696.697840
2285.703638,-2738.761985,229.828649,10214.842000
2285.703959,-888.247130,-689.485948,8068.244768
2285.704281,592.164754,-1149.143247,7698.141797
2285.704603,-296.082377,-306.438199,9770.718434
2285.704925,-2516.700203,0.000000,11177.109724
2285.705246,-2072.576638,-459.657299,8660.409521
2285.705568,1332.370696,-766.095498,8438.347739
2285.705890,592.164754,229.828649,10732.986159
2285.706211,-1628.453072,1685.410096,10955.047942
2285.706533,444.123565,1149.143247,8882.471304
2285.706855,2960.823768,1149.143247,8216.285956
2285.707176,2664.741391,1455.581446,9992.780217
2285.707498,74.020594,1225.752797,10362.883188
2285.707820,0.000000,229.828649,9474.636058
2285.708142,888.247130,-536.266849,9104.533087
2285.708463,444.123565,-536.266849,9992.780217
2285.708785,-1998.556043,76.609550,10955.047942
2285.709107,-2738.761985,-459.657299,8216.285956
2285.709428,-2146.597232,-1608.800546,6587.832884
2285.709750,-1258.350101,-1302.362347,8882.471304
2285.710072,-3849.070898,-383.047749,10362.883188
2285.710394,-4071.132681,-1072.533697,9252.574275
2285.710715,-2812.782580,-842.705048,8216.285956
2285.711037,-1184.329507,0.000000,9548.656652
2285.711359,-1628.453072,1378.971896,10584.944971
2285.711680,-2146.597232,1302.362347,8734.430116
2285.712002,222.061783,383.047749,7031.956449
2285.712324,1258.350101,1072.533697,8808.450710
2285.712646,1036.288319,1225.752797,10658.965565
2285.712967,-370.102971,919.314598,10436.903782
2285.713289,518.144159,153.219100,8586.388927
2285.713611,814.226536,612.876398,9474.636058
2285.713933,-740.205942,1378.971896,10807.006753
2285.714254,-814.226536,995.924147,10066.800811
2285.714576,-222.061783,306.438199,7328.038826
2285.714898,1406.391290,689.485948,7846.182985
2285.715220,1036.288319,1608.800546,9770.718434
2285.715541,-370.102971,1302.362347,9548.656652
2285.715863,-296.082377,766.095498,8956.491898
2285.716185,1258.350101,995.924147,8808.450710
2285.716507,740.205942,2221.676944,9770.718434
2285.716828,592.164754,1838.629195,8216.285956
2285.717150,962.267725,1378.971896,6661.853478
2285.717472,1850.514855,1378.971896,6957.935855
2285.717794,1702.473667,1838.629195,9770.718434
2285.718115,296.082377,1225.752797,10436.903782
2285.718437,518.144159,536.266849,9104.533087
2285.718759,888.247130,229.828649,9992.780217
2285.719081,296.082377,1302.362347,11399.171507
2285.719402,222.061783,919.314598,10881.027347
2285.719724,148.041188,0.000000,7994.224174
2285.720046,444.123565,-383.047749,8438.347739
2285.720368,-148.041188,76.609550,10510.924376
2285.720690,-518.144159,0.000000,11177.109724
2285.721011,-222.061783,0.000000,9474.636058
2285.721333,-666.185348,0.000000,9548.656652
2285.721655,-1480.411884,0.000000,10140.821405
2285.721977,-1036.288319,306.438199,9992.780217
2285.722298,518.144159,383.047749,8216.285956
2285.722620,370.102971,229.828649,7254.018232
2285.722942,74.020594,1455.581446,8660.409521
2285.723264,148.041188,995.924147,10066.800811
2285.723585,592.164754,1149.143247,8068.244768
2285.723907,148.041188,76.609550,8364.327145
2285.724229,-1258.350101,-229.828649,9696.697840
2285.724551,-1998.556043,-153.219100,10066.800811
2285.724872,-740.205942,-842.705048,8364.327145
2285.725194,222.061783,-1608.800546,7550.100608
2285.725516,-1702.473667,-1302.362347,9178.553681
2285.725838,-2664.741391,-306.438199,10214.842000
2285.726159,-1850.514855,-689.485948,9400.615463
2285.726481,-1110.308913,-919.314598,9326.594869
2285.726803,-2442.679609,-153.219100,10732.986159
2285.727125,-2516.700203,689.485948,11843.295072
2285.727446,-888.247130,612.876398,9844.739029
2285.727768,518.144159,0.000000,7698.141797
2285.728090,0.000000,229.828649,9400.615463
2285.728412,-1036.288319,1302.362347,11177.109724
2285.728733,-592.164754,1225.752797,9474.636058
2285.729055,296.082377,-383.047749,8068.244768
2285.729377,-444.123565,0.000000,9696.697840
2285.729699,-2590.720797,536.266849,10288.862594
2285.730020,-1554.432478,383.047749,8586.388927
2285.730342,740.205942,153.219100,6957.935855
2285.730664,592.164754,76.609550,7846.182985
2285.730986,-814.226536,919.314598,10214.842000
2285.731308,0.000000,229.828649,10658.965565
2285.731629,2072.576638,1302.362347,8660.409521
2285.731951,1184.329507,919.314598,8734.430116
2285.732273,0.000000,1991.848295,10955.047942
2285.732595,296.082377,2911.162892,10140.821405
2285.732916,3256.906145,2221.676944,7476.080014
2285.733238,3034.844362,2298.286494,7698.141797
2285.733560,444.123565,2451.505594,9474.636058
2285.733882,-370.102971,1991.848295,10066.800811
2285.734203,1702.473667,1302.362347,8512.368333
2285.734525,1850.514855,919.314598,9104.533087
2285.734847,-1110.308913,1302.362347,10955.047942
2285.735169,-1776.494261,1225.752797,10140.821405
2285.735490,1406.391290,1072.533697,7476.080014
2285.735812,1406.391290,306.438199,6809.894666
2285.736134,-740.205942,612.876398,9104.533087
2285.736456,-1998.556043,459.657299,10955.047942
2285.736777,-296.082377,0.000000,8734.430116
2285.737099,1184.329507,-459.657299,8364.327145
2285.737421,0.000000,1455.581446,10288.862594
2285.737743,-2442.679609,1225.752797,11177.109724
2285.738064,-222.061783,612.876398,8290.306550
2285.738386,3256.906145,153.219100,7328.038826
2285.738708,1184.329507,919.314598,9030.512492
2285.739030,-1258.350101,1302.362347,11177.109724
2285.739351,74.020594,1072.533697,10584.944971
2285.739673,2368.659014,0.000000,8734.430116
2285.739995,814.226536,153.219100,9918.759623
2285.740317,-2146.597232,766.095498,11103.089130
2285.740638,-1998.556043,76.609550,8956.491898
2285.740960,888.247130,-919.314598,6957.935855
2285.741282,-222.061783,-842.705048,8808.450710
2285.741604,-3849.070898,-919.314598,11103.089130
2285.741926,-4515.256246,-1149.143247,9474.636058
2285.742247,-1036.288319,-1762.019645,7994.224174
2285.742569,-666.185348,-383.047749,9030.512492
2285.742891,-3923.091493,0.000000,11029.068536
2285.743213,-2664.741391,459.657299,8956.491898
2285.743534,1480.411884,459.657299,6661.853478
2285.743856,2442.679609,1149.143247,7624.121203
2285.744178,-740.205942,1225.752797,10140.821405
2285.744500,-222.061783,766.095498,10436.903782
2285.744821,1258.350101,842.705048,7994.224174
2285.745143,1480.411884,0.000000,8882.471304
2285.745465,-1332.370696,-383.047749,11251.130318
2285.745787,-2886.803174,0.000000,10362.883188
2285.746108,-666.185348,-536.266849,7402.059420
2285.746430,1332.370696,-1378.971896,7624.121203
2285.746752,-1110.308913,76.609550,10881.027347
2285.747074,-2664.741391,229.828649,11177.109724
2285.747395,-740.205942,76.609550,10140.821405
2285.747717,1776.494261,229.828649,8660.409521
2285.748039,-370.102971,612.876398,10066.800811
2285.748361,-1110.308913,2068.457845,10288.862594
2285.748682,1480.411884,1762.019645,8882.471304
2285.749004,3849.070898,1455.581446,7179.997637
2285.749326,2516.700203,1915.238745,8512.368333
2285.749648,888.247130,1915.238745,9474.636058
2285.749969,370.102971,1225.752797,7402.059420
2285.750291,3108.864956,1072.533697,7624.121203
2285.750613,2072.576638,1225.752797,10066.800811
2285.750935,-814.226536,1149.143247,9992.780217
2285.751256,-740.205942,76.609550,7624.121203
2285.751578,2590.720797,306.438199,7179.997637
2285.751900,1850.514855,76.609550,9400.615463
2285.752222,-888.247130,0.000000,10807.006753
2285.752544,-1480.411884,76.609550,11029.068536
2285.752865,518.144159,76.609550,9696.697840
2285.753187,814.226536,-153.219100,10214.842000
2285.753509,-1406.391290,536.266849,10658.965565
2285.753831,-1554.432478,1378.971896,9030.512492
2285.754152,1480.411884,76.609550,7550.100608
2285.754474,2294.638420,536.266849,8364.327145
2285.754796,0.000000,766.095498,10955.047942
2285.755118,-1924.535449,306.438199,10436.903782
2285.755439,74.020594,-536.266849,8438.347739
2285.755761,962.267725,-306.438199,8956.491898
2285.756083,-1110.308913,306.438199,10288.862594
2285.756405,-2220.617826,-612.876398,9696.697840
2285.756726,-592.164754,-1378.971896,7328.038826
2285.757048,148.041188,-1225.752797,7994.224174
2285.757370,-1850.514855,-536.266849,10066.800811
2285.757692,-3108.864956,-919.314598,10436.903782
2285.758013,-2442.679609,-1149.143247,8956.491898
2285.758335,-962.267725,-459.657299,8956.491898
2285.758657,-1184.329507,229.828649,10658.965565
2285.758979,-2516.700203,1302.362347,9178.553681
2285.759300,-962.267725,459.657299,7328.038826
2285.759622,888.247130,689.485948,8068.244768
2285.759944,592.164754,1302.362347,10584.944971
2285.760266,-1110.308913,842.705048,9918.759623
2285.760587,-888.247130,-383.047749,9474.636058
2285.760909,0.000000,459.657299,9474.636058
2285.761231,-888.247130,383.047749,10584.944971
2285.761553,-2072.576638,612.876398,9622.677246
2285.761874,-1628.453072,-612.876398,7624.121203
2285.762196,-1110.308913,-383.047749,7994.224174
2285.762518,-1036.288319,153.219100,9178.553681
2285.762840,-1850.514855,612.876398,10214.842000
2285.763161,-1776.494261,-153.219100,8364.327145
2285.763483,-518.144159,612.876398,8808.450710
2285.763805,592.164754,1838.629195,10066.800811
2285.764127,740.205942,2374.896044,9622.677246
2285.764449,1036.288319,1762.019645,7031.956449
2285.764770,2368.659014,1608.800546,7550.100608
2285.765092,2368.659014,2757.943793,9548.656652
2285.765414,1480.411884,1762.019645,10510.924376
2285.765736,1702.473667,1149.143247,9696.697840
2285.766057,740.205942,229.828649,8364.327145
2285.766379,148.041188,612.876398,9844.739029
2285.766701,0.000000,1072.533697,10436.903782
2285.767023,148.041188,459.657299,9030.512492
2285.767344,0.000000,229.828649,8512.368333
2285.767666,222.061783,995.924147,9400.615463
2285.767988,148.041188,919.314598,9844.739029
2285.768310,962.267725,1532.190996,9474.636058
2285.768631,888.247130,1149.143247,8734.430116
2285.768953,888.247130,1378.971896,9548.656652
2285.769275,888.247130,1838.629195,9622.677246
2285.769597,1406.391290,1685.410096,7624.121203
2285.769918,1998.556043,689.485948,6883.915261
2285.770240,592.164754,1302.362347,8734.430116
2285.770562,0.000000,1149.143247,9696.697840
2285.770884,444.123565,0.000000,9326.594869
2285.771205,0.000000,-766.095498,8364.327145
2285.771527,-1184.329507,-459.657299,10584.944971
2285.771849,-1776.494261,-229.828649,11325.150913
2285.772171,-740.205942,-689.485948,9400.615463
2285.772492,296.082377,-1685.410096,7920.203579
2285.772814,-1036.288319,-919.314598,10066.800811
2285.773136,-1406.391290,0.000000,11621.233289
2285.773458,-1110.308913,-306.438199,10214.842000
2285.773779,-592.164754,-1072.533697,9326.594869
2285.774101,-1776.494261,-536.266849,10510.924376
2285.774423,-2442.679609,459.657299,11029.068536
2285.774745,-962.267725,229.828649,8364.327145
2285.775067,-740.205942,0.000000,6587.832884
2285.775388,-1258.350101,-76.609550,8882.471304
2285.775710,-1998.556043,766.095498,9696.697840
2285.776032,-1184.329507,0.000000,8586.388927
2285.776354,148.041188,-306.438199,7846.182985
2285.776675,-1332.370696,153.219100,8808.450710
2285.776997,-1924.535449,919.314598,10807.006753
2285.777319,-1702.473667,306.438199,8660.409521
2285.777641,222.061783,0.000000,6513.812290
2285.777962,148.041188,-153.219100,7624.121203
2285.778284,-2442.679609,459.657299,9696.697840
2285.778606,-1554.432478,229.828649,10140.821405
2285.778928,962.267725,383.047749,8956.491898
2285.779249,814.226536,842.705048,9770.718434
2285.779571,-1406.391290,1762.019645,11103.089130
2285.779893,0.000000,1532.190996,10362.883188
2285.780215,2516.700203,1915.238745,8216.285956
2285.780536,2960.823768,1455.581446,7698.141797
2285.780858,592.164754,1915.238745,9770.718434
2285.781180,-148.041188,1838.629195,10510.924376
2285.781502,1406.391290,1072.533697,8882.471304
2285.781823,2368.659014,995.924147,8068.244768
2285.782145,0.000000,536.266849,10510.924376
2285.782467,-1702.473667,1532.190996,10510.924376
2285.782789,444.123565,536.266849,7550.100608
2285.783110,2220.617826,0.000000,6883.915261
2285.783432,148.041188,536.266849,8956.491898
2285.783754,-1554.432478,1072.533697,10436.903782
2285.784076,444.123565,842.705048,9474.636058
2285.784397,2442.679609,306.438199,8956.491898
2285.784719,814.226536,1072.533697,10140.821405
2285.785041,-592.164754,842.705048,11325.150913
2285.785363,814.226536,1532.190996,8882.471304
2285.785685,3627.009116,1149.143247,6957.935855
2285.786006,2220.617826,995.924147,9030.512492
2285.786328,-592.164754,1455.581446,10807.006753
2285.786650,0.000000,1532.190996,9474.636058
2285.786972,1924.535449,0.000000,7772.162391
2285.787293,592.164754,153.219100,9844.739029
2285.787615,-2664.741391,76.609550,11177.109724
2285.787937,-2294.638420,0.000000,10214.842000
2285.788259,1110.308913,-306.438199,7105.977043
2285.788580,0.000000,-919.314598,8290.306550
2285.788902,-3627.009116,-536.266849,10066.800811
2285.789224,-2960.823768,-689.485948,10066.800811
2285.789546,-1110.308913,-1072.533697,7994.224174
2285.789867,-666.185348,-842.705048,9178.553681
2285.790189,-3108.864956,0.000000,11473.192101
2285.790511,-3923.091493,-536.266849,9992.780217
2285.790833,-1258.350101,-689.485948,7698.141797
2285.791154,592.164754,-383.047749,7846.182985
2285.791476,-1184.329507,1225.752797,9844.739029
2285.791798,-2516.700203,459.657299,10584.944971
2285.792120,740.205942,0.000000,9252.574275
2285.792441,1702.473667,0.000000,8956.491898
2285.792763,-888.247130,229.828649,10214.842000
2285.793085,-2738.761985,0.000000,10955.047942
2285.793407,-740.205942,-689.485948,8882.471304
2285.793728,1110.308913,-689.485948,7994.224174
2285.794050,-370.102971,-536.266849,10584.944971
2285.794372,-3182.885551,-153.219100,10584.944971
2285.794694,-2368.659014,-612.876398,8586.388927
2285.795015,148.041188,-229.828649,8438.347739
2285.795337,-370.102971,459.657299,10436.903782
2285.795659,-2442.679609,919.314598,10510.924376
2285.795981,-222.061783,1302.362347,7698.141797
2285.796303,3701.029710,1302.362347,6513.812290
2285.796624,2220.617826,2298.286494,8068.244768
2285.796946,-296.082377,1838.629195,9770.718434
2285.797268,666.185348,1608.800546,8808.450710
2285.797590,2294.638420,1072.533697,7179.997637
2285.797911,1480.411884,1455.581446,9474.636058
2285.798233,-1628.453072,1225.752797,10584.944971
2285.798555,-1258.350101,842.705048,8882.471304
2285.798877,1036.288319,612.876398,7031.956449
2285.799198,1332.370696,153.219100,9326.594869
2285.799520,-1554.432478,1072.533697,12213.398043
2285.799842,-2072.576638,612.876398,10658.965565
2285.800164,1184.329507,689.485948,8808.450710
2285.800485,2072.576638,1532.190996,9400.615463
2285.800807,444.123565,2221.676944,10658.965565
2285.801129,-296.082377,2604.724693,9696.697840
2285.801451,3552.988522,1378.971896,7550.100608
2285.801772,3997.112087,1762.019645,7846.182985
2285.802094,1628.453072,2221.676944,9030.512492
2285.802416,-222.061783,1378.971896,9548.656652
2285.802738,814.226536,229.828649,8216.285956
2285.803059,1924.535449,612.876398,8882.471304
2285.803381,0.000000,612.876398,9770.718434
2285.803703,-1554.432478,306.438199,8956.491898
2285.804025,-740.205942,-612.876398,7402.059420
2285.804346,592.164754,-689.485948,8660.409521
2285.804668,-1110.308913,0.000000,10584.944971
2285.804990,-3404.947333,0.000000,10584.944971
2285.805312,-1258.350101,-1685.410096,9770.718434
2285.805633,-814.226536,-995.924147,9400.615463
2285.805955,-1628.453072,-306.438199,10807.006753
2285.806277,-1924.535449,153.219100,11547.212695
2285.806599,-1184.329507,0.000000,8586.388927
2285.806920,592.164754,-306.438199,7920.203579
2285.807242,592.164754,229.828649,9770.718434
2285.807564,-1628.453072,766.095498,10807.006753
2285.807886,-1406.391290,-689.485948,8290.306550
2285.808208,-592.164754,-383.047749,8438.347739
2285.808529,1036.288319,-306.438199,11177.109724
2285.808851,-1036.288319,229.828649,10807.006753
2285.809173,-814.226536,-766.095498,8586.388927
2285.809495,962.267725,-919.314598,8364.327145
2285.809816,148.041188,842.705048,9696.697840
2285.810138,-814.226536,383.047749,10362.883188
2285.810460,-370.102971,153.219100,9474.636058
2285.810782,-740.205942,0.000000,8660.409521
2285.811103,-444.123565,536.266849,9548.656652
2285.811425,-814.226536,1072.533697,9844.739029
2285.811751,-1036.288319,1072.533697,8216.285956
2285.812072,0.000000,383.047749,6735.874072
2285.812394,888.247130,1072.533697,9104.533087
2285.812716,-148.041188,1378.971896,9474.636058
2285.813038,-962.267725,229.828649,9548.656652
2285.813359,-1184.329507,306.438199,8660.409521
2285.813681,-1110.308913,76.609550,10362.883188
2285.814003,-1628.453072,383.047749,10362.883188
2285.814325,-1258.350101,229.828649,8734.430116
2285.814647,-148.041188,229.828649,8512.368333
2285.814968,-222.061783,689.485948,8364.327145
2285.815290,74.020594,1072.533697,9474.636058
2285.815612,592.164754,1225.752797,9622.677246
2285.815934,1110.308913,1532.190996,9178.553681
2285.816256,2146.597232,1915.238745,9400.615463
2285.816577,2960.823768,2604.724693,9918.759623
2285.816899,3256.906145,3600.648841,8734.430116
2285.817221,3997.112087,2604.724693,7698.141797
2285.817543,3552.988522,2911.162892,9178.553681
2285.817865,2294.638420,1915.238745,9548.656652
2285.818186,1628.453072,1072.533697,9696.697840
2285.818508,1258.350101,0.000000,9252.574275
2285.818830,-444.123565,76.609550,10288.862594
2285.819152,-1406.391290,0.000000,10584.944971
2285.819474,-1628.453072,76.609550,9696.697840
2285.819795,-1702.473667,-383.047749,7624.121203
2285.820117,-2220.617826,-612.876398,8290.306550
2285.820439,-2294.638420,-536.266849,10214.842000
2285.820761,-1406.391290,-612.876398,10288.862594
2285.821082,-1184.329507,-766.095498,9252.574275
2285.821404,-1924.535449,-1072.533697,9844.739029
2285.821726,-2072.576638,0.000000,10955.047942
2285.822048,-1184.329507,383.047749,9918.759623
2285.822370,740.205942,76.609550,7031.956449
2285.822691,888.247130,0.000000,7402.059420
2285.823013,-740.205942,0.000000,9696.697840
2285.823335,-370.102971,0.000000,9622.677246
2285.823657,1258.350101,-612.876398,8512.368333
2285.823979,370.102971,-229.828649,9252.574275
2285.824300,-1110.308913,229.828649,11325.150913
2285.824622,-814.226536,-229.828649,10288.862594
2285.824944,1332.370696,-536.266849,7698.141797
2285.825266,1036.288319,-919.314598,7402.059420
2285.825588,-1628.453072,-536.266849,10140.821405
2285.825909,-2220.617826,-306.438199,11621.233289
2285.826231,-666.185348,-459.657299,9770.718434
2285.826553,-962.267725,-919.314598,9474.636058
2285.826875,-2960.823768,-229.828649,10510.924376
2285.827197,-3849.070898,153.219100,10955.047942
2285.827518,-1110.308913,76.609550,8290.306550
2285.827840,518.144159,76.609550,7328.038826
2285.828162,-1554.432478,766.095498,8512.368333
2285.828484,-2368.659014,1225.752797,9400.615463
2285.828805,296.082377,1838.629195,8290.306550
2285.829127,1628.453072,919.314598,7994.224174
2285.829449,-444.123565,919.314598,9400.615463
2285.829771,-1554.432478,1149.143247,10658.965565
2285.830093,-222.061783,612.876398,8512.368333
2285.830414,1406.391290,76.609550,6957.935855
2285.830736,592.164754,229.828649,9252.574275
2285.831058,-1258.350101,1072.533697,10807.006753
2285.831380,0.000000,1072.533697,9622.677246
2285.831702,2368.659014,306.438199,8438.347739
2285.832023,1924.535449,2145.067394,9548.656652
2285.832345,-444.123565,2834.553343,11251.130318
2285.832667,1332.370696,3370.820191,9918.759623
2285.832989,4589.276840,2681.334243,7328.038826
2285.833311,3552.988522,2145.067394,7476.080014
2285.833632,592.164754,2757.943793,10214.842000
2285.833954,148.041188,1915.238745,10214.842000
2285.834276,2516.700203,689.485948,8068.244768
2285.834598,1480.411884,229.828649,9104.533087
2285.834920,-1702.473667,229.828649,10807.006753
2285.835241,-2368.659014,153.219100,9770.718434
2285.835563,444.123565,76.609550,7402.059420
2285.835885,1036.288319,-995.924147,7994.224174
2285.836207,-1406.391290,153.219100,9992.780217
2285.836528,-2664.741391,0.000000,10288.862594
2285.836850,666.185348,-306.438199,8734.430116
2285.837172,1702.473667,-153.219100,8956.491898
2285.837494,-1258.350101,689.485948,10732.986159
2285.837816,-2294.638420,1149.143247,10658.965565
2285.838137,296.082377,689.485948,7179.997637
2285.838459,2664.741391,689.485948,6661.853478
2285.838781,0.000000,766.095498,9178.553681
2285.839103,-2368.659014,919.314598,10288.862594
2285.839425,-1628.453072,-229.828649,8068.244768
2285.839746,148.041188,-1149.143247,8290.306550
2285.840068,-2294.638420,-383.047749,10732.986159
2285.840390,-4293.194464,-383.047749,11325.150913
2285.840712,-2072.576638,-459.657299,9178.553681
2285.841034,1628.453072,-153.219100,7846.182985
2285.841355,-222.061783,-383.047749,9474.636058
2285.841677,-2738.761985,76.609550,11399.171507
2285.841999,-1554.432478,153.219100,9622.677246
2285.842321,962.267725,-306.438199,8734.430116
2285.842643,666.185348,995.924147,10066.800811
2285.842964,-1480.411884,1225.752797,10288.862594
2285.843286,-1036.288319,1532.190996,8586.388927
2285.843608,1258.350101,919.314598,6587.832884
2285.843930,1332.370696,689.485948,8290.306550
2285.844251,-2072.576638,1072.533697,9770.718434
2285.844573,-2664.741391,536.266849,8512.368333
2285.844895,518.144159,689.485948,8216.285956
2285.845217,-222.061783,536.266849,8808.450710
2285.845539,-2442.679609,842.705048,10362.883188
2285.845860,-2738.761985,536.266849,9992.780217
2285.846182,-296.082377,383.047749,7624.121203
2285.846504,962.267725,-153.219100,8290.306550
2285.846826,-1110.308913,536.266849,11029.068536
2285.847148,-1850.514855,919.314598,11029.068536
2285.847469,1110.308913,0.000000,9326.594869
2285.847791,2590.720797,689.485948,9400.615463
2285.848113,1258.350101,2604.724693,11103.089130
2285.848435,0.000000,2221.676944,10288.862594
2285.848757,3701.029710,1991.848295,6883.915261
2285.849078,5847.626942,1991.848295,7698.141797
2285.849400,3182.885551,2221.676944,9918.759623
2285.849722,1184.329507,1532.190996,10436.903782
2285.850044,1776.494261,153.219100,8586.388927
2285.850366,2590.720797,153.219100,8364.327145
2285.850687,444.123565,0.000000,10436.903782
2285.851009,-1924.535449,536.266849,10066.800811
2285.851331,-1110.308913,-689.485948,7624.121203
2285.851653,296.082377,-1302.362347,7105.977043
2285.851974,-814.226536,-689.485948,9548.656652
2285.852296,-2886.803174,-612.876398,10658.965565
2285.852618,-2294.638420,-612.876398,9104.533087
2285.852940,222.061783,-1149.143247,9252.574275
2285.853262,962.267725,76.609550,10807.006753
2285.853583,-1184.329507,689.485948,11103.089130
2285.853905,-518.144159,842.705048,8882.471304
2285.854227,1406.391290,-229.828649,7624.121203
2285.854549,1258.350101,229.828649,9326.594869
2285.854871,-444.123565,0.000000,10140.821405
2285.855192,-1036.288319,76.609550,9844.739029
2285.855514,-1036.288319,-1302.362347,8586.388927
2285.855836,-962.267725,-1225.752797,9474.636058
2285.856158,-2220.617826,-536.266849,10436.903782
2285.856480,-2812.782580,-995.924147,8512.368333
2285.856801,-1628.453072,-1225.752797,7698.141797
2285.857123,148.041188,-229.828649,9178.553681
2285.857445,-888.247130,229.828649,11103.089130
2285.857767,-2368.659014,0.000000,9326.594869
2285.858089,-962.267725,-536.266849,8808.450710
2285.858410,-296.082377,229.828649,9400.615463
2285.858732,-888.247130,1378.971896,10807.006753
2285.859054,-1184.329507,1149.143247,9696.697840
2285.859376,0.000000,689.485948,7476.080014
2285.859697,148.041188,766.095498,7772.162391
2285.860019,-740.205942,1915.238745,9622.677246
2285.860341,-1258.350101,689.485948,9622.677246
2285.860663,-1480.411884,229.828649,8512.368333
2285.860985,-592.164754,1149.143247,9844.739029
2285.861306,-1406.391290,1378.971896,10436.903782
2285.861628,-1332.370696,306.438199,8512.368333
2285.861950,-814.226536,229.828649,7031.956449
2285.862272,-592.164754,689.485948,7994.224174
2285.862594,-370.102971,842.705048,9844.739029
2285.862915,-1480.411884,536.266849,9400.615463
2285.863237,-518.144159,153.219100,8216.285956
2285.863559,-370.102971,1225.752797,9104.533087
2285.863881,74.020594,2451.505594,10436.903782
2285.864203,1110.308913,2451.505594,9400.615463
2285.864524,2368.659014,2528.115143,8290.306550
2285.864846,3330.926739,2451.505594,7920.203579
2285.865168,3182.885551,3140.991542,9770.718434
2285.865490,2812.782580,2834.553343,9622.677246
2285.865812,3627.009116,2068.457845,8660.409521
2285.866133,2738.761985,1532.190996,10140.821405
2285.866455,1258.350101,1838.629195,10732.986159
2285.866777,1258.350101,1072.533697,10140.821405
2285.867099,1628.453072,842.705048,7698.141797
2285.867420,370.102971,229.828649,8586.388927
2285.867742,-814.226536,-306.438199,9474.636058
2285.868064,-1480.411884,-459.657299,10066.800811
2285.868386,-888.247130,-306.438199,8660.409521
2285.868708,-1406.391290,-459.657299,9548.656652
2285.869029,-1850.514855,-229.828649,10881.027347
2285.869351,-962.267725,76.609550,10362.883188
2285.869673,814.226536,459.657299,7698.141797
2285.869995,444.123565,76.609550,7105.977043
2285.870317,0.000000,153.219100,8956.491898
2285.870638,-518.144159,766.095498,9918.759623
2285.870960,296.082377,459.657299,8364.327145
2285.871282,-370.102971,-1302.362347,8216.285956
2285.871604,-2590.720797,-536.266849,10436.903782
2285.871926,-2442.679609,-842.705048,11251.130318
2285.872247,-370.102971,-1149.143247,9104.533087
2285.872569,0.000000,-1991.848295,7994.224174
2285.872891,-2146.597232,-1225.752797,10288.862594
2285.873213,-2590.720797,-689.485948,11843.295072
2285.873535,-666.185348,-536.266849,10214.842000
2285.873856,0.000000,-1225.752797,9400.615463
2285.874178,-2072.576638,-306.438199,10658.965565
2285.874500,-2220.617826,995.924147,11177.109724
2285.874822,296.082377,995.924147,9178.553681
2285.875143,1702.473667,459.657299,7105.977043
2285.875465,296.082377,612.876398,7920.203579
2285.875787,-1850.514855,1302.362347,8808.450710
2285.876109,-666.185348,1072.533697,7179.997637
2285.876431,962.267725,-383.047749,7328.038826
2285.876752,-1184.329507,383.047749,8882.471304
2285.877074,-3478.967927,919.314598,10436.903782
2285.877396,-814.226536,842.705048,8142.265362
2285.877718,1258.350101,-306.438199,7031.956449
2285.878040,-592.164754,459.657299,8216.285956
2285.878361,-1924.535449,1302.362347,11103.089130
2285.878683,-1184.329507,1072.533697,9992.780217
2285.879005,1850.514855,153.219100,8438.347739
2285.879327,1036.288319,842.705048,9770.718434
2285.879649,-518.144159,2145.067394,11547.212695
2285.879970,0.000000,2221.676944,10807.006753
2285.880292,3108.864956,1838.629195,7698.141797
2285.880614,3404.947333,1532.190996,8882.471304
2285.880936,962.267725,2681.334243,10510.924376
2285.881258,666.185348,2451.505594,9844.739029
2285.881579,3849.070898,1838.629195,7846.182985
2285.881901,2960.823768,1149.143247,8364.327145
2285.882223,370.102971,1378.971896,10658.965565
2285.882545,-518.144159,1302.362347,10436.903782
2285.882867,1184.329507,-612.876398,7772.162391
2285.883188,1554.432478,-536.266849,7179.997637
2285.883510,-370.102971,-306.438199,9918.759623
2285.883832,-2368.659014,0.000000,10140.821405
2285.884154,-518.144159,-383.047749,8290.306550
2285.884475,1184.329507,-995.924147,8364.327145
2285.884797,-370.102971,229.828649,10140.821405
2285.885119,-2146.597232,1762.019645,10807.006753
2285.885441,666.185348,1225.752797,8882.471304
2285.885763,3627.009116,612.876398,7254.018232
2285.886084,2072.576638,766.095498,8734.430116
2285.886406,-1184.329507,1149.143247,11547.212695
2285.886728,-444.123565,229.828649,9844.739029
2285.887050,1406.391290,-1225.752797,8142.265362
2285.887372,-592.164754,-383.047749,9770.718434
2285.887693,-3404.947333,153.219100,11695.253884
2285.888015,-3034.844362,-1838.629195,9474.636058
2285.888337,-296.082377,-2221.676944,7550.100608
2285.888659,-666.185348,-1608.800546,8882.471304
2285.888981,-3849.070898,-995.924147,11547.212695
2285.889302,-3552.988522,-1225.752797,9622.677246
2285.889624,222.061783,-1149.143247,8068.244768
2285.889946,296.082377,-919.314598,9104.533087
2285.890268,-3256.906145,459.657299,11547.212695
2285.890590,-2368.659014,612.876398,9548.656652
2285.890911,1110.308913,-153.219100,7179.997637
2285.891233,1110.308913,0.000000,7846.182985
2285.891555,-2146.597232,689.485948,10807.006753
2285.891877,-2960.823768,383.047749,9844.739029
2285.892198,-148.041188,0.000000,8068.244768
2285.892520,296.082377,-459.657299,8956.491898
2285.892842,-1924.535449,766.095498,10436.903782
2285.893164,-3330.926739,766.095498,9252.574275
2285.893486,-296.082377,306.438199,7254.018232
2285.893807,2072.576638,536.266849,8068.244768
2285.894129,-1036.288319,919.314598,9918.759623
2285.894451,-2220.617826,1302.362347,10066.800811
2285.894773,296.082377,229.828649,7920.203579
2285.895095,1776.494261,842.705048,8068.244768
2285.895416,74.020594,1685.410096,10214.842000
2285.895738,-814.226536,1915.238745,10658.965565
2285.896060,888.247130,1302.362347,7624.121203
2285.896382,2960.823768,1302.362347,7179.997637
2285.896704,1924.535449,1225.752797,9474.636058
2285.897025,222.061783,2145.067394,10140.821405
2285.897347,666.185348,1302.362347,9474.636058
2285.897669,3701.029710,1532.190996,8808.450710
2285.897991,2590.720797,1838.629195,10955.047942
2285.898313,74.020594,2221.676944,10214.842000
2285.898634,518.144159,1225.752797,8438.347739
2285.898956,1628.453072,842.705048,7846.182985
2285.899278,2220.617826,842.705048,9770.718434
2285.899600,-814.226536,1149.143247,11177.109724
2285.899921,-1628.453072,842.705048,9252.574275
2285.900243,-740.205942,-459.657299,8216.285956
2285.900565,74.020594,459.657299,9474.636058
2285.900887,-1554.432478,1225.752797,11029.068536
2285.901209,-1258.350101,1378.971896,8808.450710
2285.901530,1406.391290,1302.362347,6809.894666
2285.901852,2960.823768,1378.971896,8882.471304
2285.902174,0.000000,1838.629195,9622.677246
2285.902496,-962.267725,919.314598,8660.409521
2285.902818,-74.020594,-306.438199,7994.224174
2285.903139,0.000000,153.219100,9326.594869
2285.903461,-2146.597232,76.609550,10362.883188
2285.903783,-2442.679609,0.000000,8364.327145
2285.904105,-1628.453072,-995.924147,7994.224174
2285.904427,-1184.329507,-383.047749,8068.244768
2285.904748,-1850.514855,-995.924147,10140.821405
2285.905070,-2812.782580,-919.314598,10510.924376
2285.905392,-2516.700203,-995.924147,10066.800811
2285.905714,-740.205942,-229.828649,11251.130318
2285.906036,-1332.370696,612.876398,11769.274478
2285.906357,-1110.308913,-306.438199,9844.739029
2285.906679,0.000000,383.047749,8660.409521
2285.907001,1184.329507,459.657299,8956.491898
2285.907323,518.144159,1072.533697,10807.006753
2285.907644,-518.144159,1149.143247,9474.636058
2285.907966,-740.205942,-459.657299,7846.182985
2285.908288,-1036.288319,-229.828649,7920.203579
2285.908610,-1184.329507,766.095498,9622.677246
2285.908932,-1406.391290,383.047749,9844.739029
2285.909253,-814.226536,-612.876398,7254.018232
2285.909575,-740.205942,-689.485948,7476.080014
2285.909897,-444.123565,383.047749,9326.594869
2285.910219,-1110.308913,459.657299,9400.615463
2285.910541,-1036.288319,76.609550,8364.327145
2285.910862,74.020594,306.438199,9474.636058
2285.911184,-148.041188,1838.629195,10584.944971
2285.911506,0.000000,1685.410096,9992.780217
2285.911828,1110.308913,766.095498,8216.285956
2285.912150,1776.494261,1072.533697,7846.182985
2285.912472,1406.391290,1838.629195,9696.697840
2285.912793,1628.453072,1915.238745,10140.821405
2285.913115,2368.659014,1072.533697,8734.430116
2285.913437,2812.782580,766.095498,9252.574275
2285.913759,1702.473667,1915.238745,10288.862594
2285.914081,2072.576638,1685.410096,10140.821405
2285.914403,2812.782580,612.876398,9104.533087
2285.914724,2442.679609,306.438199,8512.368333
2285.915046,1480.411884,153.219100,10362.883188
2285.915368,370.102971,536.266849,11029.068536
2285.915690,592.164754,76.609550,9474.636058
2285.916012,148.041188,-766.095498,8956.491898
2285.916334,-592.164754,306.438199,9992.780217
2285.916656,-1110.308913,766.095498,9696.697840
2285.916977,296.082377,842.705048,8438.347739
2285.917299,518.144159,459.657299,7105.977043
2285.917621,-296.082377,1072.533697,8216.285956
2285.917943,-444.123565,612.876398,9326.594869
2285.918265,444.123565,919.314598,8142.265362
2285.918587,666.185348,153.219100,7772.162391
2285.918908,-1628.453072,229.828649,10066.800811
2285.919230,-1998.556043,0.000000,10584.944971
2285.919552,-1036.288319,-306.438199,8882.471304
2285.919874,-296.082377,-1225.752797,8068.244768
2285.920196,-1332.370696,-459.657299,10881.027347
2285.920518,-2738.761985,153.219100,11695.253884
2285.920840,-2072.576638,-383.047749,10066.800811
2285.921161,-1332.370696,-1072.533697,9326.594869
2285.921483,-1776.494261,-459.657299,10066.800811
2285.921805,-2442.679609,919.314598,10955.047942
2285.922127,74.020594,1225.752797,9400.615463
2285.922449,1628.453072,1072.533697,7550.100608
2285.922771,222.061783,306.438199,8586.388927
2285.923092,-1480.411884,1149.143247,10140.821405
2285.923414,-1332.370696,842.705048,8290.306550
2285.923736,-592.164754,-536.266849,6661.853478
2285.924058,-2072.576638,0.000000,8660.409521
2285.924380,-4589.276840,76.609550,10288.862594
2285.924702,-3404.947333,-766.095498,9252.574275
2285.925023,-1258.350101,-1225.752797,6661.853478
2285.925345,-1850.514855,-842.705048,7772.162391
2285.925667,-2960.823768,76.609550,10955.047942
2285.925989,-2368.659014,306.438199,11547.212695
2285.926311,1406.391290,0.000000,9548.656652
2285.926633,888.247130,459.657299,9400.615463
2285.926955,-1184.329507,1455.581446,11103.089130
2285.927276,444.123565,2145.067394,11103.089130
2285.927598,3849.070898,2221.676944,8438.347739
2285.927920,4737.318029,1915.238745,7846.182985
2285.928242,1924.535449,2451.505594,9844.739029
2285.928564,740.205942,2374.896044,10288.862594
2285.928886,2516.700203,1455.581446,7772.162391
2285.929207,3330.926739,919.314598,7698.141797
2285.929529,0.000000,1455.581446,9548.656652
2285.929851,-2590.720797,1685.410096,9474.636058
2285.930173,962.267725,536.266849,7846.182985
2285.930495,2664.741391,76.609550,7402.059420
2285.930817,-148.041188,0.000000,9474.636058
2285.931139,-2516.700203,383.047749,10955.047942
2285.931460,-592.164754,0.000000,9400.615463
2285.931782,1998.556043,76.609550,8734.430116
2285.932104,1406.391290,1072.533697,10955.047942
2285.932426,-518.144159,1762.019645,11325.150913
2285.932748,888.247130,1532.190996,7920.203579
2285.933070,4145.153275,919.314598,7105.977043
2285.933391,3108.864956,1378.971896,9400.615463
2285.933713,-148.041188,1838.629195,11103.089130
2285.934035,222.061783,1532.190996,9474.636058
2285.934357,2590.720797,229.828649,8216.285956
2285.934679,370.102971,76.609550,9474.636058
2285.935001,-3404.947333,383.047749,10807.006753
2285.935323,-2442.679609,-995.924147,9178.553681
2285.935644,-592.164754,-1838.629195,6957.935855
2285.935966,-1110.308913,-1455.581446,8808.450710
2285.936288,-3775.050304,-1302.362347,11325.150913
2285.936610,-4737.318029,-1608.800546,10140.821405
2285.936932,-1850.514855,-1455.581446,7476.080014
2285.937254,-740.205942,-919.314598,8808.450710
2285.937575,-2368.659014,919.314598,10881.027347
2285.937897,-2146.597232,1225.752797,9770.718434
2285.938219,1998.556043,766.095498,7105.977043
2285.938541,2590.720797,1149.143247,7994.224174
2285.938863,0.000000,1685.410096,10066.800811
2285.939185,-1184.329507,459.657299,10362.883188
2285.939506,740.205942,0.000000,8882.471304
2285.939828,444.123565,-383.047749,8956.491898
2285.940150,-2294.638420,0.000000,11695.253884
2285.940472,-3923.091493,-459.657299,10658.965565
2285.940794,-1776.494261,-1149.143247,7846.182985
2285.941116,-370.102971,-1302.362347,7105.977043
2285.941438,-2590.720797,-766.095498,9400.615463
2285.941759,-3701.029710,76.609550,10362.883188
2285.942081,-1702.473667,0.000000,8956.491898
2285.942403,1184.329507,229.828649,8290.306550
2285.942725,296.082377,1532.190996,9548.656652
2285.943047,-1184.329507,2298.286494,9474.636058
2285.943369,1258.350101,1762.019645,8142.265362
2285.943690,3849.070898,1762.019645,6957.935855
2285.944012,3627.009116,1838.629195,9030.512492
2285.944334,1184.329507,2068.457845,10362.883188
2285.944656,1110.308913,1225.752797,9326.594869
2285.944978,2590.720797,766.095498,9030.512492
2285.945300,2442.679609,995.924147,11325.150913
2285.945622,296.082377,1302.362347,11547.212695
2285.945943,-148.041188,1149.143247,9104.533087
2285.946265,2220.617826,612.876398,8660.409521
2285.946587,2516.700203,689.485948,9992.780217
2285.946909,0.000000,1072.533697,10140.821405
2285.947231,-962.267725,1149.143247,9844.739029
2285.947553,666.185348,995.924147,8290.306550
2285.947874,962.267725,1149.143247,8808.450710
2285.948196,-814.226536,1838.629195,8734.430116
2285.948518,-1110.308913,1455.581446,8438.347739
2285.948840,-296.082377,1149.143247,6291.750507
2285.949162,1332.370696,306.438199,7550.100608
2285.949484,-370.102971,1149.143247,9326.594869
2285.949806,-1628.453072,842.705048,8512.368333
2285.950127,-518.144159,306.438199,7994.224174
2285.950449,1406.391290,536.266849,9252.574275
2285.950771,296.082377,306.438199,9918.759623
2285.951093,-444.123565,229.828649,9622.677246
2285.951415,222.061783,-383.047749,9548.656652
2285.951737,740.205942,-842.705048,9548.656652
2285.952058,0.000000,-842.705048,11103.089130
2285.952380,-1850.514855,-766.095498,11843.295072
2285.952702,-2146.597232,-1378.971896,10214.842000
2285.953024,-1776.494261,-919.314598,10436.903782
2285.953346,-1480.411884,-306.438199,11325.150913
2285.953668,-2368.659014,153.219100,10436.903782
2285.953989,-1628.453072,0.000000,8290.306550
2285.954311,0.000000,459.657299,7772.162391
2285.954633,370.102971,766.095498,8512.368333
2285.954955,-1184.329507,766.095498,8290.306550
2285.955277,-1702.473667,0.000000,7402.059420
2285.955599,-1480.411884,459.657299,8882.471304
2285.955921,-2368.659014,-383.047749,9178.553681
2285.956242,-2886.803174,-383.047749,8808.450710
2285.956564,-1924.535449,-1149.143247,7846.182985
2285.956886,-1850.514855,-1072.533697,8068.244768
2285.957208,-1332.370696,-612.876398,10066.800811
2285.957530,-962.267725,-842.705048,11251.130318
2285.957852,-1184.329507,0.000000,10214.842000
2285.958173,-444.123565,689.485948,9844.739029
2285.958495,1110.308913,1608.800546,11325.150913
2285.958817,2072.576638,2374.896044,10510.924376
2285.959139,2590.720797,2145.067394,9252.574275
2285.959461,2886.803174,2298.286494,8882.471304
2285.959783,1850.514855,1915.238745,10066.800811
2285.960105,1036.288319,1838.629195,8956.491898
2285.960426,444.123565,1302.362347,8068.244768
2285.960748,0.000000,76.609550,8512.368333
2285.961070,-1924.535449,536.266849,9178.553681
2285.961392,-1702.473667,766.095498,9400.615463
2285.961714,-1184.329507,0.000000,7772.162391
2285.962036,-1110.308913,-766.095498,7772.162391
2285.962357,-1776.494261,0.000000,8808.450710
2285.962679,-740.205942,842.705048,10732.986159
2285.963001,592.164754,1072.533697,9622.677246
2285.963323,666.185348,919.314598,8586.388927
2285.963645,740.205942,1608.800546,9844.739029
2285.963967,1406.391290,2987.772442,10140.821405
2285.964289,2738.761985,2374.896044,7994.224174
2285.964610,3627.009116,2451.505594,7476.080014
2285.964932,2664.741391,2451.505594,8956.491898
2285.965254,1184.329507,2604.724693,10362.883188
2285.965576,2072.576638,1302.362347,9622.677246
2285.965898,1332.370696,306.438199,8290.306550
2285.966220,-370.102971,383.047749,9844.739029
2285.966541,-1850.514855,919.314598,10881.027347
2285.966863,-666.185348,306.438199,9622.677246
2285.967185,-148.041188,-689.485948,8512.368333
2285.967507,-2368.659014,-1532.190996,9474.636058
2285.967829,-2738.761985,-689.485948,11103.089130
2285.968151,-2738.761985,-995.924147,9622.677246
2285.968473,-814.226536,-842.705048,8142.265362
2285.968794,-1480.411884,-459.657299,9696.697840
2285.969116,-2590.720797,536.266849,10066.800811
2285.969438,-962.267725,0.000000,9178.553681
2285.969760,1554.432478,612.876398,6365.771101
2285.970082,1184.329507,306.438199,7624.121203
2285.970404,-370.102971,919.314598,9918.759623
2285.970725,296.082377,842.705048,10214.842000
2285.971047,1702.473667,0.000000,8586.388927
2285.971369,0.000000,-1149.143247,8512.368333
2285.971691,-2368.659014,-306.438199,11769.274478
2285.972013,-2442.679609,-536.266849,10955.047942
2285.972335,0.000000,-1838.629195,8808.450710
2285.972656,-148.041188,-1685.410096,8734.430116
2285.972978,-2516.700203,-689.485948,10807.006753
2285.973300,-2960.823768,-383.047749,10807.006753
2285.973622,-1258.350101,-536.266849,8142.265362
2285.973944,0.000000,-689.485948,7698.141797
2285.974266,-2146.597232,1225.752797,10436.903782
2285.974588,-1850.514855,2221.676944,10362.883188
2285.974909,2738.761985,1225.752797,7179.997637
2285.975231,3701.029710,1072.533697,7031.956449
2285.975553,1110.308913,1838.629195,8660.409521
2285.975875,-740.205942,1532.190996,10732.986159
2285.976197,592.164754,919.314598,8660.409521
2285.976519,2072.576638,0.000000,8290.306550
2285.976840,-444.123565,1072.533697,10140.821405
2285.977162,-2960.823768,842.705048,10732.986159
2285.977484,-1406.391290,0.000000,8882.471304
2285.977806,962.267725,-612.876398,8068.244768
2285.978128,-1036.288319,306.438199,9918.759623
2285.978450,-2664.741391,919.314598,11103.089130
2285.978772,-518.144159,1915.238745,10362.883188
2285.979093,2738.761985,995.924147,8438.347739
2285.979415,1554.432478,2145.067394,8660.409521
2285.979737,-444.123565,2911.162892,10584.944971
2285.980059,1406.391290,3064.381992,9252.574275
2285.980381,4145.153275,2374.896044,6661.853478
2285.980703,3478.967927,2068.457845,7772.162391
2285.981024,888.247130,2221.676944,10510.924376
2285.981346,-148.041188,1838.629195,9252.574275
2285.981668,1776.494261,1225.752797,7476.080014
2285.981990,1406.391290,383.047749,9030.512492
2285.982312,-1850.514855,842.705048,10955.047942
2285.982634,-2072.576638,383.047749,9474.636058
2285.982956,1258.350101,0.000000,7254.018232
2285.983277,1184.329507,0.000000,7994.224174
2285.983599,-1258.350101,76.609550,9622.677246
2285.983921,-2368.659014,-153.219100,10362.883188
2285.984243,814.226536,0.000000,8956.491898
2285.984565,1332.370696,-612.876398,9104.533087
2285.984887,-962.267725,229.828649,11547.212695
2285.985208,-2368.659014,1072.533697,11103.089130
2285.985530,74.020594,0.000000,7624.121203
2285.985852,1998.556043,-306.438199,7328.038826
2285.986174,0.000000,-383.047749,9844.739029
2285.986496,-2590.720797,229.828649,11325.150913
2285.986818,-1110.308913,-689.485948,9474.636058
2285.987139,740.205942,-1608.800546,8882.471304
2285.987461,-1480.411884,-766.095498,10658.965565
2285.987783,-3552.988522,0.000000,10584.944971
2285.988105,-1702.473667,-1072.533697,8068.244768
2285.988427,74.020594,-1532.190996,6661.853478
2285.988749,-814.226536,-842.705048,8808.450710
2285.989071,-3330.926739,-306.438199,9844.739029
2285.989392,-2960.823768,-919.314598,8068.244768
2285.989714,-666.185348,-919.314598,7772.162391
2285.990036,-296.082377,0.000000,9844.739029
2285.990358,-3034.844362,766.095498,10732.986159
2285.990680,-1924.535449,1532.190996,8142.265362
2285.991002,1850.514855,612.876398,7550.100608
2285.991323,1702.473667,1072.533697,9548.656652
2285.991645,-740.205942,919.314598,10881.027347
2285.991967,-740.205942,766.095498,9918.759623
2285.992289,1406.391290,689.485948,8882.471304
2285.992611,1406.391290,383.047749,10288.862594
2285.992933,-1110.308913,995.924147,11473.192101
2285.993255,-1332.370696,-306.438199,9844.739029
2285.993576,444.123565,0.000000,7476.080014
2285.993898,1184.329507,306.438199,8586.388927
2285.994220,-1258.350101,689.485948,11029.068536
2285.994542,-2516.700203,536.266849,10066.800811
2285.994864,-666.185348,229.828649,8586.388927
2285.995186,1406.391290,995.924147,9030.512492
2285.995507,-370.102971,1685.410096,9770.718434
2285.995829,-962.267725,2451.505594,9474.636058
2285.996151,1258.350101,1838.629195,8364.327145
2285.996473,2368.659014,1838.629195,7698.141797
2285.996795,814.226536,1915.238745,9030.512492
2285.997117,0.000000,2145.067394,8882.471304
2285.997439,148.041188,1532.190996,7698.141797
2285.997760,1480.411884,1225.752797,8512.368333
2285.998082,222.061783,1455.581446,10066.800811
2285.998404,-148.041188,1225.752797,9474.636058
2285.998726,296.082377,919.314598,7994.224174
2285.999048,2146.597232,1149.143247,8438.347739
2285.999370,1258.350101,842.705048,10214.842000
2285.999691,0.000000,995.924147,10066.800811
2286.000013,0.000000,229.828649,9030.512492
2286.000335,814.226536,612.876398,9918.759623
2286.000657,148.041188,766.095498,11325.150913
2286.000979,-370.102971,1225.752797,9992.780217
2286.001301,0.000000,459.657299,8142.265362
2286.001622,666.185348,306.438199,7476.080014
2286.001944,518.144159,766.095498,9400.615463
2286.002266,0.000000,1378.971896,8956.491898
2286.002588,-740.205942,76.609550,7624.121203
2286.002910,-740.205942,229.828649,7476.080014
2286.003232,-444.123565,536.266849,10658.965565
2286.003554,-1406.391290,306.438199,10584.944971
2286.003875,-1110.308913,-1225.752797,8216.285956
2286.004197,-1332.370696,-1991.848295,7698.141797
2286.004519,-1776.494261,-1072.533697,9548.656652
2286.004841,-1702.473667,-1991.848295,11029.068536
2286.005163,-2072.576638,-1685.410096,10436.903782
2286.005485,-1924.535449,-1149.143247,10510.924376
2286.005806,-1998.556043,-689.485948,11103.089130
2286.006128,-1702.473667,-306.438199,11251.130318
2286.006450,0.000000,-383.047749,8808.450710
2286.006772,518.144159,0.000000,8068.244768
2286.007094,740.205942,1302.362347,8660.409521
2286.007416,1036.288319,1225.752797,9474.636058
2286.007738,1110.308913,536.266849,8586.388927
2286.008059,222.061783,0.000000,7624.121203
2286.008381,-962.267725,229.828649,9326.594869
2286.008703,-1628.453072,0.000000,9770.718434
2286.009025,-1036.288319,-842.705048,7994.224174
2286.009347,444.123565,-383.047749,6957.935855
2286.009669,-740.205942,-306.438199,8364.327145
2286.009990,-1924.535449,0.000000,9770.718434
2286.010312,-1258.350101,-229.828649,10066.800811
2286.010634,-444.123565,0.000000,9104.533087
2286.010956,-518.144159,919.314598,10214.842000
2286.011278,148.041188,2451.505594,11325.150913
2286.011600,1998.556043,2374.896044,9844.739029
2286.011922,3034.844362,1838.629195,7179.997637
2286.012243,2516.700203,1915.238745,9178.553681
2286.012565,962.267725,2911.162892,10732.986159
2286.012887,1332.370696,1991.848295,9326.594869
2286.013209,2146.597232,1378.971896,7328.038826
2286.013531,592.164754,2068.457845,8586.388927
2286.013853,-814.226536,1915.238745,10066.800811
2286.014174,-888.247130,995.924147,8290.306550
2286.014496,666.185348,689.485948,7031.956449
2286.014818,0.000000,612.876398,8068.244768
2286.015140,-1480.411884,766.095498,9844.739029
2286.015462,-962.267725,536.266849,9030.512492
2286.015783,740.205942,995.924147,7624.121203
2286.016105,-74.020594,229.828649,8512.368333
2286.016427,-518.144159,1149.143247,11029.068536
2286.016749,222.061783,1378.971896,9548.656652
2286.017071,2368.659014,1149.143247,7550.100608
2286.017392,2368.659014,995.924147,8586.388927
2286.017714,222.061783,1225.752797,10807.006753
2286.018036,0.000000,0.000000,10140.821405
2286.018358,2072.576638,0.000000,8660.409521
2286.018680,1406.391290,383.047749,9474.636058
2286.019001,-1554.432478,76.609550,11177.109724
2286.019323,-2368.659014,-383.047749,11177.109724
2286.019645,444.123565,-766.095498,8438.347739
2286.019967,814.226536,-1532.190996,7994.224174
2286.020289,-2072.576638,-459.657299,9474.636058
2286.020610,-2294.638420,-1532.190996,10881.027347
2286.020932,-1554.432478,-995.924147,9326.594869
2286.021254,-962.267725,-1608.800546,8734.430116
2286.021576,-2516.700203,-919.314598,10658.965565
2286.021898,-4737.318029,-612.876398,10140.821405
2286.022220,-1998.556043,-306.438199,7772.162391
2286.022541,1184.329507,-536.266849,6735.874072
2286.022863,-444.123565,-612.876398,8512.368333
2286.023185,-3034.844362,229.828649,10214.842000
2286.023507,-740.205942,0.000000,9474.636058
2286.023829,1110.308913,-153.219100,8660.409521
2286.024150,-740.205942,-153.219100,9844.739029
2286.024472,-2664.741391,689.485948,12139.377449
2286.024794,-962.267725,459.657299,9548.656652
2286.025116,1406.391290,-153.219100,7031.956449
2286.025438,444.123565,0.000000,8734.430116
2286.025759,-2886.803174,459.657299,10436.903782
2286.026081,-2072.576638,76.609550,10066.800811
2286.026403,222.061783,0.000000,8512.368333
2286.026725,0.000000,689.485948,9622.677246
2286.027047,-2294.638420,1455.581446,10732.986159
2286.027368,-1332.370696,2068.457845,8882.471304
2286.027690,3108.864956,2221.676944,6883.915261
2286.028012,3256.906145,1915.238745,7402.059420
2286.028334,296.082377,2298.286494,9400.615463
2286.028656,-296.082377,1991.848295,9622.677246
2286.028977,1480.411884,995.924147,6957.935855
2286.029299,2294.638420,536.266849,8142.265362
2286.029621,-592.164754,1455.581446,11103.089130
2286.029943,-1480.411884,1378.971896,10732.986159
2286.030265,962.267725,306.438199,7698.141797
2286.030586,2664.741391,459.657299,8808.450710
2286.030908,0.000000,1149.143247,10658.965565
2286.031230,-1628.453072,1225.752797,10732.986159
2286.031552,1184.329507,842.705048,9326.594869
2286.031874,4145.153275,1302.362347,9178.553681
2286.032195,1628.453072,1762.019645,10584.944971
2286.032517,-222.061783,1915.238745,10732.986159
2286.032839,1850.514855,1608.800546,8512.368333
2286.033161,3997.112087,689.485948,7254.018232
2286.033483,1406.391290,1225.752797,9474.636058
2286.033804,-1924.535449,919.314598,10510.924376
2286.034126,-1258.350101,76.609550,9252.574275
2286.034448,666.185348,0.000000,7624.121203
2286.034770,-888.247130,-459.657299,8364.327145
2286.035092,-3627.009116,536.266849,9770.718434
2286.035413,-2442.679609,-383.047749,7920.203579
2286.035735,1036.288319,-383.047749,7105.977043
2286.036057,888.247130,0.000000,8734.430116
2286.036379,-2368.659014,0.000000,10732.986159
2286.036701,-2368.659014,0.000000,10362.883188
2286.037022,444.123565,-306.438199,9474.636058
2286.037344,1110.308913,0.000000,10066.800811
2286.037666,-1406.391290,919.314598,11399.171507
2286.037988,-2294.638420,766.095498,9844.739029
2286.038310,222.061783,-306.438199,7920.203579
2286.038632,1184.329507,0.000000,8734.430116
2286.038953,-1776.494261,536.266849,10881.027347
2286.039275,-3330.926739,-536.266849,9770.718434
2286.039597,-1332.370696,0.000000,9030.512492
2286.039919,296.082377,383.047749,9474.636058
2286.040241,-2516.700203,0.000000,9918.759623
2286.040562,-3997.112087,-229.828649,9030.512492
2286.040884,-2294.638420,-536.266849,7105.977043
2286.041206,-814.226536,-383.047749,7179.997637
2286.041528,-1998.556043,76.609550,9770.718434
2286.041850,-3182.885551,612.876398,9622.677246
2286.042171,-2146.597232,0.000000,8438.347739
2286.042493,0.000000,306.438199,8364.327145
2286.042815,296.082377,995.924147,10066.800811
2286.043137,-296.082377,1762.019645,10066.800811
2286.043459,666.185348,1762.019645,7994.224174
2286.043780,3997.112087,2145.067394,7772.162391
2286.044102,3849.070898,2451.505594,9474.636058
2286.044424,1258.350101,1532.190996,9918.759623
2286.044746,1406.391290,1608.800546,9770.718434
2286.045068,2738.761985,1762.019645,9918.759623
2286.045389,2368.659014,1225.752797,10732.986159
2286.045711,370.102971,1072.533697,10510.924376
2286.046033,0.000000,689.485948,9030.512492
2286.046355,1480.411884,-459.657299,7031.956449
2286.046677,1184.329507,-306.438199,8512.368333
2286.046998,-370.102971,76.609550,9474.636058
2286.047320,-1332.370696,-229.828649,9400.615463
2286.047642,-518.144159,0.000000,8956.491898
2286.047964,518.144159,0.000000,9622.677246
2286.048286,-666.185348,612.876398,9474.636058
2286.048607,-444.123565,536.266849,8068.244768
2286.048929,1036.288319,612.876398,7328.038826
2286.049251,1406.391290,306.438199,7772.162391
2286.049573,518.144159,689.485948,10140.821405
2286.049895,148.041188,229.828649,8956.491898
2286.050216,0.000000,0.000000,9474.636058
2286.050538,814.226536,-459.657299,9326.594869
2286.050860,1110.308913,-689.485948,10807.006753
2286.051182,962.267725,383.047749,10214.842000
2286.051504,1480.411884,0.000000,9326.594869
2286.051825,2294.638420,153.219100,10510.924376
2286.052147,1702.473667,459.657299,10881.027347
2286.052469,222.061783,76.609550,10066.800811
2286.052791,0.000000,-153.219100,9474.636058
2286.053113,-148.041188,0.000000,10658.965565
2286.053434,-1184.329507,689.485948,10510.924376
2286.053756,-740.205942,0.000000,9030.512492
2286.054078,-1850.514855,-229.828649,7402.059420
2286.054400,-3478.967927,-459.657299,6957.935855
2286.054722,-3923.091493,-153.219100,8734.430116
2286.055043,-3849.070898,-536.266849,9252.574275
2286.055365,-4367.215058,-1378.971896,7920.203579
2286.055687,-3997.112087,-1149.143247,8808.450710
2286.056009,-4219.173869,-229.828649,10066.800811
2286.056331,-3256.906145,-536.266849,8808.450710
2286.056653,-2146.597232,-1302.362347,7624.121203
2286.056974,-1554.432478,0.000000,9030.512492
2286.057296,-1998.556043,1149.143247,11843.295072
2286.057618,-1184.329507,689.485948,10214.842000
2286.057940,444.123565,306.438199,9030.512492
2286.058262,0.000000,1608.800546,9622.677246
2286.058583,-444.123565,2145.067394,10881.027347
2286.058905,592.164754,1991.848295,9474.636058
2286.059227,2738.761985,1915.238745,7920.203579
2286.059549,2072.576638,2298.286494,8808.450710
2286.059871,666.185348,2528.115143,10066.800811
2286.060192,1480.411884,2451.505594,9178.553681
2286.060514,2516.700203,1225.752797,7328.038826
2286.060836,1554.432478,1225.752797,8438.347739
2286.061158,-888.247130,2221.676944,10140.821405
2286.061480,-814.226536,1532.190996,9474.636058
2286.061801,444.123565,306.438199,7105.977043
2286.062123,740.205942,0.000000,7328.038826
2286.062445,-1850.514855,536.266849,9252.574275
2286.062767,-1184.329507,76.609550,10288.862594
2286.063089,814.226536,612.876398,9030.512492
2286.063410,1184.329507,306.438199,9030.512492
2286.063732,-518.144159,1685.410096,10658.965565
2286.064054,222.061783,2374.896044,11177.109724
2286.064376,3775.050304,1762.019645,8586.388927
2286.064698,4367.215058,995.924147,7402.059420
2286.065019,1998.556043,1915.238745,9992.780217
2286.065341,666.185348,1302.362347,10584.944971
2286.065663,2146.597232,536.266849,9104.533087
2286.065985,2220.617826,-153.219100,8586.388927
2286.066307,0.000000,0.000000,10658.965565
2286.066628,-2072.576638,306.438199,10807.006753
2286.066950,444.123565,-612.876398,8068.244768
2286.067272,2146.597232,-1608.800546,7254.018232
2286.067594,-592.164754,0.000000,9030.512492
2286.067916,-2812.782580,-536.266849,10584.944971
2286.068237,-1036.288319,-612.876398,9326.594869
2286.068559,814.226536,-919.314598,8808.450710
2286.068881,-1554.432478,-459.657299,9918.759623
2286.069203,-2812.782580,153.219100,11177.109724
2286.069525,-1036.288319,383.047749,9030.512492
2286.069846,1480.411884,0.000000,7179.997637
2286.070168,592.164754,-306.438199,8290.306550
2286.070490,-3182.885551,0.000000,10807.006753
2286.070812,-2516.700203,-612.876398,9548.656652
2286.071134,-1110.308913,-1685.410096,8882.471304
2286.071455,-2220.617826,-1608.800546,10807.006753
2286.071777,-4663.297435,-919.314598,11843.295072
2286.072099,-3108.864956,-995.924147,9548.656652
2286.072421,296.082377,-919.314598,7550.100608
2286.072743,444.123565,-919.314598,8216.285956
2286.073065,-2072.576638,229.828649,10658.965565
2286.073386,-1628.453072,842.705048,10658.965565
2286.073708,444.123565,153.219100,7550.100608
2286.074030,1332.370696,306.438199,8438.347739
2286.074352,-1036.288319,1608.800546,10658.965565
2286.074674,-2146.597232,1991.848295,9622.677246
2286.074995,1332.370696,842.705048,7105.977043
2286.075317,2368.659014,689.485948,6809.894666
2286.075639,-518.144159,1378.971896,9474.636058
2286.075961,-2146.597232,1685.410096,9992.780217
2286.076283,814.226536,919.314598,8438.347739
2286.076604,2664.741391,1302.362347,9104.533087
2286.076926,-222.061783,1685.410096,10955.047942
2286.077248,-1628.453072,1455.581446,11103.089130
2286.077570,370.102971,1225.752797,8734.430116
2286.077892,2590.720797,76.609550,7624.121203
2286.078213,962.267725,1302.362347,10066.800811
2286.078535,-888.247130,2145.067394,11621.233289
2286.078857,0.000000,1532.190996,9252.574275
2286.079179,3182.885551,1455.581446,7476.080014
2286.079501,2220.617826,2604.724693,9548.656652
2286.079822,-444.123565,3064.381992,9918.759623
2286.080144,592.164754,2298.286494,7994.224174
2286.080466,4589.276840,1991.848295,7105.977043
2286.080788,3627.009116,2374.896044,8734.430116
2286.081110,0.000000,1762.019645,9474.636058
2286.081431,-740.205942,1302.362347,9030.512492
2286.081753,1184.329507,383.047749,7994.224174
2286.082075,592.164754,459.657299,9400.615463
2286.082397,-1776.494261,306.438199,10436.903782
2286.082719,-2516.700203,0.000000,8882.471304
2286.083040,-222.061783,-306.438199,7402.059420
2286.083362,0.000000,-766.095498,9178.553681
2286.083684,-1924.535449,0.000000,11621.233289
2286.084006,-3108.864956,-229.828649,10362.883188
2286.084328,-148.041188,536.266849,9326.594869
2286.084649,1702.473667,76.609550,9770.718434
2286.084971,-888.247130,306.438199,11029.068536
2286.085293,-1628.453072,383.047749,9918.759623
2286.085615,518.144159,229.828649,7772.162391
2286.085937,1554.432478,-229.828649,7920.203579
2286.086258,-296.082377,0.000000,9770.718434
2286.086580,-2664.741391,-306.438199,10436.903782
2286.086902,-1850.514855,-842.705048,8660.409521
2286.087224,-1184.329507,-1378.971896,8808.450710
2286.087546,-2516.700203,-1378.971896,10066.800811
2286.087867,-3849.070898,-1378.971896,9474.636058
2286.088189,-1998.556043,-1532.190996,7624.121203
2286.088511,370.102971,-1685.410096,8808.450710
2286.088833,-592.164754,-612.876398,10584.944971
2286.089155,-2738.761985,-612.876398,10732.986159
2286.089476,-1998.556043,-995.924147,9770.718434
2286.089798,74.020594,-459.657299,10214.842000
2286.090120,-814.226536,-306.438199,10288.862594
2286.090442,-740.205942,766.095498,10732.986159
2286.090764,-888.247130,766.095498,8586.388927
2286.091086,962.267725,536.266849,7328.038826
2286.091407,1110.308913,995.924147,9326.594869
2286.091729,-518.144159,1149.143247,9770.718434
2286.092051,-148.041188,842.705048,9178.553681
2286.092373,962.267725,689.485948,8586.388927
2286.092695,1110.308913,995.924147,10214.842000
2286.093016,0.000000,1225.752797,9326.594869
2286.093338,0.000000,306.438199,7402.059420
2286.093660,1184.329507,76.609550,7550.100608
2286.093982,1110.308913,689.485948,9844.739029
2286.094304,148.041188,1072.533697,11325.150913
2286.094625,740.205942,766.095498,10066.800811
2286.094947,1110.308913,1072.533697,9474.636058
2286.095269,814.226536,2068.457845,9104.533087
2286.095591,592.164754,2068.457845,10140.821405
