#time,accel_x,accel_y,accel_z
5420.101066,-740.205942,153.219100,9400.615463
5420.101388,-666.185348,-383.047749,10288.862594
5420.101711,-370.102971,383.047749,9252.574275
5420.102034,-370.102971,383.047749,8882.471304
5420.102357,-888.247130,306.438199,9178.553681
5420.102679,-444.123565,229.828649,9696.697840
5420.103002,444.123565,689.485948,9252.574275
5420.103325,518.144159,842.705048,8586.388927
5420.103648,148.041188,459.657299,9178.553681
5420.103970,74.020594,766.095498,9844.739029
5420.104293,222.061783,459.657299,9918.759623
5420.104616,444.123565,995.924147,9178.553681
5420.104939,0.000000,229.828649,9104.533087
5420.105261,-592.164754,612.876398,9918.759623
5420.105584,-370.102971,536.266849,10214.842000
5420.105907,148.041188,76.609550,9252.574275
5420.106230,-296.082377,919.314598,8660.409521
5420.106552,-962.267725,612.876398,9622.677246
5420.106875,-148.041188,766.095498,9770.718434
5420.107198,370.102971,919.314598,9178.553681
5420.107521,222.061783,1378.971896,8512.368333
5420.107843,-740.205942,842.705048,8882.471304
5420.108166,0.000000,229.828649,9252.574275
5420.108489,0.000000,1149.143247,8956.491898
5420.108812,518.144159,1685.410096,8586.388927
5420.109134,-296.082377,766.095498,9030.512492
5420.109457,-1036.288319,459.657299,9548.656652
5420.109780,0.000000,995.924147,9622.677246
5420.110103,0.000000,1149.143247,8956.491898
5420.110425,740.205942,1302.362347,9252.574275
5420.110748,296.082377,1455.581446,10214.842000
5420.111071,1258.350101,1225.752797,10066.800811
5420.111394,1776.494261,1838.629195,9474.636058
5420.111717,1554.432478,2145.067394,9104.533087
5420.112039,1184.329507,1532.190996,10066.800811
5420.112362,1258.350101,1762.019645,10140.821405
5420.112685,2368.659014,2221.676944,9474.636058
5420.113008,2294.638420,2757.943793,8808.450710
5420.113330,1332.370696,2298.286494,9252.574275
5420.113653,1702.473667,1838.629195,9918.759623
5420.113976,2368.659014,2374.896044,9548.656652
5420.114299,2812.782580,3294.210641,9252.574275
5420.114621,3256.906145,3370.820191,9400.615463
5420.114944,3404.947333,3217.601092,10066.800811
5420.115267,4589.276840,4290.134789,9918.759623
5420.115590,5107.421000,4673.182538,8882.471304
5420.115912,4293.194464,4136.915689,8808.450710
5420.116235,3404.947333,3677.258390,9548.656652
5420.116558,3478.967927,3677.258390,9548.656652
5420.116881,3256.906145,4366.744339,8586.388927
5420.117203,2886.803174,3753.867940,7994.224174
5420.117526,1110.308913,4290.134789,7328.038826
5420.117849,814.226536,3064.381992,7772.162391
5420.118172,1628.453072,3983.696590,7254.018232
5420.118494,1628.453072,4213.525239,6957.935855
5420.118817,1110.308913,4290.134789,7476.080014
5420.119140,1480.411884,4136.915689,8512.368333
5420.119463,2072.576638,4213.525239,8438.347739
5420.119785,2738.761985,4519.963438,7994.224174
5420.120108,1628.453072,4136.915689,9104.533087
5420.120431,1406.391290,3753.867940,10584.944971
5420.120754,1406.391290,2987.772442,10807.006753
5420.121076,1036.288319,2911.162892,9918.759623
5420.121399,740.205942,2145.067394,10510.924376
5420.121722,0.000000,1762.019645,10584.944971
5420.122045,148.041188,1455.581446,10658.965565
5420.122368,1184.329507,2221.676944,9548.656652
5420.122690,2220.617826,2451.505594,9474.636058
5420.123013,2368.659014,3217.601092,9474.636058
5420.123336,3404.947333,3753.867940,9696.697840
5420.123659,4441.235652,3907.087040,8956.491898
5420.123981,4071.132681,4060.306139,8956.491898
5420.124304,2368.659014,3677.258390,9400.615463
5420.124627,1924.535449,2604.724693,10584.944971
5420.124950,1110.308913,689.485948,10066.800811
5420.125272,666.185348,1149.143247,9178.553681
5420.125595,-592.164754,766.095498,9474.636058
5420.125918,-444.123565,689.485948,9992.780217
5420.126241,74.020594,842.705048,9992.780217
5420.126563,666.185348,1762.019645,8216.285956
5420.126886,148.041188,1455.581446,8512.368333
5420.127209,-148.041188,842.705048,8512.368333
5420.127532,888.247130,995.924147,8882.471304
5420.127854,1184.329507,1685.410096,8512.368333
5420.128177,1480.411884,2374.896044,8586.388927
5420.128500,1850.514855,1762.019645,9474.636058
5420.128823,888.247130,1991.848295,9770.718434
5420.129145,1628.453072,1991.848295,8660.409521
5420.129468,2368.659014,1838.629195,8586.388927
5420.129791,2664.741391,2221.676944,8808.450710
5420.130114,3478.967927,2221.676944,10214.842000
5420.130436,5107.421000,3217.601092,9622.677246
5420.130759,4589.276840,3217.601092,9844.739029
5420.131082,3701.029710,3064.381992,9844.739029
5420.131405,2812.782580,2528.115143,11325.150913
5420.131727,2886.803174,2298.286494,11399.171507
5420.132050,2664.741391,2221.676944,11473.192101
5420.132373,740.205942,1762.019645,11103.089130
5420.132696,-370.102971,919.314598,11177.109724
5420.133018,-296.082377,842.705048,9622.677246
5420.133341,740.205942,2374.896044,7772.162391
5420.133664,2368.659014,3294.210641,7476.080014
5420.133987,2072.576638,4366.744339,7624.121203
5420.134310,3034.844362,4443.353888,7994.224174
5420.134632,4663.297435,5209.449386,7179.997637
5420.134955,4737.318029,5592.497135,7254.018232
5420.135278,2886.803174,4979.620737,8956.491898
5420.135601,1554.432478,3600.648841,10955.047942
5420.135923,1258.350101,3140.991542,11029.068536
5420.136246,1628.453072,3140.991542,9548.656652
5420.136569,0.000000,2145.067394,9104.533087
5420.136892,-1036.288319,1838.629195,9844.739029
5420.137214,-1110.308913,2604.724693,9474.636058
5420.137537,1332.370696,3600.648841,7179.997637
5420.137860,2960.823768,4136.915689,6291.750507
5420.138183,2146.597232,4826.401637,6661.853478
5420.138505,1998.556043,4290.134789,8660.409521
5420.138828,2442.679609,5669.106685,7772.162391
5420.139151,3256.906145,5745.716235,8290.306550
5420.139474,3108.864956,5209.449386,9622.677246
5420.139796,3108.864956,4213.525239,11399.171507
5420.140119,3330.926739,4213.525239,11251.130318
5420.140442,3552.988522,3064.381992,9622.677246
5420.140765,2442.679609,2681.334243,10214.842000
5420.141087,666.185348,2374.896044,10140.821405
5420.141410,888.247130,1225.752797,10214.842000
5420.141733,2368.659014,2298.286494,8438.347739
5420.142056,1480.411884,2911.162892,9030.512492
5420.142378,888.247130,2681.334243,8882.471304
5420.142701,1776.494261,2528.115143,9770.718434
5420.143024,1258.350101,3830.477490,8586.388927
5420.143347,888.247130,2987.772442,9696.697840
5420.143669,962.267725,2681.334243,10658.965565
5420.143992,1554.432478,2374.896044,11029.068536
5420.144315,1924.535449,2298.286494,9770.718434
5420.144638,0.000000,1915.238745,9696.697840
5420.144961,962.267725,1072.533697,9474.636058
5420.145283,962.267725,766.095498,9178.553681
5420.145606,1184.329507,306.438199,7846.182985
5420.145929,1332.370696,1302.362347,7105.977043
5420.146252,2072.576638,1149.143247,6735.874072
5420.146574,2664.741391,2145.067394,8290.306550
5420.146897,4589.276840,3600.648841,8660.409521
5420.147220,4737.318029,4366.744339,9474.636058
5420.147543,4367.215058,4213.525239,10436.903782
5420.147865,4441.235652,2987.772442,11399.171507
5420.148188,4737.318029,2911.162892,11325.150913
5420.148511,3182.885551,2834.553343,11473.192101
5420.148834,1258.350101,1685.410096,11769.274478
5420.149156,-370.102971,153.219100,10732.986159
5420.149479,-1184.329507,-383.047749,10066.800811
5420.149802,222.061783,995.924147,6883.915261
5420.150125,-148.041188,1838.629195,7031.956449
5420.150447,1110.308913,2987.772442,6143.709319
5420.150770,518.144159,2374.896044,8142.265362
5420.151093,1776.494261,3064.381992,7550.100608
5420.151416,1332.370696,3447.429741,8512.368333
5420.151738,962.267725,2987.772442,9252.574275
5420.152061,666.185348,2451.505594,12287.418637
5420.152384,-296.082377,2298.286494,12213.398043
5420.152707,0.000000,1532.190996,11843.295072
5420.153029,-888.247130,1149.143247,11177.109724
5420.153352,-1554.432478,76.609550,11029.068536
5420.153675,0.000000,0.000000,9104.533087
5420.153998,1184.329507,2298.286494,7920.203579
5420.154320,3108.864956,3217.601092,7179.997637
5420.154643,2442.679609,3600.648841,6809.894666
5420.154966,4293.194464,3524.039291,7179.997637
5420.155289,5847.626942,4443.353888,6809.894666
5420.155612,4589.276840,4826.401637,8956.491898
5420.155934,2960.823768,4826.401637,10807.006753
5420.156257,3108.864956,3677.258390,12953.603985
5420.156580,3182.885551,3217.601092,11695.253884
5420.156903,2738.761985,2298.286494,10066.800811
5420.157225,1406.391290,2068.457845,10732.986159
5420.157548,296.082377,1838.629195,10658.965565
5420.157871,1554.432478,2068.457845,9770.718434
5420.158194,2294.638420,2757.943793,6809.894666
5420.158517,3552.988522,2987.772442,6291.750507
5420.158840,2960.823768,3294.210641,6661.853478
5420.159163,3182.885551,4826.401637,7994.224174
5420.159486,4219.173869,4290.134789,7920.203579
5420.159809,3034.844362,4749.792088,8216.285956
5420.160131,2812.782580,4826.401637,9770.718434
5420.160454,3034.844362,4213.525239,10732.986159
5420.160777,2812.782580,3677.258390,10658.965565
5420.161100,1332.370696,3830.477490,10436.903782
5420.161423,1184.329507,2987.772442,9844.739029
5420.161746,1628.453072,2298.286494,9622.677246
5420.162069,1406.391290,3370.820191,8290.306550
5420.162392,1036.288319,3064.381992,7254.018232
5420.162715,148.041188,2451.505594,7550.100608
5420.163037,666.185348,2834.553343,7254.018232
5420.163360,2072.576638,3600.648841,7994.224174
5420.163683,2294.638420,3983.696590,8290.306550
5420.164006,740.205942,3370.820191,9474.636058
5420.164329,888.247130,3294.210641,10288.862594
5420.164652,1036.288319,2987.772442,11103.089130
5420.164975,222.061783,2681.334243,10436.903782
5420.165298,-1554.432478,1532.190996,10658.965565
5420.165621,-2294.638420,383.047749,10881.027347
5420.165944,-1850.514855,612.876398,8882.471304
5420.166266,-1036.288319,383.047749,8142.265362
5420.166589,-1776.494261,919.314598,7105.977043
5420.166912,-3404.947333,76.609550,8660.409521
5420.167235,-2072.576638,0.000000,7550.100608
5420.167558,-444.123565,-229.828649,8142.265362
5420.167881,-962.267725,612.876398,8512.368333
5420.168204,-2812.782580,0.000000,10658.965565
5420.168527,-1406.391290,-383.047749,11473.192101
5420.168850,888.247130,536.266849,10288.862594
5420.169172,518.144159,612.876398,9844.739029
5420.169495,296.082377,-383.047749,9622.677246
5420.169818,1110.308913,-612.876398,10140.821405
5420.170141,2220.617826,229.828649,9178.553681
5420.170464,3256.906145,919.314598,8586.388927
5420.170787,1998.556043,-383.047749,8216.285956
5420.171110,444.123565,-1302.362347,8364.327145
5420.171433,1998.556043,-459.657299,9474.636058
5420.171756,2812.782580,76.609550,8438.347739
5420.172078,1924.535449,-306.438199,9252.574275
5420.172401,592.164754,-842.705048,11325.150913
5420.172724,1480.411884,-766.095498,11029.068536
5420.173047,2220.617826,-536.266849,11473.192101
5420.173370,148.041188,229.828649,9992.780217
5420.173693,-1702.473667,-1838.629195,11251.130318
5420.174016,-962.267725,-2604.724693,9178.553681
5420.174339,148.041188,-1302.362347,8808.450710
5420.174662,-444.123565,-536.266849,9178.553681
5420.174985,-1110.308913,-1762.019645,9326.594869
5420.175307,-2368.659014,-2068.457845,10362.883188
5420.175630,-1850.514855,-1455.581446,9474.636058
5420.175953,-1406.391290,-842.705048,9030.512492
5420.176276,-1480.411884,0.000000,9992.780217
5420.176599,-1480.411884,153.219100,11473.192101
5420.176922,-296.082377,689.485948,11029.068536
5420.177245,1110.308913,1225.752797,9178.553681
5420.177568,1850.514855,1762.019645,7698.141797
5420.177891,74.020594,2374.896044,9030.512492
5420.178213,1332.370696,2987.772442,8956.491898
5420.178536,2146.597232,3370.820191,9104.533087
5420.178859,2886.803174,3677.258390,7031.956449
5420.179182,2368.659014,2987.772442,7476.080014
5420.179505,0.000000,2681.334243,8216.285956
5420.179828,-962.267725,3140.991542,9400.615463
5420.180151,592.164754,4060.306139,8734.430116
5420.180474,148.041188,3447.429741,8364.327145
5420.180797,666.185348,3447.429741,10362.883188
5420.181119,-740.205942,2834.553343,10362.883188
5420.181442,-2368.659014,1838.629195,9252.574275
5420.181765,-3182.885551,1455.581446,7254.018232
5420.182088,-2590.720797,1378.971896,8216.285956
5420.182411,-3108.864956,2068.457845,8216.285956
5420.182734,-3034.844362,1685.410096,8068.244768
5420.183057,-3775.050304,1455.581446,7254.018232
5420.183380,-3627.009116,1302.362347,7254.018232
5420.183703,-3701.029710,919.314598,7550.100608
5420.184026,-2812.782580,612.876398,8068.244768
5420.184348,-2960.823768,1532.190996,8512.368333
5420.184671,-2294.638420,766.095498,9696.697840
5420.184994,-296.082377,1302.362347,10214.842000
5420.185317,592.164754,766.095498,9918.759623
5420.185640,1702.473667,306.438199,9918.759623
5420.185963,2368.659014,1072.533697,9918.759623
5420.186286,2220.617826,919.314598,11769.274478
5420.186609,3775.050304,536.266849,10584.944971
5420.186932,3478.967927,536.266849,10436.903782
5420.187254,3701.029710,153.219100,8882.471304
5420.187577,2368.659014,-766.095498,10288.862594
5420.187900,2072.576638,76.609550,10584.944971
5420.188223,3478.967927,-229.828649,10214.842000
5420.188546,3256.906145,-766.095498,9030.512492
5420.188869,1332.370696,-995.924147,9474.636058
5420.189192,296.082377,-536.266849,10584.944971
5420.189515,-222.061783,-2221.676944,9770.718434
5420.189838,-370.102971,-2374.896044,8956.491898
5420.190160,-1850.514855,-2451.505594,8956.491898
5420.190483,-2738.761985,-3140.991542,9622.677246
5420.190806,-3256.906145,-3524.039291,10807.006753
5420.191129,-3404.947333,-2604.724693,9474.636058
5420.191452,-2960.823768,-3370.820191,9030.512492
5420.191775,-2960.823768,-3524.039291,8660.409521
5420.192098,-3330.926739,-2834.553343,10955.047942
5420.192421,-1406.391290,-1991.848295,8808.450710
5420.192744,-592.164754,-1455.581446,9252.574275
5420.193066,962.267725,229.828649,9252.574275
5420.193389,2072.576638,229.828649,10658.965565
5420.193712,3404.947333,1149.143247,10288.862594
5420.194035,3478.967927,1838.629195,9622.677246
5420.194358,3256.906145,1762.019645,10140.821405
5420.194681,3108.864956,1149.143247,10510.924376
5420.195004,2294.638420,1915.238745,10732.986159
5420.195327,2442.679609,2145.067394,9400.615463
5420.195650,222.061783,2374.896044,10362.883188
5420.195973,-296.082377,2068.457845,10214.842000
5420.196295,-370.102971,1455.581446,9918.759623
5420.196618,-1628.453072,1838.629195,7550.100608
5420.196941,-1406.391290,2528.115143,8068.244768
5420.197264,-2442.679609,2298.286494,8142.265362
5420.197587,-2590.720797,2374.896044,8290.306550
5420.197910,-2072.576638,2681.334243,6217.729913
5420.198233,-4145.153275,2528.115143,6735.874072
5420.198556,-4663.297435,1608.800546,6883.915261
5420.198879,-5477.523971,1685.410096,8142.265362
5420.199201,-3997.112087,2451.505594,7031.956449
5420.199524,-3182.885551,2298.286494,7920.203579
5420.199847,-4811.338623,1149.143247,8438.347739
5420.200170,-4589.276840,306.438199,9474.636058
5420.200493,-2146.597232,1149.143247,7846.182985
5420.200816,-1258.350101,2068.457845,8956.491898
5420.201139,0.000000,2987.772442,8956.491898
5420.201462,1036.288319,1149.143247,11695.253884
5420.201785,2960.823768,2834.553343,9252.574275
5420.202107,4737.318029,3294.210641,9474.636058
5420.202430,3404.947333,2987.772442,9622.677246
5420.202753,3404.947333,2145.067394,11177.109724
5420.203076,3478.967927,1762.019645,10658.965565
5420.203399,4145.153275,2451.505594,9104.533087
5420.203722,4293.194464,1915.238745,9104.533087
5420.204045,2368.659014,536.266849,9178.553681
5420.204368,1776.494261,0.000000,9844.739029
5420.204691,2146.597232,229.828649,9400.615463
5420.205014,1406.391290,229.828649,9548.656652
5420.205336,-592.164754,-536.266849,10214.842000
5420.205659,-888.247130,-1685.410096,10362.883188
5420.205982,444.123565,-459.657299,9252.574275
5420.206305,370.102971,-76.609550,9030.512492
5420.206628,-444.123565,-842.705048,10066.800811
5420.206951,-222.061783,-1608.800546,10288.862594
5420.207274,-814.226536,-1762.019645,9770.718434
5420.207597,-518.144159,-1378.971896,8956.491898
5420.207920,-814.226536,-1532.190996,9252.574275
5420.208242,-2442.679609,-3064.381992,9326.594869
5420.208565,-1332.370696,-2834.553343,10436.903782
5420.208888,-1332.370696,-1838.629195,10066.800811
5420.209211,-1628.453072,-842.705048,9548.656652
5420.209534,-2368.659014,-1991.848295,9400.615463
5420.209857,-1998.556043,-1532.190996,8734.430116
5420.210180,1776.494261,229.828649,9326.594869
5420.210503,1702.473667,1225.752797,8660.409521
5420.210826,740.205942,1225.752797,9770.718434
5420.211148,740.205942,0.000000,10732.986159
5420.211471,148.041188,536.266849,10214.842000
5420.211794,814.226536,1072.533697,8438.347739
5420.212117,-222.061783,0.000000,10881.027347
5420.212440,-148.041188,459.657299,11103.089130
5420.212763,740.205942,995.924147,10955.047942
5420.213086,148.041188,1455.581446,8660.409521
5420.213409,0.000000,2298.286494,8290.306550
5420.213732,-814.226536,1225.752797,8660.409521
5420.214055,-296.082377,1455.581446,8216.285956
5420.214377,0.000000,2451.505594,8808.450710
5420.214700,-148.041188,2451.505594,7772.162391
5420.215023,-2368.659014,1838.629195,9474.636058
5420.215346,-2886.803174,1072.533697,9178.553681
5420.215669,-4885.359217,306.438199,8734.430116
5420.215992,-5625.565159,-153.219100,8068.244768
5420.216315,-5995.668130,-459.657299,9030.512492
5420.216638,-5477.523971,-612.876398,8882.471304
5420.216961,-3256.906145,153.219100,8956.491898
5420.217283,-3256.906145,1072.533697,8586.388927
5420.217606,-2368.659014,1608.800546,8290.306550
5420.217929,-740.205942,1302.362347,9474.636058
5420.218252,2072.576638,2528.115143,8660.409521
5420.218575,3627.009116,2451.505594,9400.615463
5420.218898,3330.926739,2374.896044,9178.553681
5420.219221,2960.823768,2298.286494,10732.986159
5420.219544,3701.029710,1455.581446,9918.759623
5420.219867,3997.112087,2604.724693,9326.594869
5420.220189,3997.112087,1991.848295,8586.388927
5420.220512,3552.988522,1915.238745,10140.821405
5420.220835,3478.967927,1532.190996,10214.842000
5420.221158,3552.988522,1838.629195,9400.615463
5420.221481,2368.659014,995.924147,9178.553681
5420.221804,1258.350101,459.657299,7846.182985
5420.222127,592.164754,536.266849,9622.677246
5420.222450,1184.329507,1455.581446,9030.512492
5420.222773,1776.494261,1149.143247,8808.450710
5420.223095,592.164754,0.000000,8660.409521
5420.223418,-222.061783,-919.314598,8956.491898
5420.223741,-1332.370696,-1149.143247,10510.924376
5420.224064,-2368.659014,-1072.533697,8882.471304
5420.224387,-2368.659014,-2068.457845,10066.800811
5420.224710,-3552.988522,-2145.067394,9104.533087
5420.225033,-2960.823768,-2528.115143,9548.656652
5420.225356,-2368.659014,-2374.896044,8734.430116
5420.225679,-1702.473667,-1225.752797,8364.327145
5420.226002,-1184.329507,-842.705048,9992.780217
5420.226324,-148.041188,-229.828649,10140.821405
5420.226647,148.041188,612.876398,10436.903782
5420.226970,1036.288319,842.705048,8956.491898
5420.227293,962.267725,1302.362347,10510.924376
5420.227616,1480.411884,1149.143247,11251.130318
5420.227939,2146.597232,1302.362347,10955.047942
5420.228262,2294.638420,766.095498,9696.697840
5420.228585,1628.453072,1302.362347,9326.594869
5420.228908,-370.102971,1378.971896,9992.780217
5420.229230,1110.308913,1532.190996,9178.553681
5420.229553,370.102971,689.485948,8808.450710
5420.229876,444.123565,766.095498,7550.100608
5420.230199,0.000000,1302.362347,9844.739029
5420.230522,-888.247130,1762.019645,9622.677246
5420.230845,-962.267725,1378.971896,10066.800811
5420.231168,-1184.329507,1455.581446,7772.162391
5420.231491,-2738.761985,1302.362347,9400.615463
5420.231814,-3330.926739,153.219100,9474.636058
5420.232136,-4219.173869,-306.438199,9178.553681
5420.232459,-3849.070898,0.000000,7476.080014
5420.232782,-5477.523971,-306.438199,8660.409521
5420.233105,-5847.626942,-689.485948,8142.265362
5420.233428,-4737.318029,-766.095498,8586.388927
5420.233751,-2146.597232,-153.219100,6735.874072
5420.234074,-1554.432478,842.705048,8660.409521
5420.234397,-1776.494261,766.095498,9474.636058
5420.234720,-148.041188,536.266849,9400.615463
5420.235043,1776.494261,1685.410096,8512.368333
5420.235365,2146.597232,2451.505594,9252.574275
5420.235688,3108.864956,2604.724693,9474.636058
5420.236011,3627.009116,1838.629195,10214.842000
5420.236334,4219.173869,2068.457845,9326.594869
5420.236657,3849.070898,2068.457845,8882.471304
5420.236980,3256.906145,1762.019645,8956.491898
5420.237303,2590.720797,995.924147,9696.697840
5420.237626,3034.844362,1149.143247,9252.574275
5420.237949,2886.803174,1149.143247,9178.553681
5420.238271,2294.638420,1838.629195,9474.636058
5420.238594,1924.535449,1149.143247,10288.862594
5420.238917,2072.576638,0.000000,9474.636058
5420.239240,1332.370696,383.047749,9252.574275
5420.239563,-296.082377,995.924147,9992.780217
5420.239886,-1702.473667,-612.876398,10436.903782
5420.240209,-2738.761985,-1302.362347,9770.718434
5420.240532,-1702.473667,-1072.533697,8882.471304
5420.240855,-3552.988522,-1532.190996,8956.491898
5420.241177,-4293.194464,-1762.019645,9400.615463
5420.241500,-4145.153275,-2451.505594,9622.677246
5420.241823,-3849.070898,-2068.457845,9696.697840
5420.242146,-962.267725,0.000000,7698.141797
5420.242469,-2738.761985,-919.314598,9252.574275
5420.242792,-592.164754,-995.924147,8290.306550
5420.243115,296.082377,-459.657299,10436.903782
5420.243438,1628.453072,1302.362347,8068.244768
5420.243761,1850.514855,995.924147,10584.944971
5420.244084,1702.473667,1378.971896,11103.089130
5420.244406,3034.844362,1455.581446,10362.883188
5420.244729,4441.235652,2528.115143,10510.924376
5420.245052,3330.926739,2834.553343,9696.697840
5420.245375,2442.679609,612.876398,10140.821405
5420.245698,1924.535449,383.047749,9030.512492
5420.246021,1628.453072,1455.581446,8734.430116
5420.246344,370.102971,2374.896044,9400.615463
5420.246667,-1406.391290,1838.629195,10288.862594
5420.246990,-1998.556043,1225.752797,10066.800811
5420.247312,-370.102971,229.828649,6957.935855
5420.247635,-2220.617826,153.219100,6661.853478
5420.247958,-4885.359217,229.828649,8142.265362
5420.248281,-6513.812290,-689.485948,9474.636058
5420.248604,-6217.729913,-1149.143247,9696.697840
5420.248927,-6291.750507,0.000000,8586.388927
5420.249250,-5181.441594,-842.705048,8290.306550
5420.249573,-5773.606348,-766.095498,9178.553681
5420.249896,-2960.823768,383.047749,9252.574275
5420.250218,-2220.617826,1072.533697,8882.471304
5420.250541,-1628.453072,1225.752797,8290.306550
5420.250864,-592.164754,1685.410096,9918.759623
5420.251187,1776.494261,1762.019645,8290.306550
5420.251510,2960.823768,2374.896044,9548.656652
5420.251833,3701.029710,2911.162892,8068.244768
5420.252156,4219.173869,2374.896044,10732.986159
5420.252479,6069.688724,2298.286494,9918.759623
5420.252802,4885.359217,1991.848295,10732.986159
5420.253124,3849.070898,1762.019645,9178.553681
5420.253447,2368.659014,612.876398,9844.739029
5420.253770,2220.617826,0.000000,9400.615463
5420.254093,2516.700203,1149.143247,9030.512492
5420.254416,2664.741391,1455.581446,9474.636058
5420.254739,296.082377,536.266849,9474.636058
5420.255062,444.123565,842.705048,9178.553681
5420.255385,1554.432478,383.047749,8586.388927
5420.255708,444.123565,689.485948,8734.430116
5420.256031,-1702.473667,-459.657299,9252.574275
5420.256353,-2516.700203,-1762.019645,8882.471304
5420.256676,-2368.659014,-2221.676944,7920.203579
5420.256999,-1998.556043,-1072.533697,8438.347739
5420.257322,-3997.112087,-2068.457845,8068.244768
5420.257645,-4885.359217,-2834.553343,9326.594869
5420.257968,-3627.009116,-3140.991542,10658.965565
5420.258291,-2072.576638,-1685.410096,10288.862594
5420.258613,-1036.288319,-1225.752797,10066.800811
5420.258936,-1258.350101,-1072.533697,10955.047942
5420.259259,962.267725,-306.438199,11547.212695
5420.259582,2738.761985,2221.676944,10732.986159
5420.259905,3997.112087,1608.800546,9474.636058
5420.260228,3923.091493,2451.505594,10732.986159
5420.260551,2516.700203,1378.971896,11547.212695
5420.260873,2886.803174,1302.362347,10807.006753
5420.261196,3330.926739,1685.410096,9474.636058
5420.261519,2220.617826,1991.848295,9548.656652
5420.261842,962.267725,2298.286494,9400.615463
5420.262165,518.144159,1149.143247,9992.780217
5420.262488,296.082377,1378.971896,8068.244768
5420.262810,0.000000,1532.190996,7254.018232
5420.263133,-2146.597232,1378.971896,8068.244768
5420.263456,-2442.679609,1608.800546,8808.450710
5420.263779,-2738.761985,1685.410096,7920.203579
5420.264102,-3182.885551,1685.410096,7328.038826
5420.264425,-4293.194464,1149.143247,8068.244768
5420.264748,-4663.297435,153.219100,8364.327145
5420.265070,-4293.194464,306.438199,7254.018232
5420.265393,-3627.009116,766.095498,7105.977043
5420.265716,-4071.132681,995.924147,7846.182985
5420.266039,-3997.112087,612.876398,9030.512492
5420.266362,-1924.535449,1378.971896,8438.347739
5420.266685,-1258.350101,1149.143247,7698.141797
5420.267008,-1184.329507,1378.971896,8364.327145
5420.267330,-296.082377,1302.362347,9622.677246
5420.267653,2220.617826,1991.848295,9844.739029
5420.267976,2368.659014,1762.019645,10288.862594
5420.268299,3108.864956,2221.676944,9326.594869
5420.268622,2590.720797,1762.019645,11325.150913
5420.268945,2590.720797,1225.752797,10214.842000
5420.269267,2664.741391,1225.752797,10807.006753
5420.269590,2294.638420,689.485948,9770.718434
5420.269913,1480.411884,536.266849,10732.986159
5420.270236,1184.329507,842.705048,9622.677246
5420.270559,2220.617826,995.924147,9400.615463
5420.270882,2442.679609,1302.362347,9030.512492
5420.271205,1258.350101,612.876398,9474.636058
5420.271527,-296.082377,0.000000,10732.986159
5420.271850,-1184.329507,-536.266849,10955.047942
5420.272173,1036.288319,-153.219100,9104.533087
5420.272496,-740.205942,-995.924147,8956.491898
5420.272819,-1184.329507,-995.924147,9400.615463
5420.273142,-2368.659014,-995.924147,10066.800811
5420.273465,-2368.659014,-1302.362347,8216.285956
5420.273787,-1924.535449,-1685.410096,6883.915261
5420.274110,-3404.947333,-1455.581446,7476.080014
5420.274433,-2960.823768,-1302.362347,7254.018232
5420.274756,-962.267725,-612.876398,7920.203579
5420.275079,-962.267725,0.000000,7846.182985
5420.275402,1110.308913,0.000000,8290.306550
5420.275724,1480.411884,766.095498,9844.739029
5420.276047,2738.761985,1685.410096,9844.739029
5420.276370,3404.947333,2221.676944,10658.965565
5420.276693,3997.112087,2374.896044,9474.636058
5420.277016,3849.070898,2068.457845,11991.336260
5420.277339,2960.823768,1225.752797,11251.130318
5420.277662,2516.700203,1072.533697,11547.212695
5420.277984,2664.741391,919.314598,9474.636058
5420.278307,1036.288319,1149.143247,10807.006753
5420.278630,1184.329507,919.314598,10807.006753
5420.278953,74.020594,995.924147,10362.883188
5420.279276,-1110.308913,689.485948,9030.512492
5420.279599,-1998.556043,536.266849,9696.697840
5420.279922,-3478.967927,-153.219100,9400.615463
5420.280244,-2368.659014,153.219100,8512.368333
5420.280567,-2886.803174,1378.971896,7846.182985
5420.280890,-3997.112087,842.705048,10066.800811
5420.281213,-4367.215058,536.266849,9770.718434
5420.281536,-3997.112087,76.609550,9104.533087
5420.281859,-3478.967927,995.924147,7698.141797
5420.282181,-2960.823768,689.485948,8364.327145
5420.282504,-3997.112087,-153.219100,9030.512492
5420.282827,-2368.659014,459.657299,8438.347739
5420.283150,-888.247130,1225.752797,6883.915261
5420.283473,-740.205942,1762.019645,7624.121203
5420.283796,-814.226536,1225.752797,9400.615463
5420.284119,1184.329507,1532.190996,9326.594869
5420.284441,3108.864956,2451.505594,8142.265362
5420.284764,3034.844362,3753.867940,8216.285956
5420.285087,1406.391290,1915.238745,9326.594869
5420.285410,2072.576638,1072.533697,9326.594869
5420.285733,2812.782580,2068.457845,8290.306550
5420.286056,2664.741391,2451.505594,8142.265362
5420.286379,1554.432478,1991.848295,9326.594869
5420.286701,962.267725,306.438199,9400.615463
5420.287024,1924.535449,459.657299,9030.512492
5420.287347,1480.411884,1149.143247,9104.533087
5420.287670,0.000000,-153.219100,10362.883188
5420.287993,-1628.453072,-383.047749,11843.295072
5420.288316,-814.226536,-1225.752797,10584.944971
5420.288638,296.082377,-689.485948,10066.800811
5420.288961,-1628.453072,-612.876398,9696.697840
5420.289284,-1332.370696,-1685.410096,10807.006753
5420.289607,-2072.576638,-1532.190996,11399.171507
5420.289930,-962.267725,-383.047749,9104.533087
5420.290253,296.082377,-995.924147,8956.491898
5420.290576,-1036.288319,-1608.800546,9548.656652
5420.290898,-1702.473667,-1455.581446,10807.006753
5420.291221,-518.144159,-1532.190996,8364.327145
5420.291544,0.000000,-612.876398,9770.718434
5420.291867,0.000000,76.609550,9326.594869
5420.292190,444.123565,0.000000,10510.924376
5420.292513,1184.329507,0.000000,9400.615463
5420.292836,2220.617826,306.438199,8808.450710
5420.293158,1258.350101,536.266849,8956.491898
5420.293481,888.247130,689.485948,9770.718434
5420.293804,1406.391290,919.314598,9474.636058
5420.294127,2220.617826,1072.533697,9030.512492
5420.294450,1258.350101,1838.629195,8734.430116
5420.294773,296.082377,766.095498,8808.450710
5420.295095,1036.288319,766.095498,9030.512492
5420.295418,370.102971,1762.019645,9252.574275
5420.295741,0.000000,1455.581446,8808.450710
5420.296064,-1924.535449,459.657299,8956.491898
5420.296387,-1110.308913,919.314598,8512.368333
5420.296710,222.061783,1915.238745,9030.512492
5420.297033,-592.164754,2451.505594,8512.368333
5420.297355,-2368.659014,1608.800546,9844.739029
5420.297678,-962.267725,919.314598,8660.409521
5420.298001,-1110.308913,919.314598,9622.677246
5420.298324,-1628.453072,2145.067394,9252.574275
5420.298647,-3256.906145,1225.752797,10732.986159
5420.298970,-3627.009116,-76.609550,9992.780217
5420.299292,-3182.885551,1072.533697,9992.780217
5420.299615,-1998.556043,1302.362347,8364.327145
5420.299938,-2886.803174,919.314598,9400.615463
5420.300261,-2442.679609,612.876398,8438.347739
5420.300584,-962.267725,842.705048,9104.533087
5420.300907,222.061783,1838.629195,7476.080014
5420.301230,-296.082377,2528.115143,7698.141797
5420.301552,444.123565,1149.143247,8734.430116
5420.301875,1776.494261,1378.971896,9030.512492
5420.302198,1702.473667,2451.505594,9030.512492
5420.302521,1702.473667,2374.896044,8808.450710
5420.302844,962.267725,1302.362347,9474.636058
5420.303167,2442.679609,1455.581446,8068.244768
5420.303490,3256.906145,1302.362347,9770.718434
5420.303812,2442.679609,1532.190996,8734.430116
5420.304135,1110.308913,306.438199,9696.697840
5420.304458,962.267725,-1225.752797,8290.306550
5420.304781,-222.061783,-2221.676944,9844.739029
5420.305104,0.000000,-1991.848295,8660.409521
5420.305427,-370.102971,-1302.362347,10214.842000
5420.305749,592.164754,-459.657299,10288.862594
5420.306072,148.041188,-995.924147,11177.109724
5420.306395,962.267725,-689.485948,8438.347739
5420.306718,74.020594,-766.095498,9622.677246
5420.307041,0.000000,-1225.752797,9252.574275
5420.307364,-1480.411884,-1685.410096,11399.171507
5420.307687,-814.226536,-766.095498,10140.821405
5420.308009,-296.082377,-383.047749,9770.718434
5420.308332,-1406.391290,-1149.143247,9104.533087
5420.308655,-1184.329507,-1685.410096,10436.903782
5420.308978,-1406.391290,-1149.143247,9992.780217
5420.309301,-1258.350101,-1378.971896,10362.883188
5420.309624,-888.247130,-842.705048,9622.677246
5420.309947,-1332.370696,-842.705048,11251.130318
5420.310269,0.000000,0.000000,9992.780217
5420.310592,222.061783,459.657299,10436.903782
5420.310915,592.164754,766.095498,9030.512492
5420.311238,1480.411884,1225.752797,10140.821405
5420.311561,1480.411884,1838.629195,9844.739029
5420.311884,1406.391290,2068.457845,9474.636058
5420.312206,814.226536,2451.505594,8882.471304
5420.312529,962.267725,2451.505594,7920.203579
5420.312852,1924.535449,1838.629195,8216.285956
5420.313175,1554.432478,2068.457845,7550.100608
5420.313498,0.000000,2604.724693,7624.121203
5420.313821,-296.082377,1991.848295,7624.121203
5420.314144,-1480.411884,1302.362347,8438.347739
5420.314466,-1702.473667,1608.800546,8290.306550
5420.314789,-2812.782580,1455.581446,9104.533087
5420.315112,-4589.276840,1072.533697,8512.368333
5420.315435,-4959.379811,766.095498,9622.677246
5420.315758,-4293.194464,383.047749,9400.615463
5420.316081,-4515.256246,306.438199,8142.265362
5420.316404,-5033.400406,766.095498,7846.182985
5420.316726,-4145.153275,842.705048,8660.409521
5420.317049,-3108.864956,1149.143247,9104.533087
5420.317372,-1554.432478,1072.533697,7105.977043
5420.317695,296.082377,1225.752797,6513.812290
5420.318018,-666.185348,1762.019645,8216.285956
5420.318341,814.226536,2298.286494,9400.615463
5420.318663,1554.432478,1685.410096,11029.068536
5420.318986,4293.194464,2528.115143,9104.533087
5420.319309,3997.112087,2451.505594,11251.130318
5420.319632,2368.659014,1685.410096,10955.047942
5420.319955,2220.617826,919.314598,12361.439231
5420.320278,2960.823768,919.314598,10362.883188
5420.320601,3552.988522,1378.971896,10066.800811
5420.320923,4293.194464,842.705048,9622.677246
5420.321246,3182.885551,766.095498,10955.047942
5420.321569,3478.967927,612.876398,8882.471304
5420.321892,2220.617826,76.609550,8216.285956
5420.322215,1924.535449,76.609550,9326.594869
5420.322538,0.000000,76.609550,10584.944971
5420.322861,-296.082377,-1149.143247,8512.368333
5420.323183,-740.205942,76.609550,9400.615463
5420.323506,-2442.679609,-919.314598,8512.368333
5420.323829,-2442.679609,-2374.896044,9696.697840
5420.324152,-1998.556043,-1838.629195,9178.553681
5420.324475,-2960.823768,-1225.752797,8956.491898
5420.324798,-1924.535449,-1225.752797,9030.512492
5420.325120,-1998.556043,-1302.362347,9992.780217
5420.325443,-444.123565,-842.705048,9326.594869
5420.325766,74.020594,-459.657299,8512.368333
5420.326089,-1110.308913,-689.485948,8512.368333
5420.326412,-814.226536,0.000000,10362.883188
5420.326735,888.247130,612.876398,9104.533087
5420.327058,1480.411884,1149.143247,9104.533087
5420.327380,1406.391290,2145.067394,9178.553681
5420.327703,0.000000,1302.362347,10362.883188
5420.328026,-222.061783,229.828649,9992.780217
5420.328349,592.164754,689.485948,9030.512492
5420.328672,518.144159,1302.362347,10140.821405
5420.328995,222.061783,1225.752797,9622.677246
5420.329318,-296.082377,612.876398,11325.150913
5420.329640,1184.329507,1685.410096,9030.512492
5420.329963,222.061783,2298.286494,10214.842000
5420.330286,-1258.350101,2068.457845,8660.409521
5420.330609,-2368.659014,842.705048,10732.986159
5420.330932,-2368.659014,536.266849,9622.677246
5420.331255,-1554.432478,1915.238745,9030.512492
5420.331577,-1628.453072,1838.629195,8808.450710
5420.331900,-4737.318029,306.438199,9622.677246
5420.332223,-4367.215058,0.000000,9918.759623
5420.332546,-3627.009116,229.828649,7624.121203
5420.332869,-3627.009116,306.438199,7402.059420
5420.333192,-3330.926739,0.000000,8142.265362
5420.333515,-2738.761985,0.000000,8512.368333
5420.333837,-1406.391290,1225.752797,7624.121203
5420.334160,592.164754,2221.676944,7105.977043
5420.334483,444.123565,1455.581446,7994.224174
5420.334806,592.164754,689.485948,9548.656652
5420.335129,1332.370696,1608.800546,8882.471304
5420.335452,2960.823768,1838.629195,8438.347739
5420.335774,2442.679609,1762.019645,9104.533087
5420.336097,2072.576638,1378.971896,10732.986159
5420.336420,2886.803174,919.314598,10140.821405
5420.336743,3256.906145,306.438199,8956.491898
5420.337066,2960.823768,1225.752797,8808.450710
5420.337389,3034.844362,612.876398,10066.800811
5420.337712,3478.967927,536.266849,9918.759623
5420.338034,3997.112087,919.314598,9326.594869
5420.338357,2294.638420,842.705048,9548.656652
5420.338680,1924.535449,-459.657299,10140.821405
5420.339003,1924.535449,-383.047749,9622.677246
5420.339326,1776.494261,-306.438199,9696.697840
5420.339649,0.000000,0.000000,10510.924376
5420.339972,-2368.659014,-1685.410096,11103.089130
5420.340294,-2590.720797,-2451.505594,10807.006753
5420.340617,-2886.803174,-2068.457845,9696.697840
5420.340940,-3627.009116,-1455.581446,10066.800811
5420.341263,-4811.338623,-2298.286494,9844.739029
5420.341586,-3701.029710,-1915.238745,9992.780217
5420.341909,-2442.679609,-1225.752797,8882.471304
5420.342231,-1332.370696,-536.266849,8364.327145
5420.342554,-1554.432478,-689.485948,8956.491898
5420.342877,-1332.370696,-459.657299,9844.739029
5420.343200,296.082377,766.095498,9770.718434
5420.343523,1554.432478,2068.457845,8660.409521
5420.343846,814.226536,1149.143247,9178.553681
5420.344169,518.144159,1072.533697,9104.533087
5420.344491,666.185348,995.924147,9622.677246
5420.344814,2516.700203,2528.115143,8438.347739
5420.345137,1628.453072,3064.381992,8438.347739
5420.345460,1776.494261,2604.724693,6957.935855
5420.345783,1776.494261,1915.238745,9252.574275
5420.346106,1258.350101,2298.286494,8068.244768
5420.346429,1110.308913,1991.848295,9326.594869
5420.346751,-1036.288319,1072.533697,9548.656652
5420.347074,-1998.556043,0.000000,9844.739029
5420.347397,-2146.597232,766.095498,10214.842000
5420.347720,-2368.659014,1762.019645,9918.759623
5420.348043,-2368.659014,1915.238745,8956.491898
5420.348366,-3108.864956,842.705048,9696.697840
5420.348688,-4145.153275,536.266849,8512.368333
5420.349011,-3034.844362,689.485948,7254.018232
5420.349334,-4367.215058,536.266849,7254.018232
5420.349657,-3627.009116,1455.581446,8438.347739
5420.349980,-1850.514855,842.705048,8956.491898
5420.350303,-1702.473667,1149.143247,8734.430116
5420.350626,-962.267725,1608.800546,8438.347739
5420.350948,-962.267725,842.705048,9252.574275
5420.351271,296.082377,919.314598,10066.800811
5420.351594,1554.432478,1149.143247,10362.883188
5420.351917,2294.638420,1225.752797,10214.842000
5420.352240,2442.679609,919.314598,10140.821405
5420.352563,3478.967927,1685.410096,10214.842000
5420.352886,4737.318029,1838.629195,10510.924376
5420.353208,4367.215058,1685.410096,9844.739029
5420.353531,4589.276840,2068.457845,9474.636058
5420.353854,4441.235652,1991.848295,10214.842000
5420.354177,4811.338623,1838.629195,9252.574275
5420.354500,4367.215058,1149.143247,8808.450710
5420.354823,3775.050304,1225.752797,7254.018232
5420.355145,1184.329507,229.828649,9030.512492
5420.355468,74.020594,383.047749,8216.285956
5420.355791,-962.267725,-689.485948,8882.471304
5420.356114,-1332.370696,-1225.752797,7402.059420
5420.356437,-2516.700203,-1762.019645,9326.594869
5420.356760,-4589.276840,-2221.676944,9992.780217
5420.357083,-4885.359217,-2604.724693,10140.821405
5420.357405,-4811.338623,-3294.210641,9252.574275
5420.357728,-4959.379811,-2528.115143,8956.491898
5420.358051,-4367.215058,-2681.334243,9844.739029
5420.358374,-4071.132681,-1991.848295,10807.006753
5420.358696,-1998.556043,-1225.752797,9326.594869
5420.359019,-962.267725,-1532.190996,8660.409521
5420.359342,0.000000,-689.485948,9474.636058
5420.359665,296.082377,-459.657299,10955.047942
5420.359987,592.164754,612.876398,10436.903782
5420.360310,1776.494261,153.219100,9844.739029
5420.360633,1850.514855,689.485948,9770.718434
5420.360956,2072.576638,612.876398,11399.171507
5420.361278,2368.659014,1149.143247,10584.944971
5420.361601,2442.679609,1685.410096,10362.883188
5420.361924,2516.700203,2221.676944,9474.636058
5420.362247,1998.556043,1991.848295,11029.068536
5420.362570,1110.308913,1762.019645,9474.636058
5420.362892,666.185348,1762.019645,8142.265362
5420.363215,0.000000,995.924147,7994.224174
5420.363538,-740.205942,1378.971896,8290.306550
5420.363861,-1702.473667,1532.190996,8660.409521
5420.364183,-2220.617826,1838.629195,7772.162391
5420.364506,-2072.576638,1915.238745,7846.182985
5420.364829,-3552.988522,1149.143247,8216.285956
5420.365152,-4737.318029,76.609550,9252.574275
5420.365474,-4293.194464,383.047749,8142.265362
5420.365797,-4441.235652,536.266849,7846.182985
5420.366120,-4219.173869,766.095498,8142.265362
5420.366443,-3552.988522,842.705048,9104.533087
5420.366765,-2664.741391,919.314598,7031.956449
5420.367088,-1480.411884,1225.752797,7105.977043
5420.367411,-1924.535449,1225.752797,8068.244768
5420.367734,-592.164754,842.705048,9030.512492
5420.368056,962.267725,1915.238745,9548.656652
5420.368379,2220.617826,2834.553343,9104.533087
5420.368702,3552.988522,2911.162892,9918.759623
5420.369025,3849.070898,2298.286494,10436.903782
5420.369348,4663.297435,2298.286494,10362.883188
5420.369670,5255.462188,2221.676944,9770.718434
5420.369993,5033.400406,2528.115143,9844.739029
5420.370316,4663.297435,2145.067394,10362.883188
5420.370639,3923.091493,1532.190996,10881.027347
5420.370961,4219.173869,842.705048,9104.533087
5420.371284,3182.885551,1378.971896,8512.368333
5420.371607,1332.370696,153.219100,9696.697840
5420.371930,666.185348,-612.876398,9844.739029
5420.372252,444.123565,-766.095498,9400.615463
5420.372575,-1332.370696,-459.657299,9918.759623
5420.372898,-2960.823768,-1685.410096,9770.718434
5420.373221,-4959.379811,-3600.648841,10362.883188
5420.373543,-4367.215058,-2757.943793,9696.697840
5420.373866,-3404.947333,-1685.410096,8364.327145
5420.374189,-4071.132681,-1991.848295,10140.821405
5420.374512,-3849.070898,-1991.848295,10807.006753
5420.374835,-2072.576638,-1608.800546,9474.636058
5420.375157,-962.267725,-1149.143247,8216.285956
5420.375480,-962.267725,-153.219100,7994.224174
5420.375803,-888.247130,-1149.143247,9178.553681
5420.376126,222.061783,-1915.238745,9252.574275
5420.376448,1998.556043,306.438199,8364.327145
5420.376771,2516.700203,612.876398,8956.491898
5420.377094,666.185348,153.219100,10807.006753
5420.377417,740.205942,459.657299,11917.315666
5420.377739,1850.514855,766.095498,10288.862594
5420.378062,2368.659014,1455.581446,9326.594869
5420.378385,2220.617826,1762.019645,9474.636058
5420.378708,444.123565,842.705048,10436.903782
5420.379030,444.123565,919.314598,8882.471304
5420.379353,666.185348,2145.067394,7846.182985
5420.379676,-888.247130,2374.896044,8660.409521
5420.379999,-1184.329507,1225.752797,9474.636058
5420.380321,-2368.659014,229.828649,9474.636058
5420.380644,-1998.556043,689.485948,8808.450710
5420.380967,-3330.926739,306.438199,9844.739029
5420.381290,-5625.565159,-1149.143247,9326.594869
5420.381613,-3478.967927,-459.657299,9178.553681
5420.381935,-3701.029710,383.047749,8586.388927
5420.382258,-3701.029710,1302.362347,8660.409521
5420.382581,-3478.967927,689.485948,9104.533087
5420.382904,-1406.391290,1302.362347,8364.327145
5420.383226,740.205942,1991.848295,7920.203579
5420.383549,296.082377,1455.581446,7698.141797
5420.383872,-888.247130,1225.752797,8882.471304
5420.384195,814.226536,1915.238745,9622.677246
5420.384517,2516.700203,2145.067394,8660.409521
5420.384840,2590.720797,2451.505594,9696.697840
5420.385163,1776.494261,2451.505594,9400.615463
5420.385486,1332.370696,1532.190996,10066.800811
5420.385808,2590.720797,1608.800546,9400.615463
5420.386131,4071.132681,3140.991542,8586.388927
5420.386454,2368.659014,1762.019645,8956.491898
5420.386777,1924.535449,1915.238745,9474.636058
5420.387099,2886.803174,1608.800546,8512.368333
5420.387422,2812.782580,1838.629195,8290.306550
5420.387745,1406.391290,1762.019645,7550.100608
5420.388068,962.267725,-459.657299,8216.285956
5420.388391,888.247130,-306.438199,8808.450710
5420.388713,0.000000,766.095498,9252.574275
5420.389036,-740.205942,0.000000,8882.471304
5420.389359,-962.267725,-1302.362347,8808.450710
5420.389682,-2220.617826,-1225.752797,9622.677246
5420.390004,-1702.473667,-1915.238745,10288.862594
5420.390327,-2146.597232,-1149.143247,10066.800811
5420.390650,-2368.659014,-1378.971896,10510.924376
5420.390973,-1332.370696,-1378.971896,11473.192101
5420.391295,-1406.391290,-1608.800546,11843.295072
5420.391618,-1184.329507,-689.485948,10658.965565
5420.391941,-1184.329507,-1302.362347,9622.677246
5420.392264,-666.185348,-1455.581446,9918.759623
5420.392586,666.185348,-919.314598,9918.759623
5420.392909,148.041188,153.219100,9622.677246
5420.393232,444.123565,919.314598,9770.718434
5420.393555,1036.288319,842.705048,9474.636058
5420.393878,888.247130,842.705048,9474.636058
5420.394200,1702.473667,1149.143247,8734.430116
5420.394523,370.102971,1149.143247,7994.224174
5420.394846,296.082377,1455.581446,9178.553681
5420.395169,814.226536,1685.410096,8882.471304
5420.395491,518.144159,1532.190996,9548.656652
5420.395814,-370.102971,1225.752797,8364.327145
5420.396137,-666.185348,536.266849,8660.409521
5420.396460,-1554.432478,766.095498,9030.512492
5420.396782,-1628.453072,1838.629195,9252.574275
5420.397105,-2072.576638,1225.752797,8142.265362
5420.397428,-2664.741391,229.828649,7550.100608
5420.397751,-4219.173869,0.000000,8734.430116
5420.398073,-4071.132681,766.095498,8808.450710
5420.398396,-4071.132681,689.485948,8512.368333
5420.398719,-3478.967927,612.876398,7920.203579
5420.399042,-3108.864956,1072.533697,7994.224174
5420.399364,-2368.659014,1072.533697,9548.656652
5420.399687,-1332.370696,1532.190996,7920.203579
5420.400010,-1036.288319,1149.143247,7846.182985
5420.400333,-1480.411884,306.438199,8438.347739
5420.400656,-814.226536,536.266849,9252.574275
5420.400978,444.123565,919.314598,10732.986159
5420.401301,1332.370696,1838.629195,9918.759623
5420.401624,3478.967927,2374.896044,9622.677246
5420.401947,3034.844362,1915.238745,10584.944971
5420.402269,3330.926739,2374.896044,10807.006753
5420.402592,4071.132681,1838.629195,10362.883188
5420.402915,3923.091493,1991.848295,9400.615463
5420.403238,2960.823768,1608.800546,10066.800811
5420.403560,3404.947333,1532.190996,8956.491898
5420.403883,2590.720797,1455.581446,8068.244768
5420.404206,2812.782580,1685.410096,6883.915261
5420.404529,1332.370696,612.876398,8438.347739
5420.404851,1036.288319,-229.828649,8364.327145
5420.405174,-370.102971,-1378.971896,8882.471304
5420.405497,-740.205942,-766.095498,8290.306550
5420.405820,-1480.411884,-459.657299,10214.842000
5420.406142,-2294.638420,-383.047749,11103.089130
5420.406465,-3478.967927,-612.876398,11473.192101
5420.406788,-1480.411884,-1455.581446,9918.759623
5420.407111,-2368.659014,-1685.410096,9474.636058
5420.407434,-1628.453072,-459.657299,10732.986159
5420.407756,-1480.411884,-1532.190996,10732.986159
5420.408079,-888.247130,-1378.971896,8882.471304
5420.408402,-1258.350101,-229.828649,7994.224174
5420.408725,-592.164754,-689.485948,8438.347739
5420.409047,-962.267725,-995.924147,9844.739029
5420.409370,148.041188,612.876398,8734.430116
5420.409693,1184.329507,383.047749,9104.533087
5420.410016,1184.329507,229.828649,10436.903782
5420.410338,222.061783,153.219100,11399.171507
5420.410661,592.164754,306.438199,11325.150913
5420.410984,-1480.411884,383.047749,10140.821405
5420.411307,296.082377,689.485948,10732.986159
5420.411629,148.041188,842.705048,10288.862594
5420.411952,1702.473667,1762.019645,9104.533087
5420.412275,1184.329507,1532.190996,8660.409521
5420.412598,1332.370696,1838.629195,6735.874072
5420.412920,518.144159,2068.457845,9104.533087
5420.413243,-1258.350101,2298.286494,8142.265362
5420.413566,-444.123565,2298.286494,9030.512492
5420.413889,74.020594,1838.629195,7105.977043
5420.414212,-1776.494261,1072.533697,9030.512492
5420.414534,-1924.535449,842.705048,9548.656652
5420.414857,-2072.576638,1225.752797,9474.636058
5420.415180,-2590.720797,1762.019645,9104.533087
5420.415503,-3478.967927,536.266849,9474.636058
5420.415825,-3923.091493,0.000000,9770.718434
5420.416148,-2072.576638,76.609550,7994.224174
5420.416471,-2146.597232,1149.143247,7624.121203
5420.416794,-2072.576638,1608.800546,8438.347739
5420.417116,-1332.370696,1685.410096,10066.800811
5420.417439,0.000000,2068.457845,8734.430116
5420.417762,2590.720797,3524.039291,8364.327145
5420.418085,1776.494261,2987.772442,8512.368333
5420.418407,1332.370696,2068.457845,9178.553681
5420.418730,2368.659014,2145.067394,9400.615463
5420.419053,2664.741391,2451.505594,8734.430116
5420.419376,2590.720797,2374.896044,8882.471304
5420.419699,1776.494261,1532.190996,9844.739029
5420.420021,1998.556043,1225.752797,9844.739029
5420.420344,2442.679609,1302.362347,9326.594869
5420.420667,2886.803174,919.314598,8290.306550
5420.420990,740.205942,459.657299,10140.821405
5420.421312,444.123565,-229.828649,10436.903782
5420.421635,0.000000,0.000000,10140.821405
5420.421958,-444.123565,536.266849,8956.491898
5420.422281,-1702.473667,229.828649,9104.533087
5420.422603,-1332.370696,-1149.143247,9918.759623
5420.422926,-814.226536,-1072.533697,9252.574275
5420.423249,-1850.514855,-766.095498,8660.409521
5420.423572,-3182.885551,-1532.190996,9622.677246
5420.423894,-3404.947333,-2528.115143,9844.739029
5420.424217,-2590.720797,-2757.943793,10140.821405
5420.424540,-1332.370696,-1991.848295,8290.306550
5420.424863,-1480.411884,-1762.019645,9548.656652
5420.425185,-1036.288319,-1685.410096,10288.862594
5420.425508,-666.185348,-1762.019645,10732.986159
5420.425831,1036.288319,-383.047749,9918.759623
5420.426154,1184.329507,0.000000,9696.697840
5420.426477,888.247130,-306.438199,10658.965565
5420.426799,1332.370696,0.000000,10732.986159
5420.427122,2072.576638,229.828649,10732.986159
5420.427445,2146.597232,995.924147,8364.327145
5420.427768,1036.288319,-229.828649,9696.697840
5420.428090,296.082377,306.438199,9178.553681
5420.428413,370.102971,1149.143247,9326.594869
5420.428736,296.082377,612.876398,7550.100608
5420.429059,-1184.329507,76.609550,7772.162391
5420.429381,-1110.308913,153.219100,7846.182985
5420.429704,-592.164754,229.828649,8512.368333
5420.430027,-740.205942,1149.143247,8290.306550
5420.430350,-1480.411884,1532.190996,8586.388927
5420.430672,-2368.659014,919.314598,9548.656652
5420.430995,-1554.432478,1685.410096,10214.842000
5420.431318,-888.247130,1915.238745,9992.780217
5420.431641,-1554.432478,1685.410096,9252.574275
5420.431963,-1406.391290,842.705048,9252.574275
5420.432286,-370.102971,536.266849,9178.553681
5420.432609,-518.144159,1608.800546,9474.636058
5420.432932,-888.247130,1762.019645,8660.409521
5420.433255,-814.226536,1455.581446,9030.512492
5420.433577,518.144159,1225.752797,8660.409521
5420.433900,1110.308913,1838.629195,9178.553681
5420.434223,1480.411884,2987.772442,9178.553681
5420.434546,666.185348,2221.676944,10584.944971
5420.434868,74.020594,1762.019645,10658.965565
5420.435191,370.102971,2221.676944,10584.944971
5420.435514,1258.350101,2451.505594,9474.636058
5420.435837,296.082377,2145.067394,9474.636058
5420.436159,666.185348,1532.190996,8364.327145
5420.436482,1776.494261,1455.581446,7698.141797
5420.436805,2442.679609,1991.848295,6291.750507
5420.437128,888.247130,1915.238745,6957.935855
5420.437450,148.041188,995.924147,7476.080014
5420.437773,222.061783,459.657299,8142.265362
5420.438096,1480.411884,1225.752797,8068.244768
5420.438419,1258.350101,1991.848295,8586.388927
5420.438742,-148.041188,689.485948,9992.780217
5420.439064,370.102971,459.657299,10140.821405
5420.439387,592.164754,689.485948,10436.903782
5420.439710,-740.205942,76.609550,10140.821405
5420.440033,-1702.473667,-536.266849,11029.068536
5420.440355,-1406.391290,-1762.019645,10658.965565
5420.440678,-962.267725,-1991.848295,10436.903782
5420.441001,-1332.370696,-1455.581446,8808.450710
5420.441324,-1628.453072,-1225.752797,9548.656652
5420.441646,-1702.473667,-1455.581446,9474.636058
5420.441969,-1332.370696,-842.705048,10436.903782
5420.442292,-1776.494261,-689.485948,9326.594869
5420.442615,-888.247130,-383.047749,9252.574275
5420.442937,296.082377,-229.828649,8216.285956
5420.443260,1036.288319,612.876398,10140.821405
5420.443583,1406.391290,766.095498,9918.759623
5420.443906,74.020594,153.219100,9104.533087
5420.444228,0.000000,229.828649,9918.759623
5420.444551,888.247130,0.000000,10140.821405
5420.444874,888.247130,153.219100,10436.903782
5420.445197,1998.556043,383.047749,9104.533087
5420.445520,2072.576638,0.000000,9104.533087
5420.445842,1406.391290,536.266849,8660.409521
5420.446165,1776.494261,1149.143247,9474.636058
5420.446488,1184.329507,1991.848295,9844.739029
5420.446811,666.185348,2068.457845,9548.656652
5420.447133,-1332.370696,842.705048,9622.677246
5420.447456,-962.267725,1072.533697,8512.368333
5420.447779,-1110.308913,1302.362347,8734.430116
5420.448102,-2886.803174,536.266849,8364.327145
5420.448424,-4737.318029,0.000000,8956.491898
5420.448747,-5107.421000,-689.485948,8882.471304
5420.449070,-4589.276840,-995.924147,7846.182985
5420.449393,-4071.132681,-306.438199,7476.080014
5420.449715,-4885.359217,-1302.362347,7698.141797
5420.450038,-3849.070898,-1302.362347,9400.615463
5420.450361,-2960.823768,-229.828649,9178.553681
5420.450684,-1110.308913,1225.752797,8438.347739
5420.451006,-962.267725,1455.581446,9400.615463
5420.451329,148.041188,1838.629195,10214.842000
5420.451652,1406.391290,2374.896044,10955.047942
5420.451975,3701.029710,2681.334243,9548.656652
5420.452298,4589.276840,3677.258390,9252.574275
5420.452620,3701.029710,2834.553343,9696.697840
5420.452943,3034.844362,2451.505594,10288.862594
5420.453266,2886.803174,2298.286494,9178.553681
5420.453589,2960.823768,1378.971896,7476.080014
5420.453911,3330.926739,842.705048,8660.409521
5420.454234,2220.617826,842.705048,8882.471304
5420.454557,962.267725,76.609550,9622.677246
5420.454880,814.226536,0.000000,8660.409521
5420.455202,0.000000,153.219100,9252.574275
5420.455525,-888.247130,306.438199,10214.842000
5420.455848,-1628.453072,0.000000,11251.130318
5420.456171,-2738.761985,0.000000,10140.821405
5420.456493,-1480.411884,-153.219100,8882.471304
5420.456816,-518.144159,-536.266849,9104.533087
5420.457139,-888.247130,-689.485948,9178.553681
5420.457464,-2072.576638,-383.047749,9252.574275
5420.457786,-1332.370696,-995.924147,8956.491898
5420.458109,-666.185348,-1302.362347,9178.553681
5420.458432,-666.185348,-1302.362347,8290.306550
5420.458755,0.000000,-689.485948,8882.471304
5420.459078,444.123565,0.000000,9548.656652
5420.459401,-518.144159,76.609550,10881.027347
5420.459723,518.144159,-612.876398,11103.089130
5420.460046,1258.350101,995.924147,10362.883188
5420.460369,1554.432478,1762.019645,9326.594869
5420.460692,740.205942,1532.190996,10732.986159
5420.461015,148.041188,459.657299,9992.780217
5420.461337,1702.473667,919.314598,9474.636058
5420.461660,2368.659014,1608.800546,6735.874072
5420.461983,1258.350101,1608.800546,8216.285956
5420.462306,0.000000,919.314598,9326.594869
5420.462629,-370.102971,1149.143247,9548.656652
5420.462951,370.102971,1685.410096,8290.306550
5420.463274,518.144159,1302.362347,8216.285956
5420.463597,-1332.370696,689.485948,8882.471304
5420.463920,-2368.659014,306.438199,10732.986159
5420.464243,-1036.288319,306.438199,9770.718434
5420.464565,-2368.659014,1378.971896,9696.697840
5420.464888,-3627.009116,842.705048,9918.759623
5420.465211,-2738.761985,0.000000,10510.924376
5420.465534,-2072.576638,459.657299,8364.327145
5420.465857,-1628.453072,1149.143247,8216.285956
5420.466180,-2664.741391,995.924147,8882.471304
5420.466502,-2442.679609,76.609550,9326.594869
5420.466825,-1406.391290,689.485948,9030.512492
5420.467148,0.000000,1762.019645,8142.265362
5420.467471,-740.205942,1532.190996,8808.450710
5420.467794,-888.247130,919.314598,9400.615463
5420.468116,370.102971,1072.533697,10066.800811
5420.468439,1554.432478,1225.752797,8216.285956
5420.468762,1110.308913,1302.362347,8882.471304
5420.469085,-222.061783,995.924147,10584.944971
5420.469408,1628.453072,1455.581446,8808.450710
5420.469730,1776.494261,995.924147,8734.430116
5420.470053,2664.741391,1149.143247,6217.729913
5420.470376,1184.329507,459.657299,9474.636058
5420.470699,1628.453072,1302.362347,8882.471304
5420.471022,1554.432478,842.705048,9992.780217
5420.471344,1776.494261,766.095498,8438.347739
5420.471667,0.000000,76.609550,10732.986159
5420.471990,0.000000,-459.657299,10362.883188
5420.472313,-148.041188,-766.095498,10955.047942
5420.472636,-740.205942,-536.266849,10288.862594
5420.472959,-1184.329507,-612.876398,9992.780217
5420.473281,-1480.411884,-1608.800546,10584.944971
5420.473604,-1480.411884,-2068.457845,10436.903782
5420.473927,-1036.288319,-1225.752797,8956.491898
5420.474250,-2442.679609,-2068.457845,8882.471304
5420.474573,-1110.308913,-1991.848295,9326.594869
5420.474895,-1184.329507,-1762.019645,9844.739029
5420.475218,-592.164754,-229.828649,9992.780217
5420.475541,-148.041188,76.609550,9770.718434
5420.475864,518.144159,-76.609550,9400.615463
5420.476187,1998.556043,0.000000,10140.821405
5420.476509,2960.823768,1455.581446,10436.903782
5420.476832,2738.761985,1225.752797,9992.780217
5420.477155,1184.329507,612.876398,9992.780217
5420.477478,1258.350101,536.266849,10066.800811
5420.477801,2738.761985,1225.752797,9696.697840
5420.478123,1776.494261,1838.629195,8956.491898
5420.478446,1480.411884,1532.190996,8512.368333
5420.478769,592.164754,1532.190996,9474.636058
5420.479092,1850.514855,1685.410096,7476.080014
5420.479415,444.123565,2068.457845,8068.244768
5420.479737,-1628.453072,2298.286494,7328.038826
5420.480060,-3182.885551,1455.581446,8660.409521
5420.480383,-3330.926739,995.924147,7476.080014
5420.480706,-1258.350101,1915.238745,8142.265362
5420.481029,-2294.638420,1225.752797,6809.894666
5420.481352,-3552.988522,612.876398,9474.636058
5420.481674,-3997.112087,1072.533697,9992.780217
5420.481997,-2442.679609,766.095498,8586.388927
5420.482320,-1776.494261,995.924147,8068.244768
5420.482643,-1924.535449,842.705048,8956.491898
5420.482966,-2516.700203,383.047749,10584.944971
5420.483288,0.000000,919.314598,10214.842000
5420.483611,444.123565,2374.896044,8808.450710
5420.483934,1110.308913,1608.800546,8882.471304
5420.484257,222.061783,1838.629195,10066.800811
5420.484580,518.144159,2451.505594,11473.192101
5420.484902,1184.329507,2298.286494,10658.965565
5420.485225,518.144159,1149.143247,10584.944971
5420.485548,1184.329507,1302.362347,9622.677246
5420.485871,296.082377,766.095498,9918.759623
5420.486194,666.185348,1302.362347,8586.388927
5420.486516,0.000000,766.095498,8660.409521
5420.486839,0.000000,153.219100,7846.182985
5420.487162,666.185348,0.000000,8364.327145
5420.487485,740.205942,459.657299,8216.285956
5420.487808,962.267725,-153.219100,8512.368333
5420.488131,-444.123565,-306.438199,8068.244768
5420.488453,148.041188,-306.438199,9696.697840
5420.488776,740.205942,-229.828649,9992.780217
5420.489099,814.226536,0.000000,9548.656652
5420.489422,1332.370696,-536.266849,9548.656652
5420.489745,296.082377,-306.438199,10584.944971
5420.490067,444.123565,-689.485948,10807.006753
5420.490390,888.247130,-1225.752797,9770.718434
5420.490713,-148.041188,-1532.190996,9030.512492
5420.491036,-1184.329507,-1685.410096,9918.759623
5420.491359,-1480.411884,-1915.238745,10362.883188
5420.491681,-888.247130,-1302.362347,9178.553681
5420.492004,-222.061783,-919.314598,8808.450710
5420.492327,-1184.329507,-842.705048,8956.491898
5420.492650,-592.164754,-459.657299,10214.842000
5420.492973,-592.164754,-306.438199,10140.821405
5420.493295,-296.082377,383.047749,9400.615463
5420.493618,148.041188,383.047749,9400.615463
5420.493941,814.226536,919.314598,9770.718434
5420.494264,2442.679609,1225.752797,9252.574275
5420.494587,2812.782580,2451.505594,9178.553681
5420.494910,1998.556043,1915.238745,8734.430116
5420.495232,1406.391290,1532.190996,9474.636058
5420.495555,666.185348,1302.362347,10066.800811
5420.495878,370.102971,1149.143247,9326.594869
5420.496201,444.123565,1149.143247,8290.306550
5420.496524,-962.267725,1225.752797,8882.471304
5420.496846,-1110.308913,689.485948,10584.944971
5420.497169,-1628.453072,1378.971896,9918.759623
5420.497492,-1924.535449,1762.019645,9178.553681
5420.497815,-2146.597232,1685.410096,8882.471304
5420.498138,-2960.823768,1378.971896,9622.677246
5420.498460,-2812.782580,1302.362347,8586.388927
5420.498783,-2516.700203,766.095498,7698.141797
5420.499106,-3256.906145,1072.533697,7550.100608
5420.499429,-3034.844362,1302.362347,8660.409521
5420.499752,-3034.844362,612.876398,9104.533087
5420.500074,-1998.556043,1378.971896,8586.388927
5420.500397,-1480.411884,1532.190996,7698.141797
5420.500720,-1110.308913,612.876398,8882.471304
5420.501043,-962.267725,1225.752797,9844.739029
5420.501366,0.000000,1455.581446,9770.718434
5420.501689,962.267725,1149.143247,8956.491898
5420.502011,1184.329507,1762.019645,9622.677246
5420.502334,1924.535449,1608.800546,9326.594869
5420.502657,2812.782580,1532.190996,9474.636058
5420.502980,2368.659014,2145.067394,8808.450710
5420.503303,2590.720797,2528.115143,9770.718434
5420.503625,2146.597232,1072.533697,9992.780217
5420.503948,2516.700203,1149.143247,7772.162391
5420.504271,1776.494261,612.876398,7698.141797
5420.504594,1850.514855,612.876398,8068.244768
5420.504917,-444.123565,-306.438199,10288.862594
5420.505239,1036.288319,-459.657299,7624.121203
5420.505562,518.144159,0.000000,10140.821405
5420.505885,-148.041188,-306.438199,8438.347739
5420.506208,-1850.514855,-1378.971896,12361.439231
5420.506531,-296.082377,-1838.629195,10214.842000
5420.506853,0.000000,-1532.190996,11547.212695
5420.507176,592.164754,-1532.190996,9030.512492
5420.507499,-1332.370696,-2374.896044,11695.253884
5420.507822,-370.102971,-1532.190996,10436.903782
5420.508145,1554.432478,-689.485948,10288.862594
5420.508468,0.000000,229.828649,8586.388927
5420.508790,518.144159,0.000000,9400.615463
5420.509113,-592.164754,-383.047749,10807.006753
5420.509436,1258.350101,0.000000,9178.553681
5420.509759,2146.597232,919.314598,9252.574275
5420.510082,-592.164754,995.924147,8512.368333
5420.510404,-888.247130,0.000000,11769.274478
5420.510727,-666.185348,-306.438199,9104.533087
5420.511050,-814.226536,153.219100,8586.388927
5420.511373,-666.185348,0.000000,7105.977043
5420.511696,-2072.576638,-766.095498,10140.821405
5420.512018,-2146.597232,-459.657299,9400.615463
5420.512341,-962.267725,612.876398,8882.471304
5420.512664,-518.144159,919.314598,7402.059420
5420.512987,-814.226536,766.095498,9770.718434
5420.513310,-1110.308913,1378.971896,9770.718434
5420.513632,296.082377,2451.505594,9326.594869
5420.513955,962.267725,3064.381992,9400.615463
5420.514278,-222.061783,1838.629195,9104.533087
5420.514601,-666.185348,1455.581446,10214.842000
5420.514924,-1184.329507,2298.286494,9474.636058
5420.515247,-1258.350101,2374.896044,9326.594869
5420.515569,-1332.370696,1072.533697,8068.244768
5420.515892,-2442.679609,459.657299,9104.533087
5420.516215,-1702.473667,383.047749,8438.347739
5420.516538,-1702.473667,1302.362347,9178.553681
5420.516861,-2738.761985,919.314598,8216.285956
5420.517183,-2664.741391,1149.143247,9474.636058
5420.517506,-2146.597232,1762.019645,8660.409521
5420.517829,-592.164754,2451.505594,9178.553681
5420.518152,-1110.308913,2451.505594,8956.491898
5420.518475,-296.082377,2374.896044,9474.636058
5420.518797,1406.391290,2374.896044,9178.553681
5420.519120,1776.494261,2681.334243,8364.327145
5420.519443,1554.432478,2911.162892,8068.244768
5420.519766,1850.514855,1378.971896,7772.162391
5420.520089,1924.535449,919.314598,7772.162391
5420.520411,2590.720797,1149.143247,8142.265362
5420.520734,2072.576638,1302.362347,8734.430116
5420.521057,1628.453072,1072.533697,9548.656652
5420.521380,1850.514855,612.876398,10807.006753
5420.521703,2886.803174,1072.533697,10066.800811
5420.522026,2220.617826,1149.143247,10214.842000
5420.522348,296.082377,689.485948,9770.718434
5420.522671,0.000000,-689.485948,10955.047942
5420.522994,444.123565,-536.266849,9474.636058
5420.523317,740.205942,-229.828649,8882.471304
5420.523640,0.000000,-766.095498,7624.121203
5420.523962,-1332.370696,-1762.019645,9622.677246
5420.524285,-1184.329507,-1608.800546,9030.512492
5420.524608,-222.061783,-2374.896044,9104.533087
5420.524931,-1184.329507,-1225.752797,8808.450710
5420.525254,-1480.411884,-2221.676944,10584.944971
5420.525576,-962.267725,-1608.800546,10658.965565
5420.525899,0.000000,-459.657299,11547.212695
5420.526222,74.020594,0.000000,10881.027347
5420.526545,-370.102971,153.219100,11103.089130
5420.526868,74.020594,0.000000,11251.130318
5420.527190,444.123565,306.438199,10584.944971
5420.527513,1776.494261,-459.657299,8882.471304
5420.527836,1184.329507,-229.828649,8364.327145
5420.528159,-222.061783,-153.219100,9474.636058
5420.528482,-518.144159,0.000000,9252.574275
5420.528805,222.061783,459.657299,9030.512492
5420.529127,-444.123565,995.924147,7772.162391
5420.529450,-740.205942,612.876398,7920.203579
5420.529773,-1406.391290,612.876398,8956.491898
5420.530096,-1628.453072,1685.410096,9474.636058
5420.530419,-1776.494261,1302.362347,9104.533087
5420.530741,-2812.782580,842.705048,9104.533087
5420.531064,-2812.782580,1149.143247,9696.697840
5420.531387,-1924.535449,919.314598,8142.265362
5420.531710,-1776.494261,1302.362347,8364.327145
5420.532033,-1924.535449,1685.410096,7994.224174
5420.532355,-2738.761985,766.095498,9474.636058
5420.532678,-1776.494261,536.266849,8808.450710
5420.533001,-1850.514855,1455.581446,8290.306550
5420.533324,-1998.556043,1302.362347,8364.327145
5420.533647,-2294.638420,1225.752797,8586.388927
5420.533969,-1036.288319,1762.019645,9918.759623
5420.534292,-518.144159,2374.896044,8512.368333
5420.534615,444.123565,2451.505594,9622.677246
5420.534938,0.000000,2528.115143,9548.656652
5420.535261,666.185348,2221.676944,9844.739029
5420.535584,1332.370696,1915.238745,8734.430116
5420.535906,148.041188,1302.362347,8068.244768
5420.536229,518.144159,1225.752797,7920.203579
5420.536552,592.164754,842.705048,10066.800811
5420.536875,370.102971,536.266849,8808.450710
5420.537198,1924.535449,0.000000,8586.388927
5420.537520,1850.514855,536.266849,8216.285956
5420.537843,2368.659014,1072.533697,10362.883188
5420.538166,2516.700203,995.924147,10955.047942
5420.538489,2960.823768,995.924147,10066.800811
5420.538812,3108.864956,1302.362347,9474.636058
5420.539134,2886.803174,919.314598,10955.047942
5420.539457,2294.638420,919.314598,11621.233289
5420.539780,2146.597232,0.000000,9770.718434
5420.540103,1258.350101,-766.095498,9104.533087
5420.540426,-370.102971,-1608.800546,9474.636058
5420.540748,-1332.370696,-2298.286494,8734.430116
5420.541071,-2738.761985,-1532.190996,9252.574275
5420.541394,-1406.391290,-1072.533697,7846.182985
5420.541717,-2590.720797,-2451.505594,8586.388927
5420.542040,-2886.803174,-2298.286494,9696.697840
5420.542362,-1628.453072,-1225.752797,9770.718434
5420.542685,-1554.432478,-612.876398,9696.697840
5420.543008,-740.205942,383.047749,9622.677246
5420.543331,-518.144159,-689.485948,10881.027347
5420.543654,518.144159,-766.095498,9548.656652
5420.543977,1258.350101,1302.362347,9770.718434
5420.544299,814.226536,1149.143247,8290.306550
5420.544622,1554.432478,612.876398,9400.615463
5420.544945,1480.411884,766.095498,8882.471304
5420.545268,2220.617826,1838.629195,9622.677246
5420.545591,1406.391290,1838.629195,8512.368333
5420.545913,-148.041188,1532.190996,9770.718434
5420.546236,-444.123565,1072.533697,9030.512492
5420.546559,148.041188,919.314598,9178.553681
5420.546882,-1480.411884,1762.019645,9252.574275
5420.547205,-1998.556043,1685.410096,9548.656652
5420.547527,-2738.761985,766.095498,9770.718434
5420.547850,-1776.494261,1915.238745,8882.471304
5420.548173,-2442.679609,1762.019645,8660.409521
5420.548496,-3182.885551,1838.629195,8216.285956
5420.548819,-4589.276840,0.000000,9326.594869
5420.549141,-3552.988522,0.000000,7994.224174
5420.549464,-3182.885551,459.657299,8216.285956
5420.549787,-3256.906145,919.314598,7624.121203
5420.550110,-3330.926739,229.828649,9474.636058
5420.550433,-2664.741391,1072.533697,8512.368333
5420.550756,222.061783,1225.752797,8068.244768
5420.551078,222.061783,1838.629195,7772.162391
5420.551401,-518.144159,1455.581446,10510.924376
5420.551724,370.102971,995.924147,10510.924376
5420.552047,1702.473667,919.314598,10066.800811
5420.552370,2738.761985,1608.800546,8364.327145
5420.552692,1776.494261,689.485948,9030.512492
5420.553015,1554.432478,1302.362347,11325.150913
5420.553338,2072.576638,995.924147,9326.594869
5420.553661,3627.009116,1225.752797,8142.265362
5420.553984,3404.947333,919.314598,7698.141797
5420.554306,2590.720797,919.314598,9992.780217
5420.554629,2960.823768,536.266849,9770.718434
5420.554952,3034.844362,1149.143247,9400.615463
5420.555275,2220.617826,689.485948,9474.636058
5420.555598,518.144159,0.000000,11029.068536
5420.555920,518.144159,0.000000,11399.171507
5420.556243,1332.370696,76.609550,9474.636058
5420.556566,1184.329507,0.000000,9030.512492
5420.556889,-1554.432478,-1149.143247,9844.739029
5420.557212,-2146.597232,-1532.190996,9844.739029
5420.557534,-2442.679609,-1915.238745,8512.368333
5420.557857,-2664.741391,-1608.800546,7920.203579
5420.558180,-4219.173869,-1762.019645,9326.594869
5420.558503,-3256.906145,-1685.410096,9400.615463
5420.558826,-2146.597232,-689.485948,9252.574275
5420.559148,-1332.370696,383.047749,9104.533087
5420.559471,-1332.370696,536.266849,9030.512492
5420.559794,-1184.329507,0.000000,10288.862594
5420.560117,222.061783,1149.143247,9474.636058
5420.560439,1924.535449,1838.629195,8882.471304
5420.560762,1258.350101,1455.581446,8882.471304
5420.561085,1258.350101,1532.190996,9474.636058
5420.561408,1776.494261,1149.143247,9178.553681
5420.561730,2442.679609,1762.019645,8142.265362
5420.562053,1628.453072,1072.533697,8364.327145
5420.562376,-296.082377,919.314598,9548.656652
5420.562699,-666.185348,766.095498,9326.594869
5420.563021,-148.041188,1149.143247,9622.677246
5420.563344,-666.185348,1302.362347,9178.553681
5420.563667,-1924.535449,1149.143247,10436.903782
5420.563990,-1554.432478,1072.533697,10214.842000
5420.564313,-296.082377,2145.067394,9844.739029
5420.564635,-1406.391290,1838.629195,8956.491898
5420.564958,-2886.803174,612.876398,8882.471304
5420.565281,-4589.276840,0.000000,9030.512492
5420.565604,-2886.803174,0.000000,8364.327145
5420.565926,-2960.823768,383.047749,8882.471304
5420.566249,-3108.864956,919.314598,7994.224174
5420.566572,-3627.009116,-306.438199,9326.594869
5420.566895,-2294.638420,-919.314598,9030.512492
5420.567217,-1258.350101,1225.752797,8808.450710
5420.567540,-962.267725,919.314598,7994.224174
5420.567863,-222.061783,612.876398,9030.512492
5420.568186,1332.370696,919.314598,9474.636058
5420.568508,3404.947333,2911.162892,9030.512492
5420.568831,4293.194464,2757.943793,8290.306550
5420.569154,4441.235652,1915.238745,9252.574275
5420.569477,5181.441594,1838.629195,9622.677246
5420.569799,5033.400406,1685.410096,10288.862594
5420.570122,4811.338623,1838.629195,8956.491898
5420.570445,3256.906145,919.314598,10510.924376
5420.570768,1406.391290,612.876398,9104.533087
5420.571091,1184.329507,0.000000,9474.636058
5420.571413,888.247130,689.485948,8512.368333
5420.571736,-592.164754,-536.266849,9252.574275
5420.572059,-1332.370696,-1149.143247,9992.780217
5420.572382,-1776.494261,-1455.581446,10658.965565
5420.572704,-1628.453072,-1225.752797,9474.636058
5420.573027,-2960.823768,-1838.629195,9400.615463
5420.573350,-2442.679609,-1685.410096,9400.615463
5420.573673,-2442.679609,-1302.362347,9474.636058
5420.573995,-2886.803174,-689.485948,9474.636058
5420.574318,-1480.411884,-1378.971896,8956.491898
5420.574641,-2146.597232,-842.705048,9030.512492
5420.574964,-2368.659014,-383.047749,10140.821405
5420.575286,-962.267725,-229.828649,10066.800811
5420.575609,-1258.350101,-153.219100,9770.718434
5420.575932,-444.123565,766.095498,9992.780217
5420.576255,-222.061783,306.438199,10214.842000
5420.576577,592.164754,766.095498,10510.924376
5420.576900,1702.473667,1378.971896,9474.636058
5420.577223,1406.391290,766.095498,9104.533087
5420.577546,1554.432478,1072.533697,9770.718434
5420.577869,962.267725,1072.533697,9622.677246
5420.578191,814.226536,1302.362347,9400.615463
5420.578514,518.144159,1838.629195,8438.347739
5420.578837,-666.185348,459.657299,7994.224174
5420.579160,-814.226536,306.438199,7624.121203
5420.579482,-962.267725,1455.581446,8660.409521
5420.579805,-814.226536,1991.848295,8216.285956
5420.580128,-1258.350101,1455.581446,9252.574275
5420.580451,-666.185348,1608.800546,9400.615463
5420.580773,-370.102971,1991.848295,8660.409521
5420.581096,74.020594,1838.629195,8512.368333
5420.581419,-1184.329507,1838.629195,9326.594869
5420.581742,-1184.329507,1302.362347,9844.739029
5420.582064,-1184.329507,612.876398,10214.842000
5420.582387,-1258.350101,1378.971896,9178.553681
5420.582710,-1406.391290,536.266849,8660.409521
5420.583033,-2220.617826,919.314598,9474.636058
5420.583356,-1850.514855,536.266849,9844.739029
5420.583678,-1406.391290,919.314598,9548.656652
5420.584001,-1184.329507,1532.190996,8660.409521
5420.584324,-296.082377,1991.848295,9252.574275
5420.584647,518.144159,2298.286494,9622.677246
5420.584969,1480.411884,2451.505594,8956.491898
5420.585292,2664.741391,3064.381992,7994.224174
5420.585615,1850.514855,2604.724693,8512.368333
5420.585938,1776.494261,1608.800546,9696.697840
5420.586260,1110.308913,1225.752797,10288.862594
5420.586583,1702.473667,1378.971896,8438.347739
5420.586906,2960.823768,1072.533697,7920.203579
5420.587229,1036.288319,689.485948,8882.471304
5420.587551,1406.391290,612.876398,9770.718434
5420.587874,1998.556043,306.438199,8660.409521
5420.588197,1480.411884,842.705048,7772.162391
5420.588520,1332.370696,306.438199,9474.636058
5420.588842,888.247130,0.000000,9918.759623
5420.589165,1406.391290,229.828649,9548.656652
5420.589488,740.205942,842.705048,8660.409521
5420.589811,-296.082377,-383.047749,9844.739029
5420.590134,-814.226536,-995.924147,11029.068536
5420.590456,-1850.514855,-1072.533697,10807.006753
5420.590779,-2368.659014,-1532.190996,9400.615463
5420.591102,-3256.906145,-1991.848295,9992.780217
5420.591425,-3775.050304,-2834.553343,9844.739029
5420.591747,-3627.009116,-2604.724693,10288.862594
5420.592070,-3478.967927,-1915.238745,9030.512492
5420.592393,-2738.761985,-612.876398,9918.759623
5420.592716,-2146.597232,-1302.362347,9474.636058
5420.593038,-666.185348,-919.314598,10288.862594
5420.593361,1110.308913,766.095498,8586.388927
5420.593684,444.123565,1838.629195,9918.759623
5420.594007,1036.288319,612.876398,9548.656652
5420.594329,1258.350101,0.000000,9844.739029
5420.594652,2368.659014,1302.362347,7994.224174
5420.594975,2368.659014,1685.410096,9030.512492
5420.595298,518.144159,1762.019645,9696.697840
5420.595620,74.020594,766.095498,10140.821405
5420.595943,2590.720797,1149.143247,7772.162391
5420.596266,1924.535449,2604.724693,7328.038826
5420.596589,962.267725,2987.772442,9474.636058
5420.596912,-1702.473667,1455.581446,10066.800811
5420.597234,-296.082377,1378.971896,9474.636058
5420.597557,-888.247130,1225.752797,8438.347739
5420.597880,-2072.576638,1378.971896,7179.997637
5420.598203,-3997.112087,229.828649,11177.109724
5420.598525,-3478.967927,612.876398,9030.512492
5420.598848,-2738.761985,76.609550,8734.430116
5420.599171,-1480.411884,612.876398,6291.750507
5420.599494,-3330.926739,-306.438199,9474.636058
5420.599816,-2368.659014,0.000000,9474.636058
5420.600139,-1184.329507,459.657299,9770.718434
5420.600462,-888.247130,1762.019645,8364.327145
5420.600785,-814.226536,2298.286494,9622.677246
5420.601107,296.082377,2374.896044,11325.150913
5420.601430,2072.576638,2757.943793,10066.800811
5420.601753,3552.988522,2604.724693,8660.409521
5420.602076,2072.576638,1149.143247,9178.553681
5420.602399,1628.453072,1149.143247,10362.883188
5420.602721,1628.453072,1149.143247,10214.842000
5420.603044,2368.659014,2374.896044,8660.409521
5420.603367,2368.659014,1532.190996,8068.244768
5420.603690,1776.494261,1455.581446,7772.162391
5420.604012,2812.782580,1072.533697,7624.121203
5420.604335,3034.844362,1838.629195,7698.141797
5420.604658,1480.411884,1302.362347,7254.018232
5420.604981,-222.061783,383.047749,10288.862594
5420.605303,-370.102971,383.047749,8956.491898
5420.605626,1480.411884,612.876398,9104.533087
5420.605949,0.000000,153.219100,7105.977043
5420.606272,-962.267725,-383.047749,9992.780217
5420.606594,-1258.350101,-1455.581446,10140.821405
5420.606917,-1628.453072,-995.924147,9844.739029
5420.607240,-2072.576638,-1608.800546,9252.574275
5420.607563,-2960.823768,-2298.286494,9474.636058
5420.607885,-3627.009116,-1991.848295,10658.965565
5420.608208,-2886.803174,-1149.143247,11029.068536
5420.608531,-1702.473667,-766.095498,10362.883188
5420.608854,-814.226536,-919.314598,10214.842000
5420.609177,0.000000,-842.705048,11029.068536
5420.609499,592.164754,153.219100,11621.233289
5420.609822,1702.473667,689.485948,10436.903782
5420.610145,74.020594,612.876398,10066.800811
5420.610468,1184.329507,229.828649,9400.615463
5420.610790,1702.473667,-842.705048,8882.471304
5420.611113,2072.576638,919.314598,8216.285956
5420.611436,1406.391290,1302.362347,9178.553681
5420.611759,370.102971,536.266849,9400.615463
5420.612081,0.000000,153.219100,9548.656652
5420.612404,-444.123565,766.095498,8734.430116
5420.612727,-1850.514855,229.828649,8586.388927
5420.613050,-2146.597232,766.095498,8216.285956
5420.613372,-1332.370696,995.924147,9474.636058
5420.613695,0.000000,1762.019645,8142.265362
5420.614018,-296.082377,2298.286494,7846.182985
5420.614341,-1332.370696,1532.190996,8068.244768
5420.614663,-1850.514855,536.266849,8364.327145
5420.614986,-1554.432478,1455.581446,9252.574275
5420.615309,-814.226536,1762.019645,7402.059420
5420.615632,-1776.494261,919.314598,10214.842000
5420.615955,-2442.679609,689.485948,8586.388927
5420.616277,-3108.864956,383.047749,10362.883188
5420.616600,-1776.494261,1072.533697,8586.388927
5420.616923,-1406.391290,1455.581446,9474.636058
5420.617246,-1850.514855,1149.143247,9770.718434
5420.617568,-1110.308913,1685.410096,10362.883188
5420.617891,888.247130,2221.676944,9252.574275
5420.618214,1184.329507,2298.286494,8808.450710
5420.618537,444.123565,2068.457845,8216.285956
5420.618859,444.123565,1455.581446,9548.656652
5420.619182,1036.288319,1915.238745,8808.450710
5420.619505,2590.720797,2374.896044,8512.368333
5420.619828,2442.679609,2145.067394,8216.285956
5420.620150,1184.329507,1532.190996,9400.615463
5420.620473,1628.453072,1685.410096,9992.780217
5420.620796,1924.535449,995.924147,8512.368333
5420.621119,1776.494261,689.485948,8956.491898
5420.621442,1554.432478,459.657299,8586.388927
5420.621764,1110.308913,306.438199,11473.192101
5420.622087,1998.556043,1149.143247,8586.388927
5420.622410,1776.494261,0.000000,9696.697840
5420.622733,1406.391290,0.000000,8956.491898
5420.623055,296.082377,-842.705048,10807.006753
5420.623378,-1258.350101,-1608.800546,9918.759623
5420.623701,-1998.556043,-1378.971896,10140.821405
5420.624024,-2146.597232,-1915.238745,9696.697840
5420.624346,-3256.906145,-2604.724693,10288.862594
5420.624669,-2738.761985,-2374.896044,9770.718434
5420.624992,-1998.556043,-2068.457845,9252.574275
5420.625315,-1036.288319,-995.924147,8290.306550
5420.625637,-888.247130,-689.485948,10584.944971
5420.625960,-1110.308913,0.000000,10955.047942
5420.626283,0.000000,-612.876398,10214.842000
5420.626606,1554.432478,153.219100,8586.388927
5420.626928,1628.453072,919.314598,9992.780217
5420.627251,1776.494261,383.047749,9178.553681
5420.627574,2294.638420,306.438199,8956.491898
5420.627897,2072.576638,842.705048,8068.244768
5420.628220,592.164754,612.876398,9844.739029
5420.628542,444.123565,229.828649,9178.553681
5420.628865,296.082377,229.828649,9622.677246
5420.629188,1332.370696,306.438199,7920.203579
5420.629511,444.123565,1991.848295,8734.430116
5420.629833,148.041188,1532.190996,10510.924376
5420.630156,-296.082377,2221.676944,10732.986159
5420.630479,-666.185348,1685.410096,9918.759623
5420.630802,-1258.350101,1378.971896,8660.409521
5420.631124,-2516.700203,1072.533697,9178.553681
5420.631447,-2960.823768,1072.533697,8956.491898
5420.631770,-3034.844362,842.705048,7698.141797
5420.632093,-3256.906145,153.219100,7476.080014
5420.632415,-4441.235652,76.609550,7920.203579
5420.632738,-5033.400406,76.609550,8364.327145
5420.633061,-3552.988522,459.657299,8512.368333
5420.633384,-2738.761985,1455.581446,8068.244768
5420.633707,-1480.411884,1762.019645,8734.430116
5420.634029,-518.144159,1225.752797,9252.574275
5420.634352,962.267725,1608.800546,10436.903782
5420.634675,1924.535449,3064.381992,8586.388927
5420.634998,1480.411884,2298.286494,10510.924376
5420.635320,1998.556043,2145.067394,9474.636058
5420.635643,2960.823768,1302.362347,10066.800811
5420.635966,4293.194464,1991.848295,7772.162391
5420.636289,3923.091493,2145.067394,8216.285956
5420.636611,1702.473667,459.657299,9326.594869
5420.636934,1036.288319,-229.828649,9918.759623
5420.637257,1776.494261,0.000000,8512.368333
5420.637580,1850.514855,383.047749,7402.059420
5420.637902,518.144159,229.828649,10140.821405
5420.638225,222.061783,-842.705048,10807.006753
5420.638548,518.144159,-306.438199,9548.656652
5420.638871,-148.041188,153.219100,9104.533087
5420.639193,-1184.329507,-536.266849,9104.533087
5420.639516,-2738.761985,-1915.238745,11325.150913
5420.639839,-2368.659014,-1991.848295,9918.759623
5420.640162,-1036.288319,-1685.410096,9030.512492
5420.640485,-444.123565,-1532.190996,9474.636058
5420.640807,-1332.370696,-1685.410096,11843.295072
5420.641130,0.000000,-1072.533697,10807.006753
5420.641453,0.000000,-306.438199,10066.800811
5420.641776,370.102971,459.657299,9622.677246
5420.642098,518.144159,612.876398,11621.233289
5420.642421,888.247130,536.266849,11621.233289
5420.642744,2960.823768,1302.362347,10066.800811
5420.643067,1850.514855,1532.190996,9104.533087
5420.643389,222.061783,1608.800546,9474.636058
5420.643712,1036.288319,995.924147,9622.677246
5420.644035,222.061783,2068.457845,8068.244768
5420.644358,740.205942,2068.457845,7550.100608
5420.644680,-666.185348,1762.019645,7105.977043
5420.645003,-1184.329507,1225.752797,7328.038826
5420.645326,222.061783,1532.190996,5255.462188
5420.645649,-592.164754,1762.019645,6661.853478
5420.645971,-1628.453072,2221.676944,6957.935855
5420.646294,-2590.720797,1991.848295,8660.409521
5420.646617,-1850.514855,2757.943793,9918.759623
5420.646940,148.041188,3294.210641,8438.347739
5420.647263,-1924.535449,1838.629195,9474.636058
5420.647585,-2590.720797,1455.581446,8808.450710
5420.647908,-2294.638420,0.000000,9844.739029
5420.648231,-1480.411884,1302.362347,9030.512492
5420.648554,-1850.514855,1455.581446,10362.883188
5420.648876,-3034.844362,383.047749,8808.450710
5420.649199,-1850.514855,0.000000,9104.533087
5420.649522,-370.102971,1225.752797,8438.347739
5420.649845,-592.164754,1685.410096,8734.430116
5420.650167,-814.226536,1149.143247,10584.944971
5420.650490,0.000000,1302.362347,10955.047942
5420.650813,814.226536,1302.362347,11103.089130
5420.651136,592.164754,1762.019645,9030.512492
5420.651458,296.082377,919.314598,10436.903782
5420.651781,1480.411884,383.047749,9696.697840
5420.652104,814.226536,612.876398,10288.862594
5420.652427,1776.494261,766.095498,7920.203579
5420.652750,962.267725,0.000000,9178.553681
5420.653072,-222.061783,-919.314598,7846.182985
5420.653395,0.000000,-1455.581446,8586.388927
5420.653718,1110.308913,-919.314598,8364.327145
5420.654041,740.205942,-536.266849,9474.636058
5420.654363,592.164754,-766.095498,9992.780217
5420.654686,1850.514855,0.000000,10584.944971
5420.655009,2294.638420,0.000000,10362.883188
5420.655332,1110.308913,-229.828649,8956.491898
5420.655654,1036.288319,-919.314598,9770.718434
5420.655977,370.102971,-1608.800546,10288.862594
5420.656300,1480.411884,-1149.143247,9918.759623
5420.656623,740.205942,-459.657299,9030.512492
5420.656945,-666.185348,-919.314598,10140.821405
5420.657268,-962.267725,-1302.362347,10214.842000
5420.657591,-592.164754,-1608.800546,10066.800811
5420.657914,-1184.329507,-842.705048,9252.574275
5420.658236,-1924.535449,-1608.800546,9770.718434
5420.658559,-1776.494261,-1378.971896,10955.047942
5420.658882,-888.247130,-459.657299,10955.047942
5420.659205,-592.164754,536.266849,9992.780217
5420.659527,0.000000,919.314598,9326.594869
5420.659850,-296.082377,689.485948,9326.594869
5420.660173,1184.329507,1302.362347,8882.471304
5420.660495,1258.350101,1302.362347,8438.347739
5420.660818,1480.411884,1838.629195,8068.244768
5420.661141,0.000000,2298.286494,8290.306550
5420.661464,-740.205942,1838.629195,8660.409521
5420.661786,592.164754,1838.629195,8068.244768
5420.662109,592.164754,2528.115143,7920.203579
5420.662432,740.205942,3064.381992,8512.368333
5420.662755,148.041188,2528.115143,10362.883188
5420.663077,0.000000,2834.553343,10732.986159
5420.663400,370.102971,3140.991542,9918.759623
5420.663723,-888.247130,2221.676944,8586.388927
5420.664045,-1850.514855,1685.410096,9548.656652
5420.664368,-1924.535449,1532.190996,9030.512492
5420.664691,-2368.659014,1532.190996,9252.574275
5420.665014,-1702.473667,1991.848295,8660.409521
5420.665336,-2960.823768,1225.752797,8512.368333
5420.665659,-3182.885551,1149.143247,9104.533087
5420.665982,-3034.844362,1532.190996,8882.471304
5420.666305,-3034.844362,1532.190996,8734.430116
5420.666627,-1702.473667,1225.752797,7772.162391
5420.666950,-962.267725,459.657299,9622.677246
5420.667273,-222.061783,1072.533697,9030.512492
5420.667596,666.185348,1915.238745,8808.450710
5420.667918,74.020594,1455.581446,8956.491898
5420.668241,888.247130,1225.752797,10140.821405
5420.668564,1184.329507,459.657299,10066.800811
5420.668886,1850.514855,995.924147,8882.471304
5420.669209,2516.700203,1225.752797,8956.491898
5420.669532,962.267725,153.219100,8956.491898
5420.669855,1036.288319,0.000000,9400.615463
5420.670177,1480.411884,153.219100,8216.285956
5420.670500,1258.350101,459.657299,8142.265362
5420.670823,1258.350101,459.657299,8586.388927
5420.671146,1776.494261,-383.047749,9104.533087
5420.671468,2738.761985,-2221.676944,8364.327145
5420.671791,1628.453072,-1378.971896,8956.491898
5420.672114,444.123565,-995.924147,10066.800811
5420.672436,0.000000,-1302.362347,12287.418637
5420.672759,-740.205942,-1608.800546,11399.171507
5420.673082,592.164754,-2451.505594,9844.739029
5420.673405,-592.164754,-2528.115143,9252.574275
5420.673727,-1480.411884,-3064.381992,9252.574275
5420.674050,-1258.350101,-1762.019645,12435.459826
5420.674373,0.000000,-842.705048,10214.842000
5420.674696,-888.247130,-1991.848295,11917.315666
5420.675018,-1036.288319,-1608.800546,9696.697840
5420.675341,-1998.556043,-2374.896044,12583.501014
5420.675664,296.082377,-1225.752797,9252.574275
5420.675986,296.082377,-612.876398,10066.800811
5420.676309,888.247130,-612.876398,8956.491898
5420.676632,-592.164754,-919.314598,10658.965565
5420.676955,0.000000,229.828649,7846.182985
5420.677277,1110.308913,919.314598,7328.038826
5420.677600,592.164754,612.876398,6957.935855
5420.677923,518.144159,612.876398,8586.388927
5420.678246,222.061783,1532.190996,9400.615463
5420.678568,814.226536,2681.334243,9326.594869
5420.678891,1258.350101,2834.553343,9918.759623
5420.679214,-962.267725,2145.067394,9770.718434
5420.679536,-814.226536,1225.752797,9400.615463
5420.679859,0.000000,1455.581446,8808.450710
5420.680182,1480.411884,3217.601092,7624.121203
5420.680505,-1258.350101,3677.258390,11917.315666
5420.680827,-740.205942,2757.943793,8586.388927
5420.681150,-2072.576638,1225.752797,8734.430116
5420.681473,-1998.556043,1608.800546,5921.647536
5420.681796,-2960.823768,2298.286494,8660.409521
5420.682118,-3478.967927,1915.238745,10288.862594
5420.682441,-2590.720797,1762.019645,9474.636058
5420.682764,-2442.679609,2221.676944,8586.388927
5420.683087,-2886.803174,2298.286494,7550.100608
5420.683409,-3256.906145,2757.943793,9474.636058
5420.683732,-888.247130,2451.505594,8660.409521
5420.684055,1184.329507,3140.991542,7772.162391
5420.684377,1036.288319,2834.553343,7994.224174
5420.684700,444.123565,2528.115143,9252.574275
5420.685023,1258.350101,2451.505594,9474.636058
5420.685346,1480.411884,2604.724693,8142.265362
5420.685668,2220.617826,2451.505594,8142.265362
5420.685991,1998.556043,1302.362347,8808.450710
5420.686314,2072.576638,2068.457845,9474.636058
5420.686637,3552.988522,2604.724693,9252.574275
5420.686959,2590.720797,1685.410096,8068.244768
5420.687282,740.205942,919.314598,9400.615463
5420.687605,1850.514855,1225.752797,9326.594869
5420.687927,2368.659014,1455.581446,9770.718434
5420.688250,3330.926739,1225.752797,8364.327145
5420.688573,1184.329507,153.219100,8956.491898
5420.688896,-148.041188,-1762.019645,10288.862594
5420.689218,-1332.370696,-2068.457845,9400.615463
5420.689541,-1480.411884,-1762.019645,9918.759623
5420.689864,-2220.617826,-2298.286494,10584.944971
5420.690187,-3775.050304,-2528.115143,12065.356855
5420.690509,-2072.576638,-3524.039291,9992.780217
5420.690832,-1776.494261,-3370.820191,10288.862594
5420.691155,-1480.411884,-2145.067394,9178.553681
5420.691477,-1850.514855,-2451.505594,11251.130318
5420.691800,-1332.370696,-2681.334243,10955.047942
5420.692123,296.082377,-1149.143247,10436.903782
5420.692446,74.020594,-1608.800546,8808.450710
5420.692768,-444.123565,-2374.896044,10140.821405
5420.693091,370.102971,-1915.238745,9770.718434
5420.693414,444.123565,-2221.676944,9548.656652
5420.693737,888.247130,-842.705048,8586.388927
5420.694059,-1036.288319,-459.657299,11399.171507
5420.694382,-1036.288319,-1302.362347,9992.780217
5420.694705,0.000000,-1608.800546,9326.594869
5420.695027,592.164754,-842.705048,7031.956449
5420.695350,-888.247130,-995.924147,9252.574275
5420.695673,-814.226536,-612.876398,9770.718434
5420.695996,0.000000,-229.828649,10066.800811
5420.696318,-592.164754,76.609550,8512.368333
5420.696641,-2220.617826,-689.485948,7550.100608
5420.696964,-2294.638420,-306.438199,8734.430116
5420.697287,-1110.308913,0.000000,9770.718434
5420.697609,0.000000,459.657299,8734.430116
5420.697932,-1184.329507,-306.438199,8364.327145
5420.698255,-3034.844362,-1225.752797,8734.430116
5420.698578,-3997.112087,-689.485948,10436.903782
5420.698900,-3330.926739,306.438199,9844.739029
5420.699223,-2664.741391,536.266849,10066.800811
5420.699546,-2368.659014,766.095498,9548.656652
5420.699868,-2812.782580,-459.657299,10214.842000
5420.700191,-2146.597232,153.219100,8956.491898
5420.700514,-2664.741391,1378.971896,9770.718434
5420.700837,-3701.029710,842.705048,8290.306550
5420.701159,-4367.215058,-153.219100,9474.636058
5420.701482,-3478.967927,-536.266849,7105.977043
5420.701805,-1776.494261,689.485948,6883.915261
5420.702128,-1258.350101,1378.971896,6587.832884
5420.702450,-3478.967927,1072.533697,9548.656652
5420.702773,-2738.761985,229.828649,8512.368333
5420.703096,-296.082377,383.047749,7772.162391
5420.703418,740.205942,995.924147,7105.977043
5420.703741,222.061783,689.485948,8808.450710
5420.704064,-1554.432478,-383.047749,10584.944971
5420.704387,740.205942,0.000000,9548.656652
5420.704709,1554.432478,229.828649,8882.471304
5420.705032,444.123565,-306.438199,9326.594869
5420.705355,-1036.288319,-1225.752797,11769.274478
5420.705678,-1184.329507,-1762.019645,10658.965565
5420.706000,222.061783,-1608.800546,9474.636058
5420.706323,0.000000,-919.314598,9474.636058
5420.706646,-2590.720797,-2145.067394,10436.903782
5420.706968,-4663.297435,-2757.943793,11695.253884
5420.707291,-4663.297435,-2911.162892,9992.780217
5420.707614,-2664.741391,-3217.601092,8512.368333
5420.707937,-3775.050304,-2911.162892,9400.615463
5420.708259,-4589.276840,-3447.429741,10807.006753
5420.708582,-4071.132681,-3447.429741,10288.862594
5420.708905,-3701.029710,-3447.429741,7846.182985
5420.709228,-3627.009116,-3140.991542,8364.327145
5420.709550,-2664.741391,-3524.039291,9104.533087
5420.709873,-3330.926739,-3447.429741,10214.842000
5420.710196,-2664.741391,-2681.334243,9844.739029
5420.710518,-2072.576638,-3064.381992,9178.553681
5420.710841,-592.164754,-2834.553343,9326.594869
5420.711164,-370.102971,-2374.896044,9844.739029
5420.711487,-592.164754,-1762.019645,10658.965565
5420.711809,-1184.329507,-1378.971896,9844.739029
5420.712132,0.000000,-2145.067394,8956.491898
5420.712455,814.226536,-1915.238745,8882.471304
5420.712778,222.061783,-1072.533697,9030.512492
5420.713100,-518.144159,-1072.533697,8660.409521
5420.713423,-2146.597232,-1225.752797,9030.512492
5420.713746,-1850.514855,-2834.553343,8882.471304
5420.714069,-2294.638420,-2068.457845,8364.327145
5420.714391,-3701.029710,-1685.410096,8290.306550
5420.714714,-4145.153275,-2221.676944,9030.512492
5420.715037,-4515.256246,-2604.724693,9178.553681
5420.715359,-4071.132681,-1532.190996,8734.430116
5420.715682,-3997.112087,-1378.971896,8586.388927
5420.716005,-4737.318029,-1225.752797,9770.718434
5420.716328,-4219.173869,-1149.143247,10362.883188
5420.716650,-2590.720797,-1072.533697,10288.862594
5420.716973,-2294.638420,-689.485948,9474.636058
5420.717296,-2812.782580,-306.438199,9104.533087
5420.717619,-3997.112087,-2221.676944,10140.821405
5420.717941,-4145.153275,-1455.581446,9178.553681
5420.718264,-1998.556043,-995.924147,9178.553681
5420.718587,-1110.308913,-383.047749,8734.430116
5420.718909,-2294.638420,-919.314598,9474.636058
5420.719232,-2516.700203,-1302.362347,9918.759623
5420.719555,-1480.411884,-459.657299,9178.553681
5420.719878,-2072.576638,-1225.752797,8734.430116
5420.720200,-2368.659014,-612.876398,8882.471304
5420.720523,-2146.597232,-383.047749,10288.862594
5420.720846,-814.226536,-306.438199,9844.739029
5420.721169,-962.267725,-383.047749,8882.471304
5420.721491,-1924.535449,-1072.533697,7846.182985
5420.721814,-3034.844362,-1915.238745,9474.636058
5420.722137,-3627.009116,-2298.286494,9030.512492
5420.722459,-2072.576638,-1608.800546,7920.203579
5420.722782,-888.247130,-1378.971896,6883.915261
5420.723105,-2146.597232,-1532.190996,7920.203579
5420.723428,-2146.597232,-1225.752797,9918.759623
5420.723750,-1776.494261,-995.924147,9844.739029
5420.724073,-1332.370696,-612.876398,9548.656652
5420.724396,-1258.350101,-1225.752797,9474.636058
5420.724719,-1036.288319,-1608.800546,10510.924376
5420.725041,-592.164754,-1149.143247,10362.883188
5420.725364,-1480.411884,-1149.143247,8586.388927
5420.725687,-2368.659014,-1915.238745,9030.512492
5420.726009,-2368.659014,-2681.334243,8734.430116
5420.726332,-1998.556043,-2068.457845,8290.306550
5420.726655,-1554.432478,-1685.410096,7402.059420
5420.726978,-2368.659014,-2604.724693,8734.430116
5420.727300,-3404.947333,-2221.676944,9400.615463
5420.727623,-2738.761985,-3064.381992,9474.636058
5420.727946,-2294.638420,-2451.505594,8364.327145
5420.728269,-3627.009116,-2451.505594,9474.636058
5420.728591,-3552.988522,-2221.676944,10362.883188
5420.728914,-1702.473667,-1991.848295,10807.006753
5420.729237,-1110.308913,-1915.238745,8956.491898
5420.729560,-1702.473667,-2451.505594,8660.409521
5420.729882,-2590.720797,-3370.820191,9844.739029
5420.730205,-2738.761985,-3294.210641,10214.842000
5420.730528,-2072.576638,-2834.553343,9474.636058
5420.730850,-1554.432478,-2374.896044,8956.491898
5420.731173,-2442.679609,-3294.210641,9992.780217
5420.731496,-2886.803174,-2528.115143,10807.006753
5420.731819,-1036.288319,-2221.676944,10732.986159
5420.732141,-592.164754,-1072.533697,10658.965565
5420.732464,-1628.453072,-1455.581446,10881.027347
5420.732787,-3330.926739,-2374.896044,12509.480420
5420.733110,-3330.926739,-2528.115143,11399.171507
5420.733432,-2886.803174,-2221.676944,9696.697840
5420.733755,-3404.947333,-3140.991542,7920.203579
5420.734078,-3034.844362,-2911.162892,8808.450710
5420.734400,-2812.782580,-2681.334243,9326.594869
5420.734723,-2368.659014,-1762.019645,7920.203579
5420.735046,-1998.556043,-1608.800546,7402.059420
5420.735369,-2294.638420,-1991.848295,8438.347739
5420.735691,-2886.803174,-1838.629195,10066.800811
5420.736014,-1924.535449,-1532.190996,10214.842000
5420.736337,-1184.329507,0.000000,10066.800811
5420.736660,-1554.432478,-842.705048,9252.574275
5420.736982,-1776.494261,-1378.971896,10362.883188
5420.737305,-1258.350101,-689.485948,8956.491898
5420.737628,-296.082377,229.828649,7402.059420
5420.737950,0.000000,1072.533697,7402.059420
5420.738273,1184.329507,1378.971896,8438.347739
5420.738596,1258.350101,1455.581446,8660.409521
5420.738919,1036.288319,1685.410096,8586.388927
5420.739241,0.000000,1685.410096,9474.636058
5420.739564,-2368.659014,612.876398,10732.986159
5420.739887,-2442.679609,-306.438199,11103.089130
5420.740210,-3256.906145,-842.705048,9992.780217
5420.740532,-4367.215058,-1225.752797,8660.409521
5420.740855,-5329.482782,-1608.800546,8512.368333
5420.741178,-6143.709319,-1685.410096,7994.224174
5420.741500,-4885.359217,-1608.800546,7031.956449
5420.741823,-4071.132681,-919.314598,6143.709319
5420.742146,-3108.864956,-536.266849,7328.038826
5420.742469,-2368.659014,0.000000,8660.409521
5420.742791,-1332.370696,842.705048,9622.677246
5420.743114,-370.102971,1915.238745,9844.739029
5420.743437,-740.205942,1455.581446,10881.027347
5420.743760,-1850.514855,919.314598,11251.130318
5420.744082,-1110.308913,-229.828649,11843.295072
5420.744405,-1184.329507,-995.924147,9992.780217
5420.744728,-2294.638420,-1915.238745,8956.491898
5420.745051,-3997.112087,-3524.039291,9104.533087
5420.745373,-4219.173869,-3830.477490,8808.450710
5420.745696,-2886.803174,-4673.182538,7105.977043
5420.746019,-1776.494261,-3294.210641,6439.791695
5420.746341,-2072.576638,-2298.286494,7772.162391
5420.746664,-296.082377,-1455.581446,9474.636058
5420.746987,444.123565,0.000000,10214.842000
5420.747310,1406.391290,689.485948,10807.006753
5420.747632,444.123565,459.657299,11843.295072
5420.747955,-1184.329507,-612.876398,12509.480420
5420.748278,-1406.391290,-842.705048,12361.439231
5420.748601,-2442.679609,-1915.238745,10807.006753
5420.748923,-3849.070898,-3830.477490,9770.718434
5420.749246,-5403.503377,-5362.668486,8956.491898
5420.749569,-5699.585753,-6128.763984,7772.162391
5420.749891,-5477.523971,-6052.154434,5995.668130
5420.750214,-5773.606348,-5286.058936,5329.482782
5420.750537,-5403.503377,-5515.887586,6809.894666
5420.750860,-3775.050304,-4443.353888,8956.491898
5420.751182,-2516.700203,-2528.115143,9474.636058
5420.751505,-592.164754,-1149.143247,10288.862594
5420.751828,-370.102971,-766.095498,11769.274478
5420.752151,-1184.329507,-459.657299,12805.562797
5420.752473,-592.164754,-612.876398,12361.439231
5420.752796,-296.082377,-1532.190996,11177.109724
5420.753119,-444.123565,-1685.410096,10732.986159
5420.753441,-1036.288319,-2221.676944,10140.821405
5420.753764,-1110.308913,-2834.553343,9030.512492
5420.754087,-1184.329507,-2681.334243,7328.038826
5420.754410,-1702.473667,-2604.724693,7031.956449
5420.754732,-1258.350101,-2757.943793,7920.203579
5420.755055,-814.226536,-1225.752797,8216.285956
5420.755378,0.000000,0.000000,8956.491898
5420.755701,296.082377,842.705048,10362.883188
5420.756023,-740.205942,1149.143247,11769.274478
5420.756346,-1184.329507,1455.581446,12879.583391
5420.756669,-1480.411884,1378.971896,12287.418637
5420.756991,-1036.288319,1378.971896,10955.047942
5420.757314,-1702.473667,1685.410096,9770.718434
5420.757637,-888.247130,1149.143247,8660.409521
5420.757960,-592.164754,1378.971896,6809.894666
5420.758282,-962.267725,1225.752797,5329.482782
5420.758605,-1110.308913,1225.752797,4959.379811
5420.758928,-1554.432478,1149.143247,5477.523971
5420.759251,-1110.308913,1378.971896,5921.647536
5420.759573,-666.185348,1685.410096,7105.977043
5420.759896,-1332.370696,2834.553343,7624.121203
5420.760219,-2738.761985,2221.676944,9326.594869
5420.760542,-2442.679609,2221.676944,10584.944971
5420.760864,-2960.823768,2221.676944,10066.800811
5420.761187,-3997.112087,1762.019645,9326.594869
5420.761509,-4811.338623,1225.752797,9030.512492
5420.761832,-4515.256246,0.000000,8512.368333
5420.762155,-4367.215058,-612.876398,6735.874072
5420.762477,-5255.462188,-1072.533697,5921.647536
5420.762800,-5329.482782,-2068.457845,6513.812290
5420.763123,-5181.441594,-2911.162892,6957.935855
5420.763445,-4293.194464,-2987.772442,7328.038826
5420.763768,-3701.029710,-2528.115143,7846.182985
5420.764091,-4145.153275,-2911.162892,9474.636058
5420.764413,-3775.050304,-3753.867940,11769.274478
5420.764736,-2368.659014,-2757.943793,11917.315666
5420.765059,-2294.638420,-3064.381992,11843.295072
5420.765381,-2590.720797,-3370.820191,12213.398043
5420.765704,-3108.864956,-4290.134789,12879.583391
5420.766027,-2442.679609,-4903.011187,12065.356855
5420.766349,-2368.659014,-5515.887586,9992.780217
5420.766672,-3552.988522,-6665.030833,9622.677246
5420.766995,-4515.256246,-7507.735880,9844.739029
5420.767317,-4663.297435,-8350.440928,9992.780217
5420.767640,-4071.132681,-7814.174080,9474.636058
5420.767963,-2960.823768,-7048.078582,9178.553681
5420.768285,-3182.885551,-6894.859482,10436.903782
5420.768608,-1998.556043,-5515.887586,11547.212695
5420.768930,-592.164754,-5286.058936,11917.315666
5420.769253,-518.144159,-4366.744339,11621.233289
5420.769576,-740.205942,-3830.477490,11843.295072
5420.769898,-1258.350101,-4443.353888,12435.459826
5420.770221,-444.123565,-4443.353888,11251.130318
5420.770544,0.000000,-4673.182538,9400.615463
5420.770866,-444.123565,-4519.963438,8216.285956
5420.771189,0.000000,-4290.134789,8438.347739
5420.771512,-444.123565,-3753.867940,7994.224174
5420.771834,148.041188,-3294.210641,7031.956449
5420.772157,296.082377,-1838.629195,7031.956449
5420.772480,148.041188,-1072.533697,7994.224174
5420.772802,1184.329507,153.219100,9474.636058
5420.773125,1924.535449,1838.629195,9474.636058
5420.773448,1406.391290,2834.553343,10066.800811
5420.773770,74.020594,2604.724693,11325.150913
5420.774093,-1184.329507,1532.190996,11325.150913
5420.774416,-2146.597232,1149.143247,9918.759623
5420.774738,-2960.823768,689.485948,8142.265362
5420.775061,-4737.318029,0.000000,7550.100608
5420.775384,-5995.668130,-766.095498,7698.141797
5420.775706,-6365.771101,-459.657299,6883.915261
5420.776029,-5625.565159,459.657299,5255.462188
5420.776352,-4441.235652,1915.238745,5477.523971
5420.776674,-4145.153275,2528.115143,7031.956449
5420.776997,-2368.659014,4060.306139,9178.553681
5420.777319,-1184.329507,5132.839837,10140.821405
5420.777642,-740.205942,5362.668486,10732.986159
5420.777965,-1850.514855,4290.134789,11029.068536
5420.778287,-1924.535449,4060.306139,11251.130318
5420.778610,-1480.411884,2834.553343,10288.862594
5420.778933,-2516.700203,1991.848295,8512.368333
5420.779255,-3997.112087,0.000000,6957.935855
5420.779578,-4367.215058,-1225.752797,6143.709319
5420.779901,-3701.029710,-1225.752797,4885.359217
5420.780223,-2516.700203,306.438199,4737.318029
5420.780546,-2442.679609,383.047749,5847.626942
5420.780869,-2368.659014,-153.219100,8290.306550
5420.781191,-666.185348,459.657299,10288.862594
5420.781514,-592.164754,842.705048,10955.047942
5420.781837,-1554.432478,383.047749,12139.377449
5420.782159,-2812.782580,-919.314598,13693.809927
5420.782482,-2886.803174,-1991.848295,12509.480420
5420.782805,-1258.350101,-2528.115143,9844.739029
5420.783127,-2146.597232,-3600.648841,8512.368333
5420.783450,-3627.009116,-5362.668486,8438.347739
5420.783773,-3330.926739,-6818.249932,7772.162391
5420.784095,-2294.638420,-6511.811733,6661.853478
5420.784418,-2072.576638,-6052.154434,6883.915261
5420.784741,-2812.782580,-6281.983084,9030.512492
5420.785063,-1628.453072,-5822.325785,11251.130318
5420.785386,148.041188,-4443.353888,11769.274478
5420.785708,1036.288319,-2528.115143,12509.480420
5420.786031,888.247130,-2911.162892,13101.645173
5420.786354,592.164754,-3600.648841,14730.098246
5420.786676,1776.494261,-3064.381992,13101.645173
5420.786999,962.267725,-3217.601092,11621.233289
5420.787322,-444.123565,-4443.353888,9326.594869
5420.787644,-1850.514855,-5056.230287,9474.636058
5420.787967,-2368.659014,-5362.668486,8290.306550
5420.788290,-2738.761985,-4979.620737,7624.121203
5420.788612,-3478.967927,-5362.668486,6587.832884
5420.788935,-4663.297435,-6052.154434,7476.080014
5420.789258,-4737.318029,-5669.106685,8586.388927
5420.789580,-4885.359217,-4903.011187,9474.636058
5420.789903,-4367.215058,-3140.991542,9622.677246
5420.790226,-3404.947333,-1608.800546,10658.965565
5420.790548,-3034.844362,-1762.019645,11991.336260
5420.790871,-2886.803174,-1378.971896,11769.274478
5420.791194,-2590.720797,-842.705048,9696.697840
5420.791516,-2590.720797,-1225.752797,9326.594869
5420.791839,-2886.803174,-1685.410096,9326.594869
5420.792162,-2664.741391,-1762.019645,9030.512492
5420.792484,-2516.700203,-1378.971896,8068.244768
5420.792807,-3182.885551,-383.047749,7994.224174
5420.793129,-4663.297435,-1915.238745,8290.306550
5420.793452,-5033.400406,-2298.286494,8808.450710
5420.793775,-3330.926739,-919.314598,8142.265362
5420.794097,-2738.761985,-153.219100,9178.553681
5420.794420,-3182.885551,459.657299,9992.780217
5420.794743,-3923.091493,0.000000,11621.233289
5420.795065,-2442.679609,842.705048,9770.718434
5420.795388,-2738.761985,842.705048,8734.430116
5420.795711,-3404.947333,919.314598,9030.512492
5420.796033,-1554.432478,842.705048,9178.553681
5420.796356,-444.123565,1455.581446,9178.553681
5420.796679,-1776.494261,2145.067394,7402.059420
5420.797001,-1924.535449,1455.581446,7624.121203
5420.797324,-2368.659014,0.000000,7698.141797
5420.797647,-1258.350101,0.000000,7772.162391
5420.797969,-1406.391290,919.314598,8734.430116
5420.798292,-2442.679609,612.876398,9918.759623
5420.798615,-3256.906145,0.000000,10732.986159
5420.798937,-2664.741391,-842.705048,9178.553681
5420.799260,-1628.453072,-536.266849,7772.162391
5420.799583,-1110.308913,-536.266849,7624.121203
5420.799905,-2146.597232,-766.095498,8364.327145
5420.800228,-1480.411884,0.000000,9622.677246
5420.800551,-296.082377,229.828649,7624.121203
5420.800873,0.000000,0.000000,8068.244768
5420.801196,-518.144159,0.000000,8142.265362
5420.801518,-814.226536,-383.047749,10510.924376
5420.801841,-518.144159,-1302.362347,10362.883188
5420.802164,222.061783,689.485948,10436.903782
5420.802486,0.000000,-306.438199,9844.739029
5420.802809,-814.226536,-1378.971896,10881.027347
5420.803132,-962.267725,-2145.067394,9844.739029
5420.803454,-2368.659014,-2757.943793,10214.842000
5420.803777,-3108.864956,-2451.505594,9326.594869
5420.804100,-1628.453072,-2451.505594,9104.533087
5420.804422,-1628.453072,-2911.162892,8660.409521
5420.804745,-1702.473667,-2145.067394,8660.409521
5420.805068,-2220.617826,-1455.581446,9474.636058
5420.805390,-2664.741391,-1608.800546,9400.615463
5420.805713,-2146.597232,-1685.410096,9992.780217
5420.806036,-1480.411884,-1149.143247,10140.821405
5420.806358,-1998.556043,-1149.143247,10288.862594
5420.806681,-3256.906145,-2374.896044,9696.697840
5420.807004,-2812.782580,-2604.724693,8882.471304
5420.807326,-1850.514855,-2834.553343,8734.430116
5420.807649,-2072.576638,-3140.991542,8660.409521
5420.807972,-4589.276840,-4060.306139,9400.615463
5420.808294,-4737.318029,-4519.963438,9770.718434
5420.808617,-3478.967927,-3907.087040,9918.759623
5420.808939,-2812.782580,-3064.381992,9030.512492
5420.809262,-2220.617826,-2987.772442,9918.759623
5420.809585,-3478.967927,-3907.087040,9992.780217
5420.809907,-2368.659014,-2451.505594,10881.027347
5420.810230,-1110.308913,-1455.581446,9918.759623
5420.810553,-592.164754,-1072.533697,9844.739029
5420.810875,-740.205942,-1378.971896,8808.450710
5420.811198,-666.185348,-1915.238745,10288.862594
5420.811521,2072.576638,-995.924147,8290.306550
5420.811843,888.247130,-383.047749,9474.636058
5420.812166,-888.247130,-1149.143247,9548.656652
5420.812489,-2590.720797,-2298.286494,11843.295072
5420.812811,-2664.741391,-2451.505594,9474.636058
5420.813134,-962.267725,-1378.971896,9770.718434
5420.813457,-2072.576638,-1149.143247,10288.862594
5420.813779,-3034.844362,-1378.971896,11843.295072
5420.814102,-2072.576638,-1225.752797,9548.656652
5420.814425,-740.205942,0.000000,8882.471304
5420.814747,-1850.514855,1072.533697,9104.533087
5420.815070,-1480.411884,1149.143247,9548.656652
5420.815393,-74.020594,1149.143247,9918.759623
5420.815715,1332.370696,1455.581446,7179.997637
5420.816038,1110.308913,2221.676944,8438.347739
5420.816361,-222.061783,2298.286494,8956.491898
5420.816683,0.000000,1915.238745,10584.944971
5420.817006,1036.288319,2451.505594,8660.409521
5420.817328,2072.576638,2757.943793,8068.244768
5420.817651,814.226536,1915.238745,8364.327145
5420.817974,814.226536,2604.724693,8734.430116
5420.818296,888.247130,2528.115143,8734.430116
5420.818619,888.247130,2987.772442,7846.182985
5420.818942,74.020594,3294.210641,7994.224174
5420.819264,-740.205942,3217.601092,8660.409521
5420.819587,962.267725,4443.353888,8808.450710
5420.819910,1924.535449,4366.744339,7328.038826
5420.820232,1554.432478,3830.477490,7254.018232
5420.820555,666.185348,2987.772442,8142.265362
5420.820878,148.041188,3677.258390,8512.368333
5420.821200,-222.061783,2911.162892,8216.285956
5420.821523,-962.267725,2604.724693,8364.327145
5420.821846,-1702.473667,1455.581446,8216.285956
5420.822168,-592.164754,842.705048,8660.409521
5420.822491,-296.082377,1149.143247,9474.636058
5420.822814,0.000000,2221.676944,11103.089130
5420.823136,-888.247130,1532.190996,10140.821405
5420.823459,-296.082377,1149.143247,10658.965565
5420.823782,2146.597232,1838.629195,10140.821405
5420.824104,2516.700203,2374.896044,10362.883188
5420.824427,1554.432478,2604.724693,10436.903782
5420.824750,2146.597232,1532.190996,11103.089130
5420.825072,2368.659014,1532.190996,9770.718434
5420.825395,1776.494261,1378.971896,8882.471304
5420.825717,296.082377,766.095498,9178.553681
5420.826040,-888.247130,-919.314598,9400.615463
5420.826363,-814.226536,-1378.971896,9104.533087
5420.826685,-1406.391290,-1991.848295,8660.409521
5420.827008,-2442.679609,-1915.238745,8734.430116
5420.827331,-3478.967927,-1838.629195,9326.594869
5420.827653,-2738.761985,-1762.019645,8660.409521
5420.827976,-1184.329507,-2068.457845,9400.615463
5420.828299,-962.267725,-1072.533697,7920.203579
5420.828621,-148.041188,-1072.533697,8882.471304
5420.828944,-148.041188,-1149.143247,9400.615463
5420.829267,-518.144159,-995.924147,10066.800811
5420.829589,0.000000,-766.095498,8808.450710
5420.829912,296.082377,-1455.581446,9548.656652
5420.830235,0.000000,-1225.752797,10066.800811
5420.830557,222.061783,-1455.581446,11251.130318
5420.830880,740.205942,-1608.800546,10140.821405
5420.831203,74.020594,-1915.238745,10140.821405
5420.831525,0.000000,-1762.019645,10066.800811
5420.831848,-1332.370696,-1608.800546,10732.986159
5420.832171,-592.164754,-995.924147,10140.821405
5420.832493,0.000000,-612.876398,9548.656652
5420.832816,74.020594,-995.924147,9548.656652
5420.833138,-444.123565,-919.314598,10214.842000
5420.833461,-666.185348,76.609550,10584.944971
5420.833784,-814.226536,306.438199,10732.986159
5420.834106,-2368.659014,76.609550,11547.212695
5420.834429,-3849.070898,-383.047749,11177.109724
5420.834752,-1998.556043,-689.485948,10436.903782
5420.835074,-1110.308913,0.000000,8068.244768
5420.835397,0.000000,1455.581446,7179.997637
5420.835720,296.082377,1838.629195,8290.306550
5420.836042,888.247130,2068.457845,8068.244768
5420.836365,592.164754,2145.067394,7772.162391
5420.836688,888.247130,3370.820191,6365.771101
5420.837010,814.226536,3217.601092,8882.471304
5420.837333,814.226536,2604.724693,9548.656652
5420.837656,740.205942,2604.724693,9992.780217
5420.837978,74.020594,2298.286494,8512.368333
5420.838301,0.000000,2145.067394,7920.203579
5420.838624,-1776.494261,1838.629195,9252.574275
5420.838946,-1036.288319,2451.505594,8586.388927
5420.839269,-592.164754,2757.943793,8660.409521
5420.839592,1258.350101,3217.601092,7031.956449
5420.839914,1036.288319,2528.115143,8808.450710
5420.840237,592.164754,2068.457845,8290.306550
5420.840560,1554.432478,2145.067394,9104.533087
5420.840882,2738.761985,3217.601092,7328.038826
5420.841205,148.041188,2911.162892,11769.274478
5420.841527,1998.556043,3064.381992,10214.842000
5420.841850,2590.720797,2451.505594,9474.636058
5420.842173,3701.029710,2451.505594,6587.832884
5420.842495,1628.453072,2145.067394,8512.368333
5420.842818,814.226536,1685.410096,9474.636058
5420.843141,740.205942,1608.800546,8882.471304
5420.843463,2220.617826,1532.190996,7994.224174
5420.843786,148.041188,1225.752797,8586.388927
5420.844109,518.144159,995.924147,9400.615463
5420.844431,814.226536,383.047749,10584.944971
5420.844754,1036.288319,1915.238745,8882.471304
5420.845077,0.000000,306.438199,10436.903782
5420.845399,0.000000,-306.438199,9770.718434
5420.845722,-1924.535449,-766.095498,10510.924376
5420.846045,-1258.350101,-842.705048,9104.533087
5420.846367,-2368.659014,-995.924147,9178.553681
5420.846690,-2664.741391,-1455.581446,9474.636058
5420.847013,-2220.617826,-2221.676944,9696.697840
5420.847335,-1850.514855,-1838.629195,10214.842000
5420.847658,-2368.659014,-1072.533697,10066.800811
5420.847981,-3256.906145,-1608.800546,12361.439231
5420.848303,-3552.988522,-1608.800546,11769.274478
5420.848626,-1776.494261,-1915.238745,10658.965565
5420.848949,-814.226536,-1762.019645,8956.491898
5420.849271,-2072.576638,-995.924147,9844.739029
5420.849594,-1850.514855,-1072.533697,11103.089130
5420.849916,-1332.370696,-919.314598,9548.656652
5420.850239,-444.123565,-383.047749,8068.244768
5420.850562,-1036.288319,0.000000,8068.244768
5420.850884,-2442.679609,-1762.019645,9622.677246
5420.851207,-1184.329507,-1149.143247,8734.430116
5420.851530,74.020594,-459.657299,7550.100608
5420.851852,-888.247130,76.609550,8882.471304
5420.852175,-888.247130,0.000000,9252.574275
5420.852498,-888.247130,-536.266849,9548.656652
5420.852820,1628.453072,459.657299,7846.182985
5420.853143,814.226536,1532.190996,8068.244768
5420.853466,296.082377,536.266849,8660.409521
5420.853788,740.205942,383.047749,9622.677246
5420.854111,1332.370696,766.095498,8512.368333
5420.854434,0.000000,919.314598,9696.697840
5420.854756,0.000000,919.314598,8364.327145
5420.855079,-444.123565,0.000000,11251.130318
5420.855402,1036.288319,1532.190996,9178.553681
5420.855724,222.061783,842.705048,9992.780217
5420.856047,0.000000,383.047749,9104.533087
5420.856370,0.000000,229.828649,10214.842000
5420.856692,1184.329507,612.876398,9474.636058
5420.857015,444.123565,842.705048,9030.512492
5420.857337,1628.453072,1838.629195,9030.512492
5420.857660,1850.514855,1072.533697,10362.883188
5420.857983,2294.638420,1915.238745,9474.636058
5420.858305,3108.864956,1838.629195,9474.636058
5420.858628,3108.864956,2528.115143,8734.430116
5420.858951,1702.473667,2145.067394,10584.944971
5420.859273,1480.411884,2298.286494,9844.739029
5420.859596,2886.803174,2068.457845,8512.368333
5420.859919,2886.803174,2451.505594,8364.327145
5420.860241,962.267725,1838.629195,8956.491898
5420.860564,148.041188,1915.238745,9030.512492
5420.860887,740.205942,2451.505594,9178.553681
5420.861209,740.205942,2528.115143,8586.388927
5420.861532,-962.267725,919.314598,8586.388927
5420.861855,-2368.659014,536.266849,9030.512492
5420.862177,-1480.411884,1608.800546,9326.594869
5420.862500,-2442.679609,2374.896044,8290.306550
5420.862823,-3256.906145,689.485948,8734.430116
5420.863145,-4071.132681,-153.219100,8438.347739
5420.863468,-3997.112087,229.828649,8882.471304
5420.863791,-3923.091493,919.314598,8512.368333
5420.864113,-3701.029710,689.485948,8068.244768
5420.864436,-3775.050304,76.609550,8290.306550
5420.864759,-2886.803174,153.219100,8956.491898
5420.865082,-2220.617826,689.485948,9696.697840
5420.865404,-1036.288319,766.095498,9104.533087
5420.865727,-1258.350101,306.438199,11029.068536
5420.866050,-666.185348,459.657299,10140.821405
5420.866373,-296.082377,459.657299,11103.089130
5420.866695,592.164754,76.609550,9252.574275
5420.867018,74.020594,536.266849,9696.697840
5420.867341,222.061783,0.000000,8586.388927
5420.867664,962.267725,383.047749,9844.739029
5420.867986,888.247130,612.876398,8808.450710
5420.868309,888.247130,229.828649,8882.471304
5420.868632,888.247130,0.000000,8734.430116
5420.868955,1184.329507,0.000000,8660.409521
5420.869277,888.247130,153.219100,9178.553681
5420.869600,-370.102971,76.609550,9548.656652
5420.869923,-888.247130,-612.876398,9770.718434
5420.870246,222.061783,-1608.800546,9326.594869
5420.870568,0.000000,-1302.362347,8586.388927
5420.870891,-962.267725,-689.485948,9400.615463
5420.871214,-1332.370696,-919.314598,10510.924376
5420.871537,-1258.350101,-1378.971896,10732.986159
5420.871860,-444.123565,-1455.581446,9844.739029
5420.872182,814.226536,-536.266849,9326.594869
5420.872505,-370.102971,-1072.533697,9844.739029
5420.872828,666.185348,-612.876398,10436.903782
5420.873151,1850.514855,0.000000,11103.089130
5420.873473,2886.803174,76.609550,9326.594869
5420.873796,2294.638420,-459.657299,9400.615463
5420.874119,2442.679609,-306.438199,10510.924376
5420.874442,1480.411884,229.828649,10362.883188
5420.874764,3108.864956,689.485948,9770.718434
5420.875087,2960.823768,842.705048,9474.636058
5420.875410,3034.844362,1302.362347,8956.491898
5420.875733,1554.432478,1532.190996,10288.862594
5420.876055,2368.659014,1455.581446,8808.450710
5420.876378,962.267725,995.924147,9030.512492
5420.876701,518.144159,1608.800546,7402.059420
5420.877024,-518.144159,1532.190996,11103.089130
5420.877346,0.000000,1608.800546,9178.553681
5420.877669,-666.185348,536.266849,9104.533087
5420.877992,-962.267725,689.485948,6661.853478
5420.878315,-2368.659014,1072.533697,9474.636058
5420.878637,-3478.967927,919.314598,9474.636058
5420.878960,-2442.679609,2068.457845,9696.697840
5420.879283,-1776.494261,995.924147,8068.244768
5420.879606,-1924.535449,1225.752797,8142.265362
5420.879928,-2590.720797,1072.533697,9622.677246
5420.880251,-3108.864956,1455.581446,9474.636058
5420.880574,-2368.659014,1915.238745,9474.636058
5420.880897,-2294.638420,1378.971896,8586.388927
5420.881220,-2442.679609,1149.143247,9326.594869
5420.881542,-2220.617826,1685.410096,9326.594869
5420.881865,-592.164754,1608.800546,7846.182985
5420.882188,-1850.514855,536.266849,8586.388927
5420.882511,-962.267725,1149.143247,7994.224174
5420.882833,-1184.329507,842.705048,10658.965565
5420.883156,222.061783,2987.772442,8216.285956
5420.883479,0.000000,2451.505594,9770.718434
5420.883802,-1036.288319,1762.019645,9178.553681
5420.884124,74.020594,1532.190996,8734.430116
5420.884447,888.247130,1838.629195,9104.533087
5420.884770,0.000000,2374.896044,8660.409521
5420.885093,148.041188,1608.800546,9400.615463
5420.885415,-1332.370696,229.828649,9252.574275
5420.885738,-1110.308913,842.705048,8068.244768
5420.886061,0.000000,0.000000,6735.874072
5420.886384,-222.061783,153.219100,7772.162391
5420.886706,-296.082377,0.000000,10362.883188
5420.887029,0.000000,-229.828649,9548.656652
5420.887352,0.000000,76.609550,10140.821405
5420.887675,-148.041188,766.095498,9178.553681
5420.887997,-2072.576638,-1072.533697,12287.418637
5420.888320,-666.185348,-919.314598,10214.842000
5420.888643,370.102971,-689.485948,10362.883188
5420.888966,962.267725,229.828649,9178.553681
5420.889288,370.102971,0.000000,10732.986159
5420.889611,888.247130,-842.705048,9252.574275
5420.889934,2146.597232,-1072.533697,8660.409521
5420.890257,1702.473667,-536.266849,7254.018232
5420.890580,2220.617826,-689.485948,9844.739029
5420.890902,2590.720797,-459.657299,10066.800811
5420.891225,3404.947333,229.828649,11029.068536
5420.891548,3404.947333,229.828649,9844.739029
5420.891871,1998.556043,459.657299,11029.068536
5420.892193,2294.638420,153.219100,10140.821405
5420.892516,2886.803174,766.095498,10288.862594
5420.892839,2886.803174,1225.752797,10658.965565
5420.893162,1776.494261,612.876398,8808.450710
5420.893484,666.185348,-995.924147,9770.718434
5420.893807,0.000000,-612.876398,8068.244768
5420.894130,0.000000,1149.143247,8660.409521
5420.894453,-962.267725,612.876398,7698.141797
5420.894775,-1332.370696,-229.828649,9252.574275
5420.895098,-2294.638420,-229.828649,8438.347739
5420.895421,-2516.700203,0.000000,8364.327145
5420.895744,-2886.803174,153.219100,8216.285956
5420.896066,-4515.256246,0.000000,9178.553681
5420.896389,-5107.421000,-459.657299,9400.615463
5420.896712,-3701.029710,153.219100,8438.347739
5420.897035,-3552.988522,1072.533697,9030.512492
5420.897357,-3997.112087,842.705048,8956.491898
5420.897680,-2960.823768,459.657299,9844.739029
5420.898003,-888.247130,612.876398,8956.491898
5420.898326,-444.123565,2681.334243,9252.574275
5420.898648,-740.205942,2221.676944,9548.656652
5420.898971,296.082377,842.705048,9474.636058
5420.899294,1628.453072,2068.457845,9474.636058
5420.899617,1628.453072,3064.381992,8364.327145
5420.899940,1110.308913,2757.943793,9622.677246
5420.900262,222.061783,2221.676944,10362.883188
5420.900585,370.102971,2374.896044,10436.903782
5420.900908,296.082377,1991.848295,8882.471304
5420.901231,-962.267725,2221.676944,8438.347739
5420.901553,-1702.473667,995.924147,8956.491898
5420.901876,-1258.350101,383.047749,9770.718434
5420.902199,-666.185348,612.876398,7476.080014
5420.902522,-1406.391290,919.314598,8216.285956
5420.902844,-2960.823768,0.000000,7328.038826
5420.903167,-2664.741391,-689.485948,9252.574275
5420.903490,-1554.432478,306.438199,8068.244768
5420.903813,-1110.308913,842.705048,9770.718434
5420.904135,-740.205942,229.828649,9326.594869
5420.904458,-1850.514855,0.000000,9918.759623
5420.904781,222.061783,536.266849,9474.636058
