#time,accel_x,accel_y,accel_z
2632.368289,0.000000,689.485948,9326.594869
2632.368603,-296.082377,766.095498,8882.471304
2632.368918,-148.041188,919.314598,9400.615463
2632.369232,74.020594,459.657299,9030.512492
2632.369546,-222.061783,536.266849,9104.533087
2632.369860,-148.041188,383.047749,9474.636058
2632.370175,-370.102971,536.266849,9252.574275
2632.370489,-296.082377,689.485948,9326.594869
2632.370803,0.000000,536.266849,9252.574275
2632.371118,222.061783,383.047749,9104.533087
2632.371432,0.000000,612.876398,9252.574275
2632.371746,0.000000,1149.143247,9252.574275
2632.372060,-222.061783,766.095498,9252.574275
2632.372375,0.000000,459.657299,9252.574275
2632.372689,0.000000,766.095498,9252.574275
2632.373003,148.041188,919.314598,9474.636058
2632.373317,74.020594,919.314598,9474.636058
2632.373632,222.061783,842.705048,9252.574275
2632.373946,296.082377,1302.362347,9474.636058
2632.374260,0.000000,383.047749,9252.574275
2632.374575,0.000000,689.485948,9474.636058
2632.374889,0.000000,766.095498,9326.594869
2632.375203,0.000000,1072.533697,9622.677246
2632.375517,74.020594,766.095498,9474.636058
2632.375832,296.082377,1072.533697,9178.553681
2632.376146,666.185348,1072.533697,9326.594869
2632.376460,444.123565,1762.019645,9178.553681
2632.376774,444.123565,1991.848295,9030.512492
2632.377089,740.205942,1378.971896,8808.450710
2632.377403,888.247130,1378.971896,9030.512492
2632.377717,888.247130,1608.800546,9178.553681
2632.378032,888.247130,1608.800546,9252.574275
2632.378346,1184.329507,1762.019645,9400.615463
2632.378660,1110.308913,1608.800546,9178.553681
2632.378974,1628.453072,1915.238745,9474.636058
2632.379289,1480.411884,2068.457845,9178.553681
2632.379603,1628.453072,2145.067394,9252.574275
2632.379917,1628.453072,2145.067394,9400.615463
2632.380231,1998.556043,2528.115143,9400.615463
2632.380546,1998.556043,2528.115143,9474.636058
2632.380860,2368.659014,3140.991542,9474.636058
2632.381174,2516.700203,2528.115143,9474.636058
2632.381489,2664.741391,2451.505594,9474.636058
2632.381803,2812.782580,3064.381992,9252.574275
2632.382117,2960.823768,3294.210641,9252.574275
2632.382431,3552.988522,3677.258390,9474.636058
2632.382746,3552.988522,3907.087040,9252.574275
2632.383060,3775.050304,4136.915689,9696.697840
2632.383374,3404.947333,4366.744339,9178.553681
2632.383688,3330.926739,3677.258390,8808.450710
2632.384003,3108.864956,4443.353888,9104.533087
2632.384317,2146.597232,3907.087040,8808.450710
2632.384631,1850.514855,3600.648841,8956.491898
2632.384946,1480.411884,3753.867940,8660.409521
2632.385260,1110.308913,3677.258390,8290.306550
2632.385574,1406.391290,3140.991542,8290.306550
2632.385888,1480.411884,3370.820191,8068.244768
2632.386203,1776.494261,3217.601092,8290.306550
2632.386517,1776.494261,2987.772442,8216.285956
2632.386831,1628.453072,3677.258390,8512.368333
2632.387145,1628.453072,3524.039291,8808.450710
2632.387460,1184.329507,3370.820191,8956.491898
2632.387774,1258.350101,2987.772442,9474.636058
2632.388088,1332.370696,3370.820191,10140.821405
2632.388402,518.144159,2145.067394,9844.739029
2632.388717,148.041188,1762.019645,10436.903782
2632.389031,-592.164754,1072.533697,10807.006753
2632.389345,-1184.329507,842.705048,10584.944971
2632.389660,-444.123565,612.876398,10584.944971
2632.389974,444.123565,1302.362347,9992.780217
2632.390288,1924.535449,1762.019645,9474.636058
2632.390602,3182.885551,3294.210641,8882.471304
2632.390917,4737.318029,3753.867940,8882.471304
2632.391231,5255.462188,4366.744339,8068.244768
2632.391545,5181.441594,4213.525239,8438.347739
2632.391859,4071.132681,3447.429741,8438.347739
2632.392174,2886.803174,2528.115143,8882.471304
2632.392488,1332.370696,1685.410096,8956.491898
2632.392802,444.123565,919.314598,9104.533087
2632.393117,-592.164754,229.828649,9252.574275
2632.393431,-666.185348,229.828649,8660.409521
2632.393745,-518.144159,76.609550,9252.574275
2632.394059,-444.123565,459.657299,9400.615463
2632.394374,0.000000,689.485948,9474.636058
2632.394688,814.226536,1225.752797,9474.636058
2632.395002,1776.494261,1685.410096,9548.656652
2632.395316,3108.864956,2451.505594,9992.780217
2632.395631,4219.173869,2987.772442,10140.821405
2632.395945,4663.297435,3524.039291,9918.759623
2632.396259,3997.112087,2834.553343,9400.615463
2632.396574,3775.050304,2681.334243,8734.430116
2632.396888,3997.112087,2911.162892,8438.347739
2632.397202,4515.256246,3294.210641,8882.471304
2632.397516,4959.379811,3447.429741,9030.512492
2632.397831,4737.318029,3140.991542,9918.759623
2632.398145,4293.194464,3983.696590,10510.924376
2632.398459,3108.864956,4060.306139,9844.739029
2632.398773,2590.720797,3600.648841,9918.759623
2632.399088,2220.617826,3677.258390,9696.697840
2632.399402,1036.288319,3677.258390,9696.697840
2632.399716,-814.226536,3217.601092,9030.512492
2632.400031,-2368.659014,2451.505594,7846.182985
2632.400345,-2368.659014,2221.676944,7031.956449
2632.400659,-1850.514855,2757.943793,6809.894666
2632.400973,-296.082377,3524.039291,7328.038826
2632.401288,1184.329507,4749.792088,8068.244768
2632.401602,2220.617826,4979.620737,8142.265362
2632.401916,2590.720797,5056.230287,7476.080014
2632.402230,3330.926739,4979.620737,7846.182985
2632.402545,3182.885551,5209.449386,8734.430116
2632.402859,2368.659014,4366.744339,10955.047942
2632.403173,592.164754,2834.553343,11103.089130
2632.403488,-518.144159,2145.067394,10658.965565
2632.403802,-592.164754,1149.143247,10140.821405
2632.404116,-592.164754,1455.581446,11103.089130
2632.404430,0.000000,1608.800546,11399.171507
2632.404745,1184.329507,2374.896044,10881.027347
2632.405059,2960.823768,3217.601092,9696.697840
2632.405373,4219.173869,3983.696590,8586.388927
2632.405687,4293.194464,4443.353888,8734.430116
2632.406002,4441.235652,4596.572988,7994.224174
2632.406316,5995.668130,4519.963438,8290.306550
2632.406630,6143.709319,4366.744339,8438.347739
2632.406945,4885.359217,4519.963438,8586.388927
2632.407259,3701.029710,3753.867940,8216.285956
2632.407573,3256.906145,2757.943793,8512.368333
2632.407887,2516.700203,2298.286494,9252.574275
2632.408202,592.164754,1378.971896,9696.697840
2632.408516,-1702.473667,766.095498,10288.862594
2632.408830,-1924.535449,-153.219100,9844.739029
2632.409144,-1184.329507,0.000000,9844.739029
2632.409459,-888.247130,-306.438199,10658.965565
2632.409773,-1406.391290,229.828649,10362.883188
2632.410087,0.000000,1455.581446,9844.739029
2632.410402,1998.556043,2374.896044,9400.615463
2632.410716,3256.906145,2451.505594,8068.244768
2632.411030,4219.173869,3217.601092,7179.997637
2632.411344,5699.585753,4749.792088,7031.956449
2632.411659,8290.306550,5975.544884,8512.368333
2632.411973,8216.285956,5439.278036,9104.533087
2632.412287,7105.977043,4979.620737,8808.450710
2632.412601,5773.606348,4903.011187,9400.615463
2632.412916,3552.988522,3217.601092,10807.006753
2632.413230,888.247130,1762.019645,11177.109724
2632.413544,-1110.308913,689.485948,10732.986159
2632.413859,-2368.659014,153.219100,11621.233289
2632.414173,-4293.194464,-766.095498,11325.150913
2632.414487,-4885.359217,-536.266849,10807.006753
2632.414801,-5033.400406,-612.876398,9770.718434
2632.415116,-3330.926739,0.000000,8586.388927
2632.415430,-666.185348,2757.943793,8142.265362
2632.415744,2072.576638,4749.792088,6957.935855
2632.416058,4737.318029,5209.449386,5921.647536
2632.416373,7105.977043,7048.078582,5773.606348
2632.416687,8364.327145,8120.612279,7105.977043
2632.417001,8290.306550,6894.859482,7179.997637
2632.417316,8068.244768,5286.058936,8660.409521
2632.417630,5477.523971,4979.620737,9844.739029
2632.417944,1776.494261,2987.772442,11177.109724
2632.418258,-2220.617826,-459.657299,11621.233289
2632.418573,-6217.729913,-2298.286494,11177.109724
2632.418887,-8216.285956,-3064.381992,9474.636058
2632.419201,-6069.688724,-3217.601092,10140.821405
2632.419515,-5255.462188,-2221.676944,10436.903782
2632.419830,-2442.679609,612.876398,10288.862594
2632.420144,2738.761985,3983.696590,9548.656652
2632.420458,7179.997637,5745.716235,8068.244768
2632.420773,10510.924376,7048.078582,6587.832884
2632.421087,13249.686362,9269.755526,7402.059420
2632.421401,13767.830521,10035.851024,8660.409521
2632.421715,11769.274478,7507.735880,10066.800811
2632.422030,7698.141797,5209.449386,10214.842000
2632.422344,2738.761985,2298.286494,9548.656652
2632.422658,-1850.514855,-612.876398,9622.677246
2632.422972,-4663.297435,-2757.943793,10214.842000
2632.423287,-6883.915261,-3907.087040,9326.594869
2632.423601,-7179.997637,-3753.867940,9474.636058
2632.423915,-5033.400406,-1685.410096,10288.862594
2632.424230,-1850.514855,383.047749,8438.347739
2632.424544,1850.514855,2451.505594,9252.574275
2632.424858,4589.276840,6128.763984,10362.883188
2632.425172,6217.729913,6128.763984,10807.006753
2632.425487,6143.709319,6128.763984,10214.842000
2632.425801,5995.668130,6205.373534,7698.141797
2632.426115,5329.482782,4903.011187,7105.977043
2632.426429,3108.864956,4290.134789,8068.244768
2632.426744,1406.391290,2834.553343,7920.203579
2632.427058,740.205942,2451.505594,8216.285956
2632.427372,-518.144159,1225.752797,6883.915261
2632.427687,-666.185348,612.876398,6587.832884
2632.428001,-1702.473667,0.000000,7550.100608
2632.428315,-1998.556043,995.924147,10510.924376
2632.428630,-1924.535449,766.095498,12435.459826
2632.428944,-592.164754,536.266849,13101.645173
2632.429258,74.020594,1991.848295,12435.459826
2632.429573,296.082377,2757.943793,11917.315666
2632.429887,1776.494261,3677.258390,11177.109724
2632.430201,3256.906145,4136.915689,8882.471304
2632.430516,4071.132681,4519.963438,7624.121203
2632.430830,3478.967927,5286.058936,6957.935855
2632.431144,2664.741391,3294.210641,6291.750507
2632.431459,2368.659014,3064.381992,6809.894666
2632.431773,1998.556043,2451.505594,7179.997637
2632.432087,296.082377,1608.800546,8586.388927
2632.432402,740.205942,1455.581446,9696.697840
2632.432716,1036.288319,1072.533697,10436.903782
2632.433030,2368.659014,2145.067394,10732.986159
2632.433344,2738.761985,2374.896044,11029.068536
2632.433659,1998.556043,2068.457845,11547.212695
2632.433973,1036.288319,2757.943793,12065.356855
2632.434287,1554.432478,2068.457845,11029.068536
2632.434602,2220.617826,2221.676944,9474.636058
2632.434916,1480.411884,2604.724693,8364.327145
2632.435230,888.247130,2911.162892,8068.244768
2632.435545,740.205942,2834.553343,6735.874072
2632.435859,2960.823768,2911.162892,5403.503377
2632.436173,4367.215058,3753.867940,5403.503377
2632.436488,1850.514855,3294.210641,7402.059420
2632.436802,814.226536,1378.971896,9252.574275
2632.437116,222.061783,689.485948,9030.512492
2632.437431,0.000000,-459.657299,9104.533087
2632.437745,-814.226536,-919.314598,10510.924376
2632.438059,-1924.535449,536.266849,12657.521608
2632.438374,-1332.370696,766.095498,11103.089130
2632.438688,518.144159,-383.047749,9252.574275
2632.439002,666.185348,76.609550,9622.677246
2632.439317,-962.267725,1149.143247,9770.718434
2632.439631,148.041188,842.705048,9474.636058
2632.439945,2664.741391,842.705048,8734.430116
2632.440259,2590.720797,1455.581446,9178.553681
2632.440574,1776.494261,2298.286494,11029.068536
2632.440888,2368.659014,2298.286494,9548.656652
2632.441202,4441.235652,2374.896044,8660.409521
2632.441517,4293.194464,2068.457845,7920.203579
2632.441831,1776.494261,1685.410096,9474.636058
2632.442145,-1036.288319,1302.362347,10066.800811
2632.442460,-1480.411884,-306.438199,9474.636058
2632.442774,-1332.370696,-995.924147,8808.450710
2632.443088,-3330.926739,-1455.581446,11251.130318
2632.443403,-5477.523971,-689.485948,11399.171507
2632.443717,-3552.988522,-1302.362347,9622.677246
2632.444031,-2368.659014,-306.438199,8882.471304
2632.444346,-2886.803174,153.219100,8808.450710
2632.444660,-4367.215058,-536.266849,7846.182985
2632.444974,-2886.803174,229.828649,6661.853478
2632.445289,-1480.411884,995.924147,6957.935855
2632.445603,-1480.411884,919.314598,8586.388927
2632.445917,-1998.556043,383.047749,8660.409521
2632.446232,-1110.308913,1149.143247,8586.388927
2632.446546,1036.288319,1532.190996,8364.327145
2632.446860,222.061783,0.000000,8438.347739
2632.447175,-1184.329507,306.438199,10510.924376
2632.447489,-1406.391290,459.657299,10362.883188
2632.447803,222.061783,-153.219100,10584.944971
2632.448117,444.123565,-1455.581446,10066.800811
2632.448432,-518.144159,-229.828649,10807.006753
2632.448746,0.000000,306.438199,11843.295072
2632.449060,1776.494261,919.314598,11177.109724
2632.449375,3552.988522,766.095498,10140.821405
2632.449689,2886.803174,1838.629195,9992.780217
2632.450003,1480.411884,2068.457845,9326.594869
2632.450318,2664.741391,1608.800546,8216.285956
2632.450632,3404.947333,1149.143247,7254.018232
2632.450946,1924.535449,1762.019645,9178.553681
2632.451261,444.123565,995.924147,9400.615463
2632.451575,444.123565,842.705048,8512.368333
2632.451889,148.041188,459.657299,8882.471304
2632.452204,-888.247130,-766.095498,8068.244768
2632.452518,-3330.926739,-1225.752797,9252.574275
2632.452832,-2960.823768,-612.876398,8734.430116
2632.453147,-1554.432478,-1149.143247,8438.347739
2632.453461,-1110.308913,-612.876398,9474.636058
2632.453775,-1776.494261,229.828649,9326.594869
2632.454090,74.020594,919.314598,8438.347739
2632.454404,2812.782580,1378.971896,9104.533087
2632.454718,3849.070898,1838.629195,9400.615463
2632.455032,2886.803174,2757.943793,8882.471304
2632.455347,3849.070898,3140.991542,9178.553681
2632.455661,3923.091493,2757.943793,9104.533087
2632.455975,3701.029710,2221.676944,9474.636058
2632.456290,2294.638420,2221.676944,9918.759623
2632.456604,1702.473667,2374.896044,9844.739029
2632.456918,1554.432478,2145.067394,11769.274478
2632.457233,444.123565,1072.533697,10955.047942
2632.457547,-888.247130,612.876398,9474.636058
2632.457861,-1554.432478,1149.143247,9844.739029
2632.458176,-1702.473667,1072.533697,9178.553681
2632.458490,-1776.494261,689.485948,10066.800811
2632.458804,-2886.803174,1302.362347,9400.615463
2632.459119,-2664.741391,1455.581446,8586.388927
2632.459433,-3034.844362,842.705048,7772.162391
2632.459747,-3775.050304,995.924147,6957.935855
2632.460062,-4441.235652,306.438199,7105.977043
2632.460376,-4441.235652,76.609550,7550.100608
2632.460690,-4737.318029,0.000000,8290.306550
2632.461005,-4589.276840,-919.314598,8068.244768
2632.461319,-5107.421000,-1532.190996,8586.388927
2632.461633,-4071.132681,-1225.752797,8956.491898
2632.461947,-2368.659014,-842.705048,9696.697840
2632.462262,-1184.329507,76.609550,9622.677246
2632.462576,-814.226536,0.000000,10288.862594
2632.462890,-592.164754,229.828649,9696.697840
2632.463205,888.247130,536.266849,9622.677246
2632.463519,2146.597232,459.657299,9474.636058
2632.463833,2960.823768,536.266849,9252.574275
2632.464148,3627.009116,1762.019645,9474.636058
2632.464462,3923.091493,459.657299,10214.842000
2632.464776,3404.947333,0.000000,10362.883188
2632.465091,1924.535449,-919.314598,8512.368333
2632.465405,1036.288319,-766.095498,9104.533087
2632.465719,370.102971,-536.266849,10658.965565
2632.466034,518.144159,-536.266849,11325.150913
2632.466348,0.000000,-1225.752797,11251.130318
2632.466662,296.082377,-1149.143247,9548.656652
2632.466977,1036.288319,-536.266849,9400.615463
2632.467291,666.185348,-383.047749,10214.842000
2632.467605,518.144159,0.000000,9918.759623
2632.467920,222.061783,76.609550,9622.677246
2632.468234,-592.164754,229.828649,8512.368333
2632.468548,0.000000,-459.657299,7031.956449
2632.468863,1184.329507,-306.438199,7105.977043
2632.469177,370.102971,1149.143247,9622.677246
2632.469491,666.185348,1762.019645,10436.903782
2632.469805,-592.164754,842.705048,9326.594869
2632.470120,-296.082377,383.047749,7772.162391
2632.470434,-1110.308913,612.876398,7698.141797
2632.470748,-296.082377,1762.019645,8438.347739
2632.471063,592.164754,1685.410096,9474.636058
2632.471377,1332.370696,1838.629195,10066.800811
2632.471691,444.123565,2987.772442,9992.780217
2632.472006,1406.391290,3677.258390,9178.553681
2632.472320,1998.556043,3830.477490,8956.491898
2632.472634,2220.617826,2757.943793,8438.347739
2632.472949,1332.370696,2987.772442,9104.533087
2632.473263,444.123565,2987.772442,9326.594869
2632.473577,444.123565,2681.334243,9104.533087
2632.473892,296.082377,1838.629195,8882.471304
2632.474206,-666.185348,1838.629195,9252.574275
2632.474520,-370.102971,2221.676944,10140.821405
2632.474835,-518.144159,2451.505594,10658.965565
2632.475149,-1480.411884,1838.629195,10584.944971
2632.475463,-3330.926739,1225.752797,9252.574275
2632.475778,-4515.256246,766.095498,8438.347739
2632.476092,-2812.782580,536.266849,7550.100608
2632.476406,-2146.597232,766.095498,8438.347739
2632.476720,-3627.009116,1072.533697,8882.471304
2632.477035,-4145.153275,306.438199,8734.430116
2632.477349,-4145.153275,0.000000,8290.306550
2632.477663,-3478.967927,-766.095498,7772.162391
2632.477978,-3256.906145,-306.438199,8512.368333
2632.478292,-3108.864956,-536.266849,8438.347739
2632.478606,-1184.329507,-919.314598,9030.512492
2632.478921,74.020594,229.828649,9548.656652
2632.479235,1332.370696,76.609550,9918.759623
2632.479549,1924.535449,0.000000,9400.615463
2632.479864,3182.885551,1072.533697,9918.759623
2632.480178,4219.173869,1149.143247,10288.862594
2632.480492,3330.926739,306.438199,10584.944971
2632.480807,2812.782580,306.438199,10584.944971
2632.481121,3404.947333,76.609550,10066.800811
2632.481435,3256.906145,0.000000,9252.574275
2632.481750,1924.535449,0.000000,9992.780217
2632.482064,592.164754,-306.438199,10436.903782
2632.482378,2072.576638,0.000000,10658.965565
2632.482693,1332.370696,-536.266849,10362.883188
2632.483007,518.144159,-1225.752797,9104.533087
2632.483321,-888.247130,-1532.190996,9178.553681
2632.483635,-1110.308913,-1302.362347,9474.636058
2632.483950,-370.102971,-919.314598,9844.739029
2632.484264,-592.164754,-919.314598,9030.512492
2632.484578,-1184.329507,-383.047749,9400.615463
2632.484893,-74.020594,-383.047749,7846.182985
2632.485207,222.061783,0.000000,8512.368333
2632.485521,-740.205942,306.438199,8142.265362
2632.485836,-1554.432478,536.266849,8364.327145
2632.486150,-148.041188,229.828649,8882.471304
2632.486464,518.144159,0.000000,8142.265362
2632.486779,444.123565,153.219100,8660.409521
2632.487093,-518.144159,1225.752797,9992.780217
2632.487407,592.164754,1685.410096,10881.027347
2632.487722,1554.432478,1302.362347,10140.821405
2632.488036,1184.329507,1685.410096,9252.574275
2632.488350,222.061783,1838.629195,8956.491898
2632.488665,296.082377,2221.676944,9474.636058
2632.488979,1184.329507,2298.286494,9474.636058
2632.489293,1184.329507,2068.457845,9474.636058
2632.489608,0.000000,2298.286494,9918.759623
2632.489922,0.000000,2604.724693,9992.780217
2632.490236,666.185348,2911.162892,9474.636058
2632.490551,74.020594,2221.676944,8586.388927
2632.490865,-888.247130,1838.629195,9104.533087
2632.491179,-1628.453072,2374.896044,8956.491898
2632.491493,-1628.453072,1838.629195,9252.574275
2632.491808,-2368.659014,1225.752797,8586.388927
2632.492122,-3775.050304,842.705048,8364.327145
2632.492436,-3701.029710,1072.533697,8438.347739
2632.492751,-1702.473667,1915.238745,9326.594869
2632.493065,-2516.700203,459.657299,8586.388927
2632.493379,-3182.885551,229.828649,9030.512492
2632.493694,-4885.359217,-1149.143247,8734.430116
2632.494008,-3775.050304,-306.438199,8660.409521
2632.494322,-2220.617826,-689.485948,8512.368333
2632.494637,-962.267725,0.000000,9030.512492
2632.494951,0.000000,1455.581446,10510.924376
2632.495265,2220.617826,1762.019645,9474.636058
2632.495580,3627.009116,1455.581446,9474.636058
2632.495894,3256.906145,1072.533697,8068.244768
2632.496208,3108.864956,1915.238745,9104.533087
2632.496523,3775.050304,1991.848295,9770.718434
2632.496837,4589.276840,1072.533697,9770.718434
2632.497151,4071.132681,995.924147,10140.821405
2632.497466,2664.741391,766.095498,10658.965565
2632.497780,2590.720797,766.095498,10807.006753
2632.498094,2294.638420,383.047749,9770.718434
2632.498408,1258.350101,-459.657299,9400.615463
2632.498723,-518.144159,-306.438199,10510.924376
2632.499037,-1924.535449,-995.924147,9770.718434
2632.499351,-1184.329507,-1378.971896,8586.388927
2632.499666,814.226536,-383.047749,8882.471304
2632.499980,518.144159,306.438199,8808.450710
2632.500294,888.247130,689.485948,9770.718434
2632.500609,814.226536,536.266849,8660.409521
2632.500923,1406.391290,229.828649,7624.121203
2632.501237,-1406.391290,-229.828649,7254.018232
2632.501552,-2368.659014,-842.705048,8068.244768
2632.501866,-3108.864956,-1378.971896,8512.368333
2632.502180,-3108.864956,-1991.848295,9104.533087
2632.502495,-3404.947333,-1915.238745,10658.965565
2632.502809,-3182.885551,-1762.019645,10362.883188
2632.503123,-2442.679609,-1149.143247,10214.842000
2632.503438,0.000000,-689.485948,8956.491898
2632.503752,222.061783,383.047749,9104.533087
2632.504066,1036.288319,1838.629195,10362.883188
2632.504381,962.267725,1838.629195,10362.883188
2632.504695,2220.617826,1378.971896,9326.594869
2632.505009,3330.926739,2604.724693,8808.450710
2632.505324,3849.070898,3370.820191,9326.594869
2632.505638,3330.926739,3064.381992,9770.718434
2632.505952,1628.453072,1838.629195,8364.327145
2632.506266,-1036.288319,1072.533697,8364.327145
2632.506581,-2516.700203,153.219100,9400.615463
2632.506895,-3256.906145,-229.828649,9474.636058
2632.507209,-3404.947333,-689.485948,9104.533087
2632.507524,-3330.926739,76.609550,10362.883188
2632.507838,-3256.906145,459.657299,11251.130318
2632.508152,-2886.803174,-153.219100,9400.615463
2632.508467,-2886.803174,76.609550,8068.244768
2632.508781,-3330.926739,689.485948,7254.018232
2632.509095,-3627.009116,459.657299,8216.285956
2632.509410,-3404.947333,766.095498,8216.285956
2632.509724,-2590.720797,995.924147,8290.306550
2632.510038,-2442.679609,383.047749,7624.121203
2632.510353,-1850.514855,459.657299,7402.059420
2632.510667,-370.102971,919.314598,8660.409521
2632.510981,-370.102971,1532.190996,9252.574275
2632.511296,74.020594,995.924147,10140.821405
2632.511610,296.082377,1378.971896,9474.636058
2632.511924,1850.514855,1455.581446,9030.512492
2632.512239,3108.864956,1302.362347,9696.697840
2632.512553,3478.967927,2374.896044,10807.006753
2632.512867,3552.988522,2298.286494,10732.986159
2632.513181,5033.400406,2145.067394,10955.047942
2632.513496,4737.318029,2757.943793,10510.924376
2632.513810,4145.153275,2298.286494,9400.615463
2632.514124,2516.700203,1532.190996,8142.265362
2632.514439,3256.906145,1532.190996,8956.491898
2632.514753,2442.679609,2145.067394,8956.491898
2632.515067,2072.576638,1762.019645,9474.636058
2632.515382,1110.308913,919.314598,8216.285956
2632.515696,1332.370696,842.705048,7994.224174
2632.516010,-296.082377,919.314598,8512.368333
2632.516325,-1480.411884,-229.828649,8734.430116
2632.516639,-2960.823768,-766.095498,10066.800811
2632.516953,-4663.297435,-1302.362347,9400.615463
2632.517268,-3552.988522,-1915.238745,9030.512492
2632.517582,-4293.194464,-2374.896044,7698.141797
2632.517896,-3775.050304,-1455.581446,9104.533087
2632.518211,-3108.864956,-689.485948,9622.677246
2632.518525,-1554.432478,-306.438199,9696.697840
2632.518839,-888.247130,-536.266849,8956.491898
2632.519154,-1036.288319,-766.095498,8586.388927
2632.519468,0.000000,229.828649,9178.553681
2632.519782,1480.411884,1149.143247,9844.739029
2632.520096,1998.556043,612.876398,9992.780217
2632.520411,2886.803174,919.314598,10881.027347
2632.520725,2664.741391,2221.676944,9992.780217
2632.521039,2886.803174,1532.190996,9770.718434
2632.521354,2368.659014,1072.533697,9770.718434
2632.521668,1332.370696,842.705048,10510.924376
2632.521982,-1036.288319,1149.143247,10214.842000
2632.522297,-1258.350101,153.219100,10362.883188
2632.522611,-1554.432478,-229.828649,9252.574275
2632.522925,-2590.720797,-459.657299,9474.636058
2632.523240,-2886.803174,0.000000,8734.430116
2632.523554,-2368.659014,153.219100,9104.533087
2632.523868,-1998.556043,153.219100,8586.388927
2632.524183,-3701.029710,-536.266849,7994.224174
2632.524497,-4145.153275,-306.438199,8438.347739
2632.524811,-4515.256246,-766.095498,7846.182985
2632.525126,-3701.029710,-1378.971896,8068.244768
2632.525440,-3552.988522,-383.047749,9474.636058
2632.525755,-3404.947333,459.657299,8808.450710
2632.526069,-1776.494261,-229.828649,8512.368333
2632.526383,-888.247130,-229.828649,8068.244768
2632.526698,-666.185348,689.485948,8438.347739
2632.527012,-444.123565,1532.190996,8882.471304
2632.527326,1776.494261,1149.143247,9474.636058
2632.527641,3775.050304,1762.019645,9622.677246
2632.527955,3923.091493,2298.286494,9992.780217
2632.528269,4589.276840,3447.429741,10881.027347
2632.528584,5403.503377,2757.943793,9622.677246
2632.528898,5847.626942,2987.772442,9400.615463
2632.529213,5033.400406,3064.381992,10288.862594
2632.529527,3108.864956,2834.553343,9918.759623
2632.529841,2368.659014,1608.800546,9474.636058
2632.530156,1776.494261,1455.581446,9252.574275
2632.530470,1776.494261,1302.362347,9696.697840
2632.530784,-296.082377,1302.362347,10436.903782
2632.531099,-518.144159,1072.533697,10066.800811
2632.531413,222.061783,1149.143247,9696.697840
2632.531727,-222.061783,153.219100,7920.203579
2632.532042,-1850.514855,689.485948,9548.656652
2632.532356,-3404.947333,229.828649,9104.533087
2632.532671,-3182.885551,0.000000,8512.368333
2632.532985,-2886.803174,-383.047749,7476.080014
2632.533299,-2960.823768,0.000000,7772.162391
2632.533614,-2812.782580,1455.581446,8586.388927
2632.533928,-2220.617826,1225.752797,8438.347739
2632.534242,0.000000,842.705048,8882.471304
2632.534557,-1406.391290,459.657299,8660.409521
2632.534871,-1258.350101,459.657299,8586.388927
2632.535185,296.082377,1149.143247,9252.574275
2632.535500,2368.659014,1685.410096,10140.821405
2632.535814,2812.782580,1608.800546,11177.109724
2632.536129,2516.700203,1762.019645,10288.862594
2632.536443,3478.967927,2145.067394,9548.656652
2632.536757,3849.070898,1608.800546,9844.739029
2632.537072,2442.679609,1378.971896,9918.759623
2632.537386,1184.329507,1378.971896,10066.800811
2632.537700,1184.329507,1149.143247,9474.636058
2632.538015,1702.473667,995.924147,9252.574275
2632.538329,740.205942,1149.143247,9104.533087
2632.538643,148.041188,1378.971896,9326.594869
2632.538958,-444.123565,1608.800546,9474.636058
2632.539272,-2146.597232,-306.438199,9030.512492
2632.539587,-4219.173869,-1608.800546,8142.265362
2632.539901,-6143.709319,-1532.190996,9178.553681
2632.540215,-6661.853478,-2451.505594,8216.285956
2632.540530,-6217.729913,-2681.334243,8512.368333
2632.540844,-5921.647536,-1991.848295,9992.780217
2632.541158,-5403.503377,-1455.581446,9400.615463
2632.541473,-3182.885551,-1532.190996,8660.409521
2632.541787,-2368.659014,-995.924147,8290.306550
2632.542102,-1628.453072,-383.047749,9030.512492
2632.542416,-1184.329507,0.000000,8956.491898
2632.542730,1258.350101,229.828649,9400.615463
2632.543045,2516.700203,766.095498,8586.388927
2632.543359,3923.091493,1762.019645,8808.450710
2632.543673,4515.256246,1991.848295,10732.986159
2632.543988,5773.606348,2221.676944,10066.800811
2632.544302,5847.626942,2374.896044,10881.027347
2632.544616,4293.194464,2298.286494,10807.006753
2632.544931,2368.659014,919.314598,10066.800811
2632.545245,2368.659014,536.266849,8956.491898
2632.545560,2442.679609,536.266849,9400.615463
2632.545874,1776.494261,0.000000,10732.986159
2632.546188,74.020594,1378.971896,11177.109724
2632.546503,370.102971,1302.362347,10214.842000
2632.546817,888.247130,842.705048,9474.636058
2632.547131,-1184.329507,536.266849,9030.512492
2632.547446,-2812.782580,306.438199,8660.409521
2632.547760,-2960.823768,153.219100,7772.162391
2632.548074,-2294.638420,153.219100,7402.059420
2632.548389,-2442.679609,0.000000,7846.182985
2632.548703,-4367.215058,383.047749,8068.244768
2632.549018,-2368.659014,229.828649,8142.265362
2632.549332,-370.102971,995.924147,8068.244768
2632.549646,-296.082377,1302.362347,9104.533087
2632.549961,-1258.350101,1149.143247,9474.636058
2632.550275,-962.267725,766.095498,9104.533087
2632.550589,148.041188,1149.143247,8290.306550
2632.550904,1628.453072,689.485948,8882.471304
2632.551218,1554.432478,919.314598,10658.965565
2632.551532,2294.638420,2451.505594,10658.965565
2632.551847,4219.173869,2451.505594,9474.636058
2632.552161,5255.462188,2221.676944,8956.491898
2632.552476,2368.659014,2604.724693,10214.842000
2632.552790,1554.432478,2451.505594,9992.780217
2632.553104,1850.514855,1838.629195,8956.491898
2632.553419,2368.659014,1225.752797,8808.450710
2632.553733,666.185348,1532.190996,9548.656652
2632.554047,-1036.288319,1455.581446,9844.739029
2632.554362,-444.123565,1072.533697,10362.883188
2632.554676,-1332.370696,153.219100,9474.636058
2632.554990,-2664.741391,-1225.752797,8586.388927
2632.555305,-4885.359217,-919.314598,9622.677246
2632.555619,-5773.606348,-1149.143247,8660.409521
2632.555934,-4515.256246,-1991.848295,8438.347739
2632.556248,-3997.112087,-1225.752797,9104.533087
2632.556562,-5033.400406,-766.095498,9030.512492
2632.556877,-3330.926739,-995.924147,8290.306550
2632.557191,-1480.411884,76.609550,8956.491898
2632.557505,-518.144159,76.609550,8586.388927
2632.557820,-2072.576638,0.000000,8882.471304
2632.558134,-1554.432478,-536.266849,8808.450710
2632.558448,0.000000,0.000000,7994.224174
2632.558763,1998.556043,0.000000,8808.450710
2632.559077,2664.741391,766.095498,10066.800811
2632.559392,3552.988522,1608.800546,10140.821405
2632.559706,4145.153275,2451.505594,10881.027347
2632.560020,4293.194464,1685.410096,10436.903782
2632.560335,2812.782580,842.705048,9548.656652
2632.560649,1480.411884,536.266849,9992.780217
2632.560963,962.267725,383.047749,9918.759623
2632.561278,2590.720797,229.828649,10436.903782
2632.561592,1702.473667,766.095498,9474.636058
2632.561906,1332.370696,995.924147,9474.636058
2632.562221,592.164754,2145.067394,9548.656652
2632.562535,74.020594,1072.533697,8586.388927
2632.562850,0.000000,995.924147,8364.327145
2632.563164,-592.164754,689.485948,8364.327145
2632.563478,-1776.494261,229.828649,8364.327145
2632.563793,-1998.556043,-995.924147,8438.347739
2632.564107,-1628.453072,-153.219100,9696.697840
2632.564421,-2368.659014,153.219100,9770.718434
2632.564736,-1628.453072,-229.828649,9178.553681
2632.565050,-222.061783,0.000000,8512.368333
2632.565364,-888.247130,306.438199,8808.450710
2632.565679,-1850.514855,0.000000,9844.739029
2632.565993,-1332.370696,0.000000,9104.533087
2632.566308,-592.164754,459.657299,9104.533087
2632.566622,-296.082377,1072.533697,9474.636058
2632.566936,370.102971,689.485948,8956.491898
2632.567251,1332.370696,1608.800546,8216.285956
2632.567565,2442.679609,2528.115143,8068.244768
2632.567879,1850.514855,2068.457845,8808.450710
2632.568194,1110.308913,1991.848295,8882.471304
2632.568508,0.000000,1532.190996,7476.080014
2632.568822,518.144159,1302.362347,8882.471304
2632.569137,148.041188,1072.533697,10510.924376
2632.569451,-740.205942,1072.533697,10510.924376
2632.569766,-444.123565,1378.971896,10066.800811
2632.570080,0.000000,1072.533697,9178.553681
2632.570394,-888.247130,229.828649,9992.780217
2632.570709,-2294.638420,612.876398,9474.636058
2632.571023,-2368.659014,76.609550,9474.636058
2632.571337,-1702.473667,76.609550,8734.430116
2632.571652,-1924.535449,0.000000,9400.615463
2632.571966,-2590.720797,1072.533697,10510.924376
2632.572280,-2294.638420,306.438199,9178.553681
2632.572595,-518.144159,0.000000,8660.409521
2632.572909,-592.164754,766.095498,9474.636058
2632.573224,-2812.782580,689.485948,9474.636058
2632.573538,-2886.803174,-536.266849,8438.347739
2632.573852,-2442.679609,0.000000,7846.182985
2632.574167,-1628.453072,-689.485948,7772.162391
2632.574481,-1850.514855,-306.438199,9252.574275
2632.574795,-1480.411884,-229.828649,9104.533087
2632.575110,148.041188,459.657299,9252.574275
2632.575424,1776.494261,229.828649,9178.553681
2632.575739,1406.391290,689.485948,10362.883188
2632.576053,1332.370696,1072.533697,9474.636058
2632.576367,2664.741391,995.924147,8216.285956
2632.576682,4145.153275,1225.752797,9252.574275
2632.576996,3627.009116,2298.286494,9844.739029
2632.577310,3404.947333,2145.067394,9918.759623
2632.577625,4737.318029,2068.457845,9844.739029
2632.577939,5403.503377,2298.286494,9474.636058
2632.578253,3182.885551,1838.629195,10066.800811
2632.578568,1258.350101,1149.143247,9918.759623
2632.578882,1036.288319,842.705048,9844.739029
2632.579197,888.247130,536.266849,9326.594869
2632.579511,296.082377,229.828649,10288.862594
2632.579825,-1554.432478,153.219100,9844.739029
2632.580140,-1776.494261,0.000000,9548.656652
2632.580454,-1480.411884,229.828649,9696.697840
2632.580768,-2072.576638,0.000000,8586.388927
2632.581083,-2146.597232,229.828649,8290.306550
2632.581397,-2368.659014,612.876398,8290.306550
2632.581711,-1924.535449,306.438199,8438.347739
2632.582026,-1554.432478,306.438199,8586.388927
2632.582340,-2294.638420,919.314598,8956.491898
2632.582655,-2368.659014,1149.143247,8808.450710
2632.582969,-1406.391290,1149.143247,9030.512492
2632.583283,0.000000,1532.190996,8290.306550
2632.583598,-740.205942,612.876398,8660.409521
2632.583912,-592.164754,2145.067394,8512.368333
2632.584226,296.082377,1991.848295,8734.430116
2632.584541,1110.308913,2374.896044,9326.594869
2632.584855,592.164754,1608.800546,9622.677246
2632.585169,1776.494261,2145.067394,9548.656652
2632.585484,1554.432478,1915.238745,9474.636058
2632.585798,1628.453072,1378.971896,10436.903782
2632.586113,740.205942,1838.629195,9918.759623
2632.586427,444.123565,1455.581446,8586.388927
2632.586741,-296.082377,306.438199,8512.368333
2632.587056,-370.102971,766.095498,9622.677246
2632.587370,-888.247130,612.876398,10658.965565
2632.587684,-962.267725,-306.438199,9844.739029
2632.587999,-1258.350101,-995.924147,9474.636058
2632.588313,-1924.535449,-919.314598,9104.533087
2632.588627,-3627.009116,-1532.190996,10066.800811
2632.588942,-4293.194464,-1762.019645,10140.821405
2632.589256,-3701.029710,-1532.190996,9474.636058
2632.589571,-2960.823768,-2221.676944,8808.450710
2632.589885,-4071.132681,-2145.067394,9548.656652
2632.590199,-3182.885551,-1532.190996,8956.491898
2632.590514,-1998.556043,-1072.533697,8734.430116
2632.590828,0.000000,-919.314598,8216.285956
2632.591142,222.061783,-612.876398,9030.512492
2632.591457,370.102971,766.095498,9474.636058
2632.591771,962.267725,459.657299,8956.491898
2632.592085,2146.597232,153.219100,7772.162391
2632.592400,3182.885551,1302.362347,8216.285956
2632.592714,2960.823768,1762.019645,8660.409521
2632.593029,3923.091493,2068.457845,9622.677246
2632.593343,4293.194464,1685.410096,10288.862594
2632.593657,3256.906145,1455.581446,10066.800811
2632.593972,2960.823768,842.705048,10214.842000
2632.594286,2812.782580,1991.848295,9770.718434
2632.594600,3849.070898,1838.629195,10066.800811
2632.594915,3108.864956,1685.410096,10658.965565
2632.595229,1554.432478,2911.162892,10732.986159
2632.595543,740.205942,1838.629195,9622.677246
2632.595858,1184.329507,1072.533697,8512.368333
2632.596172,-888.247130,536.266849,7846.182985
2632.596487,-1628.453072,1149.143247,9252.574275
2632.596801,-1184.329507,1225.752797,9548.656652
2632.597115,-2072.576638,842.705048,9400.615463
2632.597430,-2738.761985,689.485948,8734.430116
2632.597744,-3849.070898,-766.095498,7254.018232
2632.598058,-3552.988522,383.047749,7624.121203
2632.598373,-3330.926739,995.924147,8882.471304
2632.598687,-3478.967927,76.609550,8882.471304
2632.599001,-4441.235652,-229.828649,8808.450710
2632.599316,-3849.070898,229.828649,8216.285956
2632.599630,-1184.329507,383.047749,7698.141797
2632.599945,0.000000,842.705048,7920.203579
2632.600259,888.247130,2221.676944,8586.388927
2632.600573,2516.700203,2834.553343,9104.533087
2632.600888,3552.988522,2911.162892,9992.780217
2632.601202,2590.720797,1685.410096,9992.780217
2632.601516,1924.535449,1915.238745,9622.677246
2632.601831,1702.473667,1072.533697,9844.739029
2632.602145,2368.659014,1378.971896,10214.842000
2632.602459,2738.761985,1302.362347,9918.759623
2632.602774,1628.453072,1378.971896,10584.944971
2632.603088,1258.350101,1072.533697,10955.047942
2632.603403,444.123565,766.095498,9326.594869
2632.603717,518.144159,0.000000,9548.656652
2632.604031,-1480.411884,153.219100,10584.944971
2632.604346,-2960.823768,-689.485948,9992.780217
2632.604660,-2960.823768,-1608.800546,9548.656652
2632.604974,-3108.864956,-2068.457845,7994.224174
2632.605289,-4145.153275,-1915.238745,8586.388927
2632.605603,-3849.070898,-1378.971896,9474.636058
2632.605917,-3775.050304,-995.924147,9548.656652
2632.606232,-3330.926739,-1915.238745,8586.388927
2632.606546,-4589.276840,-2221.676944,8438.347739
2632.606861,-4219.173869,-1991.848295,8290.306550
2632.607175,-2146.597232,-1608.800546,7476.080014
2632.607489,-222.061783,-153.219100,8586.388927
2632.607804,1110.308913,612.876398,9622.677246
2632.608118,1776.494261,842.705048,9104.533087
2632.608432,3034.844362,1532.190996,8586.388927
2632.608747,4293.194464,2068.457845,9178.553681
2632.609061,4219.173869,2834.553343,10066.800811
2632.609376,4071.132681,3370.820191,10955.047942
2632.609690,4219.173869,2451.505594,9918.759623
2632.610004,4293.194464,2145.067394,9252.574275
2632.610319,3330.926739,1838.629195,8882.471304
2632.610633,2294.638420,2145.067394,10140.821405
2632.610947,2442.679609,2451.505594,10510.924376
2632.611262,2516.700203,2068.457845,9844.739029
2632.611576,1406.391290,1762.019645,9622.677246
2632.611890,0.000000,1685.410096,9400.615463
2632.612205,-1036.288319,1149.143247,9178.553681
2632.612519,-296.082377,1072.533697,8586.388927
2632.612834,-1110.308913,459.657299,8068.244768
2632.613148,-2516.700203,1455.581446,8956.491898
2632.613462,-3627.009116,689.485948,9252.574275
2632.613777,-3701.029710,76.609550,8290.306550
2632.614091,-4219.173869,-306.438199,7105.977043
2632.614405,-4219.173869,-459.657299,7698.141797
2632.614720,-4071.132681,229.828649,8882.471304
2632.615034,-3108.864956,-536.266849,8512.368333
2632.615348,-2516.700203,-536.266849,8364.327145
2632.615663,-1924.535449,0.000000,8734.430116
2632.615977,-222.061783,842.705048,10658.965565
2632.616292,1332.370696,2221.676944,11029.068536
2632.616606,2442.679609,919.314598,9030.512492
2632.616920,2886.803174,1608.800546,9400.615463
2632.617235,2812.782580,1991.848295,9918.759623
2632.617549,3330.926739,1838.629195,10584.944971
2632.617863,3701.029710,1455.581446,10658.965565
2632.618178,2590.720797,2221.676944,10881.027347
2632.618492,1998.556043,1532.190996,10214.842000
2632.618806,2664.741391,766.095498,9474.636058
2632.619121,2146.597232,1072.533697,8882.471304
2632.619435,-592.164754,306.438199,9918.759623
2632.619750,-1184.329507,76.609550,9252.574275
2632.620064,-2294.638420,-842.705048,8956.491898
2632.620378,-3108.864956,-1685.410096,8882.471304
2632.620693,-3701.029710,-919.314598,8882.471304
2632.621007,-3330.926739,-919.314598,9030.512492
2632.621321,-2812.782580,229.828649,9622.677246
2632.621636,-3330.926739,-306.438199,9030.512492
2632.621950,-4145.153275,-689.485948,8290.306550
2632.622264,-5181.441594,-995.924147,7105.977043
2632.622579,-3552.988522,-842.705048,7328.038826
2632.622893,-1406.391290,-612.876398,8216.285956
2632.623208,-1110.308913,76.609550,9104.533087
2632.623522,-444.123565,842.705048,9400.615463
2632.623836,1628.453072,1762.019645,9326.594869
2632.624151,2738.761985,1225.752797,9770.718434
2632.624465,2590.720797,1915.238745,9252.574275
2632.624779,2738.761985,2221.676944,9992.780217
2632.625093,3478.967927,2604.724693,9918.759623
2632.625408,3627.009116,1608.800546,10140.821405
2632.625722,2516.700203,1991.848295,9844.739029
2632.626036,2294.638420,1838.629195,9326.594869
2632.626350,2516.700203,1915.238745,9474.636058
2632.626665,2664.741391,2528.115143,9696.697840
2632.626979,2368.659014,3294.210641,9992.780217
2632.627293,888.247130,2298.286494,9104.533087
2632.627607,-148.041188,1685.410096,8956.491898
2632.627922,-370.102971,1072.533697,8290.306550
2632.628236,-1924.535449,383.047749,8068.244768
2632.628550,-2738.761985,153.219100,8808.450710
2632.628864,-2442.679609,0.000000,9696.697840
2632.629179,-1776.494261,-612.876398,9030.512492
2632.629493,-3256.906145,-1838.629195,9548.656652
2632.629807,-4071.132681,-1072.533697,8734.430116
2632.630121,-3627.009116,-995.924147,7846.182985
2632.630436,-1184.329507,-766.095498,8364.327145
2632.630750,-296.082377,0.000000,9548.656652
2632.631064,962.267725,689.485948,9548.656652
2632.631378,1850.514855,842.705048,9400.615463
2632.631693,2590.720797,1455.581446,9178.553681
2632.632007,2072.576638,1915.238745,10066.800811
2632.632321,2072.576638,1685.410096,9918.759623
2632.632635,2812.782580,1378.971896,9178.553681
2632.632950,3552.988522,1685.410096,8512.368333
2632.633264,3404.947333,1302.362347,9400.615463
2632.633578,1110.308913,766.095498,10658.965565
2632.633892,1480.411884,1302.362347,10436.903782
2632.634207,1702.473667,383.047749,10066.800811
2632.634521,518.144159,-306.438199,9770.718434
2632.634835,-1406.391290,76.609550,10362.883188
2632.635149,-2220.617826,153.219100,10066.800811
2632.635464,-1924.535449,-1225.752797,9104.533087
2632.635778,-1924.535449,-1762.019645,9252.574275
2632.636092,-3627.009116,-689.485948,9622.677246
2632.636406,-3256.906145,0.000000,9696.697840
2632.636721,-2516.700203,76.609550,9400.615463
2632.637035,-2516.700203,-459.657299,8660.409521
2632.637349,-4663.297435,-842.705048,7846.182985
2632.637663,-5403.503377,-1072.533697,8512.368333
2632.637978,-4737.318029,-766.095498,8438.347739
2632.638292,-3182.885551,-1072.533697,8142.265362
2632.638606,-3256.906145,-153.219100,8586.388927
2632.638920,-2368.659014,1302.362347,8956.491898
2632.639235,-296.082377,842.705048,8068.244768
2632.639549,1628.453072,1455.581446,7846.182985
2632.639863,1480.411884,2528.115143,8956.491898
2632.640177,1406.391290,2834.553343,9844.739029
2632.640492,3182.885551,2911.162892,10362.883188
2632.640806,4071.132681,2451.505594,8660.409521
2632.641120,3849.070898,2145.067394,8660.409521
2632.641434,3849.070898,2068.457845,8882.471304
2632.641749,4071.132681,3524.039291,9844.739029
2632.642063,4589.276840,3907.087040,10584.944971
2632.642377,3923.091493,2528.115143,10066.800811
2632.642691,1924.535449,1991.848295,8808.450710
2632.643006,740.205942,2374.896044,8808.450710
2632.643320,592.164754,995.924147,9400.615463
2632.643634,0.000000,0.000000,9918.759623
2632.643948,-1406.391290,766.095498,10807.006753
2632.644263,-1776.494261,612.876398,9844.739029
2632.644577,-1924.535449,-536.266849,9178.553681
2632.644891,-2590.720797,-459.657299,8734.430116
2632.645205,-3627.009116,-536.266849,8142.265362
2632.645520,-3552.988522,-1149.143247,8882.471304
2632.645834,-3034.844362,-1072.533697,9326.594869
2632.646148,-2590.720797,-1072.533697,8068.244768
2632.646462,-2812.782580,-1149.143247,9326.594869
2632.646777,-1480.411884,-689.485948,8364.327145
2632.647091,444.123565,76.609550,9548.656652
2632.647405,1406.391290,459.657299,10066.800811
2632.647720,1628.453072,536.266849,9474.636058
2632.648034,1850.514855,536.266849,9400.615463
2632.648348,3256.906145,766.095498,8512.368333
2632.648662,3404.947333,383.047749,8808.450710
2632.648977,3256.906145,689.485948,9696.697840
2632.649291,2442.679609,1225.752797,10288.862594
2632.649605,2516.700203,995.924147,10732.986159
2632.649919,1554.432478,-229.828649,10214.842000
2632.650234,0.000000,-536.266849,9622.677246
2632.650548,-1332.370696,-536.266849,8882.471304
2632.650862,-814.226536,-1225.752797,8882.471304
2632.651176,-1332.370696,-766.095498,9696.697840
2632.651491,-2368.659014,76.609550,10732.986159
2632.651805,-3108.864956,229.828649,10732.986159
2632.652119,-2590.720797,-459.657299,8068.244768
2632.652433,-2590.720797,-1455.581446,7179.997637
2632.652748,-3404.947333,-229.828649,7846.182985
2632.653062,-4737.318029,0.000000,10510.924376
2632.653376,-4367.215058,-459.657299,10584.944971
2632.653690,-3034.844362,-1225.752797,8586.388927
2632.654005,-3552.988522,-995.924147,7402.059420
2632.654319,-3923.091493,689.485948,9548.656652
2632.654633,-2886.803174,459.657299,9696.697840
2632.654947,518.144159,842.705048,9326.594869
2632.655262,592.164754,842.705048,8068.244768
2632.655576,-592.164754,1838.629195,8808.450710
2632.655890,0.000000,2911.162892,10140.821405
2632.656204,2960.823768,3524.039291,9474.636058
2632.656519,4737.318029,3294.210641,9474.636058
2632.656833,4885.359217,4290.134789,8956.491898
2632.657147,5255.462188,5209.449386,9326.594869
2632.657461,5995.668130,5515.887586,9178.553681
2632.657776,4441.235652,3370.820191,8290.306550
2632.658090,2590.720797,3983.696590,8438.347739
2632.658404,962.267725,3907.087040,7550.100608
2632.658718,2072.576638,2681.334243,8660.409521
2632.659033,1110.308913,1532.190996,9030.512492
2632.659347,-666.185348,1302.362347,8956.491898
2632.659661,-1998.556043,1532.190996,9252.574275
2632.659975,-740.205942,1149.143247,9252.574275
2632.660290,-666.185348,842.705048,9104.533087
2632.660604,-2368.659014,842.705048,8068.244768
2632.660918,-2072.576638,0.000000,8068.244768
2632.661232,-888.247130,76.609550,8438.347739
2632.661547,-296.082377,229.828649,9844.739029
2632.661861,-888.247130,842.705048,10140.821405
2632.662175,-444.123565,383.047749,9696.697840
2632.662489,296.082377,0.000000,9622.677246
2632.662804,74.020594,0.000000,9770.718434
2632.663118,-888.247130,-536.266849,9992.780217
2632.663432,-888.247130,-1302.362347,8882.471304
2632.663746,0.000000,-689.485948,8882.471304
2632.664061,1332.370696,-842.705048,9474.636058
2632.664375,666.185348,-842.705048,10732.986159
2632.664689,296.082377,536.266849,10955.047942
2632.665003,2146.597232,76.609550,9992.780217
2632.665318,2590.720797,-536.266849,9548.656652
2632.665632,592.164754,-229.828649,9992.780217
2632.665946,-222.061783,0.000000,8882.471304
2632.666260,444.123565,-1072.533697,7698.141797
2632.666575,666.185348,-766.095498,9178.553681
2632.666889,-1110.308913,-383.047749,9548.656652
2632.667203,-1332.370696,-842.705048,10140.821405
2632.667517,-1924.535449,-995.924147,9326.594869
2632.667832,-2294.638420,-1378.971896,9104.533087
2632.668146,-3552.988522,-1762.019645,9474.636058
2632.668460,-4885.359217,-2298.286494,9400.615463
2632.668774,-5403.503377,-2451.505594,8068.244768
2632.669089,-4441.235652,-2298.286494,8438.347739
2632.669403,-4293.194464,-1762.019645,9696.697840
2632.669717,-4737.318029,-689.485948,10436.903782
2632.670031,-3182.885551,-536.266849,9326.594869
2632.670346,-1776.494261,-459.657299,8808.450710
2632.670660,-2220.617826,-459.657299,8512.368333
2632.670974,-2368.659014,-153.219100,8512.368333
2632.671288,-1480.411884,76.609550,8586.388927
2632.671603,296.082377,153.219100,8142.265362
2632.671917,1554.432478,1225.752797,9252.574275
2632.672231,2072.576638,2068.457845,9918.759623
2632.672545,2960.823768,2221.676944,9992.780217
2632.672860,4811.338623,2757.943793,9104.533087
2632.673174,5107.421000,2834.553343,9770.718434
2632.673488,3923.091493,3524.039291,11029.068536
2632.673802,2146.597232,2451.505594,9326.594869
2632.674117,2590.720797,2451.505594,8438.347739
2632.674431,3478.967927,2374.896044,8586.388927
2632.674745,2516.700203,3370.820191,10214.842000
2632.675059,2516.700203,3294.210641,10066.800811
2632.675374,2516.700203,2911.162892,9548.656652
2632.675688,2220.617826,2834.553343,8882.471304
2632.676002,-148.041188,2298.286494,8956.491898
2632.676316,-1480.411884,2145.067394,8956.491898
2632.676631,-1036.288319,1762.019645,8808.450710
2632.676945,148.041188,1532.190996,9622.677246
2632.677259,-370.102971,2145.067394,10362.883188
2632.677573,-1480.411884,1685.410096,9474.636058
2632.677888,-888.247130,1685.410096,9104.533087
2632.678202,0.000000,2374.896044,9104.533087
2632.678516,-222.061783,2451.505594,9252.574275
2632.678830,-1110.308913,1838.629195,8364.327145
2632.679145,-888.247130,1532.190996,7994.224174
2632.679459,222.061783,1838.629195,7476.080014
2632.679773,444.123565,1608.800546,7550.100608
2632.680087,666.185348,2451.505594,9474.636058
2632.680402,1776.494261,2911.162892,8734.430116
2632.680716,1998.556043,2221.676944,7994.224174
2632.681030,1332.370696,1302.362347,8290.306550
2632.681344,444.123565,1608.800546,9548.656652
2632.681659,-962.267725,1608.800546,9400.615463
2632.681973,0.000000,383.047749,9252.574275
2632.682287,-370.102971,-229.828649,8660.409521
2632.682601,-592.164754,76.609550,9696.697840
2632.682916,0.000000,383.047749,10436.903782
2632.683230,814.226536,383.047749,10214.842000
2632.683544,0.000000,0.000000,9548.656652
2632.683858,-1702.473667,-689.485948,9770.718434
2632.684173,-2220.617826,-689.485948,9844.739029
2632.684487,-2442.679609,-1838.629195,9548.656652
2632.684801,-2664.741391,-1838.629195,9992.780217
2632.685115,-2664.741391,-2604.724693,10584.944971
2632.685430,-2664.741391,-2145.067394,9918.759623
2632.685744,-1850.514855,-1685.410096,10288.862594
2632.686058,-2294.638420,-1838.629195,10510.924376
2632.686372,-3849.070898,-2681.334243,10732.986159
2632.686687,-3552.988522,-2068.457845,9622.677246
2632.687001,-3034.844362,-2298.286494,8586.388927
2632.687315,-2220.617826,-1915.238745,8216.285956
2632.687629,-1998.556043,-1608.800546,8586.388927
2632.687944,74.020594,383.047749,8586.388927
2632.688258,1702.473667,766.095498,9474.636058
2632.688572,1924.535449,383.047749,8586.388927
2632.688886,148.041188,0.000000,8290.306550
2632.689201,-222.061783,0.000000,7476.080014
2632.689515,444.123565,-766.095498,8956.491898
2632.689829,1628.453072,-383.047749,9548.656652
2632.690143,962.267725,-459.657299,9548.656652
2632.690458,1480.411884,1455.581446,10066.800811
2632.690772,3256.906145,1455.581446,9474.636058
2632.691086,3552.988522,919.314598,9400.615463
2632.691400,2812.782580,1378.971896,9770.718434
2632.691715,2220.617826,1072.533697,9474.636058
2632.692029,2220.617826,1149.143247,9326.594869
2632.692343,1998.556043,1149.143247,9326.594869
2632.692657,1036.288319,1072.533697,9918.759623
2632.692972,444.123565,1225.752797,9844.739029
2632.693286,1406.391290,842.705048,9548.656652
2632.693600,814.226536,1302.362347,10066.800811
2632.693914,-2368.659014,153.219100,9696.697840
2632.694229,-3849.070898,-536.266849,8956.491898
2632.694543,-3923.091493,-995.924147,8438.347739
2632.694857,-2664.741391,-612.876398,8734.430116
2632.695172,-2664.741391,153.219100,9770.718434
2632.695486,-2664.741391,1072.533697,10362.883188
2632.695800,-962.267725,1915.238745,8734.430116
2632.696114,1998.556043,2757.943793,7846.182985
2632.696429,1998.556043,3294.210641,8438.347739
2632.696743,2072.576638,4136.915689,8586.388927
2632.697057,2294.638420,3677.258390,8068.244768
2632.697371,3404.947333,3600.648841,7550.100608
2632.697686,3775.050304,4596.572988,8364.327145
2632.698000,3182.885551,4826.401637,9326.594869
2632.698314,3330.926739,4060.306139,9030.512492
2632.698628,3775.050304,3600.648841,9178.553681
2632.698943,2294.638420,4366.744339,10066.800811
2632.699257,-296.082377,2987.772442,10807.006753
2632.699571,-1998.556043,1608.800546,8956.491898
2632.699885,-2072.576638,1838.629195,8586.388927
2632.700200,-2072.576638,1915.238745,9178.553681
2632.700514,-3552.988522,689.485948,9918.759623
2632.700828,-4367.215058,1072.533697,9696.697840
2632.701142,-3775.050304,1378.971896,9030.512492
2632.701457,-3034.844362,919.314598,8512.368333
2632.701771,-4071.132681,689.485948,8882.471304
2632.702085,-4811.338623,229.828649,8660.409521
2632.702399,-3997.112087,0.000000,7476.080014
2632.702714,-3182.885551,76.609550,7031.956449
2632.703028,-4219.173869,-1685.410096,8142.265362
2632.703342,-3404.947333,-1149.143247,8808.450710
2632.703656,-592.164754,229.828649,10436.903782
2632.703971,-1110.308913,0.000000,11029.068536
2632.704285,-222.061783,-1072.533697,10732.986159
2632.704599,-740.205942,-919.314598,8734.430116
2632.704913,2146.597232,-689.485948,8438.347739
2632.705228,3923.091493,-995.924147,8956.491898
2632.705542,3108.864956,76.609550,10066.800811
2632.705856,3701.029710,536.266849,11177.109724
2632.706170,5403.503377,766.095498,9548.656652
2632.706485,5921.647536,383.047749,10214.842000
2632.706799,4811.338623,76.609550,9104.533087
2632.707113,3108.864956,0.000000,10066.800811
2632.707427,2590.720797,-1685.410096,9770.718434
2632.707742,1702.473667,-1838.629195,9918.759623
2632.708056,-222.061783,-2068.457845,9548.656652
2632.708370,-1258.350101,-2298.286494,10658.965565
2632.708684,-444.123565,-1915.238745,10881.027347
2632.708999,666.185348,-2451.505594,9992.780217
2632.709313,-1110.308913,-2528.115143,10288.862594
2632.709627,-2886.803174,-1991.848295,10436.903782
2632.709941,-3108.864956,-2298.286494,8808.450710
2632.710256,-3478.967927,-2298.286494,8586.388927
2632.710570,-2442.679609,-1762.019645,9474.636058
2632.710884,-2368.659014,-919.314598,9030.512492
2632.711198,-1998.556043,153.219100,9696.697840
2632.711513,0.000000,689.485948,8438.347739
2632.711827,1036.288319,1225.752797,7846.182985
2632.712141,222.061783,1225.752797,7550.100608
2632.712455,0.000000,1685.410096,8068.244768
2632.712770,1184.329507,2528.115143,8882.471304
2632.713084,1184.329507,1455.581446,9548.656652
2632.713398,444.123565,2298.286494,10584.944971
2632.713712,1406.391290,2298.286494,8364.327145
2632.714027,2368.659014,3217.601092,8438.347739
2632.714341,1924.535449,3677.258390,9178.553681
2632.714655,888.247130,2911.162892,9252.574275
2632.714969,-222.061783,3524.039291,9474.636058
2632.715284,0.000000,3064.381992,8808.450710
2632.715598,-592.164754,2528.115143,7994.224174
2632.715912,-1850.514855,2298.286494,8438.347739
2632.716226,-2442.679609,2068.457845,8734.430116
2632.716541,-1702.473667,2298.286494,9252.574275
2632.716855,-2812.782580,1838.629195,10658.965565
2632.717169,-4367.215058,1302.362347,10066.800811
2632.717483,-4737.318029,459.657299,8882.471304
2632.717798,-4293.194464,1072.533697,8290.306550
2632.718112,-3182.885551,919.314598,9696.697840
2632.718426,-3552.988522,0.000000,8956.491898
2632.718740,-2664.741391,612.876398,9178.553681
2632.719055,-1036.288319,1915.238745,8734.430116
2632.719369,1036.288319,1838.629195,9252.574275
2632.719683,1628.453072,2451.505594,10362.883188
2632.719997,1184.329507,2911.162892,9400.615463
2632.720312,2886.803174,2834.553343,8734.430116
2632.720626,3997.112087,2145.067394,7994.224174
2632.720940,3775.050304,2604.724693,8882.471304
2632.721254,2664.741391,2451.505594,9474.636058
2632.721569,3552.988522,1838.629195,9104.533087
2632.721883,3775.050304,1455.581446,8734.430116
2632.722197,2960.823768,1608.800546,8882.471304
2632.722511,1628.453072,612.876398,9326.594869
2632.722826,666.185348,153.219100,9474.636058
2632.723140,1184.329507,-842.705048,9030.512492
2632.723454,444.123565,-995.924147,9326.594869
2632.723768,-962.267725,-76.609550,10584.944971
2632.724083,-444.123565,-306.438199,10510.924376
2632.724397,74.020594,-1378.971896,8956.491898
2632.724711,-740.205942,-1685.410096,9252.574275
2632.725025,-1924.535449,-1532.190996,10214.842000
2632.725340,-2812.782580,-1915.238745,10140.821405
2632.725654,-2220.617826,-1915.238745,10214.842000
2632.725968,-2220.617826,-1991.848295,9104.533087
2632.726282,-2516.700203,-2451.505594,9844.739029
2632.726597,-2738.761985,-1378.971896,9770.718434
2632.726911,-1776.494261,-919.314598,10436.903782
2632.727225,-814.226536,-1915.238745,8290.306550
2632.727539,-814.226536,-1455.581446,8512.368333
2632.727854,-1554.432478,-306.438199,8734.430116
2632.728168,-222.061783,0.000000,8882.471304
2632.728482,1554.432478,153.219100,9770.718434
2632.728797,2072.576638,1149.143247,9622.677246
2632.729111,2368.659014,1532.190996,8956.491898
2632.729425,3775.050304,1685.410096,9104.533087
2632.729739,3627.009116,2298.286494,9548.656652
2632.730054,2886.803174,1608.800546,8586.388927
2632.730368,2664.741391,1762.019645,9104.533087
2632.730682,1702.473667,2451.505594,10436.903782
2632.730996,2146.597232,2145.067394,9252.574275
2632.731311,814.226536,1608.800546,9474.636058
2632.731625,-518.144159,1685.410096,8586.388927
2632.731939,-1258.350101,1302.362347,9918.759623
2632.732254,-2368.659014,229.828649,9104.533087
2632.732568,-3849.070898,76.609550,9770.718434
2632.732882,-4441.235652,153.219100,8586.388927
2632.733196,-4663.297435,0.000000,9178.553681
2632.733511,-5107.421000,229.828649,9030.512492
2632.733825,-4737.318029,0.000000,8142.265362
2632.734139,-3627.009116,842.705048,8512.368333
2632.734453,-2738.761985,1378.971896,8512.368333
2632.734768,-1776.494261,1532.190996,9252.574275
2632.735082,-1924.535449,1149.143247,8216.285956
2632.735396,-1406.391290,1302.362347,8290.306550
2632.735711,-666.185348,2298.286494,8808.450710
2632.736025,1036.288319,1685.410096,9178.553681
2632.736339,2146.597232,2451.505594,9918.759623
2632.736653,2294.638420,3140.991542,9992.780217
2632.736968,4811.338623,3140.991542,9622.677246
2632.737282,3923.091493,2528.115143,9326.594869
2632.737596,3627.009116,2374.896044,9400.615463
2632.737910,2664.741391,1838.629195,9474.636058
2632.738225,3182.885551,2298.286494,9696.697840
2632.738539,3701.029710,1991.848295,10436.903782
2632.738853,3256.906145,1685.410096,8586.388927
2632.739168,2294.638420,1915.238745,8956.491898
2632.739482,2294.638420,2298.286494,9252.574275
2632.739796,1998.556043,1149.143247,8586.388927
2632.740110,814.226536,229.828649,8438.347739
2632.740425,-1554.432478,459.657299,9178.553681
2632.740739,-2368.659014,-1302.362347,8808.450710
2632.741053,-2590.720797,-1532.190996,9696.697840
2632.741368,-2664.741391,-919.314598,10436.903782
2632.741682,-3034.844362,-1532.190996,9918.759623
2632.741996,-2294.638420,-1378.971896,10066.800811
2632.742310,-1628.453072,-459.657299,9474.636058
2632.742625,-592.164754,-766.095498,9178.553681
2632.742939,-1184.329507,-459.657299,9030.512492
2632.743253,222.061783,76.609550,9326.594869
2632.743567,962.267725,153.219100,9104.533087
2632.743882,1998.556043,0.000000,8882.471304
2632.744196,1924.535449,1378.971896,9918.759623
2632.744510,2664.741391,2221.676944,9844.739029
2632.744825,3478.967927,1302.362347,9030.512492
2632.745139,3034.844362,995.924147,7698.141797
2632.745453,1554.432478,1225.752797,7550.100608
2632.745767,370.102971,-383.047749,9104.533087
2632.746082,1110.308913,689.485948,10362.883188
2632.746396,222.061783,459.657299,9844.739029
2632.746710,-962.267725,459.657299,10066.800811
2632.747024,-1110.308913,76.609550,10288.862594
2632.747339,-1036.288319,842.705048,8956.491898
2632.747653,-1554.432478,383.047749,9326.594869
2632.747967,-3256.906145,76.609550,9104.533087
2632.748282,-3108.864956,0.000000,8882.471304
2632.748596,-2960.823768,-383.047749,8882.471304
2632.748910,-2442.679609,-766.095498,9030.512492
2632.749224,-2886.803174,-383.047749,10436.903782
2632.749539,-3775.050304,0.000000,10658.965565
2632.749853,-2738.761985,76.609550,10436.903782
2632.750167,-3404.947333,-612.876398,8734.430116
2632.750481,-4441.235652,-1149.143247,7179.997637
2632.750796,-5255.462188,-1149.143247,8068.244768
2632.751110,-4663.297435,-1072.533697,8956.491898
2632.751424,-2960.823768,-1149.143247,9548.656652
2632.751739,-1998.556043,-689.485948,8734.430116
2632.752053,-1332.370696,612.876398,9474.636058
2632.752367,74.020594,2068.457845,8956.491898
2632.752681,1776.494261,1532.190996,8438.347739
2632.752996,3182.885551,2374.896044,7698.141797
2632.753310,4071.132681,2834.553343,7846.182985
2632.753624,4145.153275,2834.553343,8512.368333
2632.753939,4811.338623,2757.943793,9474.636058
2632.754253,4737.318029,2374.896044,9474.636058
2632.754567,4367.215058,2298.286494,9252.574275
2632.754881,4737.318029,1762.019645,9252.574275
2632.755196,4293.194464,2068.457845,9844.739029
2632.755510,2146.597232,1072.533697,10955.047942
2632.755824,74.020594,0.000000,10140.821405
2632.756138,-666.185348,-536.266849,8882.471304
2632.756453,-592.164754,0.000000,8660.409521
2632.756767,-518.144159,153.219100,9548.656652
2632.757081,-1406.391290,1149.143247,11029.068536
2632.757396,-1850.514855,689.485948,10140.821405
2632.757710,-1110.308913,0.000000,7920.203579
2632.758024,-1850.514855,229.828649,7179.997637
2632.758338,-2886.803174,612.876398,7772.162391
2632.758653,-1924.535449,459.657299,8364.327145
2632.758967,-296.082377,612.876398,9326.594869
2632.759281,444.123565,689.485948,10436.903782
2632.759595,222.061783,1302.362347,9030.512492
2632.759910,1776.494261,1378.971896,8290.306550
2632.760224,3034.844362,1915.238745,9548.656652
2632.760538,3627.009116,2451.505594,10436.903782
2632.760853,3108.864956,2604.724693,11029.068536
2632.761167,4219.173869,3140.991542,9548.656652
2632.761481,4885.359217,3064.381992,9178.553681
2632.761795,4293.194464,2834.553343,8586.388927
2632.762110,3034.844362,2604.724693,9030.512492
2632.762424,2368.659014,2528.115143,9548.656652
2632.762738,888.247130,2068.457845,10288.862594
2632.763052,-296.082377,1762.019645,9622.677246
2632.763367,-3108.864956,229.828649,8290.306550
2632.763681,-5033.400406,-612.876398,8142.265362
2632.763995,-5255.462188,-919.314598,8512.368333
2632.764310,-4885.359217,-919.314598,8956.491898
2632.764624,-7328.038826,-1225.752797,9844.739029
2632.764938,-7254.018232,-2068.457845,9252.574275
2632.765252,-6439.791695,-1378.971896,8512.368333
2632.765567,-5847.626942,-1685.410096,8882.471304
2632.765881,-6217.729913,-1532.190996,9400.615463
2632.766195,-5773.606348,-995.924147,9548.656652
2632.766510,-4737.318029,-1532.190996,8216.285956
2632.766824,-1702.473667,-766.095498,8882.471304
2632.767138,-1184.329507,-612.876398,9104.533087
2632.767452,-888.247130,612.876398,9548.656652
2632.767767,444.123565,459.657299,9622.677246
2632.768081,2664.741391,612.876398,9992.780217
2632.768395,2886.803174,459.657299,10436.903782
2632.768709,2072.576638,459.657299,10436.903782
2632.769024,3182.885551,536.266849,9178.553681
2632.769338,4737.318029,919.314598,9252.574275
2632.769652,4959.379811,1149.143247,9622.677246
2632.769967,3627.009116,919.314598,10362.883188
2632.770281,3552.988522,2068.457845,10510.924376
2632.770595,3627.009116,1225.752797,9844.739029
2632.770909,3552.988522,76.609550,7994.224174
2632.771224,1776.494261,766.095498,8882.471304
2632.771538,592.164754,689.485948,8512.368333
2632.771852,888.247130,229.828649,8882.471304
2632.772166,0.000000,0.000000,8808.450710
2632.772481,-1036.288319,-229.828649,9030.512492
2632.772795,-1036.288319,0.000000,8660.409521
2632.773109,-740.205942,383.047749,9474.636058
2632.773424,-740.205942,153.219100,10288.862594
2632.773738,-1702.473667,-459.657299,9844.739029
2632.774052,-2886.803174,-383.047749,9252.574275
2632.774366,-2368.659014,-459.657299,8216.285956
2632.774681,-148.041188,0.000000,8216.285956
2632.774995,740.205942,612.876398,8882.471304
2632.775309,1036.288319,1838.629195,9696.697840
2632.775623,1258.350101,2604.724693,10066.800811
2632.775938,2220.617826,2528.115143,9326.594869
2632.776252,1924.535449,2451.505594,9104.533087
2632.776566,1628.453072,2068.457845,8068.244768
2632.776881,1850.514855,1915.238745,7772.162391
2632.777195,2072.576638,2145.067394,9474.636058
2632.777509,1924.535449,1838.629195,10140.821405
2632.777823,962.267725,2451.505594,10955.047942
2632.778138,296.082377,2451.505594,9548.656652
2632.778452,888.247130,1225.752797,8660.409521
2632.778766,740.205942,2298.286494,9474.636058
2632.779080,-666.185348,2145.067394,9622.677246
2632.779395,-1628.453072,1608.800546,10140.821405
2632.779709,-1850.514855,842.705048,8512.368333
2632.780023,-1924.535449,306.438199,7550.100608
2632.780338,-3478.967927,766.095498,8364.327145
2632.780652,-4441.235652,766.095498,8660.409521
2632.780966,-3923.091493,459.657299,9474.636058
2632.781280,-5107.421000,-689.485948,9548.656652
2632.781595,-4737.318029,-1378.971896,8660.409521
2632.781909,-5033.400406,-1072.533697,7624.121203
2632.782223,-4367.215058,-1072.533697,8068.244768
2632.782538,-3182.885551,-919.314598,9474.636058
2632.782852,-1702.473667,383.047749,11177.109724
2632.783166,222.061783,995.924147,10807.006753
2632.783480,518.144159,689.485948,9178.553681
2632.783795,74.020594,459.657299,8734.430116
2632.784109,740.205942,76.609550,8660.409521
2632.784423,1406.391290,229.828649,9104.533087
2632.784737,2368.659014,919.314598,9770.718434
2632.785052,3108.864956,995.924147,9474.636058
2632.785366,2812.782580,1225.752797,9918.759623
2632.785680,2664.741391,995.924147,9548.656652
2632.785995,3552.988522,995.924147,9548.656652
2632.786309,2590.720797,689.485948,8956.491898
2632.786623,2294.638420,842.705048,9030.512492
2632.786937,2072.576638,842.705048,9474.636058
2632.787252,1036.288319,229.828649,9696.697840
2632.787566,0.000000,-536.266849,9326.594869
2632.787880,-962.267725,-229.828649,9474.636058
2632.788194,0.000000,153.219100,8808.450710
2632.788509,814.226536,-229.828649,8586.388927
2632.788823,74.020594,766.095498,9696.697840
2632.789137,-2442.679609,-306.438199,9400.615463
2632.789452,-2368.659014,-1608.800546,8882.471304
2632.789766,-1702.473667,-766.095498,9030.512492
2632.790080,-1110.308913,-536.266849,8660.409521
2632.790394,-1702.473667,0.000000,10658.965565
2632.790709,0.000000,459.657299,10584.944971
2632.791023,1628.453072,1532.190996,9992.780217
2632.791337,666.185348,1072.533697,8438.347739
2632.791651,-370.102971,842.705048,8734.430116
2632.791966,74.020594,1455.581446,9030.512492
2632.792280,1110.308913,1378.971896,8734.430116
2632.792594,2442.679609,1532.190996,9030.512492
2632.792909,1406.391290,1991.848295,8808.450710
2632.793223,1036.288319,1838.629195,9474.636058
2632.793537,2146.597232,2068.457845,8216.285956
2632.793851,1998.556043,1225.752797,9030.512492
2632.794166,-444.123565,1685.410096,9178.553681
2632.794480,-1110.308913,306.438199,9104.533087
2632.794794,-1406.391290,0.000000,8364.327145
2632.795109,-1406.391290,76.609550,9918.759623
2632.795423,-2442.679609,919.314598,11103.089130
2632.795737,-2442.679609,1225.752797,11251.130318
2632.796051,-1924.535449,612.876398,9400.615463
2632.796366,-1480.411884,383.047749,8216.285956
2632.796680,-2220.617826,153.219100,8216.285956
2632.796994,-3034.844362,383.047749,8734.430116
2632.797308,-2664.741391,229.828649,8808.450710
2632.797623,-1184.329507,306.438199,9400.615463
2632.797937,-1850.514855,-153.219100,9918.759623
2632.798251,-2146.597232,842.705048,10288.862594
2632.798566,-1480.411884,536.266849,9474.636058
2632.798880,-740.205942,153.219100,9400.615463
2632.799194,-1850.514855,-995.924147,8956.491898
2632.799508,-3330.926739,-306.438199,9696.697840
2632.799823,-2886.803174,229.828649,9326.594869
2632.800137,-1036.288319,-306.438199,8734.430116
2632.800451,444.123565,0.000000,8438.347739
2632.800765,666.185348,1685.410096,9474.636058
2632.801080,2516.700203,2221.676944,8882.471304
2632.801394,4441.235652,1838.629195,8364.327145
2632.801708,3997.112087,2528.115143,9326.594869
2632.802023,2368.659014,2757.943793,9844.739029
2632.802337,2146.597232,995.924147,8438.347739
2632.802651,2516.700203,1378.971896,8216.285956
2632.802965,2294.638420,1455.581446,9178.553681
2632.803280,1036.288319,459.657299,10436.903782
2632.803594,814.226536,306.438199,10066.800811
2632.803908,1776.494261,919.314598,8808.450710
2632.804222,518.144159,459.657299,9252.574275
2632.804537,-2516.700203,76.609550,10881.027347
2632.804851,-3182.885551,-612.876398,9918.759623
2632.805165,-2220.617826,536.266849,8956.491898
2632.805480,74.020594,0.000000,8586.388927
2632.805794,666.185348,383.047749,9030.512492
2632.806108,0.000000,1302.362347,9178.553681
2632.806422,592.164754,919.314598,8512.368333
2632.806737,962.267725,612.876398,8586.388927
2632.807051,74.020594,536.266849,9918.759623
2632.807365,-222.061783,919.314598,9030.512492
2632.807680,518.144159,153.219100,8734.430116
2632.807994,1702.473667,842.705048,9252.574275
2632.808308,1258.350101,1149.143247,10658.965565
2632.808622,592.164754,842.705048,10362.883188
2632.808937,1554.432478,1838.629195,10066.800811
2632.809251,2146.597232,2221.676944,9770.718434
2632.809565,666.185348,1225.752797,9548.656652
2632.809879,-1702.473667,383.047749,8438.347739
2632.810194,-1628.453072,536.266849,8364.327145
2632.810508,-962.267725,153.219100,7846.182985
2632.810822,-740.205942,0.000000,8734.430116
2632.811137,-1924.535449,1072.533697,9696.697840
2632.811451,-2368.659014,306.438199,8438.347739
2632.811765,-1554.432478,229.828649,8216.285956
2632.812079,-1998.556043,-306.438199,8882.471304
2632.812394,-3108.864956,-306.438199,10140.821405
2632.812708,-3701.029710,-1149.143247,9030.512492
2632.813022,-2442.679609,-1532.190996,8882.471304
2632.813336,-2368.659014,-536.266849,9622.677246
2632.813651,-1776.494261,0.000000,10955.047942
2632.813965,-740.205942,459.657299,10436.903782
2632.814279,296.082377,842.705048,9326.594869
2632.814594,-296.082377,306.438199,9252.574275
2632.814908,-1702.473667,306.438199,9400.615463
2632.815222,-740.205942,229.828649,9030.512492
2632.815536,74.020594,153.219100,8438.347739
2632.815851,370.102971,459.657299,9474.636058
2632.816165,296.082377,1378.971896,10066.800811
2632.816479,148.041188,995.924147,8956.491898
2632.816793,370.102971,1455.581446,8142.265362
2632.817108,-592.164754,306.438199,7328.038826
2632.817422,-296.082377,689.485948,8290.306550
2632.817736,0.000000,842.705048,8956.491898
2632.818051,740.205942,919.314598,8734.430116
2632.818365,666.185348,919.314598,9548.656652
2632.818679,222.061783,1302.362347,9696.697840
2632.818993,1998.556043,1455.581446,9474.636058
2632.819308,3404.947333,2298.286494,8734.430116
2632.819622,3182.885551,2298.286494,9252.574275
2632.819936,740.205942,1991.848295,11029.068536
2632.820251,1110.308913,1378.971896,10140.821405
2632.820565,1776.494261,612.876398,9104.533087
2632.820879,1554.432478,536.266849,9030.512492
2632.821193,518.144159,919.314598,10436.903782
2632.821508,444.123565,842.705048,9992.780217
2632.821822,962.267725,1225.752797,10214.842000
2632.822136,444.123565,766.095498,9844.739029
2632.822450,-1998.556043,536.266849,9474.636058
2632.822765,-2812.782580,-306.438199,8882.471304
2632.823079,-1702.473667,-153.219100,7698.141797
2632.823393,-296.082377,612.876398,8882.471304
2632.823708,-1258.350101,766.095498,10288.862594
2632.824022,-2146.597232,536.266849,8956.491898
2632.824336,-592.164754,766.095498,7105.977043
2632.824650,592.164754,1149.143247,7328.038826
2632.824965,-518.144159,1455.581446,8734.430116
2632.825279,-592.164754,919.314598,8882.471304
2632.825593,592.164754,842.705048,8438.347739
2632.825907,1480.411884,1455.581446,9474.636058
2632.826222,2072.576638,1225.752797,10214.842000
2632.826536,1184.329507,1149.143247,10584.944971
2632.826850,1850.514855,1685.410096,9474.636058
2632.827165,3849.070898,1685.410096,9918.759623
2632.827479,2738.761985,1838.629195,11029.068536
2632.827793,296.082377,1072.533697,10881.027347
2632.828107,-1110.308913,76.609550,7772.162391
2632.828422,-444.123565,0.000000,7772.162391
2632.828734,-1258.350101,-153.219100,9696.697840
2632.829048,-2442.679609,-536.266849,11325.150913
2632.829362,-2368.659014,76.609550,10140.821405
2632.829677,-1480.411884,306.438199,8290.306550
2632.829991,-2442.679609,76.609550,8808.450710
2632.830306,-4515.256246,-229.828649,9030.512492
2632.830620,-5033.400406,-383.047749,7846.182985
2632.830934,-3997.112087,-842.705048,6661.853478
2632.831249,-2664.741391,-995.924147,7328.038826
2632.831563,-2664.741391,-153.219100,10066.800811
2632.831877,-2368.659014,536.266849,9992.780217
2632.832192,-666.185348,612.876398,9030.512492
2632.832506,592.164754,383.047749,8438.347739
2632.832820,222.061783,689.485948,8808.450710
2632.833135,444.123565,229.828649,8512.368333
2632.833449,1184.329507,536.266849,8734.430116
2632.833763,2220.617826,766.095498,9252.574275
2632.834078,1776.494261,689.485948,10807.006753
2632.834392,592.164754,919.314598,10732.986159
2632.834707,1628.453072,1838.629195,9844.739029
2632.835021,3256.906145,1838.629195,10066.800811
2632.835335,1924.535449,1149.143247,10362.883188
2632.835650,444.123565,689.485948,9474.636058
2632.835964,-222.061783,689.485948,7846.182985
2632.836278,888.247130,153.219100,9696.697840
2632.836593,370.102971,306.438199,10214.842000
2632.836907,0.000000,689.485948,10510.924376
2632.837221,222.061783,919.314598,9696.697840
2632.837536,1850.514855,536.266849,9696.697840
2632.837850,444.123565,1072.533697,9548.656652
2632.838165,-1776.494261,459.657299,9400.615463
2632.838479,-2146.597232,153.219100,9400.615463
2632.838793,-1258.350101,0.000000,9252.574275
2632.839108,-1776.494261,76.609550,8438.347739
2632.839422,-2294.638420,-229.828649,8216.285956
2632.839736,-2220.617826,0.000000,8068.244768
2632.840051,-296.082377,229.828649,8290.306550
2632.840365,74.020594,842.705048,9474.636058
2632.840679,0.000000,1378.971896,9474.636058
2632.840994,-148.041188,1762.019645,7994.224174
2632.841308,1184.329507,1838.629195,8290.306550
2632.841622,2442.679609,1608.800546,8660.409521
2632.841937,1776.494261,1608.800546,9844.739029
2632.842251,1924.535449,2298.286494,9844.739029
2632.842566,2442.679609,2298.286494,8586.388927
2632.842880,3404.947333,1685.410096,8734.430116
2632.843194,2368.659014,1838.629195,9770.718434
2632.843509,1258.350101,1225.752797,9400.615463
2632.843823,1184.329507,1608.800546,10140.821405
2632.844137,1110.308913,1149.143247,10140.821405
2632.844452,148.041188,919.314598,11029.068536
2632.844766,-296.082377,1455.581446,10584.944971
2632.845080,222.061783,2374.896044,9992.780217
2632.845395,370.102971,1455.581446,9844.739029
2632.845709,-888.247130,842.705048,9326.594869
2632.846023,-2368.659014,0.000000,7698.141797
2632.846338,-3849.070898,76.609550,7920.203579
2632.846652,-4515.256246,0.000000,9326.594869
2632.846967,-4367.215058,-229.828649,9696.697840
2632.847281,-3404.947333,842.705048,9474.636058
2632.847595,-2516.700203,459.657299,8808.450710
2632.847910,-1998.556043,1072.533697,8734.430116
2632.848224,-1924.535449,229.828649,8068.244768
2632.848538,-1258.350101,536.266849,7476.080014
2632.848853,-592.164754,1378.971896,7179.997637
2632.849167,888.247130,2374.896044,8586.388927
2632.849481,1332.370696,2374.896044,10214.842000
2632.849796,1850.514855,2145.067394,10066.800811
2632.850110,3775.050304,2834.553343,9326.594869
2632.850424,3775.050304,2068.457845,8142.265362
2632.850739,3849.070898,1838.629195,9030.512492
2632.851053,2516.700203,1915.238745,9622.677246
2632.851368,2220.617826,1608.800546,9696.697840
2632.851682,1628.453072,766.095498,9696.697840
2632.851996,1628.453072,459.657299,9104.533087
2632.852311,296.082377,0.000000,10066.800811
2632.852625,-222.061783,0.000000,10214.842000
2632.852939,-592.164754,-1762.019645,9696.697840
2632.853254,-1850.514855,-1455.581446,10807.006753
2632.853568,-3034.844362,-1685.410096,10807.006753
2632.853882,-3849.070898,-1838.629195,9844.739029
2632.854197,-3627.009116,-1762.019645,9400.615463
2632.854511,-3182.885551,-2374.896044,7994.224174
2632.854826,-2664.741391,-995.924147,8882.471304
2632.855140,-2368.659014,-536.266849,8882.471304
2632.855454,-1850.514855,-612.876398,8808.450710
2632.855769,-1480.411884,-1685.410096,8068.244768
2632.856083,-1924.535449,-1532.190996,7920.203579
2632.856397,-1554.432478,-1225.752797,8364.327145
2632.856712,0.000000,0.000000,9178.553681
2632.857026,1924.535449,153.219100,9104.533087
2632.857340,2812.782580,842.705048,9474.636058
2632.857655,3701.029710,1225.752797,9326.594869
2632.857969,3849.070898,1455.581446,9030.512492
2632.858283,4441.235652,1225.752797,9326.594869
2632.858598,3552.988522,1302.362347,10436.903782
2632.858912,3182.885551,1302.362347,10658.965565
2632.859227,2738.761985,1302.362347,9992.780217
2632.859541,2368.659014,1072.533697,10214.842000
2632.859855,1628.453072,995.924147,9252.574275
2632.860170,1036.288319,153.219100,9770.718434
2632.860484,0.000000,842.705048,10066.800811
2632.860798,-888.247130,0.000000,10584.944971
2632.861113,-3404.947333,0.000000,10436.903782
2632.861427,-4737.318029,-689.485948,9252.574275
2632.861741,-5107.421000,-689.485948,8956.491898
2632.862056,-3627.009116,0.000000,8364.327145
2632.862370,-3478.967927,0.000000,9030.512492
2632.862684,-3330.926739,1225.752797,9474.636058
2632.862999,-3330.926739,1608.800546,8956.491898
2632.863313,-3182.885551,1225.752797,8216.285956
2632.863628,-3775.050304,1302.362347,7698.141797
2632.863942,-3256.906145,1608.800546,7920.203579
2632.864256,-1702.473667,2145.067394,8068.244768
2632.864571,0.000000,1455.581446,8734.430116
2632.864885,888.247130,2528.115143,8216.285956
2632.865199,1480.411884,2987.772442,8660.409521
2632.865514,2368.659014,4136.915689,8364.327145
2632.865828,4145.153275,4060.306139,9474.636058
2632.866142,3404.947333,4443.353888,10362.883188
2632.866457,3330.926739,3753.867940,9474.636058
2632.866771,2960.823768,2987.772442,8438.347739
2632.867086,3256.906145,2681.334243,9030.512492
2632.867400,2516.700203,2604.724693,9918.759623
2632.867714,1332.370696,2451.505594,10955.047942
2632.868029,1036.288319,1915.238745,10140.821405
2632.868343,444.123565,995.924147,8956.491898
2632.868657,-814.226536,459.657299,8512.368333
2632.868972,-1924.535449,-766.095498,8438.347739
2632.869286,-2516.700203,-842.705048,8512.368333
2632.869600,-1998.556043,-1149.143247,9474.636058
2632.869915,-2072.576638,-919.314598,10584.944971
2632.870229,-3034.844362,-766.095498,11473.192101
2632.870543,-1998.556043,-689.485948,9622.677246
2632.870858,-666.185348,-1149.143247,8808.450710
2632.871172,0.000000,-306.438199,8882.471304
2632.871487,-740.205942,-153.219100,8808.450710
2632.871801,-666.185348,-536.266849,7994.224174
2632.872115,370.102971,-536.266849,8068.244768
2632.872430,1776.494261,0.000000,8512.368333
2632.872744,1776.494261,76.609550,9844.739029
2632.873058,2294.638420,536.266849,9844.739029
2632.873373,3330.926739,1225.752797,9104.533087
2632.873687,3552.988522,383.047749,8734.430116
2632.874001,2368.659014,76.609550,8734.430116
2632.874316,2442.679609,-306.438199,8882.471304
2632.874630,2368.659014,536.266849,9992.780217
2632.874944,2960.823768,-306.438199,9844.739029
2632.875259,1850.514855,-919.314598,9918.759623
2632.875573,1258.350101,1072.533697,11325.150913
2632.875888,1406.391290,1072.533697,10881.027347
2632.876202,1480.411884,76.609550,9844.739029
2632.876516,-222.061783,76.609550,9326.594869
2632.876831,-3108.864956,0.000000,8956.491898
2632.877145,-3552.988522,-1149.143247,9178.553681
2632.877459,-3478.967927,-1762.019645,9030.512492
2632.877774,-4515.256246,-1378.971896,10288.862594
2632.878088,-5403.503377,-383.047749,10510.924376
2632.878402,-5107.421000,-766.095498,10066.800811
2632.878717,-5329.482782,-1608.800546,8808.450710
2632.879031,-6143.709319,-1225.752797,7994.224174
2632.879346,-6291.750507,-1225.752797,8660.409521
2632.879660,-5847.626942,76.609550,9104.533087
2632.879974,-3923.091493,306.438199,8956.491898
2632.880289,-2886.803174,842.705048,8660.409521
2632.880603,-1998.556043,1991.848295,8290.306550
2632.880917,-370.102971,2834.553343,7328.038826
2632.881232,1332.370696,2911.162892,7624.121203
2632.881546,2664.741391,3294.210641,8142.265362
2632.881860,2516.700203,3830.477490,7624.121203
2632.882175,2442.679609,3294.210641,7550.100608
2632.882489,3404.947333,2604.724693,8438.347739
2632.882803,3478.967927,2681.334243,8734.430116
2632.883118,4145.153275,2834.553343,10362.883188
2632.883432,3997.112087,3064.381992,10881.027347
2632.883747,3997.112087,2374.896044,10881.027347
2632.884061,2960.823768,1685.410096,10288.862594
2632.884375,1998.556043,1378.971896,9622.677246
2632.884690,1332.370696,1378.971896,9474.636058
2632.885004,1702.473667,1225.752797,9474.636058
2632.885318,1924.535449,1149.143247,9474.636058
2632.885633,1406.391290,1838.629195,10140.821405
2632.885947,148.041188,1762.019645,10658.965565
2632.886261,148.041188,459.657299,9400.615463
2632.886576,-888.247130,-229.828649,7698.141797
2632.886890,-2072.576638,-306.438199,8290.306550
2632.887204,-3552.988522,-459.657299,9770.718434
2632.887519,-2960.823768,-842.705048,9548.656652
2632.887833,-1332.370696,-919.314598,8956.491898
2632.888148,-1406.391290,-689.485948,9252.574275
2632.888462,518.144159,919.314598,10436.903782
2632.888776,962.267725,1149.143247,9474.636058
2632.889091,2960.823768,1532.190996,8956.491898
2632.889405,2368.659014,1991.848295,9252.574275
2632.889719,2368.659014,2528.115143,9104.533087
2632.890034,3034.844362,2068.457845,8586.388927
2632.890348,3997.112087,2068.457845,7105.977043
2632.890662,3775.050304,2221.676944,9918.759623
2632.890977,2442.679609,2374.896044,10214.842000
2632.891291,1628.453072,1532.190996,9622.677246
2632.891605,814.226536,1072.533697,9104.533087
2632.891920,-1628.453072,153.219100,9252.574275
2632.892234,-3478.967927,0.000000,8808.450710
2632.892549,-4145.153275,-383.047749,9844.739029
2632.892863,-5477.523971,-612.876398,9622.677246
2632.893177,-6217.729913,-1532.190996,9030.512492
2632.893492,-5551.544565,-995.924147,9548.656652
2632.893806,-4737.318029,-306.438199,9400.615463
2632.894120,-4441.235652,-459.657299,9400.615463
2632.894435,-4441.235652,-383.047749,8956.491898
2632.894749,-4441.235652,0.000000,8364.327145
2632.895063,-4071.132681,-383.047749,7179.997637
2632.895378,-2516.700203,-383.047749,8364.327145
2632.895692,-1998.556043,-229.828649,9474.636058
2632.896007,-2812.782580,-153.219100,9992.780217
2632.896321,-1258.350101,-842.705048,9030.512492
2632.896635,-444.123565,0.000000,9844.739029
2632.896950,-962.267725,0.000000,9548.656652
2632.897264,-296.082377,-536.266849,8734.430116
2632.897578,814.226536,536.266849,8512.368333
2632.897893,2516.700203,842.705048,8808.450710
2632.898207,3478.967927,842.705048,9326.594869
2632.898521,4367.215058,1149.143247,9548.656652
2632.898836,4367.215058,1838.629195,9030.512492
2632.899150,5477.523971,2068.457845,9844.739029
2632.899464,5403.503377,1685.410096,10140.821405
2632.899779,3182.885551,842.705048,9548.656652
2632.900093,2516.700203,995.924147,8734.430116
2632.900408,1702.473667,153.219100,8438.347739
2632.900722,962.267725,-1072.533697,9400.615463
2632.901036,-370.102971,-766.095498,11177.109724
2632.901351,-740.205942,-689.485948,11547.212695
2632.901665,0.000000,-1072.533697,10807.006753
2632.901979,222.061783,-1302.362347,10732.986159
2632.902294,-1258.350101,-842.705048,12065.356855
2632.902608,-666.185348,-612.876398,9770.718434
2632.902922,-222.061783,-612.876398,8438.347739
2632.903237,1036.288319,1149.143247,8956.491898
2632.903551,0.000000,1455.581446,10066.800811
2632.903865,-444.123565,2145.067394,9696.697840
2632.904180,1036.288319,1915.238745,6735.874072
2632.904494,2664.741391,1838.629195,6217.729913
2632.904809,1628.453072,2145.067394,7550.100608
2632.905123,148.041188,2451.505594,8956.491898
2632.905437,370.102971,2987.772442,8586.388927
2632.905752,2072.576638,2681.334243,7846.182985
2632.906066,1850.514855,2681.334243,8660.409521
2632.906380,1258.350101,3677.258390,9400.615463
2632.906695,1776.494261,3600.648841,9030.512492
2632.907009,2516.700203,3677.258390,10658.965565
2632.907323,1258.350101,3370.820191,10214.842000
2632.907638,-1332.370696,2757.943793,9696.697840
2632.907952,-2220.617826,2451.505594,9104.533087
2632.908267,-1480.411884,2068.457845,8734.430116
2632.908581,-1702.473667,1762.019645,8882.471304
2632.908895,-3108.864956,1915.238745,9918.759623
2632.909210,-4663.297435,2068.457845,9474.636058
2632.909524,-3997.112087,-153.219100,7105.977043
2632.909838,-4663.297435,229.828649,8290.306550
2632.910153,-5625.565159,0.000000,9030.512492
2632.910467,-6143.709319,-766.095498,9474.636058
2632.910781,-5625.565159,-766.095498,8882.471304
2632.911096,-4737.318029,-459.657299,8882.471304
2632.911410,-5033.400406,-1378.971896,8956.491898
2632.911724,-4071.132681,-1378.971896,7698.141797
2632.912039,-1628.453072,-995.924147,9252.574275
2632.912353,-740.205942,0.000000,9400.615463
2632.912668,1406.391290,-612.876398,10066.800811
2632.912982,2590.720797,153.219100,9178.553681
2632.913296,3849.070898,459.657299,8216.285956
2632.913611,5625.565159,1072.533697,9474.636058
2632.913925,6143.709319,1762.019645,10807.006753
2632.914239,6143.709319,1378.971896,10362.883188
2632.914554,6587.832884,1149.143247,9622.677246
2632.914868,5921.647536,229.828649,10288.862594
2632.915182,3034.844362,-536.266849,10288.862594
2632.915497,1332.370696,-1762.019645,10066.800811
2632.915811,1110.308913,-1072.533697,10955.047942
2632.916125,296.082377,-1455.581446,11399.171507
2632.916440,-740.205942,-1378.971896,11103.089130
2632.916754,-1628.453072,-1991.848295,9178.553681
2632.917069,-1554.432478,-1991.848295,8734.430116
2632.917383,-1258.350101,-1532.190996,9104.533087
2632.917697,-3182.885551,-1532.190996,9474.636058
2632.918012,-2664.741391,-995.924147,9326.594869
2632.918326,-2146.597232,-995.924147,8068.244768
2632.918640,0.000000,-459.657299,8216.285956
2632.918955,-518.144159,153.219100,8956.491898
2632.919269,666.185348,1302.362347,9326.594869
2632.919583,1702.473667,1685.410096,9178.553681
2632.919898,1776.494261,1608.800546,8956.491898
2632.920212,0.000000,1149.143247,9104.533087
2632.920527,-740.205942,1072.533697,8734.430116
2632.920841,740.205942,842.705048,8216.285956
2632.921155,2886.803174,1302.362347,8290.306550
2632.921470,2664.741391,2528.115143,9030.512492
2632.921784,1776.494261,2757.943793,9770.718434
2632.922098,1998.556043,3524.039291,9622.677246
2632.922413,1702.473667,3217.601092,9474.636058
2632.922727,518.144159,2451.505594,8438.347739
2632.923041,-444.123565,2374.896044,8660.409521
2632.923356,-666.185348,3140.991542,8956.491898
2632.923670,-666.185348,2681.334243,9400.615463
2632.923984,-1776.494261,2451.505594,8882.471304
2632.924299,-3552.988522,2374.896044,9400.615463
2632.924613,-3552.988522,2221.676944,9104.533087
2632.924928,-3034.844362,1608.800546,9030.512492
2632.925242,-4219.173869,842.705048,10066.800811
2632.925556,-5995.668130,76.609550,10140.821405
2632.925871,-5847.626942,-766.095498,8956.491898
2632.926185,-4589.276840,-306.438199,9696.697840
2632.926499,-3256.906145,459.657299,9696.697840
2632.926814,-3330.926739,919.314598,10584.944971
2632.927128,-2294.638420,766.095498,8882.471304
2632.927442,-444.123565,1302.362347,7920.203579
2632.927757,-148.041188,1378.971896,7698.141797
2632.928071,-1184.329507,995.924147,8438.347739
2632.928385,-518.144159,919.314598,7624.121203
2632.928700,1554.432478,1302.362347,7476.080014
2632.929014,2664.741391,1378.971896,8808.450710
2632.929329,2516.700203,1378.971896,9474.636058
2632.929643,3404.947333,1378.971896,8808.450710
2632.929957,4293.194464,1072.533697,8586.388927
2632.930272,4441.235652,536.266849,9918.759623
2632.930586,3108.864956,1149.143247,11621.233289
2632.930901,1998.556043,0.000000,10510.924376
2632.931215,2664.741391,-383.047749,9844.739029
2632.931529,3627.009116,-536.266849,8586.388927
2632.931844,2368.659014,0.000000,10214.842000
2632.932158,2146.597232,766.095498,11621.233289
2632.932473,2442.679609,-153.219100,9918.759623
2632.932787,2146.597232,-383.047749,9400.615463
2632.933102,148.041188,-995.924147,9326.594869
2632.933416,-592.164754,-2221.676944,9400.615463
2632.933730,-1110.308913,-1915.238745,9844.739029
2632.934045,-888.247130,-1685.410096,9252.574275
2632.934359,-592.164754,-1532.190996,9770.718434
2632.934674,-1554.432478,0.000000,11029.068536
2632.934988,-1332.370696,-153.219100,9030.512492
2632.935302,-444.123565,-459.657299,7994.224174
2632.935617,-1776.494261,0.000000,7994.224174
2632.935931,-2590.720797,-306.438199,8586.388927
2632.936246,-2072.576638,-383.047749,8290.306550
2632.936560,0.000000,153.219100,8808.450710
2632.936874,-962.267725,459.657299,9326.594869
2632.937189,-1110.308913,766.095498,9992.780217
2632.937503,-444.123565,1455.581446,9696.697840
2632.937818,518.144159,2068.457845,9474.636058
2632.938132,74.020594,1455.581446,8956.491898
2632.938447,-814.226536,995.924147,8364.327145
2632.938761,-1036.288319,1685.410096,8956.491898
2632.939075,148.041188,2221.676944,9400.615463
2632.939390,148.041188,2451.505594,9992.780217
2632.939704,-296.082377,2681.334243,9474.636058
2632.940019,0.000000,2911.162892,8956.491898
2632.940333,296.082377,3140.991542,8808.450710
2632.940647,-1480.411884,2145.067394,8586.388927
2632.940962,-3256.906145,459.657299,8068.244768
2632.941276,-3849.070898,459.657299,7772.162391
2632.941591,-3034.844362,229.828649,8512.368333
2632.941905,-3997.112087,-459.657299,9030.512492
2632.942219,-4811.338623,-995.924147,9474.636058
2632.942534,-4071.132681,-229.828649,9104.533087
2632.942848,-1776.494261,459.657299,10362.883188
2632.943163,-1850.514855,0.000000,9696.697840
2632.943477,-2960.823768,-229.828649,9178.553681
2632.943792,-2516.700203,0.000000,8438.347739
2632.944106,-1332.370696,-383.047749,8438.347739
2632.944420,-222.061783,306.438199,9104.533087
2632.944735,-148.041188,229.828649,8808.450710
2632.945049,1258.350101,383.047749,8364.327145
2632.945364,2886.803174,612.876398,8734.430116
2632.945678,2664.741391,229.828649,9844.739029
2632.945992,666.185348,-306.438199,9696.697840
2632.946307,444.123565,-842.705048,9326.594869
2632.946621,518.144159,-1378.971896,9178.553681
2632.946936,2072.576638,-1225.752797,9918.759623
2632.947250,1998.556043,-842.705048,10288.862594
2632.947564,1036.288319,-919.314598,10510.924376
2632.947879,2442.679609,-766.095498,9326.594869
2632.948193,3182.885551,153.219100,9622.677246
2632.948508,1628.453072,0.000000,9992.780217
2632.948822,-888.247130,-1378.971896,9770.718434
2632.949136,-1998.556043,-2451.505594,8586.388927
2632.949451,-2146.597232,-2681.334243,8438.347739
2632.949765,-2368.659014,-2911.162892,9474.636058
2632.950080,-4293.194464,-3677.258390,9992.780217
2632.950394,-4959.379811,-3600.648841,9178.553681
2632.950709,-3997.112087,-3677.258390,8216.285956
2632.951023,-2812.782580,-2987.772442,10584.944971
2632.951337,-4441.235652,-3370.820191,10732.986159
2632.951652,-5033.400406,-3217.601092,10436.903782
2632.951966,-4515.256246,-3447.429741,9030.512492
2632.952281,-3108.864956,-3370.820191,9030.512492
2632.952595,-3108.864956,-2604.724693,9844.739029
2632.952909,-3775.050304,-2528.115143,9474.636058
2632.953224,-2738.761985,-1991.848295,9474.636058
2632.953538,-1110.308913,-1149.143247,8364.327145
2632.953853,-444.123565,-459.657299,8734.430116
2632.954167,-1554.432478,-612.876398,8142.265362
2632.954481,-2368.659014,-766.095498,8660.409521
2632.954796,-2294.638420,-1072.533697,8586.388927
2632.955110,-1850.514855,-1838.629195,9030.512492
2632.955425,-2590.720797,-1455.581446,9622.677246
2632.955739,-3182.885551,-842.705048,8956.491898
2632.956054,-3034.844362,-612.876398,9548.656652
2632.956368,-2516.700203,-995.924147,8956.491898
2632.956682,-2442.679609,-1149.143247,8956.491898
2632.956997,-2368.659014,0.000000,8068.244768
2632.957311,-2738.761985,-842.705048,8586.388927
2632.957626,-3182.885551,-306.438199,10732.986159
2632.957940,-3256.906145,-1225.752797,9696.697840
2632.958254,-4737.318029,-1838.629195,8882.471304
2632.958569,-4219.173869,-1378.971896,8660.409521
2632.958883,-4293.194464,-1225.752797,8512.368333
2632.959198,-3627.009116,0.000000,9474.636058
2632.959512,-3552.988522,-1455.581446,8290.306550
2632.959826,-3256.906145,-1302.362347,8808.450710
2632.960141,-2368.659014,0.000000,9474.636058
2632.960455,-1628.453072,-1225.752797,9400.615463
2632.960770,-740.205942,-383.047749,11695.253884
2632.961084,-1480.411884,-306.438199,10658.965565
2632.961399,-2072.576638,-1225.752797,9474.636058
2632.961713,-1480.411884,-1072.533697,8142.265362
2632.962027,-1036.288319,-842.705048,7031.956449
2632.962342,-740.205942,229.828649,8808.450710
2632.962656,-1036.288319,153.219100,9104.533087
2632.962971,-444.123565,-919.314598,8290.306550
2632.963285,-444.123565,-459.657299,9474.636058
2632.963599,666.185348,-459.657299,9030.512492
2632.963914,444.123565,-153.219100,10214.842000
2632.964228,-962.267725,-306.438199,10140.821405
2632.964543,-1628.453072,-1149.143247,8734.430116
2632.964857,-3108.864956,-1378.971896,8734.430116
2632.965171,-3849.070898,-2451.505594,8364.327145
2632.965486,-3330.926739,-2987.772442,7994.224174
2632.965800,-2886.803174,-2987.772442,9548.656652
2632.966115,-2738.761985,-2374.896044,10510.924376
2632.966429,-2812.782580,-2068.457845,10955.047942
2632.966743,-3108.864956,-2221.676944,9770.718434
2632.967058,-2294.638420,-2451.505594,9622.677246
2632.967372,-740.205942,-1302.362347,10066.800811
2632.967687,-370.102971,-995.924147,9696.697840
2632.968001,0.000000,-229.828649,10658.965565
2632.968316,-962.267725,-612.876398,10140.821405
2632.968630,-1702.473667,-1685.410096,8808.450710
2632.968944,-2960.823768,-1455.581446,8808.450710
2632.969259,-3552.988522,-2604.724693,9326.594869
2632.969573,-3627.009116,-2451.505594,8512.368333
2632.969888,-4145.153275,-2834.553343,8956.491898
2632.970202,-3627.009116,-2757.943793,9104.533087
2632.970516,-3552.988522,-2528.115143,8660.409521
2632.970831,-2442.679609,-1532.190996,9030.512492
2632.971145,-2294.638420,-1302.362347,9474.636058
2632.971460,-2294.638420,-612.876398,9548.656652
2632.971774,-2368.659014,-306.438199,8808.450710
2632.972088,-1258.350101,-612.876398,8438.347739
2632.972403,-1924.535449,-1225.752797,8586.388927
2632.972717,-3256.906145,-1915.238745,8512.368333
2632.973032,-3701.029710,-1685.410096,8068.244768
2632.973346,-3775.050304,-2451.505594,8586.388927
2632.973661,-4219.173869,-2681.334243,8882.471304
2632.973975,-3701.029710,-3294.210641,8216.285956
2632.974289,-3627.009116,-2528.115143,8586.388927
2632.974604,-2368.659014,-1838.629195,10288.862594
2632.974918,-1554.432478,-2145.067394,11103.089130
2632.975233,-1184.329507,-1685.410096,10510.924376
2632.975547,0.000000,-306.438199,9844.739029
2632.975861,1406.391290,459.657299,10066.800811
2632.976176,592.164754,-383.047749,9770.718434
2632.976490,-1258.350101,-1302.362347,9474.636058
2632.976805,-1776.494261,-919.314598,8660.409521
2632.977119,-1998.556043,-1838.629195,8068.244768
2632.977433,-2886.803174,-2757.943793,9030.512492
2632.977748,-4515.256246,-3217.601092,8956.491898
2632.978062,-4367.215058,-3140.991542,9400.615463
2632.978377,-3330.926739,-2451.505594,9696.697840
2632.978691,-3108.864956,-2145.067394,9844.739029
2632.979006,-2516.700203,-1762.019645,9474.636058
2632.979320,-1628.453072,-612.876398,9918.759623
2632.979634,-370.102971,-306.438199,9844.739029
2632.979949,74.020594,153.219100,9770.718434
2632.980263,-370.102971,689.485948,10066.800811
2632.980578,-962.267725,689.485948,8660.409521
2632.980892,-814.226536,0.000000,7402.059420
2632.981206,-1036.288319,-459.657299,7179.997637
2632.981521,-1998.556043,-1225.752797,7328.038826
2632.981835,-3775.050304,-1762.019645,7920.203579
2632.982150,-4737.318029,-2451.505594,8364.327145
2632.982464,-5477.523971,-3370.820191,8290.306550
2632.982778,-5551.544565,-3140.991542,9696.697840
2632.983093,-4663.297435,-2451.505594,10436.903782
2632.983407,-1998.556043,-1378.971896,11251.130318
2632.983722,-370.102971,-536.266849,11325.150913
2632.984036,296.082377,153.219100,10436.903782
2632.984351,74.020594,383.047749,10732.986159
2632.984665,0.000000,919.314598,9474.636058
2632.984979,222.061783,766.095498,8290.306550
2632.985294,0.000000,153.219100,8290.306550
2632.985608,-1776.494261,-536.266849,8068.244768
2632.985923,-3923.091493,-1915.238745,7254.018232
2632.986237,-5921.647536,-2604.724693,6291.750507
2632.986551,-6217.729913,-3217.601092,6883.915261
2632.986866,-5403.503377,-3524.039291,8068.244768
2632.987180,-4071.132681,-2757.943793,9696.697840
2632.987495,-2886.803174,-1915.238745,10510.924376
2632.987809,-2294.638420,-1532.190996,10955.047942
2632.988123,-1332.370696,-842.705048,11325.150913
2632.988438,0.000000,-229.828649,11251.130318
2632.988752,370.102971,229.828649,10807.006753
2632.989067,666.185348,76.609550,9548.656652
2632.989381,222.061783,-383.047749,9400.615463
2632.989695,-592.164754,-1072.533697,8290.306550
2632.990010,-1776.494261,-1532.190996,7772.162391
2632.990324,-2220.617826,-1762.019645,8142.265362
2632.990639,-2516.700203,-1915.238745,8660.409521
2632.990953,-2812.782580,-2451.505594,8586.388927
2632.991268,-2738.761985,-2068.457845,9400.615463
2632.991582,-2886.803174,-2221.676944,9696.697840
2632.991896,-2368.659014,-1991.848295,10510.924376
2632.992211,-1998.556043,-1378.971896,11251.130318
2632.992525,-1776.494261,-995.924147,11029.068536
2632.992840,-1776.494261,-306.438199,10584.944971
2632.993154,-1258.350101,-306.438199,9474.636058
2632.993468,-1258.350101,-995.924147,8290.306550
2632.993783,-1776.494261,-919.314598,7624.121203
2632.994097,-2960.823768,-1915.238745,6957.935855
2632.994412,-4071.132681,-2374.896044,7031.956449
2632.994726,-4071.132681,-2604.724693,7402.059420
2632.995040,-3775.050304,-2528.115143,7846.182985
2632.995355,-2960.823768,-2451.505594,8734.430116
2632.995669,-2220.617826,-2374.896044,10214.842000
2632.995984,-962.267725,-306.438199,11177.109724
2632.996298,148.041188,0.000000,11991.336260
2632.996613,740.205942,153.219100,11695.253884
2632.996927,1258.350101,306.438199,11177.109724
2632.997241,666.185348,459.657299,10436.903782
2632.997556,-296.082377,0.000000,9548.656652
2632.997870,-1702.473667,-306.438199,8660.409521
2632.998185,-3256.906145,-1915.238745,7105.977043
2632.998499,-4145.153275,-2604.724693,6809.894666
2632.998813,-5033.400406,-2834.553343,6809.894666
2632.999128,-5551.544565,-3064.381992,7105.977043
2632.999442,-5921.647536,-3294.210641,7994.224174
2632.999757,-5181.441594,-2911.162892,9104.533087
2633.000071,-3923.091493,-2374.896044,9770.718434
2633.000385,-2442.679609,-1378.971896,10658.965565
2633.000700,-1332.370696,-536.266849,10881.027347
2633.001014,-962.267725,-612.876398,10955.047942
2633.001329,-666.185348,0.000000,10955.047942
2633.001643,-370.102971,0.000000,9844.739029
2633.001958,-222.061783,-153.219100,9178.553681
2633.002272,-1184.329507,0.000000,8142.265362
2633.002586,-1702.473667,-1072.533697,7772.162391
2633.002901,-1850.514855,-2068.457845,8290.306550
2633.003215,-2072.576638,-1991.848295,7920.203579
2633.003530,-1554.432478,-2221.676944,8512.368333
2633.003844,-962.267725,-1455.581446,9696.697840
2633.004158,-888.247130,-1378.971896,10881.027347
2633.004473,-222.061783,-1072.533697,11769.274478
2633.004787,0.000000,0.000000,12213.398043
2633.005102,518.144159,-229.828649,11843.295072
2633.005416,370.102971,0.000000,11103.089130
2633.005730,74.020594,-306.438199,10140.821405
2633.006045,-296.082377,383.047749,9252.574275
2633.006359,-444.123565,76.609550,8142.265362
2633.006674,-888.247130,-229.828649,7105.977043
2633.006988,-1184.329507,-306.438199,6217.729913
2633.007303,-1628.453072,0.000000,6439.791695
2633.007617,-2072.576638,-306.438199,7920.203579
2633.007931,-2294.638420,-306.438199,8660.409521
2633.008246,-2368.659014,-842.705048,9104.533087
2633.008560,-2516.700203,-766.095498,9326.594869
2633.008875,-2442.679609,-383.047749,9918.759623
2633.009189,-2590.720797,-459.657299,10066.800811
2633.009503,-2590.720797,-995.924147,10288.862594
2633.009818,-2738.761985,-612.876398,9400.615463
2633.010132,-3108.864956,-612.876398,8586.388927
2633.010447,-2886.803174,-842.705048,8290.306550
2633.010761,-2960.823768,-1302.362347,7994.224174
2633.011075,-3404.947333,-1608.800546,7476.080014
2633.011390,-3182.885551,-1455.581446,8142.265362
2633.011704,-3256.906145,-1608.800546,8734.430116
2633.012019,-3330.926739,-1455.581446,8586.388927
2633.012333,-3330.926739,-1838.629195,9622.677246
2633.012647,-3775.050304,-2145.067394,10584.944971
2633.012962,-4145.153275,-2681.334243,11399.171507
2633.013276,-4293.194464,-2757.943793,11251.130318
2633.013591,-4145.153275,-3217.601092,10658.965565
2633.013905,-3923.091493,-2987.772442,10066.800811
2633.014220,-3701.029710,-2987.772442,9844.739029
2633.014534,-3552.988522,-2298.286494,9104.533087
2633.014848,-3256.906145,-2757.943793,8438.347739
2633.015163,-3478.967927,-3524.039291,8216.285956
2633.015477,-3701.029710,-3677.258390,7994.224174
2633.015792,-3552.988522,-3447.429741,8586.388927
2633.016106,-3997.112087,-3907.087040,9030.512492
2633.016420,-4145.153275,-4290.134789,9622.677246
2633.016735,-3404.947333,-3907.087040,9918.759623
2633.017049,-2146.597232,-3140.991542,10807.006753
2633.017364,-740.205942,-2757.943793,10436.903782
2633.017678,148.041188,-2451.505594,10732.986159
2633.017992,888.247130,-1838.629195,10658.965565
2633.018307,1258.350101,-1455.581446,10362.883188
2633.018621,740.205942,-1685.410096,9844.739029
2633.018936,148.041188,-1685.410096,8956.491898
2633.019250,-814.226536,-2604.724693,8364.327145
2633.019565,-1406.391290,-2221.676944,8438.347739
2633.019879,-1554.432478,-2528.115143,8734.430116
2633.020193,-1924.535449,-2451.505594,9030.512492
2633.020508,-2368.659014,-2681.334243,9474.636058
2633.020822,-2294.638420,-1991.848295,9474.636058
2633.021137,-2072.576638,-1455.581446,9252.574275
2633.021451,-1554.432478,-1302.362347,9474.636058
2633.021765,-814.226536,-689.485948,9178.553681
2633.022080,222.061783,459.657299,9178.553681
2633.022394,444.123565,1532.190996,9474.636058
2633.022709,370.102971,1378.971896,9252.574275
2633.023023,-370.102971,1072.533697,8438.347739
2633.023337,-1480.411884,459.657299,8068.244768
2633.023652,-2886.803174,-229.828649,7772.162391
2633.023966,-3034.844362,0.000000,7698.141797
2633.024281,-3923.091493,-689.485948,8438.347739
2633.024595,-3923.091493,-536.266849,9474.636058
2633.024910,-3923.091493,-919.314598,9844.739029
2633.025224,-3627.009116,-383.047749,9770.718434
2633.025538,-2220.617826,689.485948,10288.862594
2633.025853,-518.144159,1685.410096,10214.842000
2633.026167,0.000000,2528.115143,9918.759623
2633.026482,148.041188,2757.943793,9918.759623
2633.026796,-1036.288319,2221.676944,8512.368333
2633.027110,-2294.638420,1455.581446,7846.182985
2633.027425,-3404.947333,306.438199,7328.038826
2633.027739,-5033.400406,-689.485948,6957.935855
2633.028054,-6513.812290,-1685.410096,7624.121203
2633.028368,-7994.224174,-2911.162892,7402.059420
2633.028682,-8438.347739,-3907.087040,6957.935855
2633.028997,-7624.121203,-3447.429741,7846.182985
2633.029311,-5033.400406,-2451.505594,9548.656652
2633.029626,-2960.823768,-1991.848295,11547.212695
2633.029940,-1406.391290,-1378.971896,12213.398043
2633.030254,-370.102971,-995.924147,11325.150913
2633.030569,814.226536,-459.657299,11103.089130
2633.030883,1258.350101,-612.876398,11029.068536
2633.031197,888.247130,-153.219100,10732.986159
2633.031512,148.041188,-1072.533697,9400.615463
2633.031826,-370.102971,-2145.067394,8586.388927
2633.032140,-1110.308913,-2221.676944,8512.368333
2633.032455,-2368.659014,-3447.429741,8364.327145
2633.032769,-3182.885551,-4213.525239,8512.368333
2633.033083,-3478.967927,-4519.963438,8882.471304
2633.033398,-3182.885551,-4290.134789,9992.780217
2633.033712,-3552.988522,-4673.182538,10214.842000
2633.034026,-3997.112087,-4903.011187,10658.965565
2633.034341,-3108.864956,-4136.915689,10881.027347
2633.034655,-1628.453072,-3600.648841,11473.192101
2633.034969,-1332.370696,-2911.162892,11325.150913
2633.035284,-1776.494261,-2681.334243,9770.718434
2633.035598,-1702.473667,-2374.896044,8290.306550
2633.035912,-962.267725,-1991.848295,7402.059420
2633.036227,-1036.288319,-2374.896044,7179.997637
2633.036541,-2516.700203,-3294.210641,6365.771101
2633.036855,-2368.659014,-2374.896044,7402.059420
2633.037170,-1554.432478,-2068.457845,8734.430116
2633.037484,-1554.432478,-2145.067394,9844.739029
2633.037798,-1554.432478,-2374.896044,9622.677246
2633.038113,-1480.411884,-1838.629195,9622.677246
2633.038427,-1480.411884,-689.485948,11103.089130
2633.038741,-1554.432478,-1532.190996,11547.212695
2633.039056,-296.082377,-1685.410096,9770.718434
2633.039370,0.000000,76.609550,9918.759623
2633.039684,0.000000,919.314598,10658.965565
2633.039999,-444.123565,0.000000,8808.450710
2633.040313,-1332.370696,229.828649,7179.997637
2633.040627,-2294.638420,306.438199,7105.977043
2633.040942,-2960.823768,-689.485948,7402.059420
2633.041256,-3478.967927,-842.705048,7402.059420
2633.041570,-3701.029710,-1302.362347,8660.409521
2633.041885,-4293.194464,-919.314598,10140.821405
2633.042199,-3701.029710,-612.876398,10955.047942
2633.042513,-3182.885551,76.609550,11251.130318
2633.042828,-1998.556043,459.657299,10807.006753
2633.043142,-592.164754,1838.629195,10066.800811
2633.043456,-888.247130,1838.629195,9844.739029
2633.043771,-1332.370696,1838.629195,9178.553681
2633.044085,-1850.514855,766.095498,7772.162391
2633.044399,-2590.720797,306.438199,6661.853478
2633.044714,-4293.194464,-536.266849,6587.832884
2633.045028,-4811.338623,-1225.752797,7698.141797
2633.045342,-3997.112087,-1532.190996,8290.306550
2633.045657,-4589.276840,-1302.362347,8364.327145
2633.045971,-4515.256246,-2068.457845,7920.203579
2633.046285,-3701.029710,-1991.848295,8438.347739
2633.046600,-1850.514855,-842.705048,10140.821405
2633.046914,148.041188,0.000000,10584.944971
2633.047228,1554.432478,766.095498,11473.192101
2633.047543,1998.556043,842.705048,11843.295072
2633.047857,1258.350101,76.609550,10658.965565
2633.048171,666.185348,-919.314598,9104.533087
2633.048486,-222.061783,-1302.362347,9030.512492
2633.048800,-1998.556043,-2145.067394,8438.347739
2633.049114,-3330.926739,-3753.867940,7994.224174
2633.049429,-4663.297435,-4213.525239,8290.306550
2633.049743,-5921.647536,-4903.011187,7476.080014
2633.050057,-5921.647536,-5898.935335,9178.553681
2633.050372,-5403.503377,-4290.134789,10584.944971
2633.050686,-2590.720797,-4443.353888,9844.739029
2633.051000,-1998.556043,-2987.772442,11473.192101
2633.051315,-1776.494261,-1685.410096,12139.377449
2633.051629,-1110.308913,-2451.505594,10807.006753
2633.051943,-814.226536,-2374.896044,10881.027347
2633.052258,-1332.370696,-2068.457845,9548.656652
2633.052572,-1924.535449,-2221.676944,8068.244768
2633.052886,-2146.597232,-2298.286494,8586.388927
2633.053201,-2442.679609,-3140.991542,6957.935855
2633.053515,-1628.453072,-2451.505594,7698.141797
2633.053829,-1850.514855,-2145.067394,7698.141797
2633.054144,-1924.535449,-2451.505594,7994.224174
2633.054458,-1628.453072,-1762.019645,10436.903782
2633.054772,-1184.329507,-1991.848295,9252.574275
2633.055087,-1332.370696,-1838.629195,11769.274478
2633.055401,-1850.514855,-536.266849,12287.418637
2633.055715,-1850.514855,-1838.629195,10510.924376
2633.056030,-1850.514855,-842.705048,10955.047942
2633.056344,-1628.453072,-153.219100,9178.553681
2633.056658,-1184.329507,-306.438199,9252.574275
2633.056973,-1924.535449,536.266849,9252.574275
2633.057287,-2220.617826,0.000000,6587.832884
2633.057601,-1924.535449,76.609550,7105.977043
2633.057916,-3775.050304,0.000000,6809.894666
2633.058230,-4737.318029,-1072.533697,7994.224174
2633.058544,-4885.359217,-995.924147,8512.368333
2633.058859,-4367.215058,-1225.752797,9548.656652
2633.059173,-3923.091493,-1072.533697,10955.047942
2633.059487,-3775.050304,-766.095498,10658.965565
2633.059802,-2516.700203,229.828649,11029.068536
2633.060116,-1998.556043,76.609550,9918.759623
2633.060430,-370.102971,383.047749,10510.924376
2633.060745,74.020594,1608.800546,9474.636058
2633.061059,-222.061783,1225.752797,8660.409521
2633.061373,666.185348,919.314598,7698.141797
2633.061688,962.267725,842.705048,7105.977043
2633.062002,1554.432478,1455.581446,7994.224174
2633.062316,814.226536,459.657299,9104.533087
2633.062631,148.041188,76.609550,9104.533087
2633.062945,-1184.329507,-459.657299,8364.327145
2633.063259,-666.185348,-766.095498,8290.306550
2633.063574,-1184.329507,-1762.019645,9622.677246
2633.063888,-2368.659014,-1225.752797,11399.171507
2633.064202,-2368.659014,-1608.800546,10658.965565
2633.064517,-666.185348,-1225.752797,10807.006753
2633.064831,592.164754,0.000000,10658.965565
2633.065145,296.082377,229.828649,9474.636058
2633.065460,0.000000,0.000000,8142.265362
2633.065774,1036.288319,229.828649,8068.244768
2633.066088,1184.329507,689.485948,9030.512492
2633.066403,518.144159,0.000000,9326.594869
2633.066717,-444.123565,-612.876398,9104.533087
2633.067031,-1480.411884,-766.095498,9326.594869
2633.067346,370.102971,76.609550,11177.109724
2633.067660,0.000000,229.828649,10881.027347
2633.067974,-592.164754,0.000000,10510.924376
2633.068289,-666.185348,153.219100,8734.430116
2633.068603,0.000000,0.000000,8660.409521
2633.068917,0.000000,536.266849,9622.677246
2633.069232,74.020594,1608.800546,9400.615463
2633.069546,-296.082377,1838.629195,9252.574275
2633.069860,1110.308913,2451.505594,9030.512492
2633.070175,666.185348,1685.410096,8142.265362
2633.070489,0.000000,1685.410096,7994.224174
2633.070803,-740.205942,1838.629195,7254.018232
2633.071118,-222.061783,2145.067394,7624.121203
2633.071432,-888.247130,1685.410096,8068.244768
2633.071746,-1998.556043,76.609550,8438.347739
2633.072061,-3627.009116,0.000000,9252.574275
2633.072375,-2960.823768,0.000000,9622.677246
2633.072689,-2368.659014,153.219100,10807.006753
2633.073004,-1850.514855,153.219100,10955.047942
2633.073318,-2442.679609,459.657299,9770.718434
2633.073632,-2516.700203,919.314598,9178.553681
2633.073947,-814.226536,306.438199,7920.203579
2633.074261,-370.102971,842.705048,8512.368333
2633.074575,-222.061783,1532.190996,9548.656652
2633.074890,-222.061783,1838.629195,8956.491898
2633.075204,1332.370696,842.705048,9104.533087
2633.075518,592.164754,459.657299,9400.615463
2633.075833,74.020594,536.266849,9326.594869
2633.076147,740.205942,919.314598,9622.677246
2633.076461,1110.308913,229.828649,10140.821405
2633.076776,888.247130,229.828649,9918.759623
2633.077090,-222.061783,-766.095498,8956.491898
2633.077404,-1924.535449,-536.266849,9400.615463
2633.077719,-518.144159,-995.924147,9844.739029
2633.078033,1332.370696,76.609550,10362.883188
2633.078347,814.226536,76.609550,10955.047942
2633.078662,74.020594,0.000000,9622.677246
2633.078976,222.061783,-383.047749,9400.615463
2633.079290,-296.082377,-383.047749,8512.368333
2633.079605,-666.185348,-1072.533697,8216.285956
2633.079919,-592.164754,-766.095498,8364.327145
2633.080233,-592.164754,-383.047749,8660.409521
2633.080548,-592.164754,-536.266849,8956.491898
2633.080862,148.041188,-919.314598,8660.409521
2633.081176,-148.041188,153.219100,9326.594869
2633.081491,0.000000,536.266849,9696.697840
2633.081805,1036.288319,229.828649,10066.800811
2633.082119,1332.370696,0.000000,9252.574275
2633.082434,740.205942,0.000000,9030.512492
2633.082748,2220.617826,919.314598,9548.656652
2633.083062,2220.617826,1762.019645,9844.739029
2633.083377,2960.823768,2068.457845,10362.883188
2633.083691,2442.679609,1915.238745,9770.718434
2633.084005,2886.803174,2834.553343,9918.759623
2633.084320,1628.453072,2451.505594,9548.656652
2633.084634,1702.473667,1838.629195,8808.450710
2633.084948,1258.350101,1685.410096,8734.430116
2633.085263,1258.350101,2374.896044,9474.636058
2633.085577,518.144159,3140.991542,10584.944971
2633.085891,0.000000,2528.115143,10362.883188
2633.086206,-666.185348,2145.067394,8438.347739
2633.086520,-518.144159,1838.629195,8216.285956
2633.086834,-1702.473667,3064.381992,9474.636058
2633.087149,-2590.720797,2145.067394,8586.388927
2633.087463,-3256.906145,919.314598,7476.080014
2633.087777,-2368.659014,1838.629195,7179.997637
2633.088092,-2590.720797,2451.505594,7994.224174
2633.088406,-1110.308913,2451.505594,8586.388927
2633.088720,-1258.350101,2757.943793,7698.141797
2633.089034,-962.267725,3370.820191,8586.388927
2633.089349,-740.205942,3064.381992,9474.636058
2633.089663,-592.164754,2145.067394,8882.471304
2633.089977,-1184.329507,1838.629195,8068.244768
2633.090292,-1036.288319,1762.019645,8142.265362
2633.090606,-1184.329507,1915.238745,10140.821405
2633.090920,-1184.329507,842.705048,8882.471304
2633.091235,-296.082377,612.876398,8734.430116
2633.091549,444.123565,1302.362347,8216.285956
2633.091863,814.226536,766.095498,10288.862594
2633.092178,-222.061783,612.876398,11177.109724
2633.092492,-222.061783,-766.095498,10362.883188
2633.092806,-222.061783,0.000000,9844.739029
2633.093121,962.267725,-612.876398,9622.677246
2633.093435,1480.411884,-229.828649,10288.862594
2633.093749,1998.556043,-153.219100,11843.295072
2633.094064,2368.659014,306.438199,10881.027347
2633.094378,2294.638420,-306.438199,10510.924376
2633.094692,1036.288319,-919.314598,9548.656652
2633.095007,-74.020594,-2221.676944,7698.141797
2633.095321,-814.226536,-1608.800546,7698.141797
2633.095635,0.000000,-1838.629195,8438.347739
2633.095950,740.205942,-689.485948,10658.965565
2633.096264,0.000000,-1838.629195,9548.656652
2633.096578,-1110.308913,-1991.848295,8808.450710
2633.096893,-592.164754,-1685.410096,8438.347739
2633.097207,-666.185348,-2068.457845,8808.450710
2633.097521,-592.164754,-1991.848295,9252.574275
2633.097836,-444.123565,-536.266849,8512.368333
2633.098150,296.082377,-919.314598,9178.553681
2633.098464,814.226536,-1149.143247,9696.697840
2633.098779,1332.370696,-536.266849,9696.697840
2633.099093,1110.308913,459.657299,9474.636058
2633.099407,1406.391290,536.266849,10214.842000
2633.099722,1776.494261,306.438199,9622.677246
2633.100036,1036.288319,153.219100,9252.574275
2633.100350,-592.164754,76.609550,8882.471304
2633.100665,-888.247130,1149.143247,9400.615463
2633.100979,-296.082377,766.095498,10140.821405
2633.101293,222.061783,919.314598,11547.212695
2633.101608,-1406.391290,1302.362347,10955.047942
2633.101922,-1406.391290,1455.581446,9474.636058
2633.102236,-1776.494261,1608.800546,10140.821405
2633.102551,-1480.411884,1532.190996,8586.388927
2633.102865,-1776.494261,1455.581446,8216.285956
2633.103179,-2442.679609,2757.943793,7920.203579
2633.103494,-1332.370696,2604.724693,8586.388927
2633.103808,-1184.329507,2987.772442,7994.224174
2633.104122,-2738.761985,2681.334243,7550.100608
2633.104437,-1702.473667,3064.381992,6809.894666
2633.104751,-1924.535449,2451.505594,7624.121203
2633.105065,-2072.576638,3064.381992,7994.224174
2633.105380,-1924.535449,2987.772442,8438.347739
2633.105694,-1628.453072,2604.724693,7698.141797
2633.106008,-296.082377,2604.724693,8586.388927
2633.106323,740.205942,2757.943793,8586.388927
2633.106637,1480.411884,2681.334243,9992.780217
2633.106951,1702.473667,4290.134789,11843.295072
2633.107266,2442.679609,3753.867940,9992.780217
2633.107580,2220.617826,2987.772442,9252.574275
2633.107894,888.247130,1915.238745,8216.285956
2633.108209,814.226536,1915.238745,9622.677246
2633.108523,1554.432478,1838.629195,10288.862594
2633.108837,1480.411884,1302.362347,9844.739029
2633.109152,1184.329507,383.047749,8734.430116
2633.109466,-370.102971,229.828649,9326.594869
2633.109780,0.000000,-229.828649,8956.491898
2633.110095,-222.061783,-612.876398,10436.903782
2633.110409,0.000000,-689.485948,9696.697840
2633.110723,0.000000,-1149.143247,9548.656652
2633.111038,444.123565,-383.047749,9918.759623
2633.111352,592.164754,-612.876398,9918.759623
2633.111666,1110.308913,-919.314598,9548.656652
2633.111981,888.247130,-612.876398,9030.512492
2633.112295,1554.432478,-689.485948,9622.677246
2633.112609,1554.432478,-1225.752797,9400.615463
2633.112924,370.102971,-1991.848295,8882.471304
2633.113238,-222.061783,-1608.800546,9252.574275
2633.113552,148.041188,-1455.581446,10214.842000
2633.113867,444.123565,-1149.143247,10584.944971
2633.114181,2072.576638,-612.876398,10214.842000
2633.114495,1480.411884,0.000000,9252.574275
2633.114810,1036.288319,-306.438199,9178.553681
2633.115124,518.144159,-306.438199,9622.677246
2633.115438,740.205942,0.000000,9326.594869
2633.115753,-592.164754,0.000000,9474.636058
2633.116067,-814.226536,0.000000,9474.636058
2633.116381,-1110.308913,-153.219100,9622.677246
2633.116696,-1702.473667,-459.657299,8586.388927
2633.117010,-2146.597232,0.000000,8956.491898
2633.117324,-2146.597232,0.000000,8734.430116
2633.117639,-3997.112087,-766.095498,9474.636058
2633.117953,-4515.256246,-919.314598,8734.430116
2633.118267,-3775.050304,-536.266849,8660.409521
2633.118582,-2960.823768,76.609550,8956.491898
2633.118896,-2368.659014,459.657299,9992.780217
2633.119210,-1998.556043,2145.067394,9992.780217
2633.119525,-1406.391290,1378.971896,9104.533087
2633.119839,-518.144159,2451.505594,8438.347739
2633.120153,-370.102971,2068.457845,8438.347739
2633.120468,-1036.288319,2528.115143,8142.265362
2633.120782,-1036.288319,1762.019645,7105.977043
2633.121096,-296.082377,1685.410096,7698.141797
2633.121411,0.000000,1762.019645,8364.327145
2633.121725,0.000000,1608.800546,8956.491898
2633.122039,666.185348,766.095498,9474.636058
2633.122354,222.061783,1455.581446,9844.739029
2633.122668,518.144159,1455.581446,10510.924376
2633.122982,296.082377,919.314598,10214.842000
2633.123297,444.123565,689.485948,9030.512492
2633.123611,888.247130,1762.019645,8956.491898
2633.123925,2294.638420,2451.505594,10807.006753
2633.124240,1332.370696,1991.848295,11251.130318
2633.124554,740.205942,1302.362347,9622.677246
2633.124868,0.000000,919.314598,8586.388927
2633.125183,740.205942,842.705048,8660.409521
2633.125497,0.000000,689.485948,9030.512492
2633.125811,-1184.329507,76.609550,8364.327145
2633.126126,-1850.514855,-1072.533697,8216.285956
2633.126440,-740.205942,-842.705048,8364.327145
2633.126754,74.020594,459.657299,9252.574275
2633.127069,296.082377,-689.485948,10288.862594
2633.127383,148.041188,229.828649,10436.903782
2633.127697,962.267725,689.485948,10140.821405
2633.128012,740.205942,76.609550,9326.594869
2633.128326,1036.288319,-612.876398,7994.224174
2633.128640,1184.329507,842.705048,7994.224174
2633.128955,2886.803174,1991.848295,9326.594869
2633.129269,3849.070898,1762.019645,9918.759623
2633.129583,3775.050304,1838.629195,9252.574275
2633.129898,1924.535449,1149.143247,9030.512492
2633.130212,2368.659014,1455.581446,9844.739029
2633.130526,1702.473667,689.485948,10362.883188
2633.130841,1628.453072,0.000000,10658.965565
2633.131155,0.000000,306.438199,9918.759623
2633.131469,-1258.350101,0.000000,9622.677246
2633.131784,-962.267725,76.609550,10288.862594
2633.132098,-740.205942,0.000000,9844.739029
2633.132412,-592.164754,383.047749,10140.821405
2633.132727,-1110.308913,1838.629195,9992.780217
2633.133041,-1628.453072,1838.629195,9918.759623
2633.133355,-2368.659014,689.485948,8216.285956
2633.133670,-3182.885551,689.485948,6957.935855
2633.133984,-2294.638420,1762.019645,7031.956449
2633.134298,-1406.391290,1991.848295,8882.471304
2633.134613,-1258.350101,1838.629195,9326.594869
2633.134927,-1258.350101,1532.190996,7698.141797
2633.135241,-1480.411884,2298.286494,8364.327145
2633.135556,-1998.556043,1762.019645,8586.388927
2633.135870,-814.226536,766.095498,9326.594869
2633.136184,-666.185348,1378.971896,9178.553681
2633.136499,-444.123565,2298.286494,8882.471304
2633.136813,-296.082377,1838.629195,9474.636058
2633.137127,518.144159,1532.190996,8882.471304
2633.137442,1258.350101,1608.800546,8956.491898
2633.137756,1332.370696,2451.505594,9252.574275
2633.138070,1628.453072,2145.067394,9844.739029
2633.138385,814.226536,1608.800546,9992.780217
2633.138699,2072.576638,1685.410096,9030.512492
2633.139013,148.041188,383.047749,8808.450710
2633.139328,-1998.556043,-689.485948,10955.047942
2633.139642,-2220.617826,-612.876398,10436.903782
2633.139956,-2738.761985,-1378.971896,10066.800811
2633.140271,-1480.411884,-689.485948,10140.821405
2633.140585,-2368.659014,-1608.800546,9178.553681
2633.140899,-2812.782580,-689.485948,9548.656652
2633.141214,-2220.617826,-1302.362347,9178.553681
2633.141528,-2368.659014,-1915.238745,8586.388927
2633.141842,-1332.370696,-919.314598,9326.594869
2633.142156,-814.226536,-383.047749,9030.512492
2633.142471,1184.329507,-612.876398,10066.800811
2633.142785,1554.432478,-229.828649,8882.471304
2633.143099,1776.494261,0.000000,8512.368333
2633.143414,2294.638420,459.657299,8882.471304
2633.143728,2072.576638,-153.219100,8512.368333
2633.144042,2368.659014,0.000000,8364.327145
2633.144357,3034.844362,-229.828649,8364.327145
2633.144671,2368.659014,153.219100,9696.697840
2633.144985,1924.535449,-536.266849,9622.677246
2633.145300,2590.720797,-459.657299,9844.739029
2633.145614,2664.741391,612.876398,10288.862594
2633.145928,1998.556043,995.924147,11251.130318
2633.146243,592.164754,0.000000,9918.759623
2633.146557,-148.041188,-306.438199,9178.553681
2633.146871,592.164754,612.876398,8882.471304
2633.147186,814.226536,383.047749,9918.759623
2633.147500,0.000000,229.828649,10510.924376
2633.147814,-1406.391290,689.485948,9548.656652
2633.148129,-1628.453072,919.314598,9030.512492
2633.148443,-1110.308913,1149.143247,9992.780217
2633.148757,-2220.617826,842.705048,9104.533087
2633.149072,-2590.720797,76.609550,8068.244768
2633.149386,-2146.597232,1149.143247,8290.306550
2633.149700,-1554.432478,1532.190996,10066.800811
2633.150015,-1184.329507,1991.848295,9918.759623
2633.150329,-740.205942,1991.848295,9030.512492
2633.150643,518.144159,3370.820191,8290.306550
2633.150958,1702.473667,3370.820191,9326.594869
2633.151272,1702.473667,3447.429741,8956.491898
2633.151586,1110.308913,3294.210641,8068.244768
2633.151901,444.123565,3447.429741,8068.244768
2633.152215,1258.350101,2987.772442,7772.162391
