#time,accel_x,accel_y,accel_z
5629.687839,-2146.597232,1762.019645,7550.100608
5629.688162,-2516.700203,995.924147,8808.450710
5629.688486,-2368.659014,1302.362347,9326.594869
5629.688809,-3552.988522,1455.581446,9696.697840
5629.689133,-4589.276840,1072.533697,11251.130318
5629.689456,-2886.803174,2221.676944,12361.439231
5629.689779,-1036.288319,2911.162892,10807.006753
5629.690103,-1036.288319,3294.210641,9474.636058
5629.690426,74.020594,2834.553343,8438.347739
5629.690750,148.041188,2451.505594,8512.368333
5629.691073,888.247130,3294.210641,6957.935855
5629.691397,1258.350101,2987.772442,6069.688724
5629.691720,370.102971,2068.457845,5773.606348
5629.692044,-148.041188,1455.581446,7476.080014
5629.692367,0.000000,1225.752797,7624.121203
5629.692691,0.000000,1532.190996,8290.306550
5629.693014,-814.226536,1762.019645,9622.677246
5629.693338,-2368.659014,919.314598,11399.171507
5629.693661,-1110.308913,1532.190996,12805.562797
5629.693985,-518.144159,2068.457845,12361.439231
5629.694308,-1110.308913,3064.381992,11621.233289
5629.694632,-1480.411884,2451.505594,12583.501014
5629.694955,-1850.514855,1608.800546,12361.439231
5629.695279,-1924.535449,2221.676944,10658.965565
5629.695602,-1998.556043,2528.115143,8734.430116
5629.695926,-3478.967927,2068.457845,8808.450710
5629.696249,-4811.338623,1378.971896,9178.553681
5629.696573,-4515.256246,1685.410096,8734.430116
5629.696896,-4293.194464,2374.896044,7772.162391
5629.697220,-5477.523971,2987.772442,8660.409521
5629.697543,-6217.729913,2757.943793,10214.842000
5629.697867,-5181.441594,3064.381992,10732.986159
5629.698190,-5107.421000,5362.668486,9992.780217
5629.698514,-6143.709319,5439.278036,9844.739029
5629.698837,-5625.565159,5132.839837,10510.924376
5629.699161,-5255.462188,5286.058936,10362.883188
5629.699484,-3775.050304,5898.935335,7994.224174
5629.699807,-3627.009116,5669.106685,6217.729913
5629.700131,-4515.256246,4443.353888,5995.668130
5629.700454,-4737.318029,4443.353888,5773.606348
5629.700778,-4959.379811,4749.792088,5033.400406
5629.701101,-4663.297435,4136.915689,4885.359217
5629.701425,-5921.647536,4290.134789,6291.750507
5629.701748,-6661.853478,3830.477490,8512.368333
5629.702072,-5477.523971,4443.353888,8956.491898
5629.702395,-4589.276840,5362.668486,9030.512492
5629.702719,-4293.194464,5439.278036,9178.553681
5629.703042,-2368.659014,5515.887586,10362.883188
5629.703366,-1258.350101,5056.230287,9770.718434
5629.703689,740.205942,5592.497135,8068.244768
5629.704013,666.185348,3983.696590,7179.997637
5629.704336,-814.226536,2757.943793,8290.306550
5629.704660,-518.144159,2451.505594,8660.409521
5629.704983,0.000000,1532.190996,8068.244768
5629.705307,-666.185348,2068.457845,7920.203579
5629.705630,-666.185348,1532.190996,9992.780217
5629.705954,74.020594,1302.362347,11325.150913
5629.706277,1480.411884,2068.457845,11547.212695
5629.706601,1628.453072,2834.553343,11177.109724
5629.706924,1036.288319,2757.943793,12361.439231
5629.707248,1998.556043,2757.943793,12879.583391
5629.707571,2812.782580,1455.581446,11399.171507
5629.707895,3775.050304,1685.410096,8956.491898
5629.708218,2516.700203,0.000000,8660.409521
5629.708542,1998.556043,-1455.581446,8956.491898
5629.708865,1332.370696,-2298.286494,9178.553681
5629.709189,0.000000,-2604.724693,8512.368333
5629.709512,-2294.638420,-2834.553343,9326.594869
5629.709836,-4071.132681,-2911.162892,11473.192101
5629.710159,-2442.679609,-2451.505594,11917.315666
5629.710482,-1258.350101,-612.876398,11473.192101
5629.710806,-1480.411884,229.828649,10732.986159
5629.711129,-1702.473667,383.047749,11917.315666
5629.711453,-740.205942,919.314598,11769.274478
5629.711776,370.102971,2221.676944,9400.615463
5629.712099,1628.453072,1455.581446,7179.997637
5629.712422,1036.288319,459.657299,7031.956449
5629.712745,74.020594,-1302.362347,6735.874072
5629.713069,-666.185348,-2451.505594,6291.750507
5629.713392,-2368.659014,-2451.505594,6439.791695
5629.713715,-4885.359217,-3217.601092,8734.430116
5629.714038,-6365.771101,-2987.772442,11029.068536
5629.714361,-5329.482782,-1685.410096,11029.068536
5629.714684,-3478.967927,-229.828649,10584.944971
5629.715007,-3478.967927,1532.190996,11769.274478
5629.715330,-3182.885551,2145.067394,13249.686362
5629.715654,-2368.659014,3294.210641,13397.727550
5629.715977,-370.102971,4903.011187,10881.027347
5629.716300,1184.329507,4749.792088,7920.203579
5629.716623,1554.432478,3524.039291,7105.977043
5629.716946,1332.370696,2374.896044,5181.441594
5629.717269,1110.308913,1149.143247,4293.194464
5629.717592,-296.082377,536.266849,4219.173869
5629.717915,-2368.659014,0.000000,6365.771101
5629.718239,-3330.926739,-612.876398,8734.430116
5629.718562,-2664.741391,0.000000,10288.862594
5629.718885,-2072.576638,1608.800546,11103.089130
5629.719208,-1702.473667,2145.067394,12509.480420
5629.719531,-740.205942,3753.867940,14285.974681
5629.719854,592.164754,4979.620737,13841.851115
5629.720177,2368.659014,6128.763984,10658.965565
5629.720500,3849.070898,5975.544884,8364.327145
5629.720824,4145.153275,5209.449386,7698.141797
5629.721147,3923.091493,4519.963438,5921.647536
5629.721470,4219.173869,2451.505594,5107.421000
5629.721793,2960.823768,2298.286494,4589.276840
5629.722116,1110.308913,459.657299,5477.523971
5629.722439,592.164754,-229.828649,7105.977043
5629.722762,592.164754,0.000000,8512.368333
5629.723086,-370.102971,689.485948,9178.553681
5629.723409,-962.267725,612.876398,11029.068536
5629.723732,-296.082377,1149.143247,12805.562797
5629.724055,1184.329507,2451.505594,12509.480420
5629.724378,2886.803174,2987.772442,10214.842000
5629.724701,2146.597232,2145.067394,9400.615463
5629.725024,1850.514855,1455.581446,9400.615463
5629.725347,1850.514855,612.876398,8956.491898
5629.725671,1184.329507,0.000000,7179.997637
5629.725994,518.144159,-1455.581446,7550.100608
5629.726317,0.000000,-2374.896044,8734.430116
5629.726640,-444.123565,-2681.334243,9030.512492
5629.726963,-518.144159,-1762.019645,10066.800811
5629.727286,-1480.411884,-1915.238745,10658.965565
5629.727609,-1258.350101,-1838.629195,12287.418637
5629.727932,-444.123565,-1762.019645,12657.521608
5629.728256,666.185348,-919.314598,11325.150913
5629.728579,1184.329507,-689.485948,10584.944971
5629.728902,-1110.308913,-1608.800546,9918.759623
5629.729225,-2072.576638,-1991.848295,10214.842000
5629.729548,-2146.597232,-2374.896044,9770.718434
5629.729871,-2516.700203,-2757.943793,8216.285956
5629.730194,-2664.741391,-3447.429741,8216.285956
5629.730517,-2516.700203,-3217.601092,9030.512492
5629.730841,-2146.597232,-2528.115143,8956.491898
5629.731164,-1554.432478,-1378.971896,9474.636058
5629.731487,-1332.370696,-1149.143247,9918.759623
5629.731810,0.000000,-766.095498,10807.006753
5629.732133,1184.329507,-536.266849,9474.636058
5629.732456,2664.741391,306.438199,8660.409521
5629.732779,1924.535449,229.828649,8364.327145
5629.733102,0.000000,-536.266849,9844.739029
5629.733426,-814.226536,-612.876398,9622.677246
5629.733749,-1036.288319,-1149.143247,8142.265362
5629.734072,-1332.370696,-1072.533697,7846.182985
5629.734395,-2146.597232,-1302.362347,8512.368333
5629.734718,-2146.597232,-1072.533697,9844.739029
5629.735041,-518.144159,229.828649,9770.718434
5629.735364,444.123565,1838.629195,9252.574275
5629.735687,962.267725,2145.067394,9548.656652
5629.736011,2368.659014,2374.896044,10362.883188
5629.736334,3182.885551,2451.505594,9474.636058
5629.736657,3108.864956,2911.162892,8364.327145
5629.736980,1776.494261,1608.800546,8808.450710
5629.737303,0.000000,612.876398,9992.780217
5629.737626,0.000000,536.266849,9918.759623
5629.737949,0.000000,1072.533697,8734.430116
5629.738272,-740.205942,153.219100,8586.388927
5629.738596,-1776.494261,383.047749,9400.615463
5629.738919,-888.247130,842.705048,10807.006753
5629.739242,814.226536,2681.334243,10510.924376
5629.739565,1628.453072,3907.087040,8956.491898
5629.739888,2516.700203,3677.258390,9030.512492
5629.740211,3552.988522,3677.258390,9400.615463
5629.740534,3034.844362,3983.696590,7698.141797
5629.740858,2516.700203,3677.258390,7105.977043
5629.741181,0.000000,1991.848295,7846.182985
5629.741504,-2072.576638,689.485948,8364.327145
5629.741827,-1998.556043,76.609550,7994.224174
5629.742150,-2590.720797,-153.219100,6809.894666
5629.742473,-3923.091493,0.000000,8068.244768
5629.742796,-4737.318029,76.609550,9770.718434
5629.743119,-2812.782580,306.438199,11103.089130
5629.743443,-962.267725,1915.238745,9400.615463
5629.743766,0.000000,2451.505594,8734.430116
5629.744089,370.102971,2221.676944,9252.574275
5629.744412,1036.288319,2068.457845,9400.615463
5629.744735,1258.350101,2374.896044,7402.059420
5629.745058,962.267725,536.266849,7624.121203
5629.745381,-370.102971,383.047749,8290.306550
5629.745704,-1702.473667,-1455.581446,8364.327145
5629.746028,-1184.329507,-1608.800546,8142.265362
5629.746351,-1850.514855,-1378.971896,8438.347739
5629.746674,-3404.947333,-1608.800546,10436.903782
5629.746997,-2812.782580,-1225.752797,12509.480420
5629.747320,-740.205942,-306.438199,12879.583391
5629.747643,1184.329507,76.609550,11473.192101
5629.747966,1036.288319,153.219100,10658.965565
5629.748289,592.164754,-153.219100,11251.130318
5629.748613,666.185348,-612.876398,11251.130318
5629.748936,74.020594,-229.828649,9548.656652
5629.749259,-222.061783,-842.705048,8956.491898
5629.749582,-1480.411884,-2374.896044,8290.306550
5629.749905,-2368.659014,-2757.943793,8142.265362
5629.750228,-1702.473667,-2145.067394,8142.265362
5629.750551,-2368.659014,-1762.019645,8586.388927
5629.750874,-2442.679609,-1149.143247,10214.842000
5629.751198,-518.144159,-306.438199,11843.295072
5629.751521,2368.659014,1225.752797,10955.047942
5629.751844,2664.741391,2298.286494,9474.636058
5629.752167,2738.761985,1072.533697,9400.615463
5629.752490,2960.823768,536.266849,10955.047942
5629.752813,2220.617826,689.485948,10214.842000
5629.753136,1850.514855,919.314598,8956.491898
5629.753459,888.247130,-536.266849,7920.203579
5629.753783,0.000000,-1149.143247,7920.203579
5629.754106,74.020594,-1225.752797,7254.018232
5629.754429,-518.144159,0.000000,7328.038826
5629.754752,-962.267725,1225.752797,8216.285956
5629.755075,-666.185348,919.314598,9622.677246
5629.755398,1184.329507,1455.581446,9474.636058
5629.755721,2886.803174,2298.286494,8808.450710
5629.756044,2146.597232,2451.505594,7994.224174
5629.756368,1406.391290,1762.019645,9474.636058
5629.756691,222.061783,1072.533697,10510.924376
5629.757014,0.000000,689.485948,10066.800811
5629.757337,-222.061783,459.657299,8068.244768
5629.757660,-2368.659014,0.000000,8438.347739
5629.757983,-3034.844362,-919.314598,9474.636058
5629.758306,-2590.720797,0.000000,9696.697840
5629.758630,-2294.638420,766.095498,9548.656652
5629.758953,-1702.473667,2528.115143,10140.821405
5629.759276,-888.247130,2068.457845,11103.089130
5629.759599,962.267725,2911.162892,10362.883188
5629.759922,1924.535449,3524.039291,8734.430116
5629.760245,814.226536,2987.772442,8586.388927
5629.760568,-444.123565,2145.067394,10066.800811
5629.760891,-888.247130,1149.143247,9918.759623
5629.761215,-888.247130,995.924147,7994.224174
5629.761538,-1850.514855,842.705048,6883.915261
5629.761861,-3256.906145,-306.438199,7846.182985
5629.762184,-4219.173869,153.219100,9178.553681
5629.762507,-3627.009116,612.876398,9844.739029
5629.762830,-2368.659014,1991.848295,9400.615463
5629.763153,-1184.329507,2451.505594,9326.594869
5629.763476,740.205942,2834.553343,9548.656652
5629.763800,2220.617826,3294.210641,9474.636058
5629.764123,2220.617826,3294.210641,7994.224174
5629.764446,666.185348,2604.724693,8808.450710
5629.764769,0.000000,1455.581446,9400.615463
5629.765092,-592.164754,689.485948,8882.471304
5629.765415,-814.226536,612.876398,7402.059420
5629.765738,-1628.453072,0.000000,7920.203579
5629.766061,-3330.926739,-842.705048,9474.636058
5629.766385,-3256.906145,-536.266849,10510.924376
5629.766708,-2146.597232,689.485948,10362.883188
5629.767031,-962.267725,1149.143247,9474.636058
5629.767354,-74.020594,842.705048,9770.718434
5629.767677,888.247130,1072.533697,9696.697840
5629.768000,2072.576638,2451.505594,9622.677246
5629.768323,1776.494261,2298.286494,8808.450710
5629.768646,814.226536,995.924147,9770.718434
5629.768970,1036.288319,-459.657299,9844.739029
5629.769293,1184.329507,-383.047749,8660.409521
5629.769616,1036.288319,-306.438199,7846.182985
5629.769939,-370.102971,-536.266849,9400.615463
5629.770262,-1776.494261,-459.657299,11473.192101
5629.770585,-370.102971,-229.828649,10955.047942
5629.770908,1776.494261,1455.581446,10214.842000
5629.771231,2220.617826,1378.971896,9252.574275
5629.771555,2294.638420,995.924147,10140.821405
5629.771878,2886.803174,612.876398,10436.903782
5629.772201,2886.803174,1149.143247,9326.594869
5629.772524,1184.329507,842.705048,8512.368333
5629.772847,0.000000,-1378.971896,8586.388927
5629.773170,-814.226536,-842.705048,8512.368333
5629.773493,-1406.391290,-1149.143247,7476.080014
5629.773816,-1480.411884,-842.705048,7402.059420
5629.774140,-2886.803174,-1072.533697,9252.574275
5629.774463,-2738.761985,-995.924147,10584.944971
5629.774786,-518.144159,612.876398,10140.821405
5629.775109,370.102971,229.828649,8882.471304
5629.775432,814.226536,1225.752797,9030.512492
5629.775755,0.000000,612.876398,10436.903782
5629.776078,1184.329507,536.266849,11103.089130
5629.776402,962.267725,612.876398,9696.697840
5629.776725,0.000000,0.000000,9104.533087
5629.777048,-888.247130,-1072.533697,9622.677246
5629.777371,-1184.329507,-1378.971896,9252.574275
5629.777694,-1184.329507,-459.657299,8364.327145
5629.778017,-1110.308913,0.000000,8216.285956
5629.778340,-1924.535449,153.219100,9992.780217
5629.778663,-444.123565,689.485948,9992.780217
5629.778987,1110.308913,1685.410096,9252.574275
5629.779310,1406.391290,2374.896044,8068.244768
5629.779633,740.205942,1991.848295,8882.471304
5629.779956,518.144159,612.876398,10288.862594
5629.780279,222.061783,1302.362347,9844.739029
5629.780602,74.020594,766.095498,8586.388927
5629.780925,-1036.288319,229.828649,8512.368333
5629.781248,-1924.535449,-536.266849,9252.574275
5629.781572,-2220.617826,-1149.143247,9326.594869
5629.781895,-2072.576638,306.438199,9178.553681
5629.782218,-1850.514855,1455.581446,9104.533087
5629.782541,-1184.329507,1225.752797,10140.821405
5629.782864,888.247130,1608.800546,9844.739029
5629.783187,1776.494261,2374.896044,8438.347739
5629.783510,1554.432478,2451.505594,8142.265362
5629.783833,592.164754,1762.019645,9252.574275
5629.784157,222.061783,2145.067394,9622.677246
5629.784480,1406.391290,1149.143247,8142.265362
5629.784803,592.164754,1302.362347,7328.038826
5629.785126,-666.185348,153.219100,7698.141797
5629.785449,-1258.350101,-459.657299,9104.533087
5629.785772,-1702.473667,306.438199,9770.718434
5629.786095,-444.123565,1225.752797,9548.656652
5629.786418,-296.082377,1302.362347,10066.800811
5629.786742,296.082377,1532.190996,9770.718434
5629.787065,2294.638420,2068.457845,9918.759623
5629.787388,2442.679609,2298.286494,8734.430116
5629.787711,1110.308913,1762.019645,9178.553681
5629.788034,0.000000,842.705048,9696.697840
5629.788357,666.185348,153.219100,9622.677246
5629.788680,296.082377,306.438199,7698.141797
5629.789003,-888.247130,-383.047749,7920.203579
5629.789327,-2072.576638,-1838.629195,8438.347739
5629.789650,-2590.720797,-1225.752797,10140.821405
5629.789973,-1628.453072,0.000000,10584.944971
5629.790296,-370.102971,536.266849,10140.821405
5629.790619,-296.082377,536.266849,10436.903782
5629.790942,518.144159,0.000000,10436.903782
5629.791265,592.164754,536.266849,9622.677246
5629.791588,814.226536,842.705048,9474.636058
5629.791912,-666.185348,76.609550,10214.842000
5629.792235,-1036.288319,-842.705048,10658.965565
5629.792558,-222.061783,-1225.752797,9252.574275
5629.792881,74.020594,-995.924147,7550.100608
5629.793204,-1258.350101,-612.876398,8216.285956
5629.793527,-2146.597232,-1378.971896,9474.636058
5629.793850,-1554.432478,0.000000,10362.883188
5629.794174,518.144159,459.657299,9326.594869
5629.794497,1332.370696,842.705048,8734.430116
5629.794820,814.226536,689.485948,8956.491898
5629.795143,1480.411884,612.876398,9030.512492
5629.795466,1924.535449,766.095498,8734.430116
5629.795789,1110.308913,689.485948,8808.450710
5629.796112,-296.082377,-153.219100,9326.594869
5629.796435,-370.102971,-612.876398,9178.553681
5629.796759,0.000000,-689.485948,8512.368333
5629.797082,-296.082377,-383.047749,7476.080014
5629.797405,-1702.473667,-459.657299,9030.512492
5629.797728,-1332.370696,-153.219100,10510.924376
5629.798051,-370.102971,229.828649,10658.965565
5629.798374,1776.494261,1532.190996,8808.450710
5629.798697,1184.329507,1455.581446,8438.347739
5629.799020,74.020594,842.705048,9474.636058
5629.799344,222.061783,919.314598,9918.759623
5629.799667,222.061783,459.657299,9622.677246
5629.799990,-296.082377,612.876398,9030.512492
5629.800313,-2220.617826,-689.485948,9252.574275
5629.800636,-1554.432478,-1378.971896,8882.471304
5629.800959,-1406.391290,306.438199,9104.533087
5629.801282,-1776.494261,153.219100,8364.327145
5629.801605,-1628.453072,459.657299,10436.903782
5629.801929,-814.226536,689.485948,11029.068536
5629.802252,1184.329507,1762.019645,10140.821405
5629.802575,2220.617826,2528.115143,8660.409521
5629.802898,1998.556043,2221.676944,8956.491898
5629.803221,740.205942,1532.190996,10066.800811
5629.803544,888.247130,919.314598,9918.759623
5629.803867,518.144159,1149.143247,8660.409521
5629.804190,0.000000,536.266849,7772.162391
5629.804514,-1036.288319,-153.219100,8586.388927
5629.804837,-962.267725,229.828649,8808.450710
5629.805160,-666.185348,459.657299,8586.388927
5629.805483,-1406.391290,919.314598,8882.471304
5629.805806,-1332.370696,689.485948,10288.862594
5629.806129,-370.102971,842.705048,10362.883188
5629.806452,888.247130,1762.019645,9178.553681
5629.806775,1110.308913,2068.457845,8290.306550
5629.807099,-148.041188,1072.533697,9030.512492
5629.807422,-592.164754,306.438199,9474.636058
5629.807745,-1184.329507,-76.609550,9252.574275
5629.808068,-1924.535449,153.219100,7846.182985
5629.808391,-2146.597232,-766.095498,8068.244768
5629.808714,-2516.700203,-1455.581446,8956.491898
5629.809037,-2146.597232,-612.876398,9844.739029
5629.809360,-1480.411884,0.000000,9696.697840
5629.809684,-814.226536,459.657299,9622.677246
5629.810007,888.247130,1149.143247,10658.965565
5629.810330,1702.473667,1225.752797,10288.862594
5629.810653,2664.741391,2145.067394,8956.491898
5629.810976,1776.494261,1455.581446,9104.533087
5629.811299,74.020594,459.657299,9696.697840
5629.811622,0.000000,0.000000,10362.883188
5629.811946,-370.102971,0.000000,8586.388927
5629.812269,-814.226536,-919.314598,7920.203579
5629.812592,-2072.576638,-995.924147,8068.244768
5629.812915,-2220.617826,-1378.971896,9548.656652
5629.813238,-1258.350101,229.828649,9622.677246
5629.813561,-592.164754,1149.143247,9474.636058
5629.813884,0.000000,1455.581446,9844.739029
5629.814207,518.144159,1225.752797,10140.821405
5629.814531,1184.329507,1838.629195,9696.697840
5629.814854,1480.411884,1378.971896,8808.450710
5629.815177,0.000000,1378.971896,8808.450710
5629.815500,-1406.391290,153.219100,9844.739029
5629.815823,-1110.308913,-383.047749,9252.574275
5629.816146,-666.185348,0.000000,8068.244768
5629.816469,-1480.411884,76.609550,7624.121203
5629.816792,-2294.638420,229.828649,9252.574275
5629.817116,-1628.453072,0.000000,10510.924376
5629.817439,444.123565,1762.019645,9622.677246
5629.817762,962.267725,2221.676944,8956.491898
5629.818085,1184.329507,1838.629195,9252.574275
5629.818408,1628.453072,1685.410096,10066.800811
5629.818731,1406.391290,1915.238745,9400.615463
5629.819054,1258.350101,1838.629195,8956.491898
5629.819377,-370.102971,919.314598,8734.430116
5629.819701,-1110.308913,153.219100,9326.594869
5629.820024,-962.267725,-306.438199,8216.285956
5629.820347,-1480.411884,-229.828649,7476.080014
5629.820670,-2368.659014,-229.828649,8438.347739
5629.820993,-2368.659014,0.000000,10436.903782
5629.821316,-666.185348,995.924147,11029.068536
5629.821639,1406.391290,1072.533697,9918.759623
5629.821963,1702.473667,2451.505594,8882.471304
5629.822286,2072.576638,1991.848295,9918.759623
5629.822609,1998.556043,1532.190996,10214.842000
5629.822932,1776.494261,1762.019645,9548.656652
5629.823255,1258.350101,1072.533697,9474.636058
5629.823578,74.020594,-153.219100,9326.594869
5629.823901,-740.205942,-536.266849,9030.512492
5629.824224,-592.164754,-842.705048,8512.368333
5629.824548,-1702.473667,-536.266849,8808.450710
5629.824871,-2294.638420,76.609550,9622.677246
5629.825194,-1480.411884,383.047749,10807.006753
5629.825517,666.185348,919.314598,10362.883188
5629.825840,1924.535449,1915.238745,8586.388927
5629.826163,1332.370696,1685.410096,8142.265362
5629.826486,1776.494261,1072.533697,9696.697840
5629.826809,888.247130,766.095498,9548.656652
5629.827133,74.020594,766.095498,8438.347739
5629.827456,-666.185348,-229.828649,8586.388927
5629.827779,-1850.514855,-1455.581446,8290.306550
5629.828102,-1776.494261,-1149.143247,8586.388927
5629.828425,-1480.411884,-459.657299,8586.388927
5629.828748,-2146.597232,153.219100,8882.471304
5629.829071,-1924.535449,229.828649,10214.842000
5629.829395,0.000000,842.705048,10881.027347
5629.829718,2590.720797,1838.629195,9918.759623
5629.830041,2442.679609,2451.505594,8438.347739
5629.830364,1702.473667,1685.410096,9548.656652
5629.830687,1702.473667,1608.800546,10807.006753
5629.831010,-222.061783,689.485948,10066.800811
5629.831333,962.267725,536.266849,8586.388927
5629.831656,-518.144159,-689.485948,8364.327145
5629.831980,-2146.597232,-1532.190996,9400.615463
5629.832303,-2146.597232,-1149.143247,9474.636058
5629.832626,-1776.494261,0.000000,9548.656652
5629.832949,-1628.453072,536.266849,9770.718434
5629.833272,-666.185348,995.924147,10066.800811
5629.833595,666.185348,995.924147,10732.986159
5629.833918,2220.617826,2298.286494,9178.553681
5629.834241,1480.411884,2374.896044,8142.265362
5629.834565,296.082377,1225.752797,9030.512492
5629.834888,-592.164754,459.657299,10436.903782
5629.835211,-592.164754,383.047749,8882.471304
5629.835534,-814.226536,536.266849,7698.141797
5629.835857,-2294.638420,-919.314598,7476.080014
5629.836180,-3182.885551,-766.095498,8586.388927
5629.836503,-2072.576638,-153.219100,9178.553681
5629.836827,-1332.370696,1378.971896,9178.553681
5629.837150,-962.267725,2221.676944,9548.656652
5629.837473,222.061783,1302.362347,9992.780217
5629.837796,2294.638420,1915.238745,9622.677246
5629.838119,2294.638420,2911.162892,9252.574275
5629.838442,1332.370696,2528.115143,8586.388927
5629.838765,740.205942,1225.752797,10066.800811
5629.839088,296.082377,383.047749,9326.594869
5629.839412,296.082377,229.828649,7624.121203
5629.839735,-666.185348,0.000000,7476.080014
5629.840058,-2516.700203,-995.924147,8586.388927
5629.840381,-2516.700203,-229.828649,9622.677246
5629.840704,-740.205942,229.828649,10584.944971
5629.841027,-296.082377,1225.752797,9918.759623
5629.841350,148.041188,1608.800546,10066.800811
5629.841673,1332.370696,1378.971896,10510.924376
5629.841997,2516.700203,2298.286494,9770.718434
5629.842320,1998.556043,2298.286494,9178.553681
5629.842643,814.226536,1532.190996,9400.615463
5629.842966,444.123565,0.000000,10288.862594
5629.843289,222.061783,-306.438199,9252.574275
5629.843612,74.020594,-306.438199,7772.162391
5629.843935,-1332.370696,-995.924147,8142.265362
5629.844259,-2738.761985,-1072.533697,9844.739029
5629.844582,-1776.494261,-383.047749,10732.986159
5629.844905,-666.185348,536.266849,9992.780217
5629.845228,1184.329507,1302.362347,8956.491898
5629.845551,518.144159,689.485948,9252.574275
5629.845874,1184.329507,612.876398,9474.636058
5629.846197,2294.638420,1149.143247,9474.636058
5629.846520,1036.288319,995.924147,8512.368333
5629.846844,592.164754,-919.314598,8882.471304
5629.847167,-296.082377,-1455.581446,8808.450710
5629.847490,-592.164754,-842.705048,8660.409521
5629.847813,0.000000,-689.485948,7994.224174
5629.848136,-1332.370696,-612.876398,9400.615463
5629.848459,-1850.514855,-536.266849,10732.986159
5629.848782,-222.061783,459.657299,11103.089130
5629.849105,1332.370696,1225.752797,9474.636058
5629.849429,1702.473667,1838.629195,8808.450710
5629.849752,1406.391290,1149.143247,9622.677246
5629.850075,1850.514855,919.314598,9918.759623
5629.850398,1480.411884,995.924147,9178.553681
5629.850721,0.000000,306.438199,8660.409521
5629.851044,-1258.350101,-842.705048,9030.512492
5629.851367,-1776.494261,-1915.238745,9178.553681
5629.851690,-2072.576638,-842.705048,8438.347739
5629.852014,-2294.638420,-306.438199,7994.224174
5629.852337,-2516.700203,-229.828649,10362.883188
5629.852660,-2072.576638,306.438199,10881.027347
5629.852983,-296.082377,842.705048,10288.862594
5629.853306,370.102971,1532.190996,9326.594869
5629.853629,370.102971,1455.581446,9178.553681
5629.853952,222.061783,612.876398,10214.842000
5629.854276,1480.411884,536.266849,10288.862594
5629.854599,888.247130,1225.752797,8660.409521
5629.854922,0.000000,229.828649,7698.141797
5629.855245,-666.185348,-766.095498,8882.471304
5629.855568,-1480.411884,-919.314598,8734.430116
5629.855891,-1258.350101,0.000000,8882.471304
5629.856214,-1258.350101,229.828649,9474.636058
5629.856537,-1406.391290,995.924147,10140.821405
5629.856861,444.123565,1455.581446,9992.780217
5629.857184,1332.370696,1685.410096,9474.636058
5629.857507,1924.535449,2528.115143,8586.388927
5629.857830,222.061783,1838.629195,9178.553681
5629.858153,0.000000,1149.143247,9844.739029
5629.858476,592.164754,1532.190996,9474.636058
5629.858799,74.020594,842.705048,7402.059420
5629.859122,-1110.308913,919.314598,7772.162391
5629.859446,-1998.556043,0.000000,8882.471304
5629.859769,-1776.494261,153.219100,9696.697840
5629.860092,-1184.329507,1225.752797,9252.574275
5629.860415,-740.205942,1225.752797,9474.636058
5629.860738,-296.082377,1225.752797,9622.677246
5629.861061,666.185348,1302.362347,10140.821405
5629.861384,2220.617826,2451.505594,8290.306550
5629.861708,814.226536,2221.676944,8882.471304
5629.862031,-740.205942,842.705048,9548.656652
5629.862354,-296.082377,383.047749,10214.842000
5629.862677,0.000000,0.000000,8882.471304
5629.863000,-888.247130,0.000000,7254.018232
5629.863323,-2294.638420,-612.876398,8956.491898
5629.863646,-2146.597232,-153.219100,10140.821405
5629.863969,-2072.576638,0.000000,9992.780217
5629.864293,-962.267725,1225.752797,9474.636058
5629.864616,0.000000,1225.752797,9770.718434
5629.864939,444.123565,919.314598,10066.800811
5629.865262,1406.391290,1149.143247,9770.718434
5629.865585,1924.535449,1149.143247,8956.491898
5629.865908,518.144159,1149.143247,8882.471304
5629.866231,-1036.288319,0.000000,10066.800811
5629.866554,-370.102971,-612.876398,9400.615463
5629.866878,-444.123565,-766.095498,8142.265362
5629.867201,-1776.494261,-383.047749,7550.100608
5629.867524,-1628.453072,-842.705048,9622.677246
5629.867847,-1480.411884,-459.657299,10362.883188
5629.868170,0.000000,459.657299,10140.821405
5629.868493,1036.288319,1072.533697,9548.656652
5629.868816,814.226536,919.314598,9548.656652
5629.869140,1628.453072,995.924147,9400.615463
5629.869463,1628.453072,1149.143247,9400.615463
5629.869786,1036.288319,1072.533697,8956.491898
5629.870109,0.000000,229.828649,9030.512492
5629.870432,-888.247130,-306.438199,9326.594869
5629.870755,-518.144159,-766.095498,8882.471304
5629.871078,-1332.370696,-689.485948,8142.265362
5629.871401,-2812.782580,-766.095498,9178.553681
5629.871725,-2664.741391,-1072.533697,10732.986159
5629.872048,-1776.494261,-229.828649,11325.150913
5629.872371,0.000000,229.828649,9844.739029
5629.872694,1110.308913,919.314598,9178.553681
5629.873017,888.247130,919.314598,9178.553681
5629.873340,888.247130,766.095498,10066.800811
5629.873663,888.247130,919.314598,9252.574275
5629.873986,518.144159,689.485948,8956.491898
5629.874310,0.000000,0.000000,8438.347739
5629.874633,0.000000,-995.924147,9178.553681
5629.874956,222.061783,0.000000,8216.285956
5629.875279,0.000000,612.876398,7994.224174
5629.875602,-518.144159,1149.143247,9696.697840
5629.875925,0.000000,919.314598,11547.212695
5629.876248,1628.453072,1915.238745,11103.089130
5629.876571,2886.803174,2604.724693,9474.636058
5629.876895,2294.638420,2221.676944,8808.450710
5629.877218,740.205942,1685.410096,9474.636058
5629.877541,0.000000,1608.800546,9326.594869
5629.877864,-592.164754,1149.143247,8290.306550
5629.878187,-1184.329507,153.219100,7550.100608
5629.878510,-2812.782580,-842.705048,7624.121203
5629.878833,-2590.720797,-1072.533697,8068.244768
5629.879157,-2220.617826,-383.047749,7920.203579
5629.879480,-2738.761985,766.095498,7698.141797
5629.879803,-2516.700203,459.657299,10066.800811
5629.880126,-888.247130,612.876398,10732.986159
5629.880449,888.247130,1991.848295,9696.697840
5629.880772,1776.494261,2298.286494,8438.347739
5629.881095,1036.288319,1455.581446,9326.594869
5629.881418,148.041188,842.705048,10436.903782
5629.881742,592.164754,995.924147,9770.718434
5629.882065,0.000000,919.314598,8438.347739
5629.882388,-518.144159,536.266849,9178.553681
5629.882711,-1554.432478,-459.657299,9622.677246
5629.883034,-888.247130,0.000000,9770.718434
5629.883357,-1036.288319,536.266849,9770.718434
5629.883680,-666.185348,1915.238745,10066.800811
5629.884003,0.000000,1762.019645,10732.986159
5629.884327,1036.288319,1378.971896,9844.739029
5629.884650,2294.638420,2451.505594,9252.574275
5629.884973,1628.453072,1838.629195,8216.285956
5629.885296,-518.144159,1072.533697,9104.533087
5629.885619,-888.247130,612.876398,9400.615463
5629.885942,-1554.432478,153.219100,8808.450710
5629.886265,-1924.535449,-306.438199,6957.935855
5629.886589,-2886.803174,-536.266849,7624.121203
5629.886912,-3627.009116,-766.095498,8956.491898
5629.887235,-2072.576638,-383.047749,9992.780217
5629.887558,-962.267725,1072.533697,9474.636058
5629.887881,0.000000,1685.410096,9770.718434
5629.888204,1628.453072,1838.629195,10288.862594
5629.888527,2442.679609,2068.457845,9844.739029
5629.888850,3256.906145,2451.505594,8512.368333
5629.889174,2294.638420,1608.800546,8512.368333
5629.889497,1110.308913,766.095498,8956.491898
5629.889820,222.061783,0.000000,9252.574275
5629.890143,74.020594,-383.047749,7994.224174
5629.890466,-1036.288319,-383.047749,7994.224174
5629.890789,-2146.597232,-766.095498,8364.327145
5629.891112,-1850.514855,-766.095498,9918.759623
5629.891435,-296.082377,766.095498,10362.883188
5629.891759,1110.308913,1915.238745,9918.759623
5629.892082,814.226536,1378.971896,9696.697840
5629.892405,1998.556043,1225.752797,10732.986159
5629.892728,1998.556043,1378.971896,9918.759623
5629.893051,1850.514855,1302.362347,9474.636058
5629.893374,592.164754,153.219100,9400.615463
5629.893697,-1184.329507,-689.485948,10140.821405
5629.894021,-740.205942,-1608.800546,9104.533087
5629.894344,-1036.288319,-1608.800546,8216.285956
5629.894667,-2220.617826,-689.485948,8808.450710
5629.894990,-2960.823768,-1072.533697,10658.965565
5629.895313,-1480.411884,-306.438199,11399.171507
5629.895636,592.164754,919.314598,10436.903782
5629.895959,1406.391290,1762.019645,8808.450710
5629.896282,1702.473667,995.924147,9844.739029
5629.896606,1628.453072,766.095498,9474.636058
5629.896929,1036.288319,766.095498,9326.594869
5629.897252,666.185348,919.314598,8512.368333
5629.897575,-962.267725,0.000000,8882.471304
5629.897898,-1702.473667,-689.485948,8808.450710
5629.898221,-1554.432478,-842.705048,8586.388927
5629.898544,-1924.535449,-612.876398,7698.141797
5629.898867,-2368.659014,-153.219100,9030.512492
5629.899191,-2664.741391,153.219100,10584.944971
5629.899514,-222.061783,1302.362347,10955.047942
5629.899837,1258.350101,2068.457845,9474.636058
5629.900160,1628.453072,2298.286494,8216.285956
5629.900483,1998.556043,1455.581446,9178.553681
5629.900806,1554.432478,1455.581446,9104.533087
5629.901129,1332.370696,2145.067394,8660.409521
5629.901452,444.123565,536.266849,8068.244768
5629.901776,-1332.370696,-536.266849,8364.327145
5629.902099,-1850.514855,-766.095498,8216.285956
5629.902422,-1924.535449,-689.485948,8808.450710
5629.902745,-2368.659014,0.000000,9252.574275
5629.903068,-2072.576638,689.485948,10510.924376
5629.903391,-962.267725,842.705048,10658.965565
5629.903714,2442.679609,2145.067394,10510.924376
5629.904038,2812.782580,2911.162892,9104.533087
5629.904361,2220.617826,2528.115143,9844.739029
5629.904684,1850.514855,1685.410096,10362.883188
5629.905007,1036.288319,1455.581446,10584.944971
5629.905330,962.267725,1532.190996,8438.347739
5629.905653,0.000000,-383.047749,8216.285956
5629.905976,-2368.659014,-612.876398,8364.327145
5629.906299,-2590.720797,-919.314598,8956.491898
5629.906623,-2294.638420,-306.438199,9030.512492
5629.906946,-2368.659014,536.266849,9474.636058
5629.907269,-2146.597232,1225.752797,10658.965565
5629.907592,-74.020594,1302.362347,10658.965565
5629.907915,1998.556043,2374.896044,8956.491898
5629.908238,1998.556043,2987.772442,7476.080014
5629.908561,814.226536,1838.629195,8734.430116
5629.908884,0.000000,459.657299,9992.780217
5629.909208,-592.164754,459.657299,9104.533087
5629.909531,-444.123565,76.609550,7476.080014
5629.909854,-1628.453072,-1378.971896,7402.059420
5629.910177,-3182.885551,-1455.581446,8882.471304
5629.910500,-2664.741391,-1915.238745,9474.636058
5629.910823,-2072.576638,153.219100,9474.636058
5629.911146,-1184.329507,842.705048,9622.677246
5629.911470,0.000000,1149.143247,10214.842000
5629.911793,2220.617826,1225.752797,10066.800811
5629.912116,3108.864956,2068.457845,8142.265362
5629.912439,2146.597232,1838.629195,7920.203579
5629.912761,962.267725,153.219100,9770.718434
5629.913084,74.020594,0.000000,10214.842000
5629.913407,-370.102971,-612.876398,8586.388927
5629.913730,-740.205942,-1072.533697,8068.244768
5629.914053,-2886.803174,-1532.190996,9104.533087
5629.914376,-3330.926739,-1762.019645,10214.842000
5629.914699,-1924.535449,-919.314598,10807.006753
5629.915022,-888.247130,0.000000,10510.924376
5629.915345,592.164754,1149.143247,10658.965565
5629.915668,1332.370696,1149.143247,10881.027347
5629.915991,2516.700203,1532.190996,10140.821405
5629.916314,2368.659014,1915.238745,9548.656652
5629.916637,1406.391290,1302.362347,9326.594869
5629.916960,444.123565,383.047749,9992.780217
5629.917283,-444.123565,0.000000,8808.450710
5629.917606,-370.102971,-229.828649,7994.224174
5629.917929,-1850.514855,-842.705048,7402.059420
5629.918252,-3256.906145,-1608.800546,8882.471304
5629.918575,-2590.720797,-766.095498,9622.677246
5629.918898,-1036.288319,459.657299,9696.697840
5629.919221,74.020594,1608.800546,8438.347739
5629.919543,1702.473667,2145.067394,9548.656652
5629.919866,2368.659014,1762.019645,9474.636058
5629.920189,3256.906145,2068.457845,9252.574275
5629.920512,2368.659014,2374.896044,8364.327145
5629.920835,888.247130,1302.362347,9178.553681
5629.921158,74.020594,76.609550,9622.677246
5629.921481,0.000000,-229.828649,8586.388927
5629.921804,-296.082377,0.000000,7698.141797
5629.922127,-2072.576638,0.000000,8364.327145
5629.922450,-2664.741391,-229.828649,10436.903782
5629.922773,-1332.370696,153.219100,10732.986159
5629.923096,444.123565,1455.581446,9992.780217
5629.923419,1110.308913,1838.629195,8660.409521
5629.923742,518.144159,1225.752797,8956.491898
5629.924065,888.247130,1608.800546,9622.677246
5629.924388,1036.288319,1378.971896,8734.430116
5629.924711,0.000000,1225.752797,8364.327145
5629.925034,-1480.411884,-306.438199,8956.491898
5629.925357,-2220.617826,-1225.752797,9400.615463
5629.925680,-2516.700203,-1149.143247,8734.430116
5629.926002,-1702.473667,-1302.362347,8290.306550
5629.926325,-2960.823768,-306.438199,9474.636058
5629.926648,-1998.556043,0.000000,10510.924376
5629.926971,592.164754,919.314598,10584.944971
5629.927294,1850.514855,2145.067394,9252.574275
5629.927617,1776.494261,1915.238745,9030.512492
5629.927940,1110.308913,1455.581446,9918.759623
5629.928263,1554.432478,1455.581446,10362.883188
5629.928586,1480.411884,1532.190996,8734.430116
5629.928909,-296.082377,459.657299,8512.368333
5629.929232,-962.267725,-919.314598,9030.512492
5629.929555,-1998.556043,-919.314598,9030.512492
5629.929878,-2368.659014,-383.047749,8586.388927
5629.930201,-2368.659014,0.000000,8734.430116
5629.930524,-2812.782580,306.438199,10066.800811
5629.930847,-1332.370696,919.314598,9622.677246
5629.931170,1036.288319,2221.676944,9474.636058
5629.931493,1406.391290,2451.505594,8068.244768
5629.931816,1110.308913,2145.067394,8364.327145
5629.932139,0.000000,1302.362347,9474.636058
5629.932461,666.185348,1149.143247,9548.656652
5629.932784,518.144159,766.095498,7994.224174
5629.933107,-1258.350101,0.000000,7920.203579
5629.933430,-1702.473667,-383.047749,9104.533087
5629.933753,-1924.535449,-842.705048,9992.780217
5629.934076,-1776.494261,459.657299,9770.718434
5629.934399,-888.247130,536.266849,10214.842000
5629.934722,-518.144159,459.657299,10732.986159
5629.935045,962.267725,919.314598,10362.883188
5629.935368,2072.576638,2298.286494,9252.574275
5629.935691,2368.659014,1762.019645,8438.347739
5629.936014,888.247130,1225.752797,9474.636058
5629.936337,740.205942,536.266849,9548.656652
5629.936660,1406.391290,995.924147,8956.491898
5629.936983,370.102971,842.705048,7698.141797
5629.937306,-962.267725,0.000000,7994.224174
5629.937629,-1776.494261,-842.705048,9622.677246
5629.937952,-1850.514855,-229.828649,9622.677246
5629.938275,-592.164754,1762.019645,10214.842000
5629.938598,-444.123565,1685.410096,10288.862594
5629.938920,148.041188,1149.143247,10140.821405
5629.939243,1258.350101,1302.362347,9474.636058
5629.939566,1628.453072,1838.629195,8586.388927
5629.939889,592.164754,1378.971896,8438.347739
5629.940212,-740.205942,0.000000,9474.636058
5629.940535,-740.205942,76.609550,9030.512492
5629.940858,-444.123565,76.609550,7402.059420
5629.941181,-1850.514855,-536.266849,6661.853478
5629.941504,-2368.659014,-995.924147,8660.409521
5629.941827,-2812.782580,-842.705048,9992.780217
5629.942150,-1776.494261,153.219100,9992.780217
5629.942473,296.082377,1378.971896,9030.512492
5629.942796,814.226536,1225.752797,9252.574275
5629.943119,1110.308913,842.705048,10214.842000
5629.943442,1702.473667,1072.533697,9252.574275
5629.943765,1258.350101,1455.581446,8882.471304
5629.944088,0.000000,919.314598,9252.574275
5629.944411,-666.185348,0.000000,10436.903782
5629.944734,-518.144159,-306.438199,9030.512492
5629.945057,-296.082377,-306.438199,7846.182985
5629.945379,-1332.370696,-383.047749,8512.368333
5629.945702,-2146.597232,-536.266849,10362.883188
5629.946025,-1184.329507,153.219100,11399.171507
5629.946348,518.144159,995.924147,10658.965565
5629.946671,1850.514855,2145.067394,9696.697840
5629.946994,1184.329507,1302.362347,9474.636058
5629.947317,1850.514855,1378.971896,9548.656652
5629.947640,1480.411884,1455.581446,9178.553681
5629.947963,962.267725,1072.533697,8586.388927
5629.948286,-296.082377,229.828649,8660.409521
5629.948609,-1036.288319,-612.876398,9104.533087
5629.948932,-666.185348,-612.876398,8438.347739
5629.949255,-1110.308913,0.000000,7698.141797
5629.949578,-1850.514855,0.000000,9104.533087
5629.949901,-1184.329507,229.828649,11695.253884
5629.950224,-444.123565,612.876398,10584.944971
5629.950547,1406.391290,1838.629195,9178.553681
5629.950870,1702.473667,1762.019645,8290.306550
5629.951193,666.185348,919.314598,9030.512492
5629.951516,666.185348,995.924147,9474.636058
5629.951839,296.082377,995.924147,8808.450710
5629.952161,-518.144159,995.924147,7698.141797
5629.952484,-1332.370696,-459.657299,7476.080014
5629.952807,-1776.494261,-229.828649,8364.327145
5629.953130,-370.102971,0.000000,8586.388927
5629.953453,-1258.350101,459.657299,8734.430116
5629.953776,-1036.288319,612.876398,10214.842000
5629.954099,-222.061783,1225.752797,11769.274478
5629.954422,962.267725,2298.286494,10807.006753
5629.954745,2664.741391,2681.334243,9252.574275
5629.955068,1258.350101,1838.629195,9252.574275
5629.955391,518.144159,919.314598,10214.842000
5629.955714,74.020594,612.876398,10436.903782
5629.956037,-222.061783,612.876398,8956.491898
5629.956360,-1406.391290,153.219100,8142.265362
5629.956683,-2738.761985,-919.314598,8142.265362
5629.957006,-2220.617826,-1225.752797,8660.409521
5629.957329,-1628.453072,0.000000,8808.450710
5629.957652,-2146.597232,919.314598,9252.574275
5629.957975,-1184.329507,459.657299,10436.903782
5629.958298,296.082377,1149.143247,10658.965565
5629.958620,1850.514855,2068.457845,9030.512492
5629.958943,1702.473667,1685.410096,8586.388927
5629.959266,-148.041188,842.705048,8660.409521
5629.959589,-814.226536,76.609550,9474.636058
5629.959912,-814.226536,229.828649,9178.553681
5629.960235,-814.226536,0.000000,7994.224174
5629.960558,-1850.514855,-689.485948,8142.265362
5629.960881,-2368.659014,-689.485948,9178.553681
5629.961204,-1480.411884,-766.095498,10140.821405
5629.961527,-592.164754,1608.800546,9696.697840
5629.961850,74.020594,1915.238745,9992.780217
5629.962173,1850.514855,1991.848295,10732.986159
5629.962496,2590.720797,1991.848295,10658.965565
5629.962819,3330.926739,2451.505594,9030.512492
5629.963142,2590.720797,2145.067394,8808.450710
5629.963465,296.082377,536.266849,9104.533087
5629.963788,-370.102971,153.219100,9030.512492
5629.964111,-740.205942,-612.876398,7846.182985
5629.964434,-1628.453072,-306.438199,7179.997637
5629.964757,-2738.761985,-919.314598,7920.203579
5629.965079,-3478.967927,-1149.143247,9548.656652
5629.965402,-1332.370696,306.438199,10584.944971
5629.965725,-148.041188,766.095498,9844.739029
5629.966048,222.061783,1608.800546,9474.636058
5629.966371,1406.391290,1302.362347,10436.903782
5629.966694,1628.453072,1225.752797,9474.636058
5629.967017,1554.432478,1762.019645,8364.327145
5629.967340,518.144159,1072.533697,8364.327145
5629.967663,-740.205942,-229.828649,9030.512492
5629.967986,-962.267725,-383.047749,8586.388927
5629.968309,0.000000,-383.047749,7624.121203
5629.968632,-1036.288319,-766.095498,7698.141797
5629.968955,-1998.556043,0.000000,9400.615463
5629.969278,-962.267725,0.000000,11029.068536
5629.969601,1184.329507,1455.581446,10732.986159
5629.969924,2146.597232,2451.505594,9622.677246
5629.970247,2590.720797,2374.896044,10436.903782
5629.970570,2664.741391,1302.362347,10658.965565
5629.970893,1776.494261,1685.410096,9770.718434
5629.971216,1406.391290,1455.581446,8882.471304
5629.971538,-666.185348,0.000000,8956.491898
5629.971861,-2146.597232,-1378.971896,8882.471304
5629.972184,-2442.679609,-1991.848295,8512.368333
5629.972507,-2516.700203,-1532.190996,7105.977043
5629.972830,-3478.967927,-1532.190996,8660.409521
5629.973153,-3923.091493,-766.095498,10362.883188
5629.973476,-1406.391290,0.000000,11103.089130
5629.973799,296.082377,995.924147,9696.697840
5629.974122,740.205942,1685.410096,8808.450710
5629.974445,1110.308913,1072.533697,9622.677246
5629.974768,1184.329507,919.314598,9918.759623
5629.975091,1110.308913,766.095498,9178.553681
5629.975414,518.144159,-459.657299,8586.388927
5629.975737,-740.205942,0.000000,8438.347739
5629.976060,-1702.473667,-1455.581446,8586.388927
5629.976383,-1184.329507,-1149.143247,8808.450710
5629.976706,-1184.329507,0.000000,9252.574275
5629.977029,-1480.411884,229.828649,10362.883188
5629.977352,-148.041188,689.485948,11843.295072
5629.977675,2442.679609,2068.457845,11177.109724
5629.977997,3256.906145,2451.505594,9844.739029
5629.978320,2664.741391,2757.943793,9252.574275
5629.978643,2072.576638,1685.410096,9918.759623
5629.978966,888.247130,995.924147,9696.697840
5629.979289,222.061783,766.095498,8438.347739
5629.979612,-888.247130,76.609550,7624.121203
5629.979935,-3034.844362,0.000000,7328.038826
5629.980258,-3552.988522,-1455.581446,7994.224174
5629.980581,-3182.885551,-919.314598,8586.388927
5629.980904,-3330.926739,0.000000,8956.491898
5629.981227,-3256.906145,459.657299,10214.842000
5629.981550,-1110.308913,842.705048,10955.047942
5629.981873,1480.411884,2451.505594,10362.883188
5629.982196,2368.659014,3064.381992,8068.244768
5629.982519,1258.350101,2834.553343,7994.224174
5629.982842,1184.329507,1455.581446,9474.636058
5629.983165,740.205942,1302.362347,9474.636058
5629.983488,888.247130,1072.533697,7920.203579
5629.983811,-222.061783,153.219100,7994.224174
5629.984134,-2294.638420,-612.876398,9326.594869
5629.984457,-1850.514855,-766.095498,9696.697840
5629.984779,-1332.370696,306.438199,9844.739029
5629.985102,-814.226536,919.314598,10362.883188
5629.985425,-148.041188,1455.581446,11325.150913
5629.985748,1628.453072,1378.971896,11103.089130
5629.986071,2738.761985,2298.286494,9474.636058
5629.986394,2294.638420,2528.115143,8216.285956
5629.986717,888.247130,1225.752797,9326.594869
5629.987040,-296.082377,153.219100,9992.780217
5629.987363,-518.144159,153.219100,8586.388927
5629.987686,-1036.288319,0.000000,6883.915261
5629.988009,-2442.679609,-1149.143247,7920.203579
5629.988332,-3552.988522,-1532.190996,9326.594869
5629.988655,-2664.741391,-995.924147,10140.821405
5629.988978,-1406.391290,306.438199,10214.842000
5629.989301,0.000000,1915.238745,10436.903782
5629.989624,1480.411884,1685.410096,10807.006753
5629.989947,2886.803174,1455.581446,9844.739029
5629.990270,3108.864956,2145.067394,8438.347739
5629.990593,1924.535449,1762.019645,8586.388927
5629.990916,814.226536,153.219100,9844.739029
5629.991238,444.123565,-76.609550,9252.574275
5629.991561,74.020594,-612.876398,7105.977043
5629.991884,-740.205942,-536.266849,7179.997637
5629.992207,-2294.638420,-995.924147,9030.512492
5629.992530,-2664.741391,-919.314598,10510.924376
5629.992853,-1258.350101,459.657299,10807.006753
5629.993176,-148.041188,1762.019645,9992.780217
5629.993499,740.205942,1915.238745,9770.718434
5629.993822,1628.453072,2221.676944,10732.986159
5629.994145,2368.659014,1685.410096,9548.656652
5629.994468,1480.411884,1838.629195,8586.388927
5629.994791,-370.102971,1149.143247,8734.430116
5629.995114,-1110.308913,-153.219100,9918.759623
5629.995437,-1480.411884,-689.485948,9030.512492
5629.995760,-1776.494261,0.000000,7105.977043
5629.996083,-2516.700203,-1532.190996,7772.162391
5629.996406,-3701.029710,-842.705048,9770.718434
5629.996729,-2368.659014,0.000000,11029.068536
5629.997052,-444.123565,1149.143247,10214.842000
5629.997375,1036.288319,1762.019645,9104.533087
5629.997697,1258.350101,1915.238745,9178.553681
5629.998020,2146.597232,1915.238745,9844.739029
5629.998343,2516.700203,1762.019645,9252.574275
5629.998666,1332.370696,1608.800546,7698.141797
5629.998989,296.082377,306.438199,8660.409521
5629.999312,-962.267725,-1225.752797,9104.533087
5629.999635,-1480.411884,-1302.362347,8808.450710
5629.999958,-1184.329507,-612.876398,8364.327145
5630.000281,-1998.556043,-766.095498,9474.636058
5630.000604,-1628.453072,76.609550,11769.274478
5630.000927,814.226536,1225.752797,11177.109724
5630.001250,1998.556043,1302.362347,10807.006753
5630.001573,2886.803174,2374.896044,9252.574275
5630.001896,2368.659014,1991.848295,10584.944971
5630.002219,2220.617826,1608.800546,9992.780217
5630.002542,1998.556043,1455.581446,9178.553681
5630.002865,814.226536,612.876398,7476.080014
5630.003188,-444.123565,-612.876398,8216.285956
5630.003511,-1110.308913,-1149.143247,8586.388927
5630.003834,-1776.494261,-1302.362347,7994.224174
5630.004156,-2146.597232,-306.438199,8512.368333
5630.004479,-2738.761985,-229.828649,10362.883188
5630.004802,-1702.473667,383.047749,11103.089130
5630.005125,666.185348,1072.533697,10362.883188
5630.005448,1332.370696,1608.800546,8956.491898
5630.005771,1258.350101,2451.505594,9030.512492
5630.006094,814.226536,1225.752797,10214.842000
5630.006417,814.226536,1225.752797,9844.739029
5630.006740,370.102971,1225.752797,8734.430116
5630.007063,-1184.329507,0.000000,8068.244768
5630.007386,-2294.638420,-536.266849,8512.368333
5630.007709,-1998.556043,-536.266849,8586.388927
5630.008032,-2146.597232,0.000000,9030.512492
5630.008355,-2590.720797,689.485948,10436.903782
5630.008678,-2368.659014,1149.143247,10658.965565
5630.009001,-370.102971,1149.143247,10658.965565
5630.009324,1184.329507,2451.505594,9326.594869
5630.009647,1480.411884,3294.210641,8956.491898
5630.009970,666.185348,2221.676944,9030.512492
5630.010293,-666.185348,1685.410096,10658.965565
5630.010615,370.102971,1302.362347,8586.388927
5630.010938,-222.061783,689.485948,7254.018232
5630.011261,-1554.432478,0.000000,7105.977043
5630.011584,-2368.659014,-536.266849,8734.430116
5630.011907,-1776.494261,229.828649,8956.491898
5630.012230,-1332.370696,1532.190996,9178.553681
5630.012553,-518.144159,1608.800546,9252.574275
5630.012876,-444.123565,689.485948,10214.842000
5630.013199,1258.350101,1838.629195,9548.656652
5630.013522,2664.741391,2451.505594,8438.347739
5630.013845,2368.659014,2374.896044,7698.141797
5630.014168,888.247130,842.705048,9252.574275
5630.014491,666.185348,766.095498,9696.697840
5630.014814,1184.329507,612.876398,7994.224174
5630.015137,296.082377,0.000000,6957.935855
5630.015460,-1036.288319,-459.657299,8586.388927
5630.015783,-1924.535449,-919.314598,10732.986159
5630.016107,-1554.432478,-612.876398,11029.068536
5630.016430,-222.061783,612.876398,10732.986159
5630.016753,666.185348,383.047749,9992.780217
5630.017076,592.164754,153.219100,11399.171507
5630.017399,1110.308913,995.924147,10436.903782
5630.017722,1480.411884,995.924147,9548.656652
5630.018045,888.247130,306.438199,9252.574275
5630.018368,370.102971,0.000000,10140.821405
5630.018691,518.144159,-995.924147,9400.615463
5630.019014,444.123565,-919.314598,8438.347739
5630.019337,-592.164754,-383.047749,7772.162391
5630.019660,-1554.432478,-1608.800546,9622.677246
5630.019983,-1702.473667,-842.705048,10436.903782
5630.020306,-592.164754,536.266849,10510.924376
5630.020629,1110.308913,995.924147,9474.636058
5630.020952,1036.288319,919.314598,9548.656652
5630.021275,2072.576638,689.485948,8734.430116
5630.021598,1258.350101,995.924147,8586.388927
5630.021921,370.102971,995.924147,8068.244768
5630.022244,-1036.288319,229.828649,8586.388927
5630.022567,-1406.391290,-689.485948,8586.388927
5630.022890,-740.205942,-612.876398,8512.368333
5630.023213,-1554.432478,-153.219100,7994.224174
5630.023536,-2368.659014,0.000000,9104.533087
5630.023859,-2812.782580,-536.266849,11029.068536
5630.024182,-1184.329507,842.705048,11473.192101
5630.024505,888.247130,1762.019645,10362.883188
5630.024828,1480.411884,1762.019645,9104.533087
5630.025151,666.185348,1225.752797,9696.697840
5630.025474,0.000000,689.485948,9474.636058
5630.025797,148.041188,1455.581446,8808.450710
5630.026120,-740.205942,1378.971896,8290.306550
5630.026443,-1628.453072,76.609550,7846.182985
5630.026766,-1776.494261,-842.705048,8956.491898
5630.027089,-962.267725,-229.828649,8364.327145
5630.027412,-1036.288319,459.657299,8216.285956
5630.027735,-1924.535449,612.876398,9770.718434
5630.028058,-1480.411884,1302.362347,11769.274478
5630.028381,148.041188,1762.019645,11621.233289
5630.028704,2294.638420,2911.162892,9326.594869
5630.029027,2146.597232,2145.067394,8882.471304
5630.029350,1110.308913,1608.800546,9474.636058
5630.029673,296.082377,842.705048,9622.677246
5630.029996,222.061783,919.314598,8364.327145
5630.030319,-296.082377,459.657299,7698.141797
5630.030642,-666.185348,-612.876398,8068.244768
5630.030965,-1258.350101,-459.657299,8734.430116
5630.031288,-888.247130,536.266849,8808.450710
5630.031611,-1036.288319,919.314598,9326.594869
5630.031934,-888.247130,1455.581446,10658.965565
5630.032257,222.061783,1378.971896,11621.233289
5630.032580,1332.370696,2145.067394,9992.780217
5630.032903,2442.679609,2834.553343,8512.368333
5630.033226,666.185348,1915.238745,8956.491898
5630.033549,518.144159,842.705048,9622.677246
5630.033872,-222.061783,229.828649,9252.574275
5630.034195,-1332.370696,0.000000,7698.141797
5630.034518,-1776.494261,-689.485948,7846.182985
5630.034841,-2590.720797,-1532.190996,7920.203579
5630.035165,-1702.473667,-1149.143247,9474.636058
5630.035488,-1184.329507,-153.219100,8956.491898
5630.035811,-1258.350101,919.314598,10066.800811
5630.036134,370.102971,842.705048,11103.089130
5630.036457,1554.432478,995.924147,10584.944971
5630.036780,2590.720797,1762.019645,9252.574275
5630.037103,2294.638420,1685.410096,8660.409521
5630.037426,962.267725,689.485948,9326.594869
5630.037749,-518.144159,-459.657299,9474.636058
5630.038072,0.000000,-919.314598,8956.491898
5630.038395,-1036.288319,-919.314598,8290.306550
5630.038718,-2146.597232,-842.705048,8586.388927
5630.039041,-2590.720797,-1378.971896,10288.862594
5630.039364,-1480.411884,-612.876398,11177.109724
5630.039687,-444.123565,1225.752797,10732.986159
5630.040010,-296.082377,842.705048,10732.986159
5630.040333,1036.288319,1225.752797,11251.130318
5630.040656,1702.473667,1225.752797,10362.883188
5630.040979,2072.576638,1302.362347,9178.553681
5630.041302,666.185348,842.705048,8586.388927
5630.041625,-1036.288319,-229.828649,9252.574275
5630.041948,-1554.432478,-919.314598,8956.491898
5630.042271,-962.267725,-919.314598,7402.059420
5630.042594,-1480.411884,-1685.410096,7105.977043
5630.042917,-2368.659014,-1225.752797,8586.388927
5630.043240,-1998.556043,-306.438199,10436.903782
5630.043563,-296.082377,995.924147,10436.903782
5630.043886,1184.329507,1915.238745,9474.636058
5630.044209,2072.576638,1915.238745,9474.636058
5630.044532,2886.803174,1762.019645,10362.883188
5630.044855,2886.803174,1991.848295,9252.574275
5630.045178,2072.576638,2451.505594,8364.327145
5630.045501,592.164754,1455.581446,8438.347739
5630.045824,-1036.288319,0.000000,8956.491898
5630.046147,-1258.350101,-459.657299,8364.327145
5630.046470,-1332.370696,-229.828649,7920.203579
5630.046793,-2220.617826,153.219100,7994.224174
5630.047116,-2812.782580,76.609550,10214.842000
5630.047439,-1184.329507,0.000000,11251.130318
5630.047762,74.020594,1302.362347,9992.780217
5630.048085,1184.329507,2145.067394,9030.512492
5630.048408,1776.494261,1762.019645,9622.677246
5630.048731,1110.308913,1685.410096,10066.800811
5630.049054,1110.308913,1378.971896,9030.512492
5630.049377,814.226536,995.924147,8364.327145
5630.049700,-444.123565,229.828649,8438.347739
5630.050023,-1110.308913,-995.924147,9104.533087
5630.050346,-666.185348,-612.876398,8808.450710
5630.050669,-666.185348,0.000000,8660.409521
5630.050992,-1480.411884,612.876398,9622.677246
5630.051315,-1184.329507,459.657299,11621.233289
5630.051638,1850.514855,1302.362347,11251.130318
5630.051961,2812.782580,2298.286494,9178.553681
5630.052284,2368.659014,1915.238745,8882.471304
5630.052607,1998.556043,1225.752797,9918.759623
5630.052930,1184.329507,919.314598,9326.594869
5630.053253,296.082377,459.657299,8438.347739
5630.053576,-814.226536,0.000000,7698.141797
5630.053900,-2960.823768,-1378.971896,7550.100608
5630.054223,-3552.988522,-1532.190996,8142.265362
5630.054546,-3627.009116,-536.266849,8512.368333
5630.054869,-3182.885551,-306.438199,9104.533087
5630.055192,-3404.947333,612.876398,10584.944971
5630.055515,-1850.514855,995.924147,11843.295072
5630.055838,1110.308913,1762.019645,10658.965565
5630.056161,2368.659014,2604.724693,8290.306550
5630.056484,1332.370696,1532.190996,8808.450710
5630.056807,1406.391290,1149.143247,9844.739029
5630.057130,296.082377,1072.533697,9178.553681
5630.057453,592.164754,536.266849,7994.224174
5630.057776,0.000000,0.000000,7920.203579
5630.058099,-2072.576638,-1225.752797,8882.471304
5630.058422,-1998.556043,-1072.533697,9696.697840
5630.058745,-1924.535449,-536.266849,9474.636058
5630.059068,-1332.370696,689.485948,9622.677246
5630.059391,-1184.329507,1532.190996,10732.986159
5630.059714,962.267725,1608.800546,10807.006753
5630.060037,3256.906145,2298.286494,9400.615463
5630.060360,2812.782580,2528.115143,7179.997637
5630.060683,1628.453072,1455.581446,8512.368333
5630.061006,222.061783,612.876398,9252.574275
5630.061329,-296.082377,536.266849,8290.306550
5630.061652,0.000000,-229.828649,6957.935855
5630.061975,-1554.432478,-612.876398,7698.141797
5630.062298,-2960.823768,-1378.971896,9474.636058
5630.062621,-2368.659014,-612.876398,10288.862594
5630.062944,-1184.329507,153.219100,10140.821405
5630.063267,-592.164754,1072.533697,9992.780217
5630.063590,962.267725,1762.019645,11473.192101
5630.063913,2812.782580,2145.067394,10584.944971
5630.064236,3034.844362,2145.067394,9252.574275
5630.064559,2072.576638,2068.457845,8808.450710
5630.064882,814.226536,842.705048,9178.553681
5630.065205,222.061783,0.000000,9400.615463
5630.065528,0.000000,-229.828649,7328.038826
5630.065851,-888.247130,-612.876398,7105.977043
5630.066174,-1998.556043,-689.485948,7994.224174
5630.066497,-2220.617826,-919.314598,9474.636058
5630.066820,-1628.453072,0.000000,10066.800811
5630.067143,-444.123565,1225.752797,9918.759623
5630.067466,740.205942,1455.581446,9992.780217
5630.067789,1628.453072,1762.019645,10362.883188
5630.068112,3478.967927,1991.848295,9918.759623
5630.068435,2886.803174,1302.362347,8290.306550
5630.068758,592.164754,612.876398,8512.368333
5630.069081,0.000000,-229.828649,9844.739029
5630.069404,-1036.288319,-995.924147,9252.574275
5630.069727,-1184.329507,-766.095498,8438.347739
5630.070050,-1776.494261,-919.314598,7550.100608
5630.070373,-3775.050304,-1225.752797,9918.759623
5630.070696,-3182.885551,-766.095498,10732.986159
5630.071019,-1184.329507,306.438199,10732.986159
5630.071342,74.020594,1455.581446,9844.739029
5630.071665,296.082377,1378.971896,10140.821405
5630.071988,814.226536,995.924147,10140.821405
5630.072311,1850.514855,1225.752797,9474.636058
5630.072634,1406.391290,1225.752797,7846.182985
5630.072958,-592.164754,153.219100,8734.430116
5630.073281,-1184.329507,-1072.533697,9844.739029
5630.073604,-1036.288319,-919.314598,9474.636058
5630.073927,-888.247130,-536.266849,8216.285956
5630.074250,-1924.535449,-842.705048,8956.491898
5630.074573,-2516.700203,-689.485948,10732.986159
5630.074896,-962.267725,306.438199,11325.150913
5630.075219,1480.411884,1225.752797,9696.697840
5630.075542,2146.597232,2374.896044,8660.409521
5630.075865,2146.597232,1838.629195,9178.553681
5630.076188,2146.597232,1532.190996,9178.553681
5630.076511,2220.617826,1378.971896,8438.347739
5630.076834,444.123565,1072.533697,7105.977043
5630.077157,-888.247130,0.000000,7846.182985
5630.077480,-1258.350101,-842.705048,8956.491898
5630.077803,-2368.659014,-612.876398,8660.409521
5630.078126,-2220.617826,-612.876398,8660.409521
5630.078449,-3182.885551,0.000000,10362.883188
5630.078772,-2516.700203,229.828649,11621.233289
5630.079095,0.000000,1225.752797,11325.150913
5630.079418,1258.350101,2298.286494,9918.759623
5630.079741,1406.391290,2374.896044,8660.409521
5630.080064,1258.350101,1532.190996,9770.718434
5630.080387,1406.391290,1455.581446,10140.821405
5630.080710,1110.308913,1532.190996,9030.512492
5630.081033,0.000000,995.924147,8142.265362
5630.081356,-814.226536,-306.438199,8882.471304
5630.081679,-1184.329507,-459.657299,9252.574275
5630.082002,-962.267725,612.876398,9104.533087
5630.082325,-1628.453072,766.095498,9030.512492
5630.082648,-1702.473667,842.705048,10436.903782
5630.082971,-370.102971,1225.752797,10658.965565
5630.083294,1480.411884,1838.629195,9252.574275
5630.083617,2072.576638,2451.505594,7550.100608
5630.083940,1258.350101,1838.629195,7772.162391
5630.084263,296.082377,1225.752797,9030.512492
5630.084586,666.185348,1149.143247,8734.430116
5630.084909,-148.041188,459.657299,7402.059420
5630.085232,-1776.494261,-229.828649,7476.080014
5630.085555,-2368.659014,-1149.143247,9178.553681
5630.085878,-2442.679609,-612.876398,9992.780217
5630.086201,-1776.494261,229.828649,9992.780217
5630.086524,-888.247130,1685.410096,10288.862594
5630.086847,-1110.308913,612.876398,10881.027347
5630.087170,740.205942,1455.581446,10362.883188
5630.087493,1776.494261,1455.581446,8956.491898
5630.087816,1480.411884,1225.752797,8364.327145
5630.088139,0.000000,536.266849,9400.615463
5630.088462,-148.041188,76.609550,10510.924376
5630.088785,592.164754,-306.438199,9474.636058
5630.089108,-74.020594,-919.314598,7624.121203
5630.089431,-1480.411884,-1685.410096,8808.450710
5630.089754,-2072.576638,-1378.971896,10732.986159
5630.090077,-1554.432478,-306.438199,11177.109724
5630.090400,222.061783,1225.752797,10732.986159
5630.090723,1036.288319,1225.752797,10066.800811
5630.091046,518.144159,1072.533697,10066.800811
5630.091369,2516.700203,1838.629195,9252.574275
5630.091692,1850.514855,1455.581446,8216.285956
5630.092016,1184.329507,842.705048,7994.224174
5630.092339,0.000000,0.000000,9030.512492
5630.092662,0.000000,-383.047749,8956.491898
5630.092985,-444.123565,-229.828649,7772.162391
5630.093308,-2146.597232,76.609550,7624.121203
5630.093631,-2516.700203,-766.095498,9326.594869
5630.093954,-2442.679609,-536.266849,10436.903782
5630.094277,-1554.432478,689.485948,10658.965565
5630.094600,148.041188,1532.190996,9770.718434
5630.094923,592.164754,1685.410096,9844.739029
5630.095246,814.226536,1225.752797,9474.636058
5630.095569,1258.350101,1378.971896,8956.491898
5630.095892,444.123565,383.047749,7994.224174
5630.096215,0.000000,766.095498,8660.409521
5630.096538,-1406.391290,-306.438199,9548.656652
5630.096861,-222.061783,-612.876398,8734.430116
5630.097184,-296.082377,-612.876398,8512.368333
5630.097507,-1110.308913,0.000000,8808.450710
5630.097830,-1702.473667,0.000000,11399.171507
5630.098153,-666.185348,0.000000,11769.274478
5630.098476,1480.411884,2221.676944,10658.965565
5630.098799,2590.720797,2451.505594,9104.533087
5630.099122,2294.638420,1608.800546,9326.594869
5630.099445,2294.638420,1532.190996,9030.512492
5630.099768,1702.473667,1225.752797,8290.306550
5630.100091,296.082377,766.095498,7550.100608
5630.100414,-1036.288319,306.438199,7772.162391
5630.100737,-1702.473667,-153.219100,8808.450710
5630.101060,-1110.308913,-689.485948,9030.512492
5630.101383,-1332.370696,0.000000,8068.244768
5630.101706,-2072.576638,153.219100,9770.718434
5630.102029,-2072.576638,459.657299,11473.192101
5630.102352,-592.164754,1378.971896,11325.150913
5630.102675,1184.329507,1915.238745,9474.636058
5630.102998,1036.288319,1838.629195,8290.306550
5630.103321,518.144159,1225.752797,8586.388927
5630.103644,222.061783,766.095498,9178.553681
5630.103967,0.000000,1072.533697,8586.388927
5630.104290,0.000000,383.047749,7846.182985
5630.104613,-1702.473667,-229.828649,7994.224174
5630.104936,-1480.411884,-766.095498,9252.574275
5630.105259,-518.144159,-459.657299,9474.636058
5630.105582,-1258.350101,612.876398,8882.471304
5630.105905,-1184.329507,536.266849,10955.047942
5630.106228,222.061783,1455.581446,11621.233289
5630.106551,1480.411884,1991.848295,10510.924376
5630.106874,2146.597232,2451.505594,8512.368333
5630.107197,1406.391290,2145.067394,8438.347739
5630.107520,592.164754,1685.410096,9400.615463
5630.107843,74.020594,612.876398,9252.574275
5630.108166,-814.226536,459.657299,7994.224174
5630.108489,-1998.556043,-306.438199,7994.224174
5630.108812,-2516.700203,-995.924147,9178.553681
5630.109135,-2368.659014,-766.095498,9696.697840
5630.109458,-1702.473667,229.828649,9622.677246
5630.109781,-1554.432478,689.485948,10066.800811
5630.110104,-518.144159,995.924147,11325.150913
5630.110427,592.164754,1455.581446,10362.883188
5630.110750,1924.535449,1762.019645,9104.533087
5630.111074,1406.391290,1915.238745,8290.306550
5630.111397,444.123565,842.705048,8808.450710
5630.111720,-444.123565,-383.047749,9252.574275
5630.112043,-592.164754,0.000000,8956.491898
5630.112366,-370.102971,-459.657299,8068.244768
5630.112689,-1258.350101,-383.047749,8586.388927
5630.113012,-2220.617826,-766.095498,10362.883188
5630.113335,-740.205942,0.000000,10584.944971
5630.113658,370.102971,995.924147,10288.862594
5630.113981,666.185348,1838.629195,10140.821405
5630.114305,2294.638420,1608.800546,10066.800811
5630.114628,3182.885551,2451.505594,9474.636058
5630.114951,3997.112087,2145.067394,7994.224174
5630.115274,2516.700203,1455.581446,7920.203579
5630.115597,296.082377,229.828649,8364.327145
5630.115920,-222.061783,0.000000,8956.491898
5630.116244,0.000000,-383.047749,7698.141797
5630.116567,-814.226536,-536.266849,7994.224174
5630.116890,-2294.638420,-229.828649,9474.636058
5630.117213,-2368.659014,-383.047749,11547.212695
5630.117536,-740.205942,612.876398,11177.109724
5630.117859,-148.041188,1302.362347,10658.965565
5630.118182,222.061783,1762.019645,10584.944971
5630.118506,888.247130,1302.362347,10807.006753
5630.118829,1258.350101,995.924147,9474.636058
5630.119152,666.185348,1072.533697,7846.182985
5630.119475,-444.123565,536.266849,7698.141797
5630.119798,-2368.659014,-383.047749,9178.553681
5630.120121,-2442.679609,-1225.752797,8956.491898
5630.120445,-1702.473667,-995.924147,8142.265362
5630.120768,-2146.597232,-919.314598,7920.203579
5630.121091,-2960.823768,-612.876398,10214.842000
5630.121414,-1110.308913,-459.657299,10658.965565
5630.121737,592.164754,1762.019645,10881.027347
5630.122060,1850.514855,2451.505594,9474.636058
5630.122383,2812.782580,2145.067394,9844.739029
5630.122707,2960.823768,1455.581446,9474.636058
5630.123030,3034.844362,1532.190996,8734.430116
5630.123353,2146.597232,1225.752797,7920.203579
5630.123676,74.020594,0.000000,7846.182985
5630.123999,-888.247130,-306.438199,9326.594869
5630.124322,-1332.370696,-1378.971896,9030.512492
5630.124646,-2146.597232,-383.047749,8660.409521
5630.124969,-3034.844362,-383.047749,9770.718434
5630.125292,-2960.823768,153.219100,11325.150913
5630.125615,-1184.329507,689.485948,11621.233289
5630.125938,666.185348,1302.362347,9770.718434
5630.126261,592.164754,1915.238745,8290.306550
5630.126584,740.205942,842.705048,9326.594869
5630.126908,0.000000,842.705048,8586.388927
5630.127231,-666.185348,459.657299,7772.162391
5630.127554,-1110.308913,-76.609550,7476.080014
5630.127877,-2664.741391,-995.924147,7994.224174
5630.128200,-2220.617826,-1685.410096,8734.430116
5630.128523,-1480.411884,0.000000,8734.430116
5630.128847,-1628.453072,229.828649,9326.594869
5630.129170,-1258.350101,536.266849,11103.089130
5630.129493,370.102971,1762.019645,12435.459826
5630.129816,3775.050304,2681.334243,11177.109724
5630.130139,4737.318029,3753.867940,9474.636058
5630.130462,3923.091493,3294.210641,8882.471304
5630.130785,3182.885551,1991.848295,9252.574275
5630.131109,2146.597232,1685.410096,8734.430116
5630.131432,1332.370696,1149.143247,8068.244768
5630.131755,-370.102971,0.000000,7846.182985
5630.132078,-3034.844362,-1072.533697,8512.368333
5630.132401,-3552.988522,-1149.143247,9400.615463
5630.132724,-3330.926739,-766.095498,9252.574275
5630.133048,-3849.070898,0.000000,8956.491898
5630.133371,-3182.885551,1378.971896,10436.903782
5630.133694,-814.226536,2145.067394,11325.150913
5630.134017,1332.370696,2374.896044,9548.656652
5630.134340,1110.308913,2987.772442,7550.100608
5630.134663,444.123565,1991.848295,8142.265362
5630.134987,0.000000,919.314598,9326.594869
5630.135310,-296.082377,766.095498,8512.368333
5630.135633,296.082377,612.876398,7254.018232
5630.135956,-888.247130,-459.657299,7476.080014
5630.136279,-2072.576638,-766.095498,9622.677246
5630.136602,-1924.535449,-995.924147,10362.883188
5630.136925,-1406.391290,153.219100,10732.986159
5630.137249,-888.247130,995.924147,10881.027347
5630.137572,370.102971,1378.971896,11251.130318
5630.137895,2664.741391,2681.334243,11029.068536
5630.138218,3775.050304,2451.505594,8512.368333
5630.138541,2738.761985,2145.067394,7328.038826
5630.138864,1184.329507,766.095498,8438.347739
5630.139188,0.000000,0.000000,9030.512492
5630.139511,-444.123565,-153.219100,7772.162391
5630.139834,-888.247130,-306.438199,7105.977043
5630.140157,-2516.700203,-1455.581446,8586.388927
5630.140480,-3182.885551,-1608.800546,10362.883188
5630.140803,-2664.741391,-536.266849,10807.006753
5630.141126,-1332.370696,383.047749,11029.068536
5630.141450,74.020594,1072.533697,10584.944971
5630.141773,740.205942,1149.143247,11325.150913
5630.142096,2368.659014,1608.800546,10066.800811
5630.142419,2664.741391,1608.800546,8216.285956
5630.142742,1406.391290,1072.533697,7994.224174
5630.143065,296.082377,0.000000,9030.512492
5630.143389,-296.082377,-766.095498,9326.594869
5630.143712,-370.102971,-459.657299,8586.388927
5630.144035,-1258.350101,-1072.533697,7920.203579
5630.144358,-3330.926739,-1608.800546,9474.636058
5630.144681,-2516.700203,-689.485948,10214.842000
5630.145004,-962.267725,536.266849,10584.944971
5630.145327,666.185348,842.705048,9918.759623
5630.145651,1406.391290,1838.629195,9770.718434
5630.145974,1850.514855,1532.190996,9770.718434
5630.146297,3256.906145,1762.019645,8438.347739
5630.146620,2368.659014,1302.362347,7105.977043
5630.146943,740.205942,612.876398,7994.224174
5630.147266,444.123565,76.609550,9178.553681
5630.147590,-518.144159,-229.828649,8734.430116
5630.147913,-740.205942,-306.438199,8438.347739
5630.148236,-1850.514855,-383.047749,8956.491898
5630.148559,-3034.844362,-612.876398,11103.089130
5630.148882,-1776.494261,153.219100,11843.295072
5630.149205,0.000000,1532.190996,10658.965565
5630.149528,592.164754,2451.505594,9326.594869
5630.149852,296.082377,1991.848295,9178.553681
5630.150175,666.185348,1225.752797,9400.615463
5630.150498,888.247130,1225.752797,8290.306550
5630.150821,-296.082377,1072.533697,7846.182985
5630.151144,-1258.350101,0.000000,8290.306550
5630.151467,-1554.432478,-842.705048,9474.636058
5630.151791,-1998.556043,-306.438199,8882.471304
5630.152114,-2220.617826,0.000000,8956.491898
5630.152437,-2960.823768,689.485948,10288.862594
5630.152760,-2220.617826,689.485948,11843.295072
5630.153083,0.000000,1608.800546,11621.233289
5630.153406,1776.494261,2451.505594,9474.636058
5630.153729,2220.617826,2681.334243,8438.347739
5630.154053,2294.638420,1915.238745,9030.512492
5630.154376,2072.576638,1838.629195,8734.430116
5630.154699,1184.329507,1455.581446,7624.121203
5630.155022,-296.082377,1302.362347,7105.977043
5630.155345,-1036.288319,-153.219100,8290.306550
5630.155668,-1628.453072,-689.485948,8808.450710
5630.155992,-1998.556043,153.219100,8734.430116
5630.156315,-2294.638420,306.438199,9326.594869
5630.156638,-2368.659014,842.705048,10436.903782
5630.156961,-888.247130,1532.190996,10881.027347
5630.157284,518.144159,2068.457845,10066.800811
5630.157607,1480.411884,2374.896044,8290.306550
5630.157930,1184.329507,1838.629195,7920.203579
5630.158254,518.144159,1072.533697,8808.450710
5630.158577,1110.308913,919.314598,9474.636058
5630.158900,518.144159,383.047749,7698.141797
5630.159223,-1036.288319,-459.657299,8068.244768
5630.159546,-1258.350101,-1072.533697,9252.574275
5630.159869,-1776.494261,-842.705048,10584.944971
5630.160193,-1110.308913,76.609550,10807.006753
5630.160516,-518.144159,842.705048,11473.192101
5630.160839,-222.061783,842.705048,11769.274478
5630.161162,1036.288319,1455.581446,10362.883188
5630.161485,2960.823768,1991.848295,9252.574275
5630.161808,2368.659014,1762.019645,7698.141797
5630.162131,1332.370696,689.485948,8290.306550
5630.162455,296.082377,0.000000,9178.553681
5630.162778,740.205942,0.000000,8364.327145
5630.163101,-444.123565,-229.828649,7179.997637
5630.163424,-2294.638420,-766.095498,8216.285956
5630.163747,-2294.638420,-995.924147,10288.862594
5630.164070,-2220.617826,-459.657299,10658.965565
5630.164394,-740.205942,612.876398,10214.842000
5630.164717,0.000000,1072.533697,10658.965565
5630.165040,-222.061783,766.095498,10807.006753
5630.165363,888.247130,1072.533697,9992.780217
5630.165686,1776.494261,1685.410096,7994.224174
5630.166009,888.247130,1149.143247,7105.977043
5630.166332,-444.123565,0.000000,8068.244768
5630.166656,-592.164754,-612.876398,8882.471304
5630.166979,0.000000,-689.485948,7698.141797
5630.167302,-1554.432478,-995.924147,7105.977043
5630.167625,-2294.638420,-1302.362347,9326.594869
5630.167948,-2664.741391,-1762.019645,11399.171507
5630.168271,-2072.576638,-306.438199,10955.047942
5630.168595,-296.082377,1302.362347,9992.780217
5630.168918,370.102971,1455.581446,9992.780217
5630.169241,962.267725,1072.533697,9992.780217
5630.169564,2146.597232,1149.143247,8586.388927
5630.169887,1480.411884,1302.362347,7772.162391
5630.170210,74.020594,995.924147,8216.285956
5630.170533,-444.123565,459.657299,8956.491898
5630.170857,0.000000,-995.924147,8734.430116
5630.171180,-296.082377,-612.876398,8364.327145
5630.171503,-1184.329507,-153.219100,8660.409521
5630.171826,-1702.473667,-229.828649,11103.089130
5630.172149,-962.267725,383.047749,11695.253884
5630.172472,740.205942,1915.238745,11029.068536
5630.172796,1776.494261,2068.457845,9400.615463
5630.173119,1480.411884,1378.971896,9696.697840
5630.173442,1554.432478,1532.190996,9400.615463
5630.173765,1110.308913,1608.800546,8512.368333
5630.174088,74.020594,842.705048,7994.224174
5630.174411,-1332.370696,153.219100,8660.409521
5630.174734,-1998.556043,-689.485948,8734.430116
5630.175058,-1036.288319,-536.266849,9030.512492
5630.175381,-1258.350101,459.657299,8512.368333
5630.175704,-2516.700203,0.000000,9844.739029
5630.176027,-2368.659014,229.828649,11325.150913
5630.176350,-962.267725,1225.752797,11695.253884
5630.176673,666.185348,2298.286494,9474.636058
5630.176997,1554.432478,2145.067394,8586.388927
5630.177320,814.226536,1762.019645,8586.388927
5630.177643,666.185348,1302.362347,8068.244768
5630.177966,740.205942,536.266849,7698.141797
5630.178289,-370.102971,766.095498,7328.038826
5630.178612,-2072.576638,0.000000,8512.368333
5630.178935,-2072.576638,-306.438199,9474.636058
5630.179259,-962.267725,229.828649,9326.594869
5630.179582,-1184.329507,1225.752797,8808.450710
5630.179905,-1628.453072,1225.752797,10807.006753
5630.180228,-370.102971,2068.457845,12287.418637
5630.180551,962.267725,2068.457845,10955.047942
5630.180874,1924.535449,2834.553343,8734.430116
5630.181198,1258.350101,2145.067394,8142.265362
5630.181521,74.020594,995.924147,9030.512492
5630.181844,-148.041188,842.705048,8216.285956
5630.182167,-740.205942,612.876398,7698.141797
5630.182490,-1406.391290,-153.219100,7402.059420
5630.182813,-2738.761985,-919.314598,8808.450710
5630.183136,-2368.659014,-689.485948,9548.656652
5630.183460,-1924.535449,0.000000,9622.677246
5630.183783,-1850.514855,1149.143247,10288.862594
5630.184106,-518.144159,1225.752797,11177.109724
5630.184429,888.247130,1455.581446,11103.089130
5630.184752,2294.638420,2451.505594,9696.697840
5630.185075,3034.844362,2451.505594,8512.368333
5630.185399,1702.473667,1072.533697,8438.347739
5630.185722,1036.288319,0.000000,8956.491898
5630.186045,444.123565,0.000000,8882.471304
5630.186368,148.041188,-383.047749,8364.327145
5630.186691,-370.102971,-766.095498,8660.409521
5630.187014,-1480.411884,-766.095498,9696.697840
5630.187337,-222.061783,-766.095498,10436.903782
5630.187661,148.041188,536.266849,10510.924376
5630.187984,444.123565,1149.143247,10807.006753
5630.188307,962.267725,1455.581446,11547.212695
5630.188630,2368.659014,1455.581446,9400.615463
5630.188953,3256.906145,2451.505594,8216.285956
5630.189276,2812.782580,1608.800546,7105.977043
5630.189600,740.205942,-383.047749,7994.224174
5630.189923,-740.205942,-919.314598,8364.327145
5630.190246,-740.205942,-766.095498,8068.244768
5630.190569,-1184.329507,-1149.143247,7698.141797
5630.190892,-2738.761985,-1378.971896,9474.636058
5630.191215,-2738.761985,-1378.971896,10881.027347
5630.191538,-1036.288319,459.657299,11695.253884
5630.191862,-222.061783,1838.629195,10807.006753
5630.192185,148.041188,1762.019645,10658.965565
5630.192508,1480.411884,1608.800546,10807.006753
5630.192831,2368.659014,1532.190996,9326.594869
5630.193154,1850.514855,1532.190996,7179.997637
5630.193477,1036.288319,689.485948,7328.038826
5630.193801,-1480.411884,-459.657299,8438.347739
5630.194124,-2442.679609,-689.485948,9104.533087
5630.194447,-2146.597232,-842.705048,8068.244768
5630.194770,-2960.823768,-995.924147,7772.162391
5630.195093,-3404.947333,-842.705048,9918.759623
5630.195416,-2812.782580,153.219100,11695.253884
5630.195740,-592.164754,1532.190996,11547.212695
5630.196063,518.144159,2528.115143,9400.615463
5630.196386,1702.473667,2298.286494,9844.739029
5630.196709,1924.535449,2068.457845,9548.656652
5630.197032,2072.576638,2451.505594,9104.533087
5630.197355,1998.556043,2145.067394,7550.100608
5630.197678,222.061783,842.705048,7994.224174
5630.198002,-740.205942,0.000000,9030.512492
5630.198325,-1184.329507,-383.047749,9104.533087
5630.198648,-1776.494261,-995.924147,8734.430116
5630.198971,-2442.679609,0.000000,9474.636058
5630.199294,-2516.700203,76.609550,11399.171507
5630.199617,-370.102971,766.095498,12213.398043
5630.199941,1406.391290,2451.505594,10362.883188
5630.200264,1776.494261,2604.724693,9696.697840
5630.200587,2442.679609,2145.067394,9400.615463
5630.200910,1998.556043,1685.410096,8734.430116
5630.201233,1554.432478,1685.410096,7772.162391
5630.201556,962.267725,842.705048,7772.162391
5630.201879,-962.267725,0.000000,8586.388927
5630.202203,-1406.391290,-766.095498,8882.471304
5630.202526,-1776.494261,-612.876398,8512.368333
5630.202849,-1628.453072,0.000000,9252.574275
5630.203172,-2146.597232,536.266849,10510.924376
5630.203495,-1702.473667,766.095498,11991.336260
5630.203818,1332.370696,1915.238745,11399.171507
5630.204142,2516.700203,2681.334243,9252.574275
5630.204465,2368.659014,2604.724693,8438.347739
5630.204788,2146.597232,1532.190996,9030.512492
5630.205111,962.267725,1302.362347,8438.347739
5630.205434,444.123565,689.485948,7254.018232
5630.205757,0.000000,0.000000,7031.956449
5630.206080,-1850.514855,-766.095498,8290.306550
5630.206404,-2146.597232,-1149.143247,8956.491898
5630.206727,-1924.535449,-612.876398,9400.615463
5630.207050,-2072.576638,612.876398,9474.636058
5630.207373,-1776.494261,995.924147,11103.089130
5630.207696,-296.082377,536.266849,11473.192101
5630.208019,2368.659014,2068.457845,10140.821405
5630.208343,2516.700203,2681.334243,8364.327145
5630.208666,1776.494261,1225.752797,8364.327145
5630.208989,888.247130,76.609550,9474.636058
5630.209312,-148.041188,229.828649,9252.574275
5630.209635,-444.123565,-306.438199,8216.285956
5630.209958,-1628.453072,-1532.190996,8586.388927
5630.210281,-3330.926739,-2221.676944,9770.718434
5630.210605,-3256.906145,-1149.143247,10214.842000
5630.210928,-2442.679609,-612.876398,10584.944971
5630.211251,-2442.679609,459.657299,10510.924376
5630.211574,-1184.329507,689.485948,11547.212695
5630.211897,1406.391290,995.924147,10658.965565
5630.212220,2664.741391,1455.581446,8660.409521
5630.212544,2146.597232,1608.800546,6883.915261
5630.212867,1110.308913,383.047749,8068.244768
5630.213190,444.123565,0.000000,8956.491898
5630.213513,518.144159,-229.828649,8290.306550
5630.213836,148.041188,-306.438199,7550.100608
5630.214159,-1184.329507,-995.924147,8660.409521
5630.214483,-1924.535449,-1072.533697,10214.842000
5630.214806,-1776.494261,-153.219100,10584.944971
5630.215129,-666.185348,766.095498,10658.965565
5630.215452,444.123565,1455.581446,10807.006753
5630.215775,1258.350101,1685.410096,10658.965565
5630.216098,3330.926739,1991.848295,9474.636058
5630.216422,3552.988522,2451.505594,7550.100608
5630.216745,1628.453072,536.266849,7179.997637
5630.217068,370.102971,306.438199,8142.265362
5630.217391,-518.144159,-153.219100,8290.306550
5630.217714,-888.247130,-153.219100,7994.224174
5630.218037,-1702.473667,-306.438199,7476.080014
5630.218361,-3182.885551,-1149.143247,9474.636058
5630.218684,-3034.844362,-612.876398,11103.089130
5630.219007,-1850.514855,689.485948,11473.192101
5630.219330,-666.185348,1378.971896,10288.862594
5630.219653,740.205942,2221.676944,10955.047942
5630.219976,1258.350101,1915.238745,10066.800811
5630.220300,2590.720797,2145.067394,9178.553681
5630.220623,2442.679609,2145.067394,7476.080014
5630.220946,592.164754,1378.971896,7994.224174
5630.221269,0.000000,536.266849,9400.615463
5630.221592,-222.061783,-383.047749,9474.636058
5630.221916,-444.123565,-229.828649,8364.327145
5630.222239,-1702.473667,-306.438199,8882.471304
5630.222562,-3404.947333,-689.485948,11029.068536
5630.222885,-2738.761985,0.000000,11843.295072
5630.223208,-740.205942,1302.362347,11177.109724
5630.223531,888.247130,2528.115143,9400.615463
5630.223855,888.247130,1378.971896,9400.615463
5630.224178,1776.494261,1455.581446,8438.347739
5630.224501,1850.514855,1455.581446,7772.162391
5630.224824,518.144159,1225.752797,6957.935855
5630.225147,-1110.308913,229.828649,8438.347739
5630.225470,-2294.638420,-995.924147,9400.615463
5630.225794,-2368.659014,-919.314598,8808.450710
5630.226117,-2738.761985,-536.266849,8216.285956
5630.226440,-3034.844362,-459.657299,9548.656652
5630.226763,-3256.906145,-459.657299,11621.233289
5630.227086,-962.267725,383.047749,11843.295072
5630.227409,666.185348,1991.848295,9918.759623
5630.227733,1332.370696,2145.067394,8956.491898
5630.228056,1406.391290,1762.019645,8956.491898
5630.228379,2072.576638,1302.362347,9548.656652
5630.228702,2220.617826,1455.581446,8364.327145
5630.229025,1036.288319,536.266849,7476.080014
5630.229348,-222.061783,-229.828649,8734.430116
5630.229672,-1332.370696,-995.924147,9622.677246
5630.229995,-1332.370696,-766.095498,9400.615463
5630.230318,-1924.535449,0.000000,9548.656652
5630.230641,-1702.473667,383.047749,10658.965565
5630.230964,-1110.308913,689.485948,11325.150913
5630.231287,740.205942,1762.019645,9992.780217
5630.231611,2368.659014,2068.457845,9178.553681
5630.231934,2368.659014,2528.115143,8364.327145
5630.232257,2072.576638,1915.238745,9030.512492
5630.232580,2220.617826,1378.971896,9030.512492
5630.232903,1406.391290,1532.190996,7772.162391
5630.233227,518.144159,919.314598,7476.080014
5630.233550,-740.205942,0.000000,9326.594869
5630.233873,-1554.432478,-1455.581446,9696.697840
5630.234196,-1998.556043,-383.047749,9770.718434
5630.234519,-2146.597232,306.438199,9770.718434
5630.234842,-1850.514855,766.095498,11177.109724
5630.235166,-888.247130,919.314598,10658.965565
5630.235489,1036.288319,919.314598,9178.553681
5630.235812,1036.288319,1915.238745,7402.059420
5630.236135,222.061783,689.485948,7920.203579
5630.236458,0.000000,536.266849,8882.471304
5630.236781,444.123565,306.438199,8660.409521
5630.237105,-296.082377,383.047749,7920.203579
5630.237428,-1554.432478,-612.876398,8216.285956
5630.237751,-1554.432478,-1532.190996,9696.697840
5630.238074,-2146.597232,-689.485948,10732.986159
5630.238397,-2146.597232,383.047749,10214.842000
5630.238720,-1110.308913,536.266849,10732.986159
5630.239044,-444.123565,689.485948,10732.986159
5630.239367,1480.411884,995.924147,10140.821405
5630.239690,2368.659014,1915.238745,8660.409521
5630.240013,1332.370696,1149.143247,7476.080014
5630.240336,148.041188,536.266849,8660.409521
5630.240659,74.020594,-306.438199,9326.594869
5630.240983,222.061783,-459.657299,8808.450710
5630.241306,-888.247130,-842.705048,8364.327145
5630.241629,-1998.556043,-995.924147,9918.759623
5630.241952,-2516.700203,-1149.143247,11103.089130
5630.242275,-1554.432478,-919.314598,11399.171507
5630.242598,-740.205942,1302.362347,10584.944971
5630.242922,296.082377,842.705048,10584.944971
5630.243245,518.144159,995.924147,10214.842000
5630.243568,1776.494261,1608.800546,9326.594869
5630.243891,1554.432478,1608.800546,7254.018232
5630.244214,666.185348,1149.143247,7179.997637
5630.244538,-148.041188,383.047749,8142.265362
5630.244861,-222.061783,0.000000,8586.388927
5630.245184,370.102971,612.876398,7698.141797
5630.245507,-962.267725,0.000000,7698.141797
5630.245830,-1850.514855,0.000000,9992.780217
5630.246153,-1406.391290,76.609550,11251.130318
5630.246477,-444.123565,1225.752797,10584.944971
5630.246800,1258.350101,2145.067394,9474.636058
5630.247123,1702.473667,1991.848295,9474.636058
5630.247446,2294.638420,2068.457845,8734.430116
5630.247769,1480.411884,1685.410096,7698.141797
5630.248092,592.164754,1378.971896,7624.121203
5630.248416,-518.144159,919.314598,8290.306550
5630.248739,-1110.308913,0.000000,9178.553681
5630.249062,-666.185348,0.000000,9030.512492
5630.249385,-1184.329507,0.000000,9178.553681
5630.249708,-2368.659014,306.438199,9622.677246
5630.250031,-2516.700203,306.438199,11695.253884
5630.250355,-1110.308913,1072.533697,11843.295072
5630.250678,888.247130,1991.848295,10510.924376
5630.251001,1406.391290,2145.067394,9326.594869
5630.251324,888.247130,1838.629195,9178.553681
5630.251647,1258.350101,1072.533697,8512.368333
5630.251970,1332.370696,1455.581446,7772.162391
5630.252294,0.000000,766.095498,7402.059420
5630.252617,-1184.329507,0.000000,8734.430116
5630.252940,-1258.350101,-153.219100,9252.574275
5630.253263,-962.267725,-536.266849,9326.594869
5630.253586,-1776.494261,459.657299,8808.450710
5630.253909,-2146.597232,76.609550,10807.006753
5630.254233,-1998.556043,229.828649,11399.171507
5630.254556,0.000000,1072.533697,11029.068536
5630.254879,1924.535449,1762.019645,9104.533087
5630.255202,1554.432478,1915.238745,8808.450710
5630.255525,444.123565,689.485948,8438.347739
5630.255849,0.000000,229.828649,8142.265362
5630.256172,-370.102971,0.000000,7846.182985
5630.256495,-888.247130,0.000000,7402.059420
5630.256818,-1850.514855,-919.314598,8660.409521
5630.257141,-1406.391290,-1225.752797,9918.759623
5630.257464,-1406.391290,-689.485948,9844.739029
5630.257788,-1998.556043,76.609550,9770.718434
5630.258111,-1480.411884,306.438199,11251.130318
5630.258434,518.144159,1225.752797,11769.274478
5630.258757,2146.597232,1455.581446,9770.718434
5630.259080,3034.844362,2298.286494,8586.388927
5630.259403,1850.514855,1149.143247,8512.368333
5630.259727,888.247130,306.438199,8882.471304
5630.260050,370.102971,0.000000,8808.450710
5630.260373,-222.061783,0.000000,8216.285956
5630.260696,-666.185348,-766.095498,8512.368333
5630.261019,-1554.432478,-995.924147,9400.615463
5630.261342,-1258.350101,-153.219100,10436.903782
5630.261666,-962.267725,306.438199,9696.697840
5630.261989,-1036.288319,612.876398,10362.883188
5630.262312,296.082377,1149.143247,11251.130318
5630.262635,1924.535449,1608.800546,10510.924376
5630.262958,2664.741391,2451.505594,8364.327145
5630.263281,2590.720797,1915.238745,7254.018232
5630.263605,1110.308913,536.266849,7920.203579
5630.263928,-592.164754,76.609550,8586.388927
5630.264251,-370.102971,-229.828649,8438.347739
5630.264574,-814.226536,-306.438199,7920.203579
5630.264897,-2146.597232,-766.095498,9030.512492
5630.265220,-2368.659014,-612.876398,10584.944971
5630.265544,-1628.453072,229.828649,10732.986159
5630.265867,-1258.350101,842.705048,10140.821405
5630.266190,-888.247130,1685.410096,9992.780217
5630.266513,518.144159,1378.971896,10658.965565
5630.266836,1184.329507,1685.410096,9474.636058
5630.267160,1554.432478,1685.410096,7698.141797
5630.267483,666.185348,995.924147,6883.915261
5630.267806,-1036.288319,-153.219100,7920.203579
5630.268129,-1258.350101,-1149.143247,8438.347739
5630.268452,-1036.288319,-689.485948,7772.162391
5630.268775,-2294.638420,-1149.143247,7994.224174
5630.269099,-2886.803174,-842.705048,10140.821405
5630.269422,-2072.576638,-612.876398,11769.274478
5630.269745,0.000000,306.438199,11769.274478
5630.270068,1702.473667,1455.581446,10436.903782
5630.270391,2516.700203,2451.505594,9918.759623
5630.270714,3108.864956,2221.676944,10362.883188
5630.271038,3552.988522,1762.019645,8956.491898
5630.271361,3034.844362,1378.971896,7624.121203
5630.271684,1332.370696,536.266849,7994.224174
5630.272007,-444.123565,-536.266849,9474.636058
5630.272330,-666.185348,-842.705048,9474.636058
5630.272653,-740.205942,-1225.752797,9474.636058
5630.272977,-2738.761985,76.609550,9326.594869
5630.273300,-3552.988522,-842.705048,11473.192101
5630.273623,-2220.617826,0.000000,11843.295072
5630.273946,-888.247130,1455.581446,10584.944971
5630.274269,222.061783,2068.457845,9104.533087
5630.274592,518.144159,1455.581446,8882.471304
5630.274916,740.205942,1225.752797,8586.388927
5630.275239,666.185348,1455.581446,6957.935855
5630.275562,0.000000,995.924147,6365.771101
5630.275885,-1406.391290,0.000000,7328.038826
5630.276208,-1628.453072,-459.657299,8290.306550
5630.276531,-1480.411884,-383.047749,8586.388927
5630.276855,-1702.473667,229.828649,8512.368333
5630.277178,-1924.535449,919.314598,9474.636058
5630.277501,-1702.473667,1378.971896,11103.089130
5630.277824,1554.432478,2298.286494,11917.315666
5630.278147,3627.009116,3064.381992,9992.780217
5630.278470,3182.885551,3370.820191,8956.491898
5630.278794,3552.988522,2221.676944,8808.450710
5630.279117,2220.617826,1685.410096,8512.368333
5630.279440,814.226536,1225.752797,8142.265362
5630.279763,148.041188,612.876398,7105.977043
5630.280086,-1998.556043,-766.095498,8882.471304
5630.280410,-3256.906145,-1378.971896,9252.574275
5630.280733,-2812.782580,-842.705048,9474.636058
5630.281056,-3849.070898,-459.657299,9844.739029
5630.281379,-3775.050304,306.438199,10807.006753
5630.281702,-2072.576638,919.314598,11843.295072
5630.282025,518.144159,1915.238745,10658.965565
5630.282349,1924.535449,2298.286494,9326.594869
5630.282672,1406.391290,2298.286494,7254.018232
5630.282995,888.247130,459.657299,8882.471304
5630.283318,444.123565,536.266849,8216.285956
5630.283641,222.061783,229.828649,8068.244768
5630.283964,-592.164754,-536.266849,7920.203579
5630.284288,-1924.535449,-1225.752797,9030.512492
5630.284611,-962.267725,-1455.581446,9548.656652
5630.284934,-518.144159,0.000000,9992.780217
5630.285257,-1110.308913,459.657299,10140.821405
5630.285580,0.000000,842.705048,11695.253884
5630.285903,2738.761985,1532.190996,10807.006753
5630.286227,4071.132681,2451.505594,9400.615463
5630.286550,3404.947333,2987.772442,7402.059420
5630.286873,2738.761985,1225.752797,8660.409521
5630.287196,1480.411884,306.438199,8956.491898
5630.287519,888.247130,0.000000,8364.327145
5630.287842,-148.041188,-536.266849,7772.162391
5630.288166,-2294.638420,-1225.752797,8882.471304
5630.288489,-3701.029710,-1762.019645,10214.842000
5630.288812,-3701.029710,-1532.190996,10584.944971
5630.289135,-3108.864956,-536.266849,10658.965565
5630.289458,-2442.679609,1072.533697,11177.109724
5630.289781,-1184.329507,612.876398,11399.171507
5630.290105,740.205942,1149.143247,10436.903782
5630.290428,1776.494261,1762.019645,7698.141797
5630.290751,888.247130,1225.752797,6883.915261
5630.291074,-296.082377,306.438199,7698.141797
5630.291397,0.000000,0.000000,8956.491898
5630.291721,0.000000,0.000000,7476.080014
5630.292044,-592.164754,-689.485948,7624.121203
5630.292367,-1702.473667,-689.485948,9326.594869
5630.292690,-2072.576638,-612.876398,10881.027347
5630.293013,-1110.308913,536.266849,11399.171507
5630.293336,222.061783,1915.238745,10658.965565
5630.293660,1628.453072,1991.848295,10066.800811
5630.293983,2590.720797,2145.067394,10140.821405
5630.294306,4071.132681,1915.238745,8734.430116
5630.294629,3627.009116,2451.505594,7105.977043
5630.294952,1258.350101,1608.800546,7105.977043
5630.295275,222.061783,229.828649,8216.285956
5630.295599,-370.102971,-153.219100,8882.471304
5630.295922,-888.247130,76.609550,7846.182985
5630.296245,-2294.638420,-306.438199,8808.450710
5630.296568,-3849.070898,-766.095498,9474.636058
5630.296891,-3627.009116,-536.266849,11473.192101
5630.297214,-2146.597232,919.314598,11029.068536
5630.297538,-518.144159,1608.800546,9992.780217
5630.297861,296.082377,1762.019645,9992.780217
5630.298184,962.267725,1149.143247,9178.553681
5630.298507,2294.638420,1072.533697,8068.244768
5630.298830,1406.391290,1532.190996,7031.956449
5630.299153,-444.123565,536.266849,8068.244768
5630.299477,-518.144159,-383.047749,9252.574275
5630.299800,-1110.308913,-459.657299,9252.574275
5630.300123,-1332.370696,-383.047749,8586.388927
5630.300446,-2368.659014,229.828649,10066.800811
5630.300769,-3108.864956,0.000000,11473.192101
5630.301092,-1036.288319,766.095498,12213.398043
5630.301416,666.185348,1991.848295,10066.800811
5630.301739,1332.370696,2451.505594,8882.471304
5630.302062,1628.453072,2068.457845,8808.450710
5630.302385,2442.679609,1532.190996,8512.368333
5630.302708,2220.617826,1532.190996,7254.018232
5630.303032,518.144159,995.924147,6587.832884
5630.303355,-888.247130,-229.828649,8142.265362
5630.303678,-888.247130,-459.657299,9104.533087
5630.304001,-1332.370696,-306.438199,9178.553681
5630.304324,-1998.556043,306.438199,9326.594869
5630.304647,-2812.782580,153.219100,10955.047942
5630.304971,-2146.597232,1072.533697,12139.377449
5630.305294,-296.082377,1532.190996,10955.047942
5630.305617,1258.350101,2757.943793,9400.615463
5630.305940,740.205942,2451.505594,8438.347739
5630.306263,740.205942,1532.190996,8808.450710
5630.306586,1110.308913,995.924147,8290.306550
5630.306910,888.247130,766.095498,7476.080014
5630.307233,-814.226536,0.000000,7328.038826
5630.307556,-1702.473667,-919.314598,8882.471304
5630.307879,-2146.597232,-919.314598,9326.594869
5630.308202,-1998.556043,-153.219100,9844.739029
5630.308525,-1924.535449,229.828649,10066.800811
5630.308849,-2146.597232,383.047749,11177.109724
5630.309172,-370.102971,919.314598,11029.068536
5630.309495,2072.576638,1915.238745,9400.615463
5630.309818,2812.782580,2604.724693,8142.265362
5630.310141,1850.514855,1838.629195,7179.997637
5630.310464,1332.370696,1072.533697,8586.388927
5630.310788,2072.576638,766.095498,8364.327145
5630.311111,1406.391290,536.266849,7476.080014
5630.311434,0.000000,-229.828649,8512.368333
5630.311757,-592.164754,-1225.752797,10140.821405
5630.312080,-1258.350101,-612.876398,9992.780217
5630.312403,-962.267725,306.438199,10658.965565
5630.312727,-888.247130,383.047749,10955.047942
5630.313050,-962.267725,536.266849,11325.150913
5630.313373,1110.308913,536.266849,10658.965565
5630.313696,2294.638420,919.314598,8364.327145
5630.314019,1776.494261,995.924147,7476.080014
5630.314342,222.061783,306.438199,8216.285956
5630.314665,-148.041188,-612.876398,8660.409521
5630.314989,222.061783,-766.095498,8068.244768
5630.315312,-740.205942,-995.924147,7550.100608
5630.315635,-1480.411884,-1378.971896,9326.594869
5630.315958,-2368.659014,-1685.410096,11029.068536
5630.316281,-1924.535449,-612.876398,11695.253884
5630.316604,-666.185348,536.266849,10584.944971
5630.316927,-222.061783,459.657299,11029.068536
5630.317251,1258.350101,919.314598,10732.986159
5630.317574,2146.597232,1302.362347,9548.656652
5630.317897,2368.659014,1378.971896,8364.327145
5630.318220,1628.453072,919.314598,7550.100608
5630.318543,222.061783,0.000000,8956.491898
5630.318866,0.000000,-306.438199,8734.430116
5630.319189,148.041188,0.000000,8586.388927
5630.319513,-1554.432478,-229.828649,8438.347739
5630.319836,-2442.679609,-766.095498,10658.965565
5630.320159,-2812.782580,-383.047749,11473.192101
5630.320482,-2072.576638,842.705048,11177.109724
5630.320805,-444.123565,1991.848295,9696.697840
5630.321128,0.000000,2298.286494,9548.656652
5630.321451,740.205942,1991.848295,9400.615463
5630.321774,1776.494261,2604.724693,8290.306550
5630.322098,370.102971,1685.410096,7105.977043
5630.322421,-814.226536,1455.581446,7920.203579
5630.322744,-1924.535449,842.705048,8734.430116
5630.323067,-1258.350101,306.438199,8882.471304
5630.323390,-888.247130,842.705048,8068.244768
5630.323713,-2220.617826,842.705048,8882.471304
5630.324036,-2812.782580,459.657299,10881.027347
5630.324360,-1332.370696,1225.752797,10807.006753
5630.324683,0.000000,2451.505594,9844.739029
5630.325006,1480.411884,2987.772442,8512.368333
5630.325329,1480.411884,2451.505594,8586.388927
5630.325652,1480.411884,2068.457845,8364.327145
5630.325975,2146.597232,2298.286494,7402.059420
5630.326298,814.226536,1378.971896,7254.018232
5630.326622,-888.247130,1149.143247,7846.182985
5630.326945,-1628.453072,-383.047749,9178.553681
5630.327268,-740.205942,0.000000,9474.636058
5630.327591,-1258.350101,153.219100,9252.574275
5630.327914,-2294.638420,0.000000,10732.986159
5630.328237,-1998.556043,689.485948,11917.315666
5630.328560,-296.082377,1149.143247,11843.295072
5630.328884,1998.556043,2221.676944,9474.636058
5630.329207,1924.535449,2068.457845,8734.430116
5630.329530,1406.391290,1072.533697,9326.594869
5630.329853,1110.308913,536.266849,8956.491898
5630.330176,888.247130,76.609550,7994.224174
5630.330499,222.061783,-383.047749,7402.059420
5630.330822,-888.247130,-1149.143247,9030.512492
5630.331146,-888.247130,-1838.629195,9918.759623
5630.331469,-666.185348,-1225.752797,9696.697840
5630.331792,-1332.370696,-919.314598,9992.780217
5630.332115,-1776.494261,-306.438199,11177.109724
5630.332438,-592.164754,0.000000,11991.336260
5630.332761,1554.432478,612.876398,10066.800811
5630.333084,2590.720797,1149.143247,8586.388927
5630.333407,1332.370696,229.828649,7846.182985
5630.333731,1036.288319,-229.828649,8586.388927
5630.334054,296.082377,-766.095498,8438.347739
5630.334377,-296.082377,-306.438199,7772.162391
5630.334700,-1184.329507,-1072.533697,8290.306550
5630.335023,-1924.535449,-1455.581446,9474.636058
5630.335346,-1554.432478,-1149.143247,10140.821405
5630.335669,-1554.432478,-612.876398,10362.883188
5630.335993,-2294.638420,0.000000,10510.924376
5630.336316,-666.185348,536.266849,11695.253884
5630.336639,740.205942,995.924147,10955.047942
5630.336962,1924.535449,1762.019645,9326.594869
5630.337285,1998.556043,1991.848295,7846.182985
5630.337608,296.082377,1072.533697,7624.121203
5630.337931,-296.082377,-153.219100,7772.162391
5630.338255,-518.144159,0.000000,8512.368333
5630.338578,-1184.329507,0.000000,7846.182985
5630.338901,-1998.556043,-229.828649,8808.450710
5630.339224,-2960.823768,-383.047749,10214.842000
5630.339547,-1628.453072,689.485948,10955.047942
5630.339870,-1332.370696,1225.752797,9992.780217
5630.340193,-222.061783,2068.457845,10140.821405
5630.340517,518.144159,1991.848295,10214.842000
5630.340840,2294.638420,2451.505594,9474.636058
5630.341163,3034.844362,2528.115143,7920.203579
5630.341486,1776.494261,2221.676944,6587.832884
5630.341809,74.020594,766.095498,7846.182985
5630.342132,-296.082377,689.485948,8512.368333
5630.342455,296.082377,689.485948,8438.347739
5630.342778,-666.185348,306.438199,7772.162391
5630.343102,-1850.514855,-229.828649,9548.656652
5630.343425,-1998.556043,536.266849,11399.171507
5630.343748,-888.247130,1532.190996,11843.295072
5630.344071,74.020594,2374.896044,10807.006753
5630.344394,1036.288319,2451.505594,10436.903782
5630.344717,1924.535449,1685.410096,9770.718434
5630.345040,2368.659014,2221.676944,8734.430116
5630.345364,1110.308913,1455.581446,7105.977043
5630.345687,-592.164754,383.047749,7328.038826
5630.346010,-2220.617826,-1072.533697,8216.285956
5630.346333,-2664.741391,-1225.752797,8586.388927
5630.346656,-2072.576638,-919.314598,8142.265362
5630.346979,-2516.700203,-842.705048,8734.430116
5630.347302,-3552.988522,-766.095498,10658.965565
5630.347626,-1924.535449,0.000000,11473.192101
5630.347949,0.000000,995.924147,10732.986159
5630.348272,1480.411884,2298.286494,9474.636058
5630.348595,2516.700203,2221.676944,9844.739029
5630.348918,3182.885551,1915.238745,8882.471304
5630.349241,3627.009116,2221.676944,7772.162391
5630.349564,2590.720797,612.876398,7105.977043
5630.349888,888.247130,-383.047749,8290.306550
5630.350211,-518.144159,-689.485948,9326.594869
5630.350534,-592.164754,-766.095498,10140.821405
5630.350857,-1036.288319,-536.266849,9770.718434
5630.351180,-2664.741391,-229.828649,10658.965565
5630.351503,-2738.761985,536.266849,11991.336260
5630.351826,-814.226536,766.095498,11991.336260
5630.352149,518.144159,1608.800546,10510.924376
5630.352473,370.102971,2068.457845,9474.636058
5630.352796,592.164754,1378.971896,9326.594869
5630.353119,0.000000,766.095498,8438.347739
5630.353442,0.000000,459.657299,7105.977043
5630.353765,-1332.370696,0.000000,6883.915261
5630.354088,-2738.761985,-2068.457845,7624.121203
5630.354411,-2960.823768,-1225.752797,8660.409521
5630.354735,-2368.659014,-919.314598,8956.491898
5630.355058,-2442.679609,0.000000,9400.615463
5630.355381,-2516.700203,153.219100,10436.903782
5630.355704,-962.267725,459.657299,11917.315666
5630.356027,2516.700203,2145.067394,10807.006753
5630.356350,4219.173869,3753.867940,9400.615463
5630.356673,3330.926739,2757.943793,8068.244768
5630.356997,3330.926739,1991.848295,9178.553681
5630.357320,2738.761985,1302.362347,8290.306550
5630.357643,2220.617826,1149.143247,7476.080014
5630.357966,814.226536,306.438199,8142.265362
5630.358289,-1258.350101,0.000000,9474.636058
5630.358612,-2368.659014,-1072.533697,9844.739029
5630.358935,-2072.576638,-306.438199,9844.739029
5630.359259,-3182.885551,76.609550,10066.800811
5630.359582,-3182.885551,459.657299,11695.253884
5630.359905,-592.164754,919.314598,11473.192101
5630.360228,1702.473667,1685.410096,9474.636058
5630.360551,2146.597232,2298.286494,7476.080014
5630.360874,1332.370696,1455.581446,7846.182985
5630.361197,0.000000,76.609550,8882.471304
5630.361520,0.000000,0.000000,8660.409521
5630.361844,-148.041188,-229.828649,8068.244768
5630.362167,-1258.350101,-919.314598,8882.471304
5630.362490,-1850.514855,-1532.190996,10288.862594
5630.362813,-1258.350101,-995.924147,10510.924376
5630.363136,-1110.308913,0.000000,10510.924376
5630.363459,-666.185348,1149.143247,10510.924376
5630.363782,1110.308913,1762.019645,11251.130318
5630.364106,2738.761985,1838.629195,9770.718434
5630.364429,3849.070898,2451.505594,7920.203579
5630.364752,2812.782580,2068.457845,6587.832884
5630.365075,1702.473667,766.095498,7328.038826
5630.365398,444.123565,-153.219100,8068.244768
5630.365721,0.000000,-612.876398,7698.141797
5630.366044,-1406.391290,-842.705048,7550.100608
5630.366368,-2812.782580,-1302.362347,8808.450710
5630.366691,-3330.926739,-1608.800546,10955.047942
5630.367014,-2886.803174,-766.095498,11251.130318
5630.367337,-2220.617826,229.828649,11399.171507
5630.367660,-1184.329507,1225.752797,11029.068536
5630.367983,370.102971,1072.533697,11547.212695
5630.368306,2072.576638,1378.971896,9400.615463
5630.368630,1924.535449,2068.457845,7846.182985
5630.368953,1110.308913,1302.362347,7476.080014
5630.369276,-296.082377,0.000000,8956.491898
5630.369599,-666.185348,-612.876398,8882.471304
5630.369922,-592.164754,76.609550,8068.244768
5630.370245,-1332.370696,-153.219100,8364.327145
5630.370568,-3108.864956,-1302.362347,10214.842000
5630.370891,-3330.926739,-689.485948,11325.150913
5630.371215,-1776.494261,229.828649,11103.089130
5630.371538,0.000000,1762.019645,9918.759623
5630.371861,666.185348,2298.286494,10140.821405
5630.372184,1776.494261,2604.724693,9178.553681
5630.372507,3108.864956,2451.505594,8142.265362
5630.372830,2664.741391,2528.115143,6291.750507
5630.373153,962.267725,766.095498,7624.121203
5630.373477,-222.061783,229.828649,8882.471304
5630.373800,-370.102971,0.000000,9400.615463
5630.374123,-962.267725,306.438199,8364.327145
5630.374446,-2368.659014,153.219100,9400.615463
5630.374769,-3256.906145,-229.828649,11029.068536
5630.375092,-1924.535449,383.047749,11325.150913
5630.375415,-370.102971,1455.581446,11029.068536
5630.375739,740.205942,2451.505594,9252.574275
5630.376062,592.164754,1685.410096,9474.636058
5630.376385,962.267725,1225.752797,8586.388927
5630.376708,1184.329507,1378.971896,7254.018232
5630.377031,222.061783,459.657299,6735.874072
5630.377354,-666.185348,0.000000,8290.306550
5630.377677,-1332.370696,-459.657299,9400.615463
5630.378001,-962.267725,-459.657299,9696.697840
5630.378324,-1332.370696,153.219100,9622.677246
5630.378647,-2442.679609,0.000000,10732.986159
5630.378970,-1850.514855,766.095498,11991.336260
5630.379293,740.205942,1072.533697,11399.171507
5630.379616,2220.617826,2528.115143,9474.636058
5630.379939,2664.741391,2681.334243,8734.430116
5630.380262,2590.720797,1991.848295,8956.491898
5630.380586,2812.782580,1149.143247,8068.244768
5630.380909,1776.494261,536.266849,7476.080014
5630.381232,74.020594,0.000000,7920.203579
5630.381555,-296.082377,-1991.848295,9252.574275
5630.381878,-1554.432478,-1685.410096,9844.739029
5630.382201,-2072.576638,-459.657299,9918.759623
5630.382524,-2368.659014,-766.095498,10288.862594
5630.382848,-3034.844362,-459.657299,11251.130318
5630.383171,-1554.432478,459.657299,11547.212695
5630.383494,740.205942,1302.362347,9918.759623
5630.383817,1554.432478,1838.629195,8808.450710
5630.384140,1110.308913,1378.971896,7698.141797
5630.384463,518.144159,536.266849,8364.327145
5630.384786,888.247130,153.219100,7550.100608
5630.385110,-222.061783,306.438199,7476.080014
5630.385433,-1406.391290,-842.705048,7994.224174
5630.385756,-1850.514855,-1608.800546,9992.780217
5630.386079,-1850.514855,-1532.190996,10584.944971
5630.386402,-1480.411884,-153.219100,10140.821405
5630.386725,-1406.391290,383.047749,10362.883188
5630.387048,-1036.288319,383.047749,11325.150913
5630.387372,1332.370696,1378.971896,10881.027347
5630.387695,3108.864956,2068.457845,9252.574275
5630.388018,3108.864956,2374.896044,7698.141797
5630.388341,1776.494261,1455.581446,7846.182985
5630.388664,1628.453072,0.000000,8512.368333
5630.388987,1628.453072,229.828649,8660.409521
5630.389310,0.000000,-229.828649,7328.038826
5630.389634,-1628.453072,-1072.533697,8882.471304
5630.389957,-2812.782580,-1225.752797,10584.944971
5630.390280,-2960.823768,-689.485948,11177.109724
5630.390603,-2368.659014,0.000000,9992.780217
5630.390926,-2294.638420,842.705048,10658.965565
5630.391249,-888.247130,1608.800546,11029.068536
5630.391572,666.185348,1225.752797,9548.656652
5630.391895,1110.308913,1608.800546,7328.038826
5630.392219,444.123565,1608.800546,6735.874072
5630.392542,-592.164754,229.828649,8142.265362
5630.392865,-296.082377,-306.438199,8734.430116
5630.393188,0.000000,306.438199,8290.306550
5630.393511,-1702.473667,383.047749,7994.224174
5630.393834,-1258.350101,-153.219100,10362.883188
5630.394157,-1702.473667,0.000000,11621.233289
5630.394481,-888.247130,1072.533697,10955.047942
5630.394804,666.185348,2145.067394,10510.924376
5630.395127,962.267725,2374.896044,9918.759623
5630.395450,1628.453072,2528.115143,9622.677246
5630.395773,3034.844362,2834.553343,7920.203579
5630.396096,2294.638420,1991.848295,7105.977043
5630.396419,666.185348,1455.581446,7402.059420
5630.396743,-296.082377,459.657299,8882.471304
5630.397066,-222.061783,229.828649,9178.553681
5630.397389,-1036.288319,306.438199,8734.430116
5630.397712,-2442.679609,153.219100,9696.697840
5630.398035,-3256.906145,-766.095498,11473.192101
5630.398358,-2960.823768,76.609550,11843.295072
5630.398681,-1554.432478,1072.533697,10658.965565
5630.399005,0.000000,1991.848295,9696.697840
5630.399328,0.000000,1532.190996,9252.574275
5630.399651,592.164754,1225.752797,8364.327145
5630.399974,1036.288319,1455.581446,7328.038826
5630.400297,0.000000,229.828649,6587.832884
5630.400620,-1110.308913,0.000000,7476.080014
5630.400943,-1628.453072,-383.047749,8290.306550
5630.401266,-592.164754,-689.485948,9474.636058
5630.401590,-740.205942,0.000000,8956.491898
5630.401913,-1924.535449,0.000000,10658.965565
5630.402236,-1702.473667,0.000000,12583.501014
5630.402559,518.144159,383.047749,12213.398043
5630.402882,2294.638420,1685.410096,9918.759623
5630.403205,2960.823768,2068.457845,8882.471304
5630.403528,2664.741391,1532.190996,8882.471304
5630.403852,2738.761985,1225.752797,8142.265362
5630.404175,2442.679609,689.485948,6957.935855
5630.404498,1332.370696,383.047749,7179.997637
5630.404821,-518.144159,-383.047749,8512.368333
5630.405144,-962.267725,-1225.752797,9622.677246
5630.405467,-666.185348,-612.876398,9474.636058
5630.405790,-1628.453072,-536.266849,9844.739029
5630.406114,-2220.617826,-383.047749,11695.253884
5630.406437,-1628.453072,0.000000,12361.439231
5630.406760,-296.082377,1225.752797,10955.047942
5630.407083,1110.308913,1762.019645,8512.368333
5630.407406,518.144159,919.314598,8734.430116
5630.407729,-444.123565,0.000000,8734.430116
5630.408052,0.000000,0.000000,7846.182985
5630.408376,-814.226536,-383.047749,7328.038826
5630.408699,-1628.453072,-612.876398,7772.162391
5630.409022,-2146.597232,-995.924147,9400.615463
5630.409345,-1258.350101,-1149.143247,9844.739029
5630.409668,-1480.411884,0.000000,10807.006753
5630.409991,-1480.411884,689.485948,9696.697840
5630.410314,-666.185348,612.876398,12065.356855
5630.410637,1776.494261,1532.190996,11177.109724
5630.410961,3330.926739,2451.505594,9696.697840
5630.411284,3552.988522,2604.724693,7846.182985
5630.411607,1776.494261,1532.190996,7772.162391
5630.411930,1184.329507,536.266849,7328.038826
5630.412253,888.247130,153.219100,7105.977043
5630.412576,0.000000,536.266849,7402.059420
5630.412899,-1628.453072,-229.828649,8586.388927
5630.413223,-2738.761985,-612.876398,10436.903782
5630.413546,-1776.494261,-229.828649,10955.047942
5630.413869,-1406.391290,536.266849,10288.862594
5630.414192,-1850.514855,919.314598,11029.068536
5630.414515,-444.123565,1455.581446,11621.233289
5630.414838,962.267725,1378.971896,10140.821405
5630.415161,1776.494261,2068.457845,8438.347739
5630.415485,1184.329507,1302.362347,6661.853478
5630.415808,-1258.350101,-459.657299,7402.059420
5630.416131,-1628.453072,-689.485948,8216.285956
5630.416454,-1110.308913,-612.876398,8216.285956
5630.416777,-1258.350101,-459.657299,7920.203579
5630.417100,-2516.700203,-1225.752797,9474.636058
5630.417423,-2368.659014,-919.314598,11177.109724
5630.417746,-1702.473667,-229.828649,11547.212695
5630.418070,-148.041188,1225.752797,10288.862594
5630.418393,740.205942,1991.848295,10881.027347
5630.418716,2072.576638,2068.457845,10881.027347
5630.419039,2886.803174,2451.505594,9252.574275
5630.419362,3330.926739,2528.115143,6883.915261
5630.419685,2294.638420,1225.752797,6735.874072
5630.420008,370.102971,-153.219100,7994.224174
5630.420332,-592.164754,-383.047749,8586.388927
5630.420655,-370.102971,0.000000,8660.409521
5630.420978,-1406.391290,-153.219100,8586.388927
5630.421301,-2886.803174,-536.266849,10584.944971
5630.421624,-2368.659014,0.000000,10955.047942
5630.421947,-962.267725,1072.533697,11177.109724
5630.422270,222.061783,2145.067394,10214.842000
5630.422593,740.205942,2068.457845,10436.903782
5630.422917,1258.350101,1685.410096,9844.739029
5630.423240,888.247130,1225.752797,7994.224174
5630.423563,74.020594,1072.533697,6439.791695
5630.423886,-1554.432478,0.000000,8142.265362
5630.424209,-2294.638420,-919.314598,8808.450710
5630.424532,-2220.617826,-1149.143247,8956.491898
5630.424855,-2590.720797,-919.314598,8882.471304
5630.425179,-3330.926739,-459.657299,10214.842000
5630.425502,-3256.906145,0.000000,11769.274478
5630.425825,-1258.350101,1225.752797,11695.253884
5630.426148,222.061783,1915.238745,10436.903782
5630.426471,1406.391290,2374.896044,9178.553681
5630.426794,2220.617826,2374.896044,9104.533087
5630.427117,2738.761985,2068.457845,7920.203579
5630.427440,2960.823768,1915.238745,7031.956449
5630.427764,1702.473667,1072.533697,6513.812290
5630.428087,-148.041188,229.828649,7698.141797
5630.428410,-518.144159,-153.219100,9030.512492
5630.428733,-592.164754,0.000000,9252.574275
5630.429056,-1184.329507,459.657299,9622.677246
5630.429379,-2220.617826,306.438199,10955.047942
5630.429702,-1924.535449,536.266849,12139.377449
5630.430026,814.226536,2221.676944,11769.274478
5630.430349,2294.638420,3140.991542,9474.636058
5630.430672,1406.391290,1915.238745,8808.450710
5630.430995,1332.370696,459.657299,8660.409521
5630.431318,888.247130,919.314598,7698.141797
5630.431641,222.061783,76.609550,6883.915261
5630.431964,-1258.350101,-612.876398,7254.018232
5630.432287,-2886.803174,-1685.410096,8956.491898
5630.432611,-2886.803174,-995.924147,9844.739029
5630.432934,-2294.638420,-766.095498,9770.718434
5630.433257,-2516.700203,0.000000,10140.821405
5630.433580,-1998.556043,0.000000,11399.171507
5630.433903,0.000000,995.924147,12139.377449
5630.434226,2812.782580,2298.286494,10436.903782
5630.434549,3478.967927,2374.896044,8142.265362
5630.434873,3256.906145,1991.848295,7994.224174
5630.435196,2368.659014,536.266849,8216.285956
5630.435519,1776.494261,383.047749,7624.121203
5630.435842,1332.370696,306.438199,7328.038826
5630.436165,-296.082377,-1072.533697,8290.306550
5630.436488,-2146.597232,-1532.190996,10214.842000
5630.436811,-2146.597232,-1302.362347,10955.047942
5630.437134,-2368.659014,-536.266849,10658.965565
5630.437458,-2146.597232,-229.828649,10955.047942
5630.437781,-1850.514855,689.485948,11991.336260
5630.438104,370.102971,842.705048,11103.089130
5630.438427,1776.494261,1532.190996,8364.327145
5630.438750,592.164754,1455.581446,6587.832884
5630.439073,-444.123565,229.828649,7476.080014
5630.439396,-1036.288319,-459.657299,7994.224174
5630.439720,-962.267725,0.000000,7402.059420
5630.440043,-1184.329507,-383.047749,6735.874072
5630.440366,-2368.659014,-919.314598,8808.450710
5630.440689,-2368.659014,-1225.752797,11029.068536
5630.441012,-1924.535449,-229.828649,11251.130318
5630.441335,-962.267725,842.705048,11251.130318
5630.441658,0.000000,1532.190996,11547.212695
5630.441982,2072.576638,2145.067394,11251.130318
5630.442305,4441.235652,3064.381992,10584.944971
5630.442628,4737.318029,3370.820191,7772.162391
5630.442951,3256.906145,2681.334243,7105.977043
5630.443274,1776.494261,919.314598,7772.162391
5630.443597,1110.308913,612.876398,8438.347739
5630.443920,74.020594,459.657299,8290.306550
5630.444243,-1184.329507,0.000000,8660.409521
5630.444567,-3034.844362,-306.438199,10288.862594
5630.444890,-3404.947333,-612.876398,11103.089130
5630.445213,-3108.864956,536.266849,10807.006753
5630.445536,-2146.597232,1991.848295,10362.883188
5630.445859,-1554.432478,1915.238745,9992.780217
5630.446182,0.000000,1532.190996,9474.636058
5630.446505,1554.432478,2374.896044,8142.265362
5630.446829,740.205942,1915.238745,6365.771101
5630.447152,-814.226536,383.047749,6217.729913
5630.447475,-1406.391290,-459.657299,8364.327145
5630.447798,-1480.411884,-612.876398,9030.512492
5630.448121,-1332.370696,-229.828649,8882.471304
5630.448444,-1924.535449,0.000000,9918.759623
5630.448767,-3108.864956,-689.485948,11621.233289
5630.449090,-1850.514855,76.609550,11917.315666
5630.449414,592.164754,2068.457845,10732.986159
5630.449737,1110.308913,2757.943793,9400.615463
5630.450060,2368.659014,2145.067394,9622.677246
5630.450383,3182.885551,1838.629195,8882.471304
5630.450706,3923.091493,1838.629195,7105.977043
5630.451029,2442.679609,1455.581446,6069.688724
5630.451352,1110.308913,76.609550,7772.162391
5630.451676,0.000000,-612.876398,9326.594869
5630.451999,-962.267725,-383.047749,9104.533087
5630.452322,-814.226536,-459.657299,9474.636058
5630.452645,-2738.761985,-459.657299,10584.944971
5630.452968,-3404.947333,-229.828649,12583.501014
5630.453291,-1776.494261,229.828649,12139.377449
5630.453614,148.041188,1685.410096,9992.780217
5630.453937,962.267725,2068.457845,8660.409521
5630.454261,1184.329507,1225.752797,8882.471304
5630.454584,1184.329507,689.485948,8068.244768
5630.454907,1110.308913,689.485948,6439.791695
5630.455230,-518.144159,0.000000,6735.874072
5630.455553,-1258.350101,-1149.143247,8216.285956
5630.455876,-1776.494261,-1608.800546,9622.677246
5630.456199,-1776.494261,-1225.752797,9474.636058
5630.456523,-1776.494261,-995.924147,9844.739029
5630.456846,-2664.741391,-919.314598,11177.109724
5630.457169,-814.226536,153.219100,11843.295072
5630.457492,1776.494261,1378.971896,11029.068536
5630.457815,1702.473667,1762.019645,9474.636058
5630.458138,3182.885551,1915.238745,7698.141797
5630.458461,2368.659014,1149.143247,8660.409521
5630.458784,3330.926739,919.314598,6735.874072
5630.459108,2368.659014,995.924147,7772.162391
5630.459431,148.041188,0.000000,8142.265362
5630.459754,-740.205942,-689.485948,10436.903782
5630.460077,-740.205942,-766.095498,9992.780217
5630.460400,-1036.288319,-383.047749,10658.965565
5630.460723,-2146.597232,153.219100,10436.903782
5630.461046,-2442.679609,0.000000,11695.253884
5630.461370,-444.123565,842.705048,10881.027347
5630.461693,888.247130,1532.190996,9252.574275
5630.462016,1184.329507,1915.238745,7254.018232
5630.462339,-148.041188,689.485948,7624.121203
5630.462662,-296.082377,766.095498,7624.121203
5630.462985,74.020594,0.000000,7698.141797
5630.463308,-740.205942,-766.095498,7031.956449
5630.463631,-2146.597232,-536.266849,9030.512492
5630.463955,-2960.823768,-842.705048,10881.027347
5630.464278,-2812.782580,-612.876398,11621.233289
5630.464601,-1628.453072,153.219100,10362.883188
5630.464924,-1628.453072,1072.533697,11177.109724
5630.465247,-296.082377,1302.362347,11325.150913
5630.465570,1628.453072,1762.019645,9474.636058
5630.465893,2664.741391,3294.210641,7476.080014
5630.466217,2442.679609,2451.505594,6587.832884
5630.466540,1036.288319,1072.533697,7031.956449
5630.466863,444.123565,306.438199,8142.265362
5630.467186,814.226536,612.876398,7772.162391
5630.467509,-370.102971,612.876398,7994.224174
5630.467832,-1776.494261,0.000000,9918.759623
5630.468155,-2368.659014,0.000000,11547.212695
5630.468479,-2146.597232,919.314598,11399.171507
5630.468802,-1036.288319,1608.800546,10658.965565
5630.469125,-666.185348,1685.410096,10658.965565
5630.469448,370.102971,2145.067394,10140.821405
5630.469771,1776.494261,1915.238745,8438.347739
5630.470094,1036.288319,2068.457845,6291.750507
5630.470417,-518.144159,919.314598,6735.874072
5630.470740,-1332.370696,-383.047749,8068.244768
5630.471064,-1110.308913,-919.314598,8882.471304
5630.471387,-1554.432478,-383.047749,8512.368333
5630.471710,-2664.741391,-612.876398,9548.656652
5630.472033,-2516.700203,-1149.143247,10807.006753
5630.472356,-2220.617826,-1149.143247,11917.315666
5630.472679,-1184.329507,1455.581446,11251.130318
5630.473002,592.164754,1608.800546,10658.965565
5630.473326,1036.288319,1225.752797,9992.780217
5630.473649,2294.638420,1608.800546,8512.368333
5630.473972,3627.009116,1762.019645,7031.956449
5630.474295,2664.741391,1378.971896,6513.812290
5630.474618,962.267725,842.705048,7624.121203
5630.474941,814.226536,-153.219100,9622.677246
5630.475264,1258.350101,-689.485948,9696.697840
5630.475587,0.000000,229.828649,9104.533087
5630.475911,-1702.473667,-306.438199,10658.965565
5630.476234,-1924.535449,-383.047749,12435.459826
5630.476557,-962.267725,689.485948,12509.480420
5630.476880,666.185348,1838.629195,10362.883188
5630.477203,1406.391290,1838.629195,9548.656652
5630.477526,592.164754,1532.190996,8660.409521
5630.477849,666.185348,842.705048,7698.141797
5630.478173,740.205942,459.657299,6513.812290
5630.478496,-222.061783,153.219100,6513.812290
5630.478819,-1924.535449,-689.485948,8216.285956
5630.479142,-2072.576638,-842.705048,9474.636058
5630.479465,-1924.535449,-766.095498,9548.656652
5630.479788,-1998.556043,-1072.533697,9104.533087
5630.480111,-2886.803174,-612.876398,10732.986159
5630.480434,-2146.597232,-153.219100,12509.480420
5630.480758,0.000000,1149.143247,11547.212695
5630.481081,1998.556043,1991.848295,9326.594869
5630.481404,2442.679609,1915.238745,8364.327145
5630.481727,2072.576638,919.314598,7994.224174
5630.482050,1924.535449,459.657299,7402.059420
5630.482373,1776.494261,612.876398,6883.915261
5630.482696,296.082377,612.876398,7846.182985
5630.483020,-814.226536,0.000000,9770.718434
5630.483343,-740.205942,-459.657299,10584.944971
5630.483666,-888.247130,-306.438199,10140.821405
5630.483989,-1850.514855,689.485948,10066.800811
5630.484312,-2072.576638,689.485948,12139.377449
5630.484635,-592.164754,1302.362347,11843.295072
5630.484958,592.164754,1762.019645,9770.718434
5630.485281,1406.391290,1991.848295,7920.203579
5630.485605,296.082377,1072.533697,7476.080014
5630.485928,-518.144159,153.219100,7624.121203
5630.486251,-296.082377,0.000000,7179.997637
5630.486574,-740.205942,153.219100,7402.059420
5630.486897,-1702.473667,-536.266849,8364.327145
5630.487220,-2738.761985,-995.924147,10732.986159
5630.487543,-1480.411884,-153.219100,11251.130318
5630.487867,-1258.350101,459.657299,10955.047942
5630.488190,-1998.556043,1225.752797,11103.089130
5630.488513,222.061783,1302.362347,12139.377449
5630.488836,1554.432478,1608.800546,10066.800811
5630.489159,2442.679609,2757.943793,8216.285956
5630.489482,2738.761985,1915.238745,6661.853478
5630.489805,592.164754,383.047749,6735.874072
5630.490128,-222.061783,153.219100,7254.018232
5630.490452,0.000000,0.000000,7476.080014
5630.490775,-444.123565,0.000000,7772.162391
5630.491098,-1850.514855,153.219100,9474.636058
5630.491421,-1702.473667,0.000000,11177.109724
5630.491744,-444.123565,229.828649,11843.295072
5630.492067,-370.102971,1991.848295,10658.965565
5630.492390,-370.102971,2068.457845,11325.150913
5630.492714,1702.473667,1838.629195,11399.171507
5630.493037,2146.597232,2145.067394,9474.636058
5630.493360,2812.782580,3140.991542,6809.894666
5630.493683,1998.556043,766.095498,6587.832884
5630.494006,-1036.288319,-306.438199,7476.080014
5630.494329,-1110.308913,-459.657299,8586.388927
5630.494652,-1184.329507,-1072.533697,8216.285956
5630.494975,-2516.700203,-919.314598,8882.471304
5630.495299,-3552.988522,-842.705048,10807.006753
5630.495622,-2960.823768,-1072.533697,11843.295072
5630.495945,-1554.432478,0.000000,11621.233289
5630.496268,-962.267725,1455.581446,9844.739029
5630.496591,370.102971,1149.143247,10732.986159
