#time,accel_x,accel_y,accel_z
913.167381,0.000000,536.266849,8882.471304
913.167706,740.205942,1455.581446,8882.471304
913.168032,814.226536,919.314598,9400.615463
913.168357,-370.102971,536.266849,9030.512492
913.168682,-740.205942,306.438199,8956.491898
913.169007,0.000000,536.266849,9400.615463
913.169332,0.000000,536.266849,9622.677246
913.169657,-592.164754,-306.438199,9252.574275
913.169982,-1406.391290,153.219100,8734.430116
913.170307,-370.102971,153.219100,9178.553681
913.170632,0.000000,612.876398,9770.718434
913.170957,0.000000,536.266849,9474.636058
913.171282,-222.061783,842.705048,9178.553681
913.171607,592.164754,1072.533697,9178.553681
913.171932,1702.473667,1532.190996,10066.800811
913.172257,518.144159,1991.848295,9622.677246
913.172583,-74.020594,842.705048,9326.594869
913.172908,0.000000,919.314598,9474.636058
913.173233,666.185348,1149.143247,9770.718434
913.173558,-296.082377,612.876398,9770.718434
913.173883,-888.247130,383.047749,9400.615463
913.174208,-666.185348,1378.971896,8956.491898
913.174533,-592.164754,842.705048,9252.574275
913.174858,-666.185348,1225.752797,9770.718434
913.175183,-1110.308913,459.657299,9104.533087
913.175508,-666.185348,1455.581446,9104.533087
913.175833,0.000000,1915.238745,9548.656652
913.176158,-370.102971,1532.190996,9622.677246
913.176483,-1554.432478,1838.629195,9104.533087
913.176808,-1850.514855,1225.752797,8956.491898
913.177134,-1036.288319,1072.533697,9252.574275
913.177459,-1850.514855,1762.019645,9622.677246
913.177784,-3034.844362,1302.362347,9548.656652
913.178109,-2886.803174,1762.019645,9326.594869
913.178434,-2516.700203,2221.676944,9622.677246
913.178759,-2220.617826,2604.724693,9992.780217
913.179084,-2516.700203,2604.724693,9474.636058
913.179409,-2516.700203,3524.039291,9030.512492
913.179734,-2368.659014,3677.258390,9252.574275
913.180059,-1332.370696,3677.258390,9844.739029
913.180384,-2886.803174,3370.820191,9252.574275
913.180709,-3108.864956,3370.820191,8956.491898
913.181034,-2294.638420,2834.553343,8734.430116
913.181359,-2072.576638,2911.162892,9030.512492
913.181684,-3478.967927,3217.601092,8808.450710
913.182010,-2590.720797,2834.553343,8290.306550
913.182335,-2516.700203,3217.601092,8290.306550
913.182660,-2072.576638,3217.601092,8660.409521
913.182985,-2146.597232,3217.601092,8882.471304
913.183310,-2220.617826,3524.039291,8364.327145
913.183635,-1776.494261,3294.210641,7624.121203
913.183960,-222.061783,2604.724693,8956.491898
913.184285,-666.185348,3524.039291,9030.512492
913.184610,-1406.391290,2451.505594,8808.450710
913.184935,-1110.308913,2451.505594,9474.636058
913.185260,-666.185348,2451.505594,9992.780217
913.185585,-1702.473667,2298.286494,10807.006753
913.185910,-1998.556043,1991.848295,10510.924376
913.186235,-2664.741391,2681.334243,10140.821405
913.186561,-2960.823768,2298.286494,11325.150913
913.186886,-3330.926739,2911.162892,11473.192101
913.187211,-3849.070898,3064.381992,10881.027347
913.187536,-3923.091493,3524.039291,10214.842000
913.187861,-2812.782580,4519.963438,10362.883188
913.188186,-2812.782580,5439.278036,9770.718434
913.188511,-5033.400406,4826.401637,9178.553681
913.188836,-4145.153275,4060.306139,7846.182985
913.189161,-3627.009116,4519.963438,7698.141797
913.189486,-3627.009116,4290.134789,7550.100608
913.189811,-3849.070898,4136.915689,6957.935855
913.190136,-2886.803174,3217.601092,5551.544565
913.190461,-2368.659014,3907.087040,5551.544565
913.190786,-1332.370696,2681.334243,6365.771101
913.191112,-740.205942,2451.505594,7031.956449
913.191437,-1406.391290,1685.410096,7550.100608
913.191762,-1110.308913,1762.019645,8660.409521
913.192087,-740.205942,1378.971896,10140.821405
913.192412,-1258.350101,1378.971896,10732.986159
913.192737,-1184.329507,1378.971896,10807.006753
913.193062,-296.082377,2068.457845,10807.006753
913.193387,740.205942,2451.505594,11399.171507
913.193712,888.247130,2451.505594,11177.109724
913.194037,1110.308913,2221.676944,10140.821405
913.194362,1924.535449,1608.800546,9992.780217
913.194687,2442.679609,1072.533697,9992.780217
913.195012,2294.638420,612.876398,9918.759623
913.195337,148.041188,-1072.533697,10362.883188
913.195663,-888.247130,-1838.629195,10436.903782
913.195988,-1850.514855,-2451.505594,11991.336260
913.196313,-3108.864956,-2068.457845,13693.809927
913.196638,-5329.482782,-1915.238745,13545.768739
913.196963,-6365.771101,-1149.143247,13175.665768
913.197288,-5995.668130,1532.190996,13101.645173
913.197613,-5403.503377,2911.162892,12139.377449
913.197938,-5255.462188,6281.983084,9474.636058
913.198263,-3330.926739,7048.078582,6217.729913
913.198588,-2220.617826,8120.612279,3923.091493
913.198913,-962.267725,9269.755526,3182.885551
913.199238,-1480.411884,8427.050478,2664.741391
913.199563,-2590.720797,5439.278036,3330.926739
913.199888,-3627.009116,3370.820191,3182.885551
913.200213,-3775.050304,2374.896044,5181.441594
913.200539,-4737.318029,689.485948,6883.915261
913.200864,-5625.565159,-1302.362347,7624.121203
913.201189,-5107.421000,-1991.848295,9622.677246
913.201514,-3552.988522,-1455.581446,10955.047942
913.201839,-1332.370696,919.314598,11547.212695
913.202164,-296.082377,1915.238745,11843.295072
913.202489,-592.164754,3600.648841,12361.439231
913.202814,-148.041188,4979.620737,13989.892304
913.203139,-962.267725,6511.811733,14582.057057
913.203464,-2294.638420,7124.688131,13915.871710
913.203789,-2368.659014,7814.174080,12731.542202
913.204114,-1258.350101,8273.831378,12065.356855
913.204439,-1258.350101,7354.516781,10584.944971
913.204764,-3701.029710,5592.497135,9474.636058
913.205090,-3775.050304,4213.525239,8364.327145
913.205415,-2960.823768,3294.210641,6217.729913
913.205740,-2294.638420,1762.019645,5107.421000
913.206065,-3182.885551,306.438199,4811.338623
913.206390,-2738.761985,229.828649,3997.112087
913.206715,-444.123565,383.047749,4737.318029
913.207040,0.000000,-459.657299,5625.565159
913.207365,-1036.288319,383.047749,6957.935855
913.207690,-296.082377,2528.115143,8290.306550
913.208015,592.164754,4903.011187,11473.192101
913.208340,-1110.308913,4443.353888,13915.871710
913.208665,-3330.926739,5362.668486,13175.665768
913.208990,-1406.391290,7354.516781,11769.274478
913.209315,370.102971,8733.488677,11917.315666
913.209641,-148.041188,8656.879127,10214.842000
913.209966,-1184.329507,7048.078582,8438.347739
913.210291,222.061783,5439.278036,6365.771101
913.210616,222.061783,3294.210641,6291.750507
913.210941,-592.164754,0.000000,5033.400406
913.211266,-962.267725,-2451.505594,4737.318029
913.211591,-2664.741391,-4979.620737,7846.182985
913.211916,-5847.626942,-7507.735880,10436.903782
913.212241,-6143.709319,-8733.488677,13545.768739
913.212566,-7476.080014,-8044.002729,16728.654289
913.212891,-9474.636058,-5745.716235,18283.086767
913.213216,-7254.018232,-2681.334243,17987.004391
913.213541,-3182.885551,1915.238745,16580.613101
913.213866,-1776.494261,6435.202183,14137.933492
913.214192,0.000000,9882.631924,10140.821405
913.214517,4071.132681,13483.280765,4811.338623
913.214842,6809.894666,13100.233016,888.247130
913.215167,7328.038826,11108.384721,-814.226536
913.215492,3330.926739,9193.145976,-444.123565
913.215817,-1628.453072,5132.839837,1332.370696
913.216142,-4515.256246,-919.314598,3775.050304
913.216467,-8364.327145,-5822.325785,7920.203579
913.216792,-12213.398043,-6894.859482,10881.027347
913.217117,-12287.418637,-7048.078582,11177.109724
913.217442,-11177.109724,-8273.831378,13397.727550
913.217767,-10807.006753,-5209.449386,16284.530724
913.218092,-5255.462188,919.314598,14952.160028
913.218417,1406.391290,6205.373534,12879.583391
913.218742,5181.441594,8120.612279,9696.697840
913.219068,7624.121203,11261.603821,5329.482782
913.219393,7772.162391,13483.280765,6957.935855
913.219718,5847.626942,12180.918418,7550.100608
913.220043,3627.009116,9652.803275,9326.594869
913.220368,0.000000,5362.668486,11177.109724
913.220693,-4441.235652,2374.896044,10436.903782
913.221018,-7031.956449,-1149.143247,10881.027347
913.221343,-5551.544565,-1762.019645,11029.068536
913.221668,-6069.688724,-2145.067394,11547.212695
913.221993,-5181.441594,-3064.381992,9770.718434
913.222318,-1628.453072,0.000000,6883.915261
913.222643,518.144159,2221.676944,6365.771101
913.222968,-888.247130,2604.724693,6217.729913
913.223293,0.000000,3600.648841,7179.997637
913.223617,592.164754,6894.859482,9770.718434
913.223942,1776.494261,7048.078582,10288.862594
913.224267,1406.391290,6818.249932,10288.862594
913.224592,666.185348,7967.393179,10066.800811
913.224917,1332.370696,8580.269578,10362.883188
913.225242,2960.823768,6818.249932,8660.409521
913.225567,444.123565,4673.182538,9992.780217
913.225892,-2812.782580,2528.115143,9548.656652
913.226216,-4145.153275,2757.943793,8586.388927
913.226541,-4589.276840,-1685.410096,9030.512492
913.226866,-5921.647536,-3447.429741,7031.956449
913.227191,-8068.244768,-2834.553343,6069.688724
913.227516,-6661.853478,-153.219100,6735.874072
913.227841,-4293.194464,-689.485948,7772.162391
913.228166,-2368.659014,-2298.286494,8068.244768
913.228491,-888.247130,-229.828649,8956.491898
913.228816,-2960.823768,1915.238745,11843.295072
913.229140,-3404.947333,2068.457845,11621.233289
913.229465,-1184.329507,689.485948,14063.912898
913.229790,-1998.556043,766.095498,13693.809927
913.230115,-3552.988522,2834.553343,13027.624579
913.230440,-1184.329507,4060.306139,10732.986159
913.230765,2146.597232,2528.115143,8882.471304
913.231090,3256.906145,1608.800546,10436.903782
913.231415,444.123565,2528.115143,9844.739029
913.231740,-1924.535449,919.314598,8068.244768
913.232064,-814.226536,-995.924147,6365.771101
913.232389,0.000000,-1302.362347,6365.771101
913.232714,-3330.926739,-383.047749,7254.018232
913.233039,-5181.441594,-536.266849,6365.771101
913.233364,-3478.967927,-2145.067394,7031.956449
913.233689,-666.185348,-2911.162892,7105.977043
913.234014,-1554.432478,-153.219100,8808.450710
913.234339,-4737.318029,383.047749,10510.924376
913.234663,-3330.926739,-689.485948,9474.636058
913.234988,-962.267725,-153.219100,11251.130318
913.235313,1036.288319,1532.190996,11695.253884
913.235638,1110.308913,4903.011187,10584.944971
913.235963,4737.318029,4749.792088,8808.450710
913.236288,9104.533087,4596.572988,9030.512492
913.236613,9622.677246,2528.115143,10140.821405
913.236938,5551.544565,2757.943793,8734.430116
913.237263,3552.988522,3217.601092,8882.471304
913.237587,3849.070898,536.266849,10066.800811
913.237912,666.185348,-1838.629195,10955.047942
913.238237,-2516.700203,-3600.648841,11695.253884
913.238562,-3701.029710,-1685.410096,9474.636058
913.238887,-3034.844362,-1455.581446,10066.800811
913.239212,-814.226536,-1302.362347,10658.965565
913.239537,-444.123565,-612.876398,10732.986159
913.239862,-3108.864956,2604.724693,9178.553681
913.240187,-1554.432478,3907.087040,7920.203579
913.240511,814.226536,4366.744339,7698.141797
913.240836,1406.391290,5132.839837,7476.080014
913.241161,814.226536,5132.839837,6661.853478
913.241486,2960.823768,5132.839837,4885.359217
913.241811,4737.318029,4060.306139,6883.915261
913.242136,1776.494261,2068.457845,8956.491898
913.242461,-2738.761985,-919.314598,8882.471304
913.242786,-3330.926739,-1762.019645,8956.491898
913.243110,-2220.617826,-3217.601092,10140.821405
913.243435,-4293.194464,-3294.210641,11991.336260
913.243760,-4515.256246,-2834.553343,11621.233289
913.244085,-1480.411884,-459.657299,8586.388927
913.244410,2220.617826,1225.752797,9622.677246
913.244735,2664.741391,1149.143247,10214.842000
913.245060,296.082377,2834.553343,9474.636058
913.245385,0.000000,3983.696590,9992.780217
913.245710,1036.288319,3447.429741,10288.862594
913.246034,-1480.411884,1072.533697,10436.903782
913.246359,-3108.864956,-612.876398,9696.697840
913.246684,-962.267725,153.219100,9252.574275
913.247009,-592.164754,0.000000,9770.718434
913.247334,-1554.432478,-2451.505594,10066.800811
913.247659,-3923.091493,-3830.477490,10881.027347
913.247984,-4293.194464,-2757.943793,9178.553681
913.248309,-1554.432478,-919.314598,9104.533087
913.248633,-888.247130,-1685.410096,9252.574275
913.248958,-3256.906145,-1302.362347,8364.327145
913.249283,-592.164754,1378.971896,7179.997637
913.249608,2590.720797,3294.210641,7179.997637
913.249933,1406.391290,1762.019645,6587.832884
913.250258,-1184.329507,689.485948,6365.771101
913.250583,-1628.453072,1915.238745,7698.141797
913.250908,-370.102971,3140.991542,9770.718434
913.251233,1184.329507,689.485948,11251.130318
913.251557,-666.185348,-1225.752797,11325.150913
913.251882,222.061783,612.876398,10584.944971
913.252207,4145.153275,2068.457845,8216.285956
913.252532,7105.977043,-612.876398,8956.491898
913.252857,5181.441594,-1149.143247,9992.780217
913.253182,2886.803174,1378.971896,9844.739029
913.253507,4737.318029,3294.210641,10436.903782
913.253832,5773.606348,459.657299,10436.903782
913.254157,2442.679609,-1225.752797,10066.800811
913.254481,0.000000,1225.752797,9770.718434
913.254806,2072.576638,3370.820191,8956.491898
913.255131,2738.761985,919.314598,9326.594869
913.255456,148.041188,-842.705048,10658.965565
913.255781,-2146.597232,1378.971896,10140.821405
913.256106,-3849.070898,2451.505594,8290.306550
913.256431,-2368.659014,76.609550,7624.121203
913.256756,-3404.947333,-1762.019645,9622.677246
913.257080,-4885.359217,459.657299,9622.677246
913.257405,-1258.350101,1915.238745,6735.874072
913.257730,1850.514855,-689.485948,6513.812290
913.258055,1554.432478,-1608.800546,7846.182985
913.258380,1628.453072,842.705048,8438.347739
913.258705,1332.370696,3064.381992,9548.656652
913.259030,1628.453072,0.000000,10732.986159
913.259355,370.102971,-1149.143247,10955.047942
913.259680,-370.102971,842.705048,11029.068536
913.260004,518.144159,2681.334243,10288.862594
913.260329,2294.638420,1685.410096,8512.368333
913.260654,1332.370696,1072.533697,10807.006753
913.260979,-148.041188,995.924147,10140.821405
913.261304,-3108.864956,2374.896044,9030.512492
913.261629,-2146.597232,995.924147,9178.553681
913.261954,-2146.597232,0.000000,10066.800811
913.262279,-4441.235652,-995.924147,10140.821405
913.262604,-3108.864956,459.657299,7920.203579
913.262928,222.061783,536.266849,6883.915261
913.263253,-444.123565,612.876398,6069.688724
913.263578,-1924.535449,-229.828649,7994.224174
913.263903,-3108.864956,229.828649,7624.121203
913.264228,-2960.823768,612.876398,9252.574275
913.264553,-1332.370696,-612.876398,10955.047942
913.264878,-2146.597232,-689.485948,11177.109724
913.265203,-2812.782580,-459.657299,9918.759623
913.265527,1258.350101,1072.533697,8586.388927
913.265852,3182.885551,1225.752797,9622.677246
913.266177,2294.638420,766.095498,9696.697840
913.266502,1036.288319,2221.676944,8142.265362
913.266827,1258.350101,2681.334243,8808.450710
913.267152,2812.782580,1685.410096,8142.265362
913.267477,1554.432478,306.438199,9104.533087
913.267802,148.041188,383.047749,9178.553681
913.268127,3034.844362,1685.410096,7550.100608
913.268451,4737.318029,-919.314598,7476.080014
913.268776,2738.761985,-2068.457845,10362.883188
913.269101,518.144159,0.000000,10881.027347
913.269426,444.123565,612.876398,10881.027347
913.269751,2516.700203,-1532.190996,12065.356855
913.270076,888.247130,-2221.676944,10584.944971
913.270401,-296.082377,1608.800546,10881.027347
913.270726,1924.535449,3140.991542,8956.491898
913.271051,3923.091493,689.485948,7402.059420
913.271375,1776.494261,-306.438199,8068.244768
913.271700,-148.041188,3140.991542,9400.615463
913.272025,-740.205942,2987.772442,9178.553681
913.272350,-1998.556043,-1225.752797,9104.533087
913.272675,-2664.741391,-2145.067394,10436.903782
913.273000,-3478.967927,0.000000,10732.986159
913.273325,-2368.659014,76.609550,7994.224174
913.273650,0.000000,-1378.971896,7550.100608
913.273974,518.144159,-1685.410096,8808.450710
913.274299,-1258.350101,306.438199,9252.574275
913.274624,-1702.473667,842.705048,8586.388927
913.274949,370.102971,919.314598,8956.491898
913.275274,296.082377,766.095498,9770.718434
913.275599,-222.061783,1455.581446,10732.986159
913.275924,962.267725,3294.210641,10066.800811
913.276249,2886.803174,3524.039291,8364.327145
913.276574,2886.803174,2298.286494,7920.203579
913.276898,814.226536,1302.362347,9178.553681
913.277223,-1998.556043,2451.505594,8882.471304
913.277548,-3034.844362,1991.848295,9844.739029
913.277873,-2812.782580,-153.219100,10658.965565
913.278198,-4293.194464,-1455.581446,10140.821405
913.278523,-4293.194464,153.219100,8364.327145
913.278848,-1924.535449,536.266849,7328.038826
913.279173,-1332.370696,0.000000,6957.935855
913.279497,-1850.514855,-459.657299,8290.306550
913.279822,-3034.844362,689.485948,9104.533087
913.280147,-2146.597232,1991.848295,9252.574275
913.280472,-222.061783,229.828649,9474.636058
913.280797,370.102971,0.000000,11251.130318
913.281122,-370.102971,1838.629195,11029.068536
913.281447,1332.370696,2834.553343,9622.677246
913.281772,4293.194464,842.705048,8956.491898
913.282097,3552.988522,459.657299,9400.615463
913.282421,1702.473667,2451.505594,9104.533087
913.282746,1628.453072,2681.334243,8956.491898
913.283071,2368.659014,689.485948,9844.739029
913.283396,1554.432478,0.000000,10881.027347
913.283721,1184.329507,919.314598,8882.471304
913.284046,1036.288319,919.314598,7772.162391
913.284371,2590.720797,-919.314598,7254.018232
913.284696,1628.453072,612.876398,9622.677246
913.285021,1036.288319,689.485948,10658.965565
913.285345,-962.267725,-1225.752797,7994.224174
913.285670,-1628.453072,-2451.505594,9474.636058
913.285995,-2146.597232,0.000000,11325.150913
913.286320,-1702.473667,1532.190996,11251.130318
913.286645,-222.061783,-842.705048,8956.491898
913.286970,1998.556043,-612.876398,7402.059420
913.287295,3034.844362,1072.533697,8586.388927
913.287620,1258.350101,2298.286494,9844.739029
913.287944,-296.082377,919.314598,9844.739029
913.288269,-1110.308913,-459.657299,10510.924376
913.288594,-74.020594,-612.876398,10066.800811
913.288919,-296.082377,0.000000,10214.842000
913.289244,666.185348,459.657299,8660.409521
913.289569,962.267725,306.438199,8364.327145
913.289894,740.205942,-766.095498,8734.430116
913.290219,-222.061783,-919.314598,9400.615463
913.290544,-1184.329507,459.657299,8734.430116
913.290868,-1776.494261,1149.143247,8956.491898
913.291193,-1850.514855,229.828649,9992.780217
913.291518,-2220.617826,0.000000,9474.636058
913.291843,-1036.288319,1072.533697,9030.512492
913.292168,1184.329507,2757.943793,7328.038826
913.292493,1850.514855,1302.362347,6809.894666
913.292818,592.164754,1685.410096,8290.306550
913.293143,-296.082377,1608.800546,9326.594869
913.293468,-1776.494261,1149.143247,10510.924376
913.293792,-1776.494261,-229.828649,9770.718434
913.294117,-2072.576638,-306.438199,10436.903782
913.294442,-1554.432478,76.609550,9474.636058
913.294767,-296.082377,919.314598,8364.327145
913.295092,1258.350101,383.047749,7846.182985
913.295417,0.000000,766.095498,9326.594869
913.295742,-1332.370696,1302.362347,8734.430116
913.296067,-888.247130,1532.190996,10066.800811
913.296391,-888.247130,1149.143247,11177.109724
913.296716,-1628.453072,1455.581446,11473.192101
913.297041,-296.082377,536.266849,9844.739029
913.297366,962.267725,2221.676944,8512.368333
913.297691,2368.659014,1455.581446,7105.977043
913.298016,1480.411884,2145.067394,7772.162391
913.298341,148.041188,766.095498,9326.594869
913.298666,-148.041188,1302.362347,9252.574275
913.298991,-148.041188,1149.143247,9918.759623
913.299315,0.000000,0.000000,9252.574275
913.299640,0.000000,0.000000,8142.265362
913.299965,888.247130,1455.581446,8808.450710
913.300290,3182.885551,1608.800546,9104.533087
913.300615,2812.782580,0.000000,9178.553681
913.300940,444.123565,-766.095498,8882.471304
913.301265,-296.082377,1149.143247,9622.677246
913.301590,74.020594,1838.629195,10362.883188
913.301914,-1184.329507,-919.314598,10436.903782
913.302239,-592.164754,-2221.676944,9918.759623
913.302564,-1110.308913,1072.533697,9770.718434
913.302889,888.247130,2145.067394,8660.409521
913.303214,2516.700203,76.609550,8290.306550
913.303539,370.102971,-2221.676944,8734.430116
913.303864,-740.205942,76.609550,9326.594869
913.304189,-296.082377,2221.676944,10955.047942
913.304514,-1110.308913,-153.219100,11843.295072
913.304838,-1036.288319,-2604.724693,9548.656652
913.305163,0.000000,-1225.752797,8364.327145
913.305488,1998.556043,2451.505594,7402.059420
913.305813,2146.597232,1685.410096,8882.471304
913.306138,0.000000,-1991.848295,9474.636058
913.306463,-518.144159,-612.876398,8142.265362
913.306788,0.000000,2221.676944,9622.677246
913.307113,-666.185348,1532.190996,9844.739029
913.307438,-1554.432478,383.047749,8142.265362
913.307762,-296.082377,306.438199,8512.368333
913.308087,888.247130,2374.896044,8660.409521
913.308412,740.205942,1915.238745,7624.121203
913.308737,296.082377,0.000000,7476.080014
913.309062,0.000000,-689.485948,7550.100608
913.309387,-1332.370696,1608.800546,10214.842000
913.309712,-3034.844362,0.000000,12361.439231
913.310037,-4367.215058,-2451.505594,10214.842000
913.310361,-2886.803174,-2987.772442,9400.615463
913.310686,222.061783,-306.438199,10140.821405
913.311011,2368.659014,1991.848295,8734.430116
913.311336,1998.556043,1072.533697,9622.677246
913.311661,1184.329507,0.000000,10436.903782
913.311986,592.164754,2911.162892,10510.924376
913.312311,2072.576638,2528.115143,10510.924376
913.312636,592.164754,1149.143247,10436.903782
913.312961,74.020594,76.609550,9400.615463
913.313285,1628.453072,3140.991542,9178.553681
913.313610,3182.885551,2068.457845,8882.471304
913.313935,888.247130,459.657299,7994.224174
913.314260,-370.102971,-153.219100,7994.224174
913.314585,-1628.453072,2451.505594,7772.162391
913.314910,-2516.700203,1302.362347,8956.491898
913.315235,-3775.050304,-1225.752797,9622.677246
913.315560,-2960.823768,-1378.971896,7550.100608
913.315885,-1776.494261,1608.800546,6365.771101
913.316209,814.226536,1685.410096,6735.874072
913.316534,0.000000,229.828649,7179.997637
913.316859,-2220.617826,0.000000,7179.997637
913.317184,-1036.288319,1991.848295,9326.594869
913.317509,-1110.308913,1838.629195,9992.780217
913.317834,-1924.535449,76.609550,10955.047942
913.318159,-666.185348,-995.924147,11177.109724
913.318484,666.185348,766.095498,11325.150913
913.318808,3701.029710,1915.238745,11325.150913
913.319133,4737.318029,689.485948,9918.759623
913.319458,3478.967927,229.828649,10288.862594
913.319783,1924.535449,1532.190996,9992.780217
913.320108,1998.556043,2451.505594,9844.739029
913.320433,444.123565,0.000000,11399.171507
913.320758,-666.185348,-1225.752797,10066.800811
913.321083,-370.102971,229.828649,10510.924376
913.321408,370.102971,1762.019645,9622.677246
913.321732,1036.288319,-536.266849,8290.306550
913.322057,-1258.350101,-2451.505594,8660.409521
913.322382,0.000000,-612.876398,7031.956449
913.322707,-1924.535449,3447.429741,10436.903782
913.323032,-2368.659014,-229.828649,9844.739029
913.323356,-1850.514855,-1225.752797,8068.244768
913.323681,-666.185348,-1302.362347,7994.224174
913.324006,444.123565,3753.867940,7105.977043
913.324330,3552.988522,2451.505594,5699.585753
913.324655,2516.700203,612.876398,7402.059420
913.324980,1332.370696,76.609550,7476.080014
913.325305,74.020594,2911.162892,9474.636058
913.325629,518.144159,919.314598,9030.512492
913.325954,-1332.370696,-1685.410096,9400.615463
913.326279,-1924.535449,-1915.238745,9326.594869
913.326603,-296.082377,1072.533697,11695.253884
913.326928,1702.473667,612.876398,10066.800811
913.327253,1036.288319,-1991.848295,9992.780217
913.327578,0.000000,-1302.362347,11251.130318
913.327902,-222.061783,2604.724693,11325.150913
913.328227,1332.370696,1455.581446,10732.986159
913.328552,148.041188,-1378.971896,11103.089130
913.328876,-1184.329507,-995.924147,10955.047942
913.329201,0.000000,2911.162892,10881.027347
913.329526,3997.112087,2298.286494,9252.574275
913.329850,1628.453072,-1685.410096,10140.821405
913.330175,-1850.514855,-2528.115143,9474.636058
913.330500,-1554.432478,2068.457845,9030.512492
913.330825,-1628.453072,1455.581446,10140.821405
913.331149,-4293.194464,-1302.362347,9252.574275
913.331474,-5403.503377,-2451.505594,8586.388927
913.331799,-2960.823768,1532.190996,7402.059420
913.332123,296.082377,3600.648841,5329.482782
913.332448,148.041188,1915.238745,6587.832884
913.332773,-1554.432478,1685.410096,6365.771101
913.333098,-962.267725,3447.429741,5773.606348
913.333422,518.144159,3370.820191,7254.018232
913.333747,-518.144159,842.705048,8586.388927
913.334072,-2072.576638,76.609550,8660.409521
913.334396,-444.123565,2068.457845,9474.636058
913.334721,2294.638420,1455.581446,10658.965565
913.335046,2738.761985,-1838.629195,9918.759623
913.335370,1332.370696,-2834.553343,10436.903782
913.335695,0.000000,-1149.143247,12287.418637
913.336020,740.205942,459.657299,13915.871710
913.336345,2146.597232,0.000000,13693.809927
913.336669,1406.391290,-612.876398,13841.851115
913.336994,1702.473667,1225.752797,10658.965565
913.337319,4589.276840,3983.696590,8512.368333
913.337643,4811.338623,3064.381992,8586.388927
913.337968,1998.556043,306.438199,7772.162391
913.338293,-1036.288319,1302.362347,8882.471304
913.338618,-740.205942,2681.334243,7476.080014
913.338942,-2294.638420,76.609550,8734.430116
913.339267,-4737.318029,-3983.696590,8512.368333
913.339592,-5329.482782,-1149.143247,8068.244768
913.339916,-2516.700203,995.924147,7698.141797
913.340241,444.123565,0.000000,6661.853478
913.340566,1036.288319,-1378.971896,6883.915261
913.340890,592.164754,1149.143247,6069.688724
913.341215,1850.514855,4519.963438,6735.874072
913.341540,3256.906145,2528.115143,9030.512492
913.341865,1628.453072,1838.629195,9770.718434
913.342189,1406.391290,1532.190996,9770.718434
913.342514,3330.926739,3217.601092,9474.636058
913.342839,4145.153275,1149.143247,9400.615463
913.343163,592.164754,-766.095498,11251.130318
913.343488,-1554.432478,-1302.362347,11325.150913
913.343813,-2368.659014,-612.876398,11325.150913
913.344138,-1850.514855,-1302.362347,11769.274478
913.344462,-2812.782580,-1378.971896,13471.748144
913.344787,-4737.318029,-1532.190996,12139.377449
913.345112,-1776.494261,-689.485948,9326.594869
913.345436,2146.597232,0.000000,8586.388927
913.345761,1406.391290,153.219100,8216.285956
913.346086,-518.144159,995.924147,8216.285956
913.346410,-1332.370696,1072.533697,8216.285956
913.346735,-1406.391290,536.266849,9474.636058
913.347060,-2368.659014,-689.485948,10807.006753
913.347385,-4145.153275,-383.047749,10510.924376
913.347709,-2442.679609,0.000000,8290.306550
913.348034,666.185348,1149.143247,7402.059420
913.348359,1924.535449,995.924147,8512.368333
913.348683,0.000000,2374.896044,8438.347739
913.349008,-2368.659014,1149.143247,5773.606348
913.349333,-1184.329507,689.485948,6735.874072
913.349658,592.164754,1838.629195,8660.409521
913.349982,-74.020594,2528.115143,9178.553681
913.350307,0.000000,995.924147,7105.977043
913.350632,3256.906145,536.266849,7179.997637
913.350956,2886.803174,1225.752797,9474.636058
913.351281,222.061783,842.705048,9696.697840
913.351606,-444.123565,-536.266849,9030.512492
913.351931,74.020594,-612.876398,10807.006753
913.352255,296.082377,383.047749,12879.583391
913.352580,222.061783,536.266849,14211.954086
913.352905,-370.102971,-1838.629195,12065.356855
913.353229,2072.576638,383.047749,9400.615463
913.353554,4515.256246,995.924147,9918.759623
913.353879,4145.153275,2834.553343,10436.903782
913.354203,1480.411884,1838.629195,8808.450710
913.354528,666.185348,1455.581446,8364.327145
913.354853,1702.473667,2068.457845,9474.636058
913.355178,-1554.432478,2374.896044,9696.697840
913.355502,-1702.473667,0.000000,7254.018232
913.355827,-666.185348,-459.657299,4959.379811
913.356152,-814.226536,1532.190996,6587.832884
913.356476,-1776.494261,689.485948,8808.450710
913.356801,-1924.535449,229.828649,7550.100608
913.357126,-1480.411884,-995.924147,6291.750507
913.357451,74.020594,1302.362347,8808.450710
913.357775,888.247130,2757.943793,11399.171507
913.358100,148.041188,2681.334243,10807.006753
913.358425,2886.803174,842.705048,9104.533087
913.358749,4441.235652,842.705048,9104.533087
913.359074,4293.194464,2451.505594,8364.327145
913.359399,2590.720797,3064.381992,10436.903782
913.359723,666.185348,536.266849,10436.903782
913.360048,222.061783,383.047749,11029.068536
913.360373,-740.205942,-306.438199,11991.336260
913.360698,-2886.803174,-383.047749,11621.233289
913.361022,-3034.844362,-1608.800546,9918.759623
913.361347,0.000000,-1762.019645,10807.006753
913.361672,74.020594,-842.705048,11621.233289
913.361996,-3775.050304,-1149.143247,10584.944971
913.362321,-4367.215058,-995.924147,7698.141797
913.362646,-2738.761985,0.000000,7920.203579
913.362971,-2368.659014,1302.362347,9844.739029
913.363295,-4885.359217,766.095498,9030.512492
913.363620,-3330.926739,-306.438199,6587.832884
913.363945,-740.205942,766.095498,6513.812290
913.364269,370.102971,2068.457845,6513.812290
913.364594,-666.185348,1991.848295,8438.347739
913.364919,-1110.308913,76.609550,5921.647536
913.365243,74.020594,76.609550,6735.874072
913.365568,1332.370696,1149.143247,10140.821405
913.365893,296.082377,459.657299,12731.542202
913.366218,-296.082377,-995.924147,9696.697840
913.366542,2368.659014,-1302.362347,8956.491898
913.366867,6069.688724,766.095498,9474.636058
913.367192,5255.462188,2681.334243,9400.615463
913.367516,2886.803174,1685.410096,10066.800811
913.367841,2220.617826,1072.533697,9548.656652
913.368166,1258.350101,995.924147,10584.944971
913.368491,444.123565,459.657299,10732.986159
913.368815,-296.082377,0.000000,10732.986159
913.369140,-370.102971,306.438199,9030.512492
913.369465,1258.350101,-459.657299,9622.677246
913.369789,0.000000,-1608.800546,11473.192101
913.370114,-2960.823768,-1915.238745,9918.759623
913.370439,-2738.761985,-995.924147,8068.244768
913.370763,-1332.370696,-612.876398,8808.450710
913.371088,-1406.391290,76.609550,10140.821405
913.371413,-1258.350101,0.000000,9400.615463
913.371738,1036.288319,1072.533697,6069.688724
913.372062,3108.864956,1378.971896,6809.894666
913.372387,3923.091493,2298.286494,7402.059420
913.372712,3330.926739,2987.772442,8882.471304
913.373036,2590.720797,2298.286494,8290.306550
913.373361,2072.576638,1838.629195,9548.656652
913.373686,1924.535449,2145.067394,10955.047942
913.374011,592.164754,1838.629195,10362.883188
913.374335,444.123565,383.047749,8290.306550
913.374660,1702.473667,-229.828649,8068.244768
913.374985,1628.453072,536.266849,9844.739029
913.375309,-1036.288319,1302.362347,10658.965565
913.375634,-2294.638420,-153.219100,8956.491898
913.375959,-1776.494261,-1302.362347,8216.285956
913.376283,-2368.659014,0.000000,9178.553681
913.376608,-3997.112087,383.047749,10214.842000
913.376933,-3478.967927,0.000000,9696.697840
913.377258,-1850.514855,0.000000,9770.718434
913.377582,-444.123565,-229.828649,10510.924376
913.377907,-1036.288319,-1378.971896,10214.842000
913.378232,-2368.659014,-306.438199,9030.512492
913.378556,-3182.885551,153.219100,9770.718434
913.378881,-1258.350101,1225.752797,11769.274478
913.379206,-1406.391290,689.485948,10955.047942
913.379531,-2294.638420,459.657299,8660.409521
913.379855,-1110.308913,919.314598,7550.100608
913.380180,1406.391290,1915.238745,5921.647536
913.380505,1628.453072,1915.238745,6661.853478
913.380829,-444.123565,1532.190996,7550.100608
913.381154,-1628.453072,2681.334243,8068.244768
913.381479,-592.164754,2528.115143,8808.450710
913.381804,222.061783,536.266849,10066.800811
913.382128,-1332.370696,-536.266849,8882.471304
913.382453,-444.123565,612.876398,8216.285956
913.382778,2516.700203,1302.362347,9400.615463
913.383102,2368.659014,842.705048,10288.862594
913.383427,-740.205942,-1149.143247,10436.903782
913.383752,-888.247130,-153.219100,9030.512492
913.384076,148.041188,1685.410096,9770.718434
913.384401,1776.494261,1455.581446,11325.150913
913.384726,1924.535449,766.095498,11399.171507
913.385051,592.164754,612.876398,9844.739029
913.385375,2664.741391,1072.533697,8216.285956
913.385700,4441.235652,2834.553343,10214.842000
913.386025,2590.720797,1072.533697,10436.903782
913.386349,-370.102971,689.485948,7476.080014
913.386674,-592.164754,689.485948,10066.800811
913.386999,296.082377,536.266849,11029.068536
913.387324,-592.164754,-383.047749,9992.780217
913.387648,-1258.350101,-766.095498,7624.121203
913.387973,1924.535449,1072.533697,7920.203579
913.388298,3701.029710,2451.505594,8216.285956
913.388622,2294.638420,1608.800546,9030.512492
913.388947,518.144159,153.219100,8660.409521
913.389272,0.000000,1991.848295,9178.553681
913.389596,814.226536,2987.772442,9844.739029
913.389921,888.247130,1225.752797,9770.718434
913.390246,-518.144159,-766.095498,8438.347739
913.390571,222.061783,766.095498,7476.080014
913.390895,1850.514855,1762.019645,8586.388927
913.391220,-962.267725,0.000000,9918.759623
913.391545,-3404.947333,-1608.800546,9474.636058
913.391869,-2738.761985,-842.705048,9252.574275
913.392194,-2368.659014,0.000000,9770.718434
913.392519,-2146.597232,-1608.800546,12139.377449
913.392844,-3034.844362,-2374.896044,10140.821405
913.393168,-1998.556043,-229.828649,9104.533087
913.393493,2220.617826,459.657299,8512.368333
913.393818,1406.391290,689.485948,9844.739029
913.394142,-814.226536,689.485948,9548.656652
913.394467,-2294.638420,1762.019645,9548.656652
913.394792,-1628.453072,-306.438199,9474.636058
913.395116,-2664.741391,229.828649,10584.944971
913.395441,-2368.659014,-612.876398,9770.718434
913.395766,-1480.411884,689.485948,7846.182985
913.396091,666.185348,229.828649,7772.162391
913.396415,0.000000,383.047749,9326.594869
913.396740,-1628.453072,-459.657299,9400.615463
913.397065,-1480.411884,229.828649,7772.162391
913.397389,592.164754,0.000000,7994.224174
913.397714,1036.288319,689.485948,10510.924376
913.398039,0.000000,1762.019645,12361.439231
913.398364,1036.288319,919.314598,9548.656652
913.398688,3701.029710,0.000000,7328.038826
913.399013,4515.256246,612.876398,9030.512492
913.399338,3256.906145,2528.115143,7846.182985
913.399662,814.226536,3064.381992,7920.203579
913.399987,1406.391290,612.876398,8956.491898
913.400312,740.205942,-383.047749,9918.759623
913.400636,-444.123565,995.924147,9696.697840
913.400961,-222.061783,1455.581446,8660.409521
913.401286,1554.432478,383.047749,9474.636058
913.401611,1776.494261,-153.219100,8882.471304
913.401935,444.123565,-229.828649,11769.274478
913.402260,-962.267725,-383.047749,9474.636058
913.402585,-2368.659014,612.876398,8882.471304
913.402909,-444.123565,153.219100,10140.821405
913.403234,-296.082377,612.876398,10658.965565
913.403559,-740.205942,383.047749,9770.718434
913.403884,888.247130,1762.019645,7550.100608
913.404208,2294.638420,2068.457845,8216.285956
913.404533,1924.535449,1149.143247,9622.677246
913.404858,1480.411884,2145.067394,9252.574275
913.405182,-296.082377,2681.334243,10436.903782
913.405507,-296.082377,2221.676944,9400.615463
913.405832,296.082377,995.924147,10436.903782
913.406157,-518.144159,1225.752797,9326.594869
913.406481,-296.082377,2068.457845,6661.853478
913.406806,1258.350101,1149.143247,8290.306550
913.407131,518.144159,1225.752797,9992.780217
913.407455,-1332.370696,229.828649,8808.450710
913.407780,-3256.906145,612.876398,8882.471304
913.408105,-2368.659014,1378.971896,7698.141797
913.408429,-2072.576638,1685.410096,8882.471304
913.408754,-1628.453072,-689.485948,8808.450710
913.409079,-1628.453072,1149.143247,8512.368333
913.409404,888.247130,612.876398,8438.347739
913.409728,592.164754,459.657299,9474.636058
913.410053,-1258.350101,-995.924147,10288.862594
913.410378,-3404.947333,383.047749,11547.212695
913.410702,-1332.370696,306.438199,10732.986159
913.411027,-296.082377,-536.266849,10955.047942
913.411352,-2368.659014,-1915.238745,10732.986159
913.411677,-3182.885551,-689.485948,9326.594869
913.412001,1776.494261,1149.143247,7550.100608
913.412326,3997.112087,459.657299,9770.718434
913.412651,1406.391290,153.219100,10881.027347
913.412975,-962.267725,1455.581446,8142.265362
913.413300,0.000000,1532.190996,9326.594869
913.413625,1702.473667,-229.828649,10140.821405
913.413949,74.020594,-995.924147,10140.821405
913.414274,370.102971,459.657299,9474.636058
913.414599,2960.823768,2451.505594,8734.430116
913.414924,2442.679609,995.924147,9400.615463
913.415248,148.041188,-1608.800546,7846.182985
913.415573,-1628.453072,-306.438199,6513.812290
913.415898,-1406.391290,1608.800546,7179.997637
913.416222,0.000000,995.924147,8808.450710
913.416547,0.000000,-383.047749,9844.739029
913.416872,-222.061783,-459.657299,9030.512492
913.417197,1110.308913,995.924147,8216.285956
913.417521,2442.679609,-612.876398,7402.059420
913.417846,1998.556043,-766.095498,8808.450710
913.418171,1036.288319,-689.485948,11177.109724
913.418495,-666.185348,1149.143247,11547.212695
913.418820,-666.185348,-229.828649,10510.924376
913.419145,-814.226536,-1608.800546,10881.027347
913.419469,-296.082377,-612.876398,10732.986159
913.419794,1554.432478,1762.019645,9696.697840
913.420119,3330.926739,995.924147,8660.409521
913.420444,2294.638420,76.609550,10584.944971
913.420768,1406.391290,459.657299,9770.718434
913.421093,0.000000,2834.553343,9474.636058
913.421418,0.000000,1455.581446,8734.430116
913.421742,-370.102971,689.485948,10510.924376
913.422067,-222.061783,536.266849,11029.068536
913.422392,148.041188,2145.067394,8216.285956
913.422717,1258.350101,229.828649,6809.894666
913.423041,74.020594,76.609550,8068.244768
913.423363,-1628.453072,383.047749,8660.409521
913.423688,-2220.617826,1915.238745,8882.471304
913.424013,-1332.370696,1455.581446,9030.512492
913.424338,-1924.535449,1302.362347,10140.821405
913.424662,-2516.700203,1072.533697,8734.430116
913.424987,-148.041188,1455.581446,7105.977043
913.425312,1850.514855,2221.676944,7105.977043
913.425637,1924.535449,2298.286494,8364.327145
913.425962,1036.288319,2068.457845,9548.656652
913.426287,-592.164754,1991.848295,9548.656652
913.426612,-2664.741391,1685.410096,10214.842000
913.426937,-2664.741391,459.657299,9474.636058
913.427262,-1554.432478,-536.266849,10362.883188
913.427586,-1110.308913,-1149.143247,9844.739029
913.427911,0.000000,229.828649,9770.718434
913.428236,1036.288319,0.000000,10732.986159
913.428561,518.144159,-919.314598,10066.800811
913.428886,-666.185348,0.000000,9178.553681
913.429211,-1036.288319,1608.800546,9474.636058
913.429536,1110.308913,1455.581446,9622.677246
913.429861,1554.432478,689.485948,10510.924376
913.430185,1110.308913,536.266849,9770.718434
913.430510,1332.370696,1915.238745,8290.306550
913.430835,2072.576638,1608.800546,7179.997637
913.431160,666.185348,306.438199,8660.409521
913.431485,-296.082377,-536.266849,8068.244768
913.431810,-2960.823768,0.000000,7846.182985
913.432135,-2516.700203,0.000000,9252.574275
913.432460,-2072.576638,-1225.752797,9548.656652
913.432785,-1702.473667,-1838.629195,8586.388927
913.433109,74.020594,-766.095498,7624.121203
913.433434,1998.556043,383.047749,8438.347739
913.433759,1184.329507,0.000000,9622.677246
913.434084,1332.370696,-995.924147,9030.512492
913.434409,814.226536,-919.314598,10510.924376
913.434734,0.000000,766.095498,10140.821405
913.435059,-148.041188,459.657299,12435.459826
913.435384,1110.308913,-1532.190996,11695.253884
913.435708,1480.411884,-689.485948,9178.553681
913.436033,3478.967927,-459.657299,8734.430116
913.436358,2960.823768,1072.533697,9992.780217
913.436683,1776.494261,766.095498,10214.842000
913.437008,740.205942,306.438199,10807.006753
913.437333,296.082377,76.609550,10807.006753
913.437658,-1258.350101,383.047749,9548.656652
913.437983,740.205942,459.657299,8364.327145
913.438307,1998.556043,1455.581446,8512.368333
913.438632,1184.329507,1685.410096,8808.450710
913.438957,296.082377,995.924147,8734.430116
913.439282,-370.102971,1072.533697,8586.388927
913.439607,-2146.597232,536.266849,7476.080014
913.439932,-3256.906145,1149.143247,7402.059420
913.440257,-2442.679609,1915.238745,8808.450710
913.440582,-3849.070898,1685.410096,9844.739029
913.440907,-3478.967927,-306.438199,7846.182985
913.441231,-592.164754,-536.266849,7476.080014
913.441556,666.185348,1762.019645,8808.450710
913.441881,-222.061783,2298.286494,8586.388927
913.442206,-296.082377,1378.971896,9104.533087
913.442531,666.185348,1378.971896,11029.068536
913.442856,-666.185348,2834.553343,11399.171507
913.443181,148.041188,383.047749,9770.718434
913.443506,1406.391290,1302.362347,8142.265362
913.443830,2516.700203,1915.238745,9548.656652
913.444155,2664.741391,3294.210641,10214.842000
913.444480,1332.370696,1915.238745,11325.150913
913.444805,-518.144159,-153.219100,8734.430116
913.445130,-1628.453072,919.314598,8512.368333
913.445455,-1776.494261,2068.457845,10214.842000
913.445780,-3182.885551,1838.629195,10658.965565
913.446105,-2146.597232,-1149.143247,9622.677246
913.446430,-1110.308913,-306.438199,9400.615463
913.446754,-814.226536,1225.752797,8586.388927
913.447079,-1184.329507,689.485948,7846.182985
913.447404,-592.164754,-995.924147,6883.915261
913.447729,-740.205942,689.485948,7994.224174
913.448054,-1628.453072,2145.067394,7846.182985
913.448379,-1702.473667,842.705048,7994.224174
913.448704,-1850.514855,-1149.143247,8290.306550
913.449029,1036.288319,306.438199,7105.977043
913.449353,3404.947333,1072.533697,7476.080014
913.449678,4145.153275,-229.828649,9326.594869
913.450003,3330.926739,-1072.533697,9548.656652
913.450328,3701.029710,1608.800546,10881.027347
913.450653,2738.761985,1225.752797,11917.315666
913.450978,518.144159,-459.657299,11621.233289
913.451303,444.123565,-1762.019645,10658.965565
913.451628,2220.617826,-383.047749,10584.944971
913.451953,3552.988522,0.000000,10214.842000
913.452277,1480.411884,-689.485948,10881.027347
913.452602,-1332.370696,-1915.238745,10658.965565
913.452927,-2664.741391,-1608.800546,10584.944971
913.453252,-2368.659014,-1302.362347,9548.656652
913.453577,-2516.700203,-1532.190996,11029.068536
913.453902,-2812.782580,-1225.752797,10436.903782
913.454227,-740.205942,0.000000,8956.491898
913.454552,1924.535449,766.095498,7994.224174
913.454876,1924.535449,0.000000,7105.977043
913.455201,444.123565,766.095498,7994.224174
913.455526,0.000000,2374.896044,8512.368333
913.455851,296.082377,3370.820191,8586.388927
913.456176,0.000000,1378.971896,9474.636058
913.456501,0.000000,995.924147,7994.224174
913.456826,296.082377,2528.115143,6883.915261
913.457151,1628.453072,2987.772442,7476.080014
913.457475,2072.576638,2374.896044,8734.430116
913.457800,-666.185348,1225.752797,9918.759623
913.458125,-1924.535449,612.876398,8068.244768
913.458450,-1258.350101,1149.143247,7550.100608
913.458775,-3330.926739,1225.752797,9844.739029
913.459100,-3775.050304,153.219100,10066.800811
913.459425,-2368.659014,-612.876398,9844.739029
913.459750,-814.226536,459.657299,10584.944971
913.460075,-666.185348,1455.581446,10066.800811
913.460399,-1332.370696,766.095498,9918.759623
913.460724,-222.061783,-842.705048,8364.327145
913.461049,1406.391290,1302.362347,10436.903782
913.461374,296.082377,3907.087040,12509.480420
913.461699,-962.267725,2528.115143,10658.965565
913.462024,1776.494261,536.266849,8290.306550
913.462349,3552.988522,1149.143247,9474.636058
913.462674,3997.112087,3907.087040,9992.780217
913.462998,2812.782580,1532.190996,9622.677246
913.463323,1184.329507,-995.924147,9474.636058
913.463648,0.000000,-306.438199,9400.615463
913.463973,-1924.535449,1991.848295,9474.636058
913.464298,-2590.720797,1149.143247,7254.018232
913.464623,-1554.432478,-919.314598,7031.956449
913.464948,-740.205942,-153.219100,7624.121203
913.465273,1110.308913,1838.629195,7550.100608
913.465598,1480.411884,459.657299,7105.977043
913.465922,-962.267725,-1378.971896,6735.874072
913.466247,-1554.432478,0.000000,7105.977043
913.466572,-888.247130,1072.533697,11103.089130
913.466897,-518.144159,0.000000,10807.006753
913.467222,-740.205942,-1915.238745,11177.109724
913.467547,592.164754,-2987.772442,10288.862594
913.467872,2368.659014,-689.485948,10362.883188
913.468197,2516.700203,-153.219100,9622.677246
913.468521,1702.473667,-1838.629195,11177.109724
913.468846,222.061783,-1149.143247,9622.677246
913.469171,444.123565,536.266849,10955.047942
913.469496,740.205942,1149.143247,11695.253884
913.469821,-296.082377,229.828649,11103.089130
913.470146,-888.247130,-1302.362347,8956.491898
913.470471,1036.288319,-995.924147,8808.450710
913.470796,1406.391290,1991.848295,10362.883188
913.471121,0.000000,153.219100,8660.409521
913.471445,-1924.535449,0.000000,8216.285956
913.471770,-2072.576638,536.266849,9104.533087
913.472095,-1924.535449,1455.581446,9178.553681
913.472420,-2220.617826,383.047749,9104.533087
913.472745,-1776.494261,-612.876398,7550.100608
913.473070,370.102971,1838.629195,7550.100608
913.473395,2590.720797,2987.772442,7550.100608
913.473720,1110.308913,1838.629195,8734.430116
913.474044,148.041188,76.609550,7402.059420
913.474369,814.226536,2298.286494,7994.224174
913.474694,1480.411884,3294.210641,9622.677246
913.475019,-1628.453072,1991.848295,11325.150913
913.475344,-814.226536,229.828649,9030.512492
913.475669,1332.370696,1532.190996,9622.677246
913.475994,1998.556043,1149.143247,9548.656652
913.476319,0.000000,612.876398,9178.553681
913.476643,-1406.391290,76.609550,9918.759623
913.476968,-888.247130,1455.581446,10510.924376
913.477293,-222.061783,1455.581446,8808.450710
913.477618,-1184.329507,766.095498,11325.150913
913.477943,-1554.432478,1532.190996,9400.615463
913.478268,-444.123565,2911.162892,9030.512492
913.478593,2960.823768,1072.533697,8660.409521
913.478918,1406.391290,-306.438199,7920.203579
913.479243,-1998.556043,-459.657299,8068.244768
913.479567,-1036.288319,2757.943793,8734.430116
913.479892,1480.411884,2987.772442,11103.089130
913.480217,0.000000,229.828649,11621.233289
913.480542,-2146.597232,-1532.190996,8660.409521
913.480867,-814.226536,-306.438199,7698.141797
913.481192,1702.473667,2451.505594,8216.285956
913.481517,1628.453072,1532.190996,9030.512492
913.481842,-1480.411884,-919.314598,9104.533087
913.482166,-1924.535449,-459.657299,7698.141797
913.482491,-592.164754,1072.533697,9252.574275
913.482816,-1924.535449,1149.143247,9844.739029
913.483141,-3404.947333,-612.876398,9622.677246
913.483466,-1554.432478,-1838.629195,8660.409521
913.483791,740.205942,-1072.533697,9104.533087
913.484116,1554.432478,229.828649,8882.471304
913.484441,-518.144159,-536.266849,10362.883188
913.484766,-666.185348,-1302.362347,7698.141797
913.485090,-666.185348,-229.828649,9770.718434
913.485415,444.123565,-306.438199,11843.295072
913.485740,444.123565,842.705048,11325.150913
913.486065,2072.576638,-766.095498,9104.533087
913.486390,3849.070898,612.876398,10066.800811
913.486715,4071.132681,1225.752797,9474.636058
913.487040,1924.535449,612.876398,10288.862594
913.487365,1480.411884,-766.095498,8586.388927
913.487689,0.000000,-612.876398,9622.677246
913.488014,-1110.308913,766.095498,10732.986159
913.488339,-1554.432478,995.924147,9918.759623
913.488664,-962.267725,-842.705048,7698.141797
913.488989,74.020594,-229.828649,7550.100608
913.489314,1554.432478,1762.019645,7920.203579
913.489639,740.205942,2911.162892,9178.553681
913.489964,-296.082377,919.314598,8216.285956
913.490289,-740.205942,459.657299,8142.265362
913.490613,1554.432478,1532.190996,8512.368333
913.490938,370.102971,2834.553343,10807.006753
913.491263,0.000000,842.705048,9770.718434
913.491588,2072.576638,306.438199,8364.327145
913.491913,3701.029710,1072.533697,8808.450710
913.492238,1480.411884,1915.238745,9400.615463
913.492563,296.082377,1302.362347,7920.203579
913.492888,296.082377,766.095498,9104.533087
913.493212,370.102971,1378.971896,10955.047942
913.493537,-1554.432478,1991.848295,11769.274478
913.493862,-1924.535449,1302.362347,10214.842000
913.494187,-962.267725,383.047749,7772.162391
913.494512,666.185348,995.924147,7846.182985
913.494837,0.000000,1685.410096,9400.615463
913.495162,-2368.659014,689.485948,8660.409521
913.495487,-4663.297435,0.000000,9400.615463
913.495811,-3404.947333,-383.047749,10436.903782
913.496136,-3330.926739,1072.533697,11029.068536
913.496461,-3997.112087,-306.438199,8660.409521
913.496786,-2738.761985,-1225.752797,6661.853478
913.497111,-444.123565,76.609550,8512.368333
913.497436,1998.556043,2145.067394,8956.491898
913.497761,1332.370696,1532.190996,8882.471304
913.498086,-814.226536,-76.609550,7994.224174
913.498411,222.061783,1762.019645,8734.430116
913.498735,2368.659014,2834.553343,10510.924376
913.499060,1702.473667,766.095498,10214.842000
913.499385,518.144159,-1302.362347,9104.533087
913.499710,2368.659014,-842.705048,8364.327145
913.500035,3997.112087,1302.362347,8512.368333
913.500360,2368.659014,-153.219100,9252.574275
913.500685,-1480.411884,-2451.505594,8660.409521
913.501010,-1924.535449,-1378.971896,10066.800811
913.501334,-1332.370696,459.657299,12657.521608
913.501659,-2146.597232,-612.876398,11917.315666
913.501984,-2812.782580,-3447.429741,10288.862594
913.502309,-2220.617826,-2681.334243,9770.718434
913.502634,74.020594,0.000000,9770.718434
913.502959,-740.205942,536.266849,10510.924376
913.503284,-1406.391290,-842.705048,9992.780217
913.503609,-1036.288319,306.438199,8364.327145
913.503934,1480.411884,1762.019645,8364.327145
913.504258,1480.411884,1608.800546,10732.986159
913.504583,1406.391290,1915.238745,8586.388927
913.504908,4145.153275,3907.087040,7550.100608
913.505233,7920.203579,4290.134789,7328.038826
913.505558,6365.771101,4596.572988,7254.018232
913.505883,2516.700203,2987.772442,8882.471304
913.506208,2886.803174,2528.115143,7846.182985
913.506533,3478.967927,4060.306139,9252.574275
913.506857,1480.411884,2374.896044,10140.821405
913.507182,-1850.514855,1838.629195,8142.265362
913.507507,-2664.741391,1532.190996,7994.224174
913.507832,-1554.432478,536.266849,7328.038826
913.508157,-2590.720797,-229.828649,8142.265362
913.508482,-6661.853478,-1532.190996,8290.306550
913.508807,-6883.915261,-383.047749,8142.265362
913.509132,-5625.565159,76.609550,9400.615463
913.509457,-5403.503377,-153.219100,11547.212695
913.509781,-4515.256246,-1302.362347,9178.553681
913.510106,-2664.741391,-1532.190996,8512.368333
913.510431,1332.370696,1378.971896,10214.842000
913.510756,4145.153275,3600.648841,11917.315666
913.511081,2590.720797,1762.019645,13027.624579
913.511406,1776.494261,-1302.362347,9770.718434
913.511731,2294.638420,306.438199,9844.739029
913.512056,2960.823768,3677.258390,11621.233289
913.512380,2146.597232,2987.772442,12879.583391
913.512705,2072.576638,0.000000,9326.594869
913.513030,1406.391290,-995.924147,8660.409521
913.513355,2664.741391,1149.143247,9104.533087
913.513680,1184.329507,2298.286494,8586.388927
913.514005,-1184.329507,536.266849,7105.977043
913.514330,-2590.720797,-383.047749,7476.080014
913.514655,-2886.803174,76.609550,8290.306550
913.514979,-2812.782580,1225.752797,8956.491898
913.515304,-3034.844362,0.000000,7179.997637
913.515629,-1850.514855,-1532.190996,6069.688724
913.515954,-296.082377,-612.876398,7476.080014
913.516279,-888.247130,-612.876398,9326.594869
913.516604,-2664.741391,-1302.362347,8142.265362
913.516929,-1628.453072,-1378.971896,7402.059420
913.517254,-296.082377,-383.047749,10288.862594
913.517579,-148.041188,1532.190996,11473.192101
913.517903,888.247130,153.219100,10658.965565
913.518228,3478.967927,-1685.410096,9622.677246
913.518553,5551.544565,0.000000,10214.842000
913.518878,4959.379811,2528.115143,11843.295072
913.519203,2960.823768,2145.067394,12435.459826
913.519528,1850.514855,306.438199,9548.656652
913.519853,1850.514855,536.266849,10214.842000
913.520178,1110.308913,1302.362347,11399.171507
913.520502,370.102971,2298.286494,9178.553681
913.520827,296.082377,1378.971896,8438.347739
913.521152,518.144159,229.828649,9252.574275
913.521477,592.164754,0.000000,8216.285956
913.521802,-1406.391290,689.485948,7402.059420
913.522127,-2516.700203,229.828649,6883.915261
913.522452,-1776.494261,995.924147,8290.306550
913.522777,-962.267725,1685.410096,12509.480420
913.523102,-666.185348,612.876398,10658.965565
913.523426,-814.226536,306.438199,7550.100608
913.523751,592.164754,-766.095498,5551.544565
913.524076,3256.906145,2604.724693,6587.832884
913.524401,3478.967927,3370.820191,7624.121203
913.524726,888.247130,1685.410096,8438.347739
913.525051,592.164754,459.657299,9030.512492
913.525375,296.082377,1532.190996,10510.924376
913.525700,-148.041188,1225.752797,10214.842000
913.526025,-370.102971,0.000000,9030.512492
913.526350,666.185348,-1378.971896,8364.327145
913.526675,1628.453072,0.000000,11251.130318
913.526999,0.000000,919.314598,13249.686362
913.527324,-3108.864956,0.000000,11103.089130
913.527649,-3775.050304,-842.705048,8808.450710
913.527974,-2738.761985,-1608.800546,10658.965565
913.528299,-3034.844362,-306.438199,11695.253884
913.528624,-2442.679609,-612.876398,9696.697840
913.528948,-1110.308913,-612.876398,8882.471304
913.529273,1110.308913,-459.657299,7698.141797
913.529598,518.144159,2145.067394,8512.368333
913.529923,-740.205942,2451.505594,8956.491898
913.530248,-1184.329507,2528.115143,9770.718434
913.530572,814.226536,1455.581446,9474.636058
913.530897,518.144159,842.705048,9844.739029
913.531222,-222.061783,1532.190996,8438.347739
913.531547,-296.082377,1838.629195,6513.812290
913.531872,1184.329507,1915.238745,7476.080014
913.532196,1110.308913,1378.971896,8660.409521
913.532521,-2590.720797,536.266849,7994.224174
913.532846,-3552.988522,536.266849,6143.709319
913.533171,-1702.473667,1762.019645,7846.182985
913.533496,-1110.308913,1302.362347,9992.780217
913.533821,-2664.741391,842.705048,9992.780217
913.534145,-1776.494261,-1685.410096,8956.491898
913.534470,1036.288319,-995.924147,8438.347739
913.534795,2368.659014,1378.971896,10584.944971
913.535120,1998.556043,612.876398,11843.295072
913.535445,888.247130,689.485948,10362.883188
913.535769,2220.617826,153.219100,11177.109724
913.536094,3997.112087,919.314598,12509.480420
913.536419,2516.700203,995.924147,11917.315666
913.536744,1406.391290,459.657299,8956.491898
913.537069,4663.297435,383.047749,8438.347739
913.537393,5477.523971,1455.581446,9622.677246
913.537718,2368.659014,1455.581446,10732.986159
913.538043,444.123565,612.876398,9178.553681
913.538368,-370.102971,995.924147,7476.080014
913.538693,-962.267725,536.266849,8882.471304
913.539018,-2146.597232,76.609550,10066.800811
913.539342,-1850.514855,459.657299,8438.347739
913.539667,0.000000,536.266849,7476.080014
913.539992,2072.576638,76.609550,6587.832884
913.540317,814.226536,766.095498,6439.791695
913.540642,-444.123565,1762.019645,6735.874072
913.540966,0.000000,3064.381992,8734.430116
913.541291,814.226536,1991.848295,10066.800811
913.541616,74.020594,229.828649,11473.192101
913.541941,74.020594,-842.705048,9474.636058
913.542266,1036.288319,536.266849,8956.491898
913.542591,2294.638420,1608.800546,9770.718434
913.542915,1628.453072,383.047749,11399.171507
913.543240,-1998.556043,-766.095498,11251.130318
913.543565,-3330.926739,-229.828649,10140.821405
913.543890,-3256.906145,689.485948,11325.150913
913.544215,-2664.741391,76.609550,10807.006753
913.544539,-3701.029710,-1149.143247,9844.739029
913.544864,-2590.720797,-1608.800546,8142.265362
913.545189,-592.164754,612.876398,8142.265362
913.545514,-962.267725,1685.410096,9400.615463
913.545839,-3330.926739,1378.971896,9474.636058
913.546163,-3478.967927,842.705048,7105.977043
913.546488,-2220.617826,459.657299,8142.265362
913.546813,-1036.288319,1532.190996,9696.697840
913.547138,-888.247130,1762.019645,9474.636058
913.547463,-888.247130,1378.971896,8290.306550
913.547788,0.000000,919.314598,7846.182985
913.548112,1702.473667,0.000000,7105.977043
913.548437,-444.123565,612.876398,9548.656652
913.548762,-1332.370696,842.705048,8438.347739
913.549087,-666.185348,1685.410096,8808.450710
913.549412,1036.288319,0.000000,9030.512492
913.549736,1554.432478,-536.266849,9770.718434
913.550061,1406.391290,2451.505594,8142.265362
913.550386,2886.803174,2221.676944,8068.244768
913.550711,4959.379811,306.438199,9178.553681
913.551036,3330.926739,-229.828649,11251.130318
913.551360,814.226536,1072.533697,11103.089130
913.551685,1332.370696,919.314598,10658.965565
913.552010,1776.494261,0.000000,11621.233289
913.552335,1184.329507,-1762.019645,12731.542202
913.552660,1036.288319,-1225.752797,10732.986159
913.552985,3108.864956,-995.924147,9400.615463
913.553309,4663.297435,0.000000,10140.821405
913.553634,3849.070898,1072.533697,9622.677246
913.553959,888.247130,995.924147,8586.388927
913.554284,666.185348,689.485948,7105.977043
913.554609,962.267725,919.314598,8882.471304
913.554933,-1036.288319,1302.362347,11547.212695
913.555258,-814.226536,1149.143247,9030.512492
913.555583,-1406.391290,-766.095498,6735.874072
913.555908,-1332.370696,-1991.848295,6587.832884
913.556233,-2516.700203,-1149.143247,7846.182985
913.556558,-3701.029710,-536.266849,7994.224174
913.556882,-4071.132681,842.705048,7328.038826
913.557207,-2886.803174,689.485948,9474.636058
913.557532,-2294.638420,766.095498,10214.842000
913.557857,-1258.350101,1302.362347,8290.306550
913.558182,814.226536,995.924147,8216.285956
913.558506,2072.576638,1685.410096,7476.080014
913.558831,2590.720797,2911.162892,9548.656652
913.559156,1924.535449,2068.457845,10140.821405
913.559481,444.123565,1685.410096,10140.821405
913.559806,-1184.329507,1072.533697,12139.377449
913.560130,-1184.329507,1685.410096,12435.459826
913.560455,-2294.638420,229.828649,11843.295072
913.560780,-1628.453072,-1225.752797,9770.718434
913.561105,-814.226536,-766.095498,8438.347739
913.561430,-1628.453072,536.266849,9326.594869
913.561755,-2738.761985,1149.143247,9030.512492
913.562079,-4589.276840,919.314598,8290.306550
913.562404,-4811.338623,919.314598,8956.491898
913.562729,-3478.967927,1532.190996,9400.615463
913.563054,-2516.700203,1072.533697,7846.182985
913.563379,-2072.576638,459.657299,8142.265362
913.563703,148.041188,229.828649,8512.368333
913.564028,2146.597232,1225.752797,7179.997637
913.564353,2220.617826,153.219100,9104.533087
913.564678,1924.535449,612.876398,9400.615463
913.565003,370.102971,3140.991542,10362.883188
913.565327,2664.741391,1991.848295,9918.759623
913.565652,4071.132681,76.609550,9992.780217
913.565977,3775.050304,-919.314598,8438.347739
913.566302,4293.194464,3064.381992,9400.615463
913.566627,6809.894666,2374.896044,9030.512492
913.566952,5847.626942,612.876398,9770.718434
913.567276,2812.782580,-306.438199,9992.780217
913.567601,-444.123565,1608.800546,9918.759623
913.567926,-814.226536,1685.410096,8142.265362
913.568251,222.061783,-612.876398,11547.212695
913.568576,-444.123565,-2068.457845,10510.924376
913.568900,-1480.411884,-1608.800546,7994.224174
913.569225,-370.102971,-1455.581446,6957.935855
913.569550,-1258.350101,-1225.752797,9474.636058
913.569875,-3701.029710,153.219100,9622.677246
913.570200,-2738.761985,-383.047749,9770.718434
913.570525,-888.247130,-1149.143247,10732.986159
913.570849,370.102971,-536.266849,10140.821405
913.571174,1332.370696,383.047749,10288.862594
913.571499,3256.906145,689.485948,8956.491898
913.571824,3034.844362,2068.457845,9030.512492
913.572149,3108.864956,1455.581446,10584.944971
913.572473,1332.370696,689.485948,9252.574275
913.572798,-444.123565,766.095498,7402.059420
913.573123,-1332.370696,459.657299,7772.162391
913.573448,-1776.494261,995.924147,9252.574275
913.573773,-3182.885551,919.314598,10510.924376
913.574097,-1628.453072,306.438199,9844.739029
913.574422,-518.144159,-536.266849,8290.306550
913.574747,-962.267725,-1378.971896,7031.956449
913.575072,-1850.514855,-536.266849,8438.347739
913.575397,-2442.679609,1991.848295,9030.512492
913.575722,-2368.659014,2068.457845,9918.759623
913.576046,-2294.638420,0.000000,10288.862594
913.576371,-1480.411884,-1532.190996,10066.800811
913.576696,-592.164754,153.219100,9474.636058
913.577021,740.205942,1072.533697,8734.430116
913.577346,592.164754,612.876398,9696.697840
913.577670,444.123565,-1072.533697,10510.924376
913.577995,74.020594,459.657299,10140.821405
913.578320,74.020594,1608.800546,9400.615463
913.578645,-592.164754,1838.629195,9622.677246
913.578970,0.000000,1302.362347,9474.636058
913.579294,444.123565,1072.533697,9622.677246
913.579619,2368.659014,153.219100,8734.430116
913.579944,2072.576638,1378.971896,8734.430116
913.580269,-740.205942,306.438199,10140.821405
913.580594,-1258.350101,0.000000,7920.203579
913.580919,-518.144159,536.266849,7328.038826
913.581243,-370.102971,1378.971896,9326.594869
913.581568,-814.226536,2987.772442,10584.944971
913.581893,296.082377,1991.848295,8216.285956
913.582218,1480.411884,995.924147,6069.688724
913.582543,3108.864956,459.657299,7550.100608
913.582867,1036.288319,2145.067394,8364.327145
913.583192,1628.453072,1915.238745,7402.059420
913.583517,1258.350101,536.266849,10288.862594
913.583842,0.000000,153.219100,10732.986159
913.584167,-888.247130,1532.190996,12287.418637
913.584492,-962.267725,536.266849,10955.047942
913.584816,74.020594,-2451.505594,8808.450710
913.585141,0.000000,-3064.381992,9474.636058
913.585466,-518.144159,-1072.533697,12435.459826
913.585791,0.000000,1532.190996,9548.656652
913.586116,-370.102971,1455.581446,9030.512492
913.586440,-1036.288319,0.000000,9696.697840
913.586765,-1036.288319,995.924147,8660.409521
913.587090,444.123565,1685.410096,8216.285956
913.587415,2294.638420,1762.019645,9252.574275
913.587740,2072.576638,1149.143247,8808.450710
913.588064,888.247130,459.657299,9326.594869
913.588389,888.247130,229.828649,8586.388927
913.588714,-592.164754,153.219100,7920.203579
913.589039,-2516.700203,-459.657299,9104.533087
913.589364,-1628.453072,0.000000,8882.471304
913.589689,-1554.432478,76.609550,9770.718434
913.590013,74.020594,0.000000,8438.347739
913.590338,1702.473667,766.095498,7254.018232
913.590663,1924.535449,459.657299,8068.244768
913.590988,1036.288319,0.000000,8956.491898
913.591313,222.061783,1378.971896,8882.471304
913.591637,-666.185348,2681.334243,11325.150913
913.591962,-666.185348,1455.581446,10881.027347
913.592287,-666.185348,-1225.752797,9770.718434
913.592612,-888.247130,-2374.896044,8290.306550
913.592937,148.041188,-919.314598,8142.265362
913.593262,-370.102971,1685.410096,11621.233289
913.593586,-370.102971,459.657299,11399.171507
913.593911,-666.185348,-536.266849,10732.986159
913.594236,-1480.411884,-1608.800546,9178.553681
913.594561,-888.247130,1302.362347,9548.656652
913.594886,-296.082377,1915.238745,9474.636058
913.595210,0.000000,1532.190996,9252.574275
913.595535,1850.514855,1378.971896,8290.306550
913.595860,1628.453072,2221.676944,8438.347739
913.596185,148.041188,1225.752797,7624.121203
913.596510,-518.144159,1455.581446,8734.430116
913.596834,-2146.597232,1149.143247,9474.636058
913.597159,-2368.659014,1302.362347,8734.430116
913.597484,-2368.659014,-612.876398,8364.327145
913.597809,-2442.679609,-689.485948,9030.512492
913.598134,740.205942,1685.410096,8216.285956
913.598459,1258.350101,2757.943793,9770.718434
913.598783,444.123565,842.705048,9030.512492
913.599108,518.144159,-229.828649,7550.100608
913.599433,1628.453072,842.705048,8956.491898
913.599758,444.123565,2681.334243,9548.656652
913.600083,-1184.329507,2528.115143,9326.594869
913.600407,-1110.308913,689.485948,9326.594869
913.600732,444.123565,-612.876398,9474.636058
913.601057,740.205942,-842.705048,10140.821405
913.601382,1036.288319,0.000000,9622.677246
913.601707,222.061783,-842.705048,11029.068536
913.602031,-518.144159,-689.485948,9844.739029
913.602356,0.000000,0.000000,9918.759623
913.602681,1184.329507,76.609550,10584.944971
913.603006,814.226536,2451.505594,11547.212695
913.603331,1702.473667,1991.848295,11177.109724
913.603656,5107.421000,1302.362347,8512.368333
913.603980,3775.050304,306.438199,8364.327145
913.604305,666.185348,76.609550,9252.574275
913.604630,518.144159,1378.971896,7920.203579
913.604955,296.082377,1149.143247,8586.388927
913.605280,-1184.329507,306.438199,10362.883188
913.605604,-2368.659014,689.485948,10955.047942
913.605929,0.000000,689.485948,8068.244768
913.606254,1628.453072,0.000000,7105.977043
913.606579,0.000000,-1532.190996,7920.203579
913.606904,-1998.556043,0.000000,8216.285956
913.607229,296.082377,1072.533697,6513.812290
913.607553,592.164754,1838.629195,8956.491898
913.607878,-1776.494261,1225.752797,9400.615463
913.608203,-2738.761985,919.314598,9992.780217
913.608528,-518.144159,-689.485948,7254.018232
913.608853,740.205942,-1762.019645,7920.203579
913.609177,0.000000,-1225.752797,10436.903782
913.609502,0.000000,1762.019645,11695.253884
913.609827,-370.102971,1915.238745,10066.800811
913.610152,-1036.288319,-842.705048,10510.924376
913.610477,-666.185348,-2911.162892,11251.130318
913.610801,-1332.370696,612.876398,11769.274478
913.611126,1480.411884,2528.115143,9992.780217
913.611451,2960.823768,766.095498,10140.821405
913.611776,2664.741391,-536.266849,9178.553681
913.612101,740.205942,1838.629195,9844.739029
913.612426,222.061783,1762.019645,8290.306550
913.612750,0.000000,1685.410096,8882.471304
913.613075,-1554.432478,306.438199,9400.615463
913.613400,-2590.720797,-383.047749,9696.697840
913.613725,-2960.823768,0.000000,8364.327145
913.614050,-2368.659014,76.609550,8364.327145
913.614374,-1406.391290,842.705048,9252.574275
913.614699,-1554.432478,612.876398,8438.347739
913.615024,-1406.391290,-1149.143247,7476.080014
913.615349,-1406.391290,0.000000,8956.491898
913.615674,-1406.391290,1302.362347,9252.574275
913.615998,-962.267725,2528.115143,9992.780217
913.616323,518.144159,1225.752797,8734.430116
913.616648,1998.556043,306.438199,6809.894666
913.616973,4737.318029,995.924147,7550.100608
913.617298,3404.947333,2374.896044,9770.718434
913.617623,1628.453072,1685.410096,10881.027347
913.617947,888.247130,0.000000,9548.656652
913.618272,1480.411884,-842.705048,10807.006753
913.618597,1036.288319,383.047749,10955.047942
913.618922,0.000000,2298.286494,11177.109724
913.619247,814.226536,842.705048,9548.656652
913.619571,2664.741391,76.609550,8734.430116
913.619896,888.247130,0.000000,8290.306550
913.620221,-740.205942,842.705048,9252.574275
913.620546,-1184.329507,2604.724693,7698.141797
913.620871,-1850.514855,2145.067394,9474.636058
913.621196,-2516.700203,-536.266849,8290.306550
913.621520,-3182.885551,-383.047749,8216.285956
913.621845,-2368.659014,-1225.752797,6587.832884
913.622170,296.082377,612.876398,9400.615463
913.622495,0.000000,2298.286494,11547.212695
913.622820,-888.247130,1915.238745,10436.903782
913.623144,-74.020594,-766.095498,7105.977043
913.623469,296.082377,-1915.238745,8438.347739
913.623794,1036.288319,2068.457845,11029.068536
913.624119,1036.288319,4979.620737,11177.109724
913.624444,1258.350101,2145.067394,10140.821405
913.624768,3552.988522,-1072.533697,8142.265362
913.625093,2812.782580,766.095498,9548.656652
913.625418,1998.556043,2987.772442,7994.224174
913.625743,1258.350101,2451.505594,8290.306550
913.626068,-370.102971,-306.438199,9474.636058
913.626392,-370.102971,-689.485948,9770.718434
913.626717,-1850.514855,229.828649,10066.800811
913.627042,-2442.679609,306.438199,9326.594869
913.627367,-592.164754,-153.219100,10436.903782
913.627691,740.205942,-1072.533697,9548.656652
913.628016,-1258.350101,-919.314598,9918.759623
913.628341,-1702.473667,-1378.971896,7772.162391
913.628666,-2294.638420,-76.609550,9474.636058
913.628991,-1258.350101,536.266849,8808.450710
913.629315,-518.144159,612.876398,9474.636058
913.629640,-1702.473667,153.219100,8512.368333
913.629965,-814.226536,0.000000,7254.018232
913.630290,888.247130,153.219100,8068.244768
913.630614,444.123565,0.000000,10510.924376
913.630939,-1480.411884,0.000000,10362.883188
913.631264,-1036.288319,-689.485948,8068.244768
913.631589,1628.453072,-919.314598,8068.244768
913.631914,740.205942,689.485948,11103.089130
913.632238,-1924.535449,2757.943793,11843.295072
913.632563,518.144159,2451.505594,9474.636058
913.632888,4145.153275,-459.657299,7031.956449
913.633213,2516.700203,-1378.971896,8290.306550
913.633538,-222.061783,1608.800546,8660.409521
913.633862,222.061783,4136.915689,9474.636058
913.634187,1110.308913,2451.505594,10362.883188
913.634512,-740.205942,-1149.143247,11103.089130
913.634837,-2664.741391,-1608.800546,10584.944971
913.635161,74.020594,0.000000,7772.162391
913.635486,3849.070898,1685.410096,9844.739029
913.635811,3256.906145,1302.362347,12657.521608
913.636136,-1036.288319,459.657299,11177.109724
913.636461,-1184.329507,-766.095498,7772.162391
913.636785,148.041188,-995.924147,7846.182985
913.637110,-666.185348,536.266849,9844.739029
913.637435,-2294.638420,2068.457845,10066.800811
913.637760,-666.185348,2374.896044,7698.141797
913.638084,1628.453072,153.219100,7550.100608
913.638409,1406.391290,0.000000,7772.162391
913.638734,0.000000,1762.019645,8660.409521
913.639059,-888.247130,2298.286494,7624.121203
913.639384,296.082377,2298.286494,8290.306550
913.639708,1184.329507,1302.362347,10066.800811
913.640033,222.061783,2451.505594,10436.903782
913.640358,962.267725,1072.533697,7994.224174
913.640683,2590.720797,459.657299,9030.512492
913.641007,3775.050304,1225.752797,9474.636058
913.641332,2664.741391,2068.457845,10510.924376
913.641657,1850.514855,842.705048,8512.368333
913.641982,962.267725,229.828649,8808.450710
913.642307,0.000000,842.705048,9474.636058
913.642631,-1332.370696,1225.752797,10881.027347
913.642956,-1480.411884,689.485948,10362.883188
913.643281,0.000000,-383.047749,9252.574275
913.643606,222.061783,-1072.533697,9326.594869
913.643930,-740.205942,-459.657299,10140.821405
913.644255,-2960.823768,0.000000,8956.491898
913.644580,-4071.132681,-612.876398,7402.059420
913.644905,-2368.659014,-612.876398,9030.512492
913.645230,-2146.597232,229.828649,9252.574275
913.645554,-3478.967927,1302.362347,9252.574275
913.645879,-1850.514855,76.609550,8068.244768
913.646204,222.061783,0.000000,8068.244768
913.646529,1702.473667,383.047749,9326.594869
913.646854,-666.185348,842.705048,9844.739029
913.647178,-1776.494261,-766.095498,8068.244768
913.647503,-666.185348,842.705048,10881.027347
913.647828,0.000000,919.314598,11917.315666
913.648153,-592.164754,689.485948,10584.944971
913.648477,0.000000,-689.485948,7476.080014
913.648802,2220.617826,306.438199,8290.306550
913.649127,3182.885551,2298.286494,8290.306550
913.649452,0.000000,1378.971896,7920.203579
913.649777,-1998.556043,0.000000,6365.771101
913.650101,-2146.597232,0.000000,8808.450710
913.650426,-814.226536,766.095498,9030.512492
913.650751,-1924.535449,1072.533697,11621.233289
913.651076,-1924.535449,-1532.190996,10436.903782
913.651400,666.185348,-2068.457845,9622.677246
913.651725,3108.864956,-1762.019645,9844.739029
913.652050,2220.617826,536.266849,11399.171507
913.652375,518.144159,1608.800546,10066.800811
913.652700,1998.556043,1378.971896,10140.821405
913.653024,3330.926739,1455.581446,10807.006753
913.653349,1332.370696,1378.971896,10955.047942
913.653674,1036.288319,1991.848295,9252.574275
913.653999,3404.947333,1762.019645,7179.997637
913.654323,3923.091493,612.876398,6735.874072
913.654648,1702.473667,0.000000,8808.450710
913.654973,-296.082377,1225.752797,8364.327145
913.655298,-444.123565,2681.334243,8808.450710
913.655623,-296.082377,1149.143247,10214.842000
913.655947,-1332.370696,383.047749,11029.068536
913.656272,-2886.803174,-306.438199,9104.533087
913.656597,0.000000,306.438199,7772.162391
913.656922,1924.535449,0.000000,5403.503377
913.657247,814.226536,2068.457845,8586.388927
913.657571,-1184.329507,2987.772442,8364.327145
913.657896,-1184.329507,2681.334243,7031.956449
913.658221,-296.082377,1762.019645,8512.368333
913.658546,-296.082377,306.438199,10807.006753
913.658870,-814.226536,1685.410096,9548.656652
913.659195,0.000000,1991.848295,8734.430116
913.659520,2146.597232,-459.657299,9992.780217
913.659845,296.082377,-1225.752797,11695.253884
913.660170,-2146.597232,229.828649,11695.253884
913.660494,-2294.638420,459.657299,9696.697840
913.660819,-2072.576638,-383.047749,9548.656652
913.661144,-2368.659014,-689.485948,11399.171507
913.661469,-3256.906145,0.000000,10732.986159
913.661793,-2368.659014,0.000000,7550.100608
913.662118,370.102971,0.000000,8290.306550
913.662443,1628.453072,1302.362347,9844.739029
913.662768,-740.205942,2451.505594,9770.718434
913.663093,-1036.288319,1072.533697,7772.162391
913.663417,-814.226536,229.828649,8216.285956
913.663742,-1998.556043,383.047749,9696.697840
913.664067,-2368.659014,1072.533697,9548.656652
913.664392,-2368.659014,0.000000,8290.306550
913.664716,-296.082377,-1072.533697,8290.306550
913.665041,1036.288319,-153.219100,9622.677246
913.665366,666.185348,-229.828649,9770.718434
913.665691,-1110.308913,76.609550,6587.832884
913.666016,-370.102971,-383.047749,7994.224174
913.666340,1702.473667,612.876398,9326.594869
913.666665,1702.473667,3217.601092,10658.965565
913.666990,1628.453072,1685.410096,9992.780217
913.667315,3552.988522,153.219100,8364.327145
913.667639,5699.585753,306.438199,9400.615463
913.667964,3775.050304,1455.581446,11621.233289
913.668289,1036.288319,1225.752797,8808.450710
913.668614,-296.082377,-1072.533697,8586.388927
913.668939,740.205942,-1915.238745,11473.192101
913.669263,-444.123565,1149.143247,13915.871710
913.669588,-1554.432478,1838.629195,10140.821405
913.669913,444.123565,-1915.238745,6217.729913
913.670238,2146.597232,-3447.429741,7105.977043
913.670563,740.205942,995.924147,10436.903782
913.670887,-592.164754,4519.963438,9030.512492
913.671212,-296.082377,3064.381992,7402.059420
913.671537,-222.061783,-612.876398,8142.265362
913.671862,370.102971,-306.438199,9770.718434
913.672186,-962.267725,3677.258390,9474.636058
913.672511,1924.535449,3217.601092,6957.935855
913.672836,2886.803174,1149.143247,9474.636058
913.673161,0.000000,0.000000,10214.842000
913.673486,-1184.329507,-229.828649,7254.018232
913.673810,-1924.535449,1072.533697,7772.162391
913.674135,-740.205942,1455.581446,9992.780217
913.674460,-1036.288319,2068.457845,11769.274478
913.674785,-1184.329507,919.314598,10510.924376
913.675109,-1110.308913,0.000000,8068.244768
913.675434,814.226536,0.000000,8216.285956
913.675759,1184.329507,1072.533697,9474.636058
913.676084,-296.082377,2374.896044,10510.924376
913.676409,-1850.514855,1378.971896,8808.450710
913.676733,-3108.864956,383.047749,10140.821405
913.677058,-518.144159,-1149.143247,8660.409521
913.677383,-3034.844362,229.828649,11473.192101
913.677708,-2368.659014,995.924147,8956.491898
913.678032,-1332.370696,1225.752797,9770.718434
913.678357,1628.453072,-1149.143247,8734.430116
913.678682,296.082377,-383.047749,9400.615463
913.679007,-518.144159,229.828649,7920.203579
913.679332,-592.164754,1608.800546,7105.977043
913.679656,962.267725,2221.676944,7179.997637
913.679981,1332.370696,1762.019645,11103.089130
913.680306,-444.123565,995.924147,9030.512492
913.680631,74.020594,383.047749,5995.668130
913.680956,1628.453072,-689.485948,8734.430116
913.681280,1406.391290,-1915.238745,10584.944971
913.681605,-2220.617826,1072.533697,9696.697840
913.681930,-1850.514855,0.000000,7476.080014
913.682255,-1110.308913,-229.828649,9918.759623
913.682579,-1332.370696,-459.657299,11251.130318
913.682904,-888.247130,1455.581446,9474.636058
913.683229,666.185348,842.705048,8142.265362
913.683554,2590.720797,-1072.533697,8142.265362
913.683879,3034.844362,919.314598,10807.006753
913.684203,2146.597232,1072.533697,10288.862594
913.684528,-222.061783,2298.286494,7920.203579
913.684853,-1110.308913,-229.828649,10732.986159
913.685178,0.000000,-1302.362347,11991.336260
913.685502,296.082377,536.266849,11991.336260
913.685827,1850.514855,229.828649,10436.903782
913.686152,1628.453072,306.438199,10066.800811
913.686477,2146.597232,-1149.143247,8660.409521
913.686802,888.247130,1608.800546,8956.491898
913.687126,370.102971,1915.238745,7772.162391
913.687451,740.205942,2451.505594,7846.182985
913.687776,1036.288319,2681.334243,9400.615463
913.688101,222.061783,2145.067394,9400.615463
913.688425,-444.123565,1378.971896,8068.244768
913.688750,518.144159,153.219100,6883.915261
913.689075,444.123565,919.314598,8142.265362
913.689400,-592.164754,0.000000,8660.409521
913.689725,-2960.823768,-153.219100,8512.368333
913.690049,-2886.803174,612.876398,9474.636058
913.690374,-1998.556043,1455.581446,10362.883188
913.690699,-2442.679609,1072.533697,10658.965565
913.691024,-1406.391290,-1149.143247,8734.430116
913.691348,740.205942,0.000000,7254.018232
913.691673,3256.906145,1685.410096,8364.327145
913.691998,2220.617826,3217.601092,10732.986159
913.692323,-666.185348,2145.067394,10362.883188
913.692648,-1332.370696,306.438199,9326.594869
913.692972,74.020594,229.828649,10732.986159
913.693297,-1110.308913,1072.533697,11843.295072
913.693622,-1184.329507,1072.533697,9696.697840
913.693947,-592.164754,-383.047749,7624.121203
913.694272,1480.411884,-1532.190996,7698.141797
913.694596,0.000000,-229.828649,10066.800811
913.694921,-2294.638420,1762.019645,10140.821405
913.695246,-2590.720797,2987.772442,8660.409521
913.695571,-1110.308913,383.047749,8438.347739
913.695895,-1332.370696,0.000000,9252.574275
913.696220,-2146.597232,306.438199,7476.080014
913.696545,0.000000,689.485948,5995.668130
913.696870,1036.288319,0.000000,8956.491898
913.697195,518.144159,-612.876398,11251.130318
913.697519,-1406.391290,459.657299,11991.336260
913.697844,-1258.350101,612.876398,9918.759623
913.698169,0.000000,-2451.505594,8734.430116
913.698494,296.082377,-3217.601092,9622.677246
913.698818,74.020594,-689.485948,10362.883188
913.699143,2294.638420,2757.943793,9400.615463
913.699468,2960.823768,2374.896044,9252.574275
913.699793,2442.679609,-229.828649,8808.450710
913.700118,1924.535449,-1302.362347,9400.615463
913.700442,666.185348,612.876398,8882.471304
913.700767,148.041188,1378.971896,8142.265362
913.701092,-518.144159,0.000000,10807.006753
913.701417,-740.205942,-1072.533697,11843.295072
913.701741,-518.144159,0.000000,8660.409521
913.702066,888.247130,76.609550,7994.224174
913.702391,666.185348,1225.752797,9548.656652
913.702716,370.102971,1532.190996,10140.821405
913.703041,-592.164754,995.924147,7920.203579
913.703365,-1258.350101,153.219100,7328.038826
913.703690,-518.144159,536.266849,8586.388927
913.704015,74.020594,2374.896044,9992.780217
913.704340,2146.597232,2451.505594,9030.512492
913.704664,1628.453072,1378.971896,9696.697840
913.704989,1776.494261,-306.438199,8808.450710
913.705314,1480.411884,919.314598,9252.574275
913.705639,148.041188,-612.876398,8216.285956
913.705964,-2146.597232,76.609550,8956.491898
913.706288,-1998.556043,919.314598,9400.615463
913.706613,-1850.514855,2298.286494,11547.212695
913.706938,-1036.288319,919.314598,9844.739029
913.707263,0.000000,-612.876398,8512.368333
913.707588,592.164754,-995.924147,6439.791695
913.707912,1184.329507,153.219100,7920.203579
913.708237,296.082377,2451.505594,11029.068536
913.708562,444.123565,3907.087040,10362.883188
913.708887,370.102971,2298.286494,9326.594869
913.709211,888.247130,-1455.581446,8660.409521
913.709536,-1924.535449,-536.266849,10658.965565
913.709861,296.082377,1838.629195,9918.759623
913.710186,2812.782580,2451.505594,9622.677246
913.710511,3256.906145,-1225.752797,9992.780217
913.710835,-444.123565,-1455.581446,10732.986159
913.711160,-1924.535449,1302.362347,8364.327145
913.711485,-888.247130,2528.115143,8956.491898
913.711810,-222.061783,1455.581446,10955.047942
913.712134,-1480.411884,-766.095498,11769.274478
913.712459,-1110.308913,0.000000,7994.224174
913.712784,1036.288319,919.314598,6809.894666
913.713109,370.102971,0.000000,7476.080014
913.713434,-2146.597232,-306.438199,7846.182985
913.713758,-2738.761985,229.828649,7402.059420
913.714083,-2590.720797,1455.581446,8512.368333
913.714408,-2368.659014,459.657299,9548.656652
913.714733,-3256.906145,-1149.143247,9030.512492
913.715057,-2294.638420,-2451.505594,8586.388927
913.715382,0.000000,-689.485948,9400.615463
913.715707,2590.720797,1302.362347,10214.842000
913.716032,2072.576638,995.924147,11843.295072
913.716357,1776.494261,-1608.800546,9474.636058
913.716681,370.102971,-306.438199,9030.512492
913.717006,888.247130,1225.752797,10510.924376
913.717331,1850.514855,1532.190996,11103.089130
913.717656,2220.617826,1455.581446,11843.295072
913.717981,3849.070898,383.047749,9622.677246
913.718305,3849.070898,306.438199,7179.997637
913.718630,1850.514855,0.000000,7846.182985
913.718955,370.102971,842.705048,7105.977043
913.719280,-592.164754,2145.067394,8956.491898
913.719604,0.000000,536.266849,9252.574275
913.719929,-1406.391290,766.095498,11991.336260
913.720254,-1998.556043,-689.485948,10881.027347
913.720579,-1184.329507,-1608.800546,7254.018232
913.720904,296.082377,-2451.505594,5847.626942
913.721228,-518.144159,-1225.752797,10066.800811
913.721553,-666.185348,1378.971896,9622.677246
913.721878,-518.144159,2068.457845,8438.347739
913.722203,-740.205942,229.828649,7994.224174
913.722527,-740.205942,76.609550,10214.842000
913.722852,296.082377,2451.505594,9104.533087
913.723177,4367.215058,2757.943793,7328.038826
913.723502,4589.276840,1532.190996,10510.924376
913.723827,3478.967927,1302.362347,10732.986159
913.724151,814.226536,2528.115143,9844.739029
913.724476,666.185348,842.705048,7994.224174
913.724801,-666.185348,-536.266849,8512.368333
913.725126,-962.267725,-919.314598,10732.986159
913.725450,-740.205942,1915.238745,11769.274478
913.725775,222.061783,2298.286494,9992.780217
913.726100,-1036.288319,-536.266849,8882.471304
913.726425,-1998.556043,-3524.039291,7402.059420
913.726749,-1998.556043,-1608.800546,7402.059420
913.727074,-2812.782580,1838.629195,8660.409521
913.727399,-2146.597232,3294.210641,10658.965565
913.727724,-1850.514855,1762.019645,10288.862594
913.728048,-2220.617826,536.266849,9844.739029
913.728373,-2072.576638,-1608.800546,7846.182985
913.728698,-888.247130,536.266849,7402.059420
913.729023,222.061783,1302.362347,8956.491898
913.729347,148.041188,612.876398,11103.089130
913.729672,-1776.494261,0.000000,9844.739029
913.729997,-3034.844362,-229.828649,7476.080014
913.730322,-1110.308913,76.609550,8142.265362
913.730646,-1110.308913,842.705048,10140.821405
913.730971,-888.247130,1302.362347,10140.821405
913.731296,2368.659014,1685.410096,9178.553681
913.731621,3701.029710,995.924147,7920.203579
913.731945,1924.535449,766.095498,9104.533087
913.732270,74.020594,1072.533697,8364.327145
913.732595,-888.247130,1915.238745,7105.977043
913.732920,-444.123565,536.266849,9030.512492
913.733244,-518.144159,306.438199,12583.501014
913.733569,-222.061783,229.828649,11029.068536
913.733894,222.061783,-229.828649,8216.285956
913.734219,1850.514855,-2528.115143,6883.915261
913.734543,1184.329507,-1072.533697,10214.842000
913.734868,-222.061783,1149.143247,10288.862594
913.735193,1850.514855,1149.143247,7994.224174
913.735518,3552.988522,1302.362347,10288.862594
913.735842,2812.782580,1225.752797,11473.192101
913.736167,1110.308913,2451.505594,11695.253884
913.736492,3849.070898,1378.971896,8364.327145
913.736817,4293.194464,-689.485948,8734.430116
913.737141,2442.679609,-2221.676944,10732.986159
913.737466,296.082377,0.000000,9622.677246
913.737791,-518.144159,2528.115143,9474.636058
913.738116,-296.082377,1455.581446,10658.965565
913.738440,-3108.864956,-229.828649,9474.636058
913.738765,-3108.864956,-1685.410096,8364.327145
913.739090,-518.144159,-536.266849,7328.038826
913.739415,740.205942,2681.334243,7328.038826
913.739739,-1184.329507,2528.115143,9030.512492
913.740064,-740.205942,919.314598,7920.203579
913.740389,-1406.391290,459.657299,7624.121203
913.740714,-2294.638420,1608.800546,8660.409521
913.741038,-2146.597232,2145.067394,9326.594869
913.741363,-1776.494261,766.095498,10288.862594
913.741688,0.000000,-536.266849,8512.368333
913.742012,222.061783,-229.828649,7846.182985
913.742337,-740.205942,383.047749,8808.450710
913.742662,-962.267725,536.266849,10658.965565
913.742987,-1036.288319,689.485948,11251.130318
913.743311,-2220.617826,689.485948,10214.842000
913.743636,-2146.597232,306.438199,9474.636058
913.743961,-1480.411884,153.219100,10510.924376
913.744286,0.000000,919.314598,8586.388927
913.744610,148.041188,612.876398,9548.656652
913.744935,-148.041188,76.609550,9030.512492
913.745260,-1184.329507,1225.752797,9474.636058
913.745585,-1258.350101,0.000000,8438.347739
913.745909,-2146.597232,-459.657299,8438.347739
913.746234,-2368.659014,-306.438199,9326.594869
913.746559,-1776.494261,1149.143247,11177.109724
913.746884,148.041188,536.266849,9844.739029
913.747208,2294.638420,0.000000,8586.388927
913.747533,2812.782580,76.609550,7550.100608
913.747858,2072.576638,1072.533697,9252.574275
913.748183,2294.638420,2834.553343,9474.636058
913.748507,2812.782580,3217.601092,9474.636058
913.748832,2442.679609,1685.410096,9178.553681
913.749157,1184.329507,229.828649,9252.574275
913.749482,2072.576638,536.266849,8438.347739
913.749806,3330.926739,1991.848295,9474.636058
913.750131,3182.885551,1225.752797,8364.327145
913.750456,1702.473667,-995.924147,8586.388927
913.750781,814.226536,-1608.800546,8512.368333
913.751105,-296.082377,612.876398,9326.594869
913.751430,-888.247130,1608.800546,10362.883188
913.751755,-1628.453072,383.047749,10658.965565
913.752080,-1184.329507,-2451.505594,9622.677246
913.752404,148.041188,-1762.019645,9400.615463
913.752729,740.205942,383.047749,9548.656652
913.753054,74.020594,1302.362347,10732.986159
913.753379,-888.247130,0.000000,8734.430116
913.753703,-518.144159,-1991.848295,7179.997637
913.754028,296.082377,-1915.238745,7624.121203
913.754353,-370.102971,2757.943793,11473.192101
913.754678,-370.102971,3983.696590,11695.253884
913.755002,444.123565,0.000000,8586.388927
913.755327,370.102971,-4596.572988,7254.018232
913.755652,-1406.391290,-2834.553343,9918.759623
913.755977,148.041188,2987.772442,10584.944971
913.756301,-1036.288319,4673.182538,11325.150913
913.756626,-2220.617826,-1149.143247,10066.800811
913.756951,-3701.029710,-3064.381992,9844.739029
913.757276,-3997.112087,919.314598,9326.594869
913.757600,-1258.350101,2604.724693,7402.059420
913.757925,814.226536,1991.848295,8364.327145
913.758250,740.205942,1378.971896,8808.450710
913.758575,148.041188,3524.039291,6957.935855
913.758899,814.226536,2834.553343,4293.194464
913.759224,296.082377,1608.800546,6439.791695
913.759549,296.082377,3064.381992,10214.842000
913.759874,1110.308913,4596.572988,11029.068536
913.760198,4145.153275,4213.525239,10732.986159
913.760523,3997.112087,229.828649,10807.006753
913.760848,296.082377,-2374.896044,8956.491898
913.761173,0.000000,-1608.800546,8216.285956
913.761497,1258.350101,-612.876398,10066.800811
913.761822,-962.267725,2221.676944,11843.295072
913.762147,-1036.288319,919.314598,9474.636058
913.762472,-74.020594,-1685.410096,7846.182985
913.762796,-2368.659014,-2298.286494,9696.697840
913.763121,-1850.514855,306.438199,8882.471304
913.763446,-370.102971,2145.067394,9178.553681
913.763771,1406.391290,-1915.238745,7920.203579
913.764095,-370.102971,-3524.039291,8290.306550
913.764420,-1406.391290,-2451.505594,9104.533087
913.764745,-518.144159,1991.848295,9474.636058
913.765069,2516.700203,1838.629195,9844.739029
913.765394,3330.926739,-2221.676944,10955.047942
913.765719,4367.215058,-2374.896044,8586.388927
913.766044,5477.523971,0.000000,7994.224174
913.766368,6143.709319,1302.362347,8142.265362
913.766693,6069.688724,-1149.143247,7402.059420
913.767018,4737.318029,-3140.991542,7105.977043
913.767343,4737.318029,-1608.800546,8142.265362
913.767667,4885.359217,612.876398,10584.944971
913.767992,3182.885551,-1072.533697,12805.562797
913.768317,2664.741391,-4903.011187,11029.068536
913.768642,2960.823768,-6052.154434,11103.089130
913.768966,3849.070898,-3753.867940,9770.718434
913.769291,4071.132681,-1455.581446,9918.759623
913.769616,3775.050304,-2528.115143,10362.883188
913.769941,222.061783,-4749.792088,8882.471304
913.770265,-1184.329507,-4519.963438,8586.388927
913.770590,-592.164754,-3064.381992,9030.512492
913.770915,-962.267725,-2145.067394,10584.944971
913.771240,-666.185348,-4366.744339,11991.336260
913.771564,-2886.803174,-5209.449386,12509.480420
913.771889,-2368.659014,-5515.887586,9770.718434
913.772214,1332.370696,-5286.058936,8364.327145
913.772539,3256.906145,-3370.820191,8142.265362
913.772863,4145.153275,-689.485948,9030.512492
913.773188,3256.906145,2145.067394,8512.368333
913.773513,4145.153275,842.705048,10214.842000
913.773838,3997.112087,-612.876398,9696.697840
913.774162,2294.638420,-2987.772442,7994.224174
913.774487,1628.453072,-995.924147,7698.141797
913.774812,3182.885551,0.000000,9104.533087
913.775137,3923.091493,2068.457845,9770.718434
913.775461,4219.173869,766.095498,6957.935855
913.775786,4589.276840,-1838.629195,5033.400406
913.776111,4145.153275,0.000000,5625.565159
913.776436,2812.782580,3217.601092,8882.471304
913.776760,1110.308913,3370.820191,10436.903782
913.777085,-1702.473667,-2374.896044,10362.883188
913.777410,-3034.844362,-7124.688131,10955.047942
913.777735,-3034.844362,-5592.497135,11621.233289
913.778059,-2368.659014,-1302.362347,11843.295072
913.778384,148.041188,459.657299,11103.089130
913.778709,2516.700203,-1378.971896,9770.718434
913.779034,4885.359217,-1838.629195,8956.491898
913.779358,6735.874072,2374.896044,6069.688724
913.779683,6217.729913,4136.915689,8068.244768
913.780008,4589.276840,2528.115143,8290.306550
913.780333,4293.194464,-1532.190996,8512.368333
913.780657,1184.329507,-2374.896044,11917.315666
913.780982,-740.205942,-2145.067394,13841.851115
913.781307,-1258.350101,-1608.800546,13101.645173
913.781632,-1776.494261,-3064.381992,12065.356855
913.781956,-1406.391290,-4903.011187,10732.986159
913.782281,-888.247130,-2221.676944,7698.141797
913.782606,1406.391290,2298.286494,5255.462188
913.782931,5107.421000,3983.696590,3701.029710
913.783255,5847.626942,3370.820191,3034.844362
913.783580,5773.606348,2757.943793,3256.906145
913.783905,5995.668130,2604.724693,4589.276840
913.784230,4737.318029,2221.676944,7772.162391
913.784554,3108.864956,-919.314598,11991.336260
913.784879,1628.453072,-4366.744339,14211.954086
913.785204,0.000000,-5209.449386,14434.015869
913.785529,-296.082377,-4673.182538,15470.304188
913.785853,296.082377,-3140.991542,14508.036463
913.786178,-444.123565,-2757.943793,11473.192101
913.786503,1110.308913,-2145.067394,9030.512492
913.786828,2516.700203,0.000000,7105.977043
913.787152,3034.844362,229.828649,3478.967927
913.787477,2738.761985,-689.485948,2960.823768
913.787802,1628.453072,-2681.334243,4811.338623
913.788126,0.000000,-2987.772442,6957.935855
913.788451,-814.226536,-3907.087040,10362.883188
913.788776,-1924.535449,-6588.421283,13323.706956
913.789101,-3775.050304,-7737.564530,15470.304188
913.789425,-2368.659014,-7201.297681,16358.551318
913.789750,74.020594,-4903.011187,15174.221811
913.790075,2368.659014,-2374.896044,12805.562797
913.790400,3997.112087,536.266849,10584.944971
913.790724,7105.977043,2451.505594,7031.956449
913.791049,8660.409521,4826.401637,3775.050304
913.791374,10066.800811,4749.792088,2516.700203
913.791699,9474.636058,2757.943793,1406.391290
913.792023,9622.677246,1225.752797,888.247130
913.792348,9252.574275,76.609550,3775.050304
913.792673,6809.894666,-2834.553343,8660.409521
913.792998,1480.411884,-6511.811733,11399.171507
913.793322,-1924.535449,-10955.165621,13619.789333
913.793647,-2886.803174,-13023.623466,16062.468941
913.793972,-4293.194464,-11108.384721,18949.272115
913.794297,-5921.647536,-7660.954980,19911.539840
913.794621,-4811.338623,-4903.011187,16876.695478
913.794946,-2442.679609,-2987.772442,13915.871710
913.795271,74.020594,-306.438199,9474.636058
913.795596,2442.679609,5592.497135,4737.318029
913.795920,4885.359217,9576.193725,888.247130
913.796245,6809.894666,8427.050478,-222.061783
913.796570,6439.791695,4903.011187,1110.308913
913.796895,3478.967927,3447.429741,2220.617826
913.797219,2072.576638,-766.095498,3997.112087
913.797544,888.247130,-5515.887586,7920.203579
913.797869,-370.102971,-9806.022374,12435.459826
913.798194,-888.247130,-10265.679673,16136.489536
913.798518,518.144159,-10112.460574,16506.592507
913.798843,2368.659014,-9039.926876,16210.510130
913.799168,5107.421000,-5515.887586,14211.954086
913.799493,8512.368333,1149.143247,12435.459826
913.799817,9474.636058,8733.488677,9326.594869
913.800142,10584.944971,10265.679673,6291.750507
913.800467,8882.471304,9039.926876,5033.400406
913.800792,4959.379811,7967.393179,4441.235652
913.801116,444.123565,9806.022374,5033.400406
913.801441,-2516.700203,8503.660028,4811.338623
913.801766,-6883.915261,1378.971896,6883.915261
913.802091,-11769.274478,-6971.469032,7402.059420
913.802415,-14434.015869,-10342.289223,8512.368333
913.802740,-12805.562797,-10495.508323,9844.739029
913.803065,-9178.553681,-10035.851024,11251.130318
913.803390,-6735.874072,-10112.460574,12583.501014
913.803714,-2664.741391,-9116.536426,13027.624579
913.804039,2368.659014,-4596.572988,12435.459826
913.804364,9696.697840,-612.876398,12065.356855
913.804689,14211.954086,3677.258390,10955.047942
913.805013,16432.571912,6665.030833,8808.450710
913.805338,16802.674883,8656.879127,5921.647536
913.805663,17616.901420,7967.393179,6217.729913
913.805988,15618.345376,7048.078582,7328.038826
913.806312,11103.089130,6052.154434,7254.018232
913.806637,7550.100608,4213.525239,6513.812290
913.806962,2812.782580,-306.438199,6365.771101
913.807287,-1924.535449,-6358.592633,7031.956449
913.807611,-5403.503377,-11184.994271,8660.409521
913.807936,-7920.203579,-13253.452115,9770.718434
913.808261,-7920.203579,-12487.356617,10214.842000
913.808586,-6291.750507,-11031.775171,11843.295072
913.808910,-3552.988522,-9193.145976,13397.727550
913.809235,-1776.494261,-6665.030833,13545.768739
913.809560,1480.411884,-4826.401637,13989.892304
913.809885,3701.029710,-2528.115143,13841.851115
913.810209,4811.338623,842.705048,13693.809927
913.810534,5477.523971,2987.772442,11103.089130
913.810859,6365.771101,3217.601092,8956.491898
913.811183,4737.318029,3217.601092,9252.574275
913.811508,3108.864956,3677.258390,10955.047942
913.811833,1110.308913,3830.477490,8734.430116
913.812158,-1184.329507,536.266849,5329.482782
913.812482,-3034.844362,-3907.087040,4293.194464
913.812807,-3923.091493,-4519.963438,5033.400406
913.813132,-4145.153275,-1915.238745,4959.379811
913.813457,-3108.864956,-2451.505594,5329.482782
913.813781,-2812.782580,-4290.134789,6587.832884
913.814106,-1776.494261,-3140.991542,7476.080014
913.814431,814.226536,-842.705048,7920.203579
913.814756,3627.009116,766.095498,8512.368333
913.815080,3997.112087,1149.143247,10140.821405
913.815405,4219.173869,1838.629195,10955.047942
913.815730,7994.224174,3140.991542,11325.150913
913.816055,9104.533087,2834.553343,10140.821405
913.816379,6291.750507,2987.772442,9400.615463
913.816704,5033.400406,1762.019645,8438.347739
913.817029,5181.441594,689.485948,9696.697840
913.817354,3849.070898,0.000000,10955.047942
913.817678,1110.308913,-2604.724693,11399.171507
913.818003,-1480.411884,-5898.935335,11029.068536
913.818328,-1924.535449,-7124.688131,11843.295072
913.818653,-592.164754,-6281.983084,12287.418637
913.818977,518.144159,-4673.182538,12065.356855
913.819302,1184.329507,-3370.820191,10362.883188
913.819627,592.164754,-2068.457845,10214.842000
913.819952,2812.782580,76.609550,9918.759623
913.820276,6217.729913,3447.429741,8586.388927
913.820601,5625.565159,3370.820191,6809.894666
913.820926,4441.235652,2987.772442,6661.853478
913.821251,5329.482782,3753.867940,7846.182985
913.821575,6069.688724,4519.963438,7846.182985
913.821900,5477.523971,2528.115143,6661.853478
913.822225,2738.761985,-995.924147,6439.791695
913.822550,0.000000,-1225.752797,7105.977043
913.822874,1480.411884,76.609550,8660.409521
913.823199,1776.494261,-459.657299,9918.759623
913.823524,-2072.576638,-3294.210641,10288.862594
913.823849,-3923.091493,-5209.449386,9992.780217
913.824173,-1702.473667,-3217.601092,10362.883188
913.824498,-370.102971,-1378.971896,11103.089130
913.824823,-1776.494261,-1455.581446,9622.677246
913.825148,-2664.741391,-2604.724693,8290.306550
913.825472,-1554.432478,-2068.457845,7624.121203
913.825797,74.020594,-306.438199,8808.450710
913.826122,-1184.329507,-306.438199,9104.533087
913.826447,-2294.638420,-2298.286494,7550.100608
913.826771,-1406.391290,-3830.477490,8142.265362
913.827096,592.164754,-3830.477490,9992.780217
913.827421,1702.473667,-3140.991542,11547.212695
913.827746,2072.576638,-3447.429741,11325.150913
913.828070,3034.844362,-4979.620737,9992.780217
913.828395,5625.565159,-4826.401637,9992.780217
913.828720,8142.265362,-2451.505594,10362.883188
913.829045,8438.347739,153.219100,9474.636058
913.829369,8882.471304,-459.657299,7920.203579
913.829694,9696.697840,-2145.067394,6957.935855
913.830019,10140.821405,-1838.629195,7254.018232
913.830344,9030.512492,-766.095498,7476.080014
913.830669,7402.059420,-842.705048,7698.141797
913.830994,5847.626942,-2911.162892,8660.409521
913.831319,4737.318029,-4673.182538,9622.677246
913.831644,3478.967927,-4979.620737,10066.800811
913.831969,1924.535449,-5975.544884,10140.821405
913.832294,888.247130,-6128.763984,10140.821405
913.832619,740.205942,-6741.640382,11473.192101
913.832943,296.082377,-5669.106685,12139.377449
913.833268,-740.205942,-4826.401637,11843.295072
913.833593,-1110.308913,-3677.258390,11695.253884
913.833918,-1406.391290,-3753.867940,11843.295072
913.834243,-1332.370696,-2451.505594,11695.253884
913.834568,-1258.350101,-1225.752797,11177.109724
913.834893,-1332.370696,76.609550,9918.759623
913.835218,-518.144159,689.485948,8734.430116
913.835543,518.144159,1532.190996,8586.388927
913.835868,962.267725,2451.505594,7254.018232
913.836193,888.247130,4060.306139,6513.812290
913.836517,1036.288319,3217.601092,5625.565159
913.836842,592.164754,1838.629195,5921.647536
913.837167,0.000000,842.705048,7105.977043
913.837492,0.000000,842.705048,7624.121203
913.837817,0.000000,536.266849,7994.224174
913.838142,-370.102971,0.000000,8882.471304
913.838467,-1628.453072,-153.219100,8808.450710
913.838792,0.000000,766.095498,8216.285956
913.839117,592.164754,1532.190996,9178.553681
913.839442,814.226536,1685.410096,8808.450710
913.839767,1702.473667,1991.848295,7772.162391
913.840092,3552.988522,2374.896044,7105.977043
913.840416,4293.194464,2451.505594,7254.018232
913.840741,4737.318029,1532.190996,7328.038826
913.841066,4219.173869,-536.266849,7550.100608
913.841391,4663.297435,-2451.505594,8586.388927
913.841716,4441.235652,-3907.087040,10584.944971
913.842041,2886.803174,-4903.011187,12583.501014
913.842366,1850.514855,-5439.278036,14804.118840
913.842691,1406.391290,-5439.278036,15470.304188
913.843016,2516.700203,-4903.011187,15766.386565
913.843341,3330.926739,-3983.696590,14359.995275
913.843666,4145.153275,-1608.800546,12065.356855
913.843990,5107.421000,1378.971896,9844.739029
913.844315,7254.018232,3217.601092,7105.977043
913.844640,7550.100608,3907.087040,4959.379811
913.844965,6291.750507,3677.258390,2960.823768
913.845290,4885.359217,2451.505594,2072.576638
913.845615,4145.153275,766.095498,3404.947333
913.845940,3478.967927,-1378.971896,5107.421000
913.846265,1702.473667,-4519.963438,7105.977043
913.846590,1110.308913,-7660.954980,7846.182985
913.846915,2442.679609,-9959.241474,8956.491898
913.847240,3552.988522,-10418.898773,10584.944971
913.847564,4145.153275,-8044.002729,12139.377449
913.847889,3701.029710,-6281.983084,14211.954086
913.848214,2812.782580,-5132.839837,14582.057057
913.848539,2960.823768,-5209.449386,14582.057057
913.848864,2442.679609,-4749.792088,14952.160028
913.849189,0.000000,-2528.115143,13915.871710
913.849514,-1850.514855,-1149.143247,11843.295072
913.849839,-1850.514855,-842.705048,9992.780217
913.850164,-3330.926739,-1378.971896,9474.636058
913.850489,-5773.606348,-1225.752797,7698.141797
913.850814,-7846.182985,-995.924147,7105.977043
913.851138,-7105.977043,-2528.115143,5107.421000
913.851463,-5403.503377,-4366.744339,4811.338623
913.851788,-3330.926739,-5592.497135,5699.585753
913.852113,-1628.453072,-4519.963438,5995.668130
913.852438,3256.906145,-4136.915689,6513.812290
913.852763,6809.894666,-4366.744339,9178.553681
913.853088,7402.059420,-3600.648841,11621.233289
913.853413,7624.121203,153.219100,12509.480420
913.853738,9696.697840,2834.553343,13027.624579
913.854063,11399.171507,3370.820191,13693.809927
913.854388,10510.924376,3677.258390,10955.047942
913.854712,7772.162391,5898.935335,7550.100608
913.855037,5403.503377,8656.879127,7105.977043
913.855362,3997.112087,8044.002729,7179.997637
913.855687,0.000000,6588.421283,6661.853478
913.856012,-2960.823768,3447.429741,3478.967927
913.856337,-4737.318029,-229.828649,2072.576638
913.856662,-4811.338623,-3217.601092,1998.556043
913.856987,-3701.029710,-5515.887586,4737.318029
913.857312,-3404.947333,-7048.078582,7846.182985
913.857637,-3108.864956,-8197.221829,13175.665768
913.857962,-1924.535449,-9039.926876,16358.551318
913.858287,2072.576638,-9499.584175,18135.045579
913.858611,5773.606348,-6971.469032,18431.127956
913.858936,8734.430116,-2374.896044,19911.539840
913.859261,10732.986159,3447.429741,17764.942608
913.859586,13027.624579,7507.735880,13101.645173
913.859911,15766.386565,9499.584175,7624.121203
913.860236,14878.139434,10418.898773,3478.967927
913.860561,12139.377449,10495.508323,-518.144159
913.860886,9104.533087,8350.440928,-1184.329507
913.861211,4367.215058,5132.839837,1036.288319
913.861536,-3256.906145,842.705048,1998.556043
913.861861,-8882.471304,-6128.763984,3849.070898
913.862185,-11695.253884,-12334.137518,6661.853478
913.862510,-14804.118840,-14785.643111,11473.192101
913.862835,-14952.160028,-14249.376263,15174.221811
913.863160,-11251.130318,-13176.842566,16802.674883
913.863485,-5995.668130,-11108.384721,16210.510130
913.863810,1036.288319,-6818.249932,14508.036463
913.864135,7772.162391,995.924147,11991.336260
913.864460,14137.933492,7354.516781,8882.471304
913.864785,14952.160028,9193.145976,6291.750507
913.865110,11621.233289,6511.811733,7698.141797
913.865435,9918.759623,4749.792088,7402.059420
913.865759,7994.224174,5132.839837,9030.512492
913.866084,2072.576638,2451.505594,9400.615463
913.866409,-6365.771101,-6281.983084,9770.718434
913.866734,-9474.636058,-12947.013916,9770.718434
913.867059,-10066.800811,-12793.794817,11621.233289
913.867384,-8660.409521,-10112.460574,10658.965565
913.867709,-7846.182985,-9576.193725,8364.327145
913.868034,-6365.771101,-9499.584175,5995.668130
913.868359,-1406.391290,-4903.011187,6735.874072
913.868684,4885.359217,229.828649,8882.471304
913.869009,6661.853478,2604.724693,10807.006753
913.869333,7550.100608,2911.162892,8438.347739
913.869658,11991.336260,3524.039291,7624.121203
913.869983,15692.365970,6281.983084,8734.430116
913.870308,14582.057057,7354.516781,9844.739029
913.870633,12657.521608,4213.525239,8586.388927
913.870958,9770.718434,1302.362347,8290.306550
913.871283,7105.977043,153.219100,9030.512492
913.871608,3478.967927,0.000000,11621.233289
913.871933,222.061783,-2834.553343,12065.356855
913.872258,-3108.864956,-7124.688131,11621.233289
913.872583,-3701.029710,-10112.460574,11843.295072
913.872908,-2960.823768,-8273.831378,12361.439231
913.873232,-1332.370696,-3907.087040,9030.512492
913.873557,-814.226536,-995.924147,7105.977043
913.873882,740.205942,383.047749,8512.368333
913.874207,2368.659014,2298.286494,7031.956449
913.874532,3552.988522,4443.353888,7105.977043
913.874857,3330.926739,4290.134789,7402.059420
913.875182,1776.494261,6052.154434,10732.986159
913.875507,2072.576638,6588.421283,11621.233289
913.875832,2368.659014,4136.915689,9918.759623
913.876157,2590.720797,-2221.676944,8364.327145
913.876482,-296.082377,-2757.943793,7476.080014
913.876806,-1184.329507,689.485948,8586.388927
913.877131,370.102971,2221.676944,7920.203579
913.877456,-222.061783,536.266849,7254.018232
913.877781,-3404.947333,-3294.210641,6957.935855
913.878106,-3552.988522,-995.924147,7920.203579
913.878431,-2368.659014,689.485948,7254.018232
913.878756,-444.123565,306.438199,9474.636058
913.879081,-592.164754,-1072.533697,10362.883188
913.879406,-4071.132681,153.219100,10807.006753
913.879731,-4441.235652,2451.505594,10214.842000
913.880056,-1258.350101,1915.238745,11547.212695
913.880380,-2146.597232,2681.334243,12065.356855
913.880705,-3849.070898,2298.286494,10510.924376
913.881030,-2368.659014,2757.943793,9770.718434
913.881355,74.020594,2145.067394,9400.615463
913.881680,0.000000,1149.143247,8512.368333
913.882005,-1184.329507,-1225.752797,6587.832884
913.882330,-2146.597232,-2068.457845,4811.338623
913.882655,-2072.576638,-3294.210641,5847.626942
913.882980,-1850.514855,-2298.286494,9400.615463
913.883305,-1480.411884,-2298.286494,11621.233289
913.883630,-2220.617826,-3447.429741,11621.233289
913.883954,-222.061783,-5286.058936,8660.409521
913.884279,4071.132681,-2987.772442,11621.233289
913.884604,6883.915261,1838.629195,14211.954086
913.884929,5477.523971,4749.792088,12805.562797
913.885254,5921.647536,2451.505594,8438.347739
913.885579,7328.038826,1762.019645,8438.347739
913.885904,6365.771101,4060.306139,8068.244768
913.886229,5181.441594,5898.935335,8068.244768
913.886554,3552.988522,3983.696590,6883.915261
913.886879,2072.576638,536.266849,7105.977043
913.887204,962.267725,-2451.505594,8290.306550
913.887528,222.061783,-4213.525239,7550.100608
913.887853,-3330.926739,-5286.058936,7846.182985
913.888178,-4737.318029,-4443.353888,10584.944971
913.888503,-3108.864956,-3140.991542,14211.954086
913.888828,-1184.329507,-3294.210641,13619.789333
913.889153,1184.329507,-4519.963438,10881.027347
913.889478,1776.494261,-1762.019645,10288.862594
913.889803,3849.070898,2987.772442,11251.130318
913.890128,5255.462188,5975.544884,10807.006753
913.890453,5033.400406,4290.134789,8660.409521
913.890778,2516.700203,3983.696590,6439.791695
913.891103,296.082377,5132.839837,6735.874072
913.891427,-666.185348,5669.106685,7920.203579
913.891752,-1850.514855,4060.306139,7846.182985
913.892077,-3923.091493,-229.828649,7994.224174
913.892402,-5551.544565,-2221.676944,7624.121203
913.892727,-5403.503377,-2911.162892,7476.080014
913.893052,-6217.729913,-1532.190996,9326.594869
913.893377,-6957.935855,-1838.629195,9696.697840
913.893702,-7920.203579,-1378.971896,10955.047942
913.894027,-5329.482782,-1838.629195,9992.780217
913.894352,-814.226536,-1378.971896,9918.759623
913.894677,1480.411884,3370.820191,9696.697840
913.895001,3478.967927,5056.230287,9252.574275
913.895326,2812.782580,4903.011187,9696.697840
913.895651,2812.782580,3907.087040,9474.636058
913.895976,3478.967927,4519.963438,9918.759623
913.896301,2072.576638,5592.497135,9548.656652
913.896626,0.000000,4519.963438,9992.780217
913.896951,-1110.308913,1225.752797,9400.615463
913.897276,-3034.844362,-919.314598,8586.388927
913.897601,-4441.235652,-2374.896044,8290.306550
913.897926,-3701.029710,-3600.648841,8142.265362
913.898251,-4885.359217,-2834.553343,8512.368333
913.898575,-3182.885551,-1149.143247,8734.430116
913.898900,-2368.659014,-383.047749,8882.471304
913.899225,-1776.494261,-383.047749,9474.636058
913.899550,-888.247130,-689.485948,8808.450710
913.899875,3701.029710,1072.533697,7920.203579
913.900200,7476.080014,4519.963438,9844.739029
913.900525,8882.471304,6281.983084,11547.212695
913.900850,7402.059420,4903.011187,10584.944971
913.901175,6143.709319,2834.553343,8734.430116
913.901500,6069.688724,1991.848295,9474.636058
913.901825,4293.194464,2298.286494,11029.068536
913.902149,1184.329507,2374.896044,11029.068536
913.902474,444.123565,-612.876398,8660.409521
913.902799,-814.226536,-4136.915689,7550.100608
913.903124,-2220.617826,-4596.572988,7550.100608
913.903449,-1702.473667,-2528.115143,7846.182985
913.903774,-2516.700203,-1378.971896,7031.956449
913.904099,-2886.803174,-1378.971896,7846.182985
913.904424,-2886.803174,-1991.848295,10510.924376
913.904749,-1924.535449,0.000000,10658.965565
913.905074,-444.123565,1378.971896,8660.409521
913.905399,1628.453072,0.000000,7550.100608
913.905723,2220.617826,536.266849,10807.006753
913.906048,1998.556043,2298.286494,12139.377449
913.906373,4071.132681,2145.067394,10066.800811
913.906698,962.267725,1455.581446,10881.027347
913.907023,-1702.473667,-1302.362347,10510.924376
913.907348,-2664.741391,-842.705048,9696.697840
913.907673,-1406.391290,-842.705048,9548.656652
913.907998,-1924.535449,-2757.943793,10214.842000
913.908323,-2738.761985,-2374.896044,9696.697840
913.908648,-2442.679609,-2068.457845,10066.800811
913.908973,-666.185348,-612.876398,10066.800811
913.909298,-3034.844362,459.657299,9622.677246
913.909622,-6069.688724,1378.971896,9992.780217
913.909947,-3701.029710,0.000000,7846.182985
913.910272,-1924.535449,0.000000,7179.997637
913.910597,0.000000,2068.457845,6661.853478
913.910922,1480.411884,4903.011187,8438.347739
913.911247,740.205942,4213.525239,8438.347739
913.911572,296.082377,2298.286494,9400.615463
913.911897,1850.514855,842.705048,8734.430116
913.912222,0.000000,1608.800546,8068.244768
913.912547,-1406.391290,1378.971896,6883.915261
913.912872,0.000000,536.266849,9030.512492
913.913196,1998.556043,1608.800546,10362.883188
913.913521,1776.494261,2298.286494,10658.965565
913.913846,1776.494261,1149.143247,9030.512492
913.914171,888.247130,-153.219100,10066.800811
913.914496,0.000000,229.828649,10510.924376
913.914821,0.000000,1838.629195,10214.842000
913.915146,-370.102971,1838.629195,9252.574275
913.915471,-592.164754,1532.190996,9696.697840
913.915796,1110.308913,2451.505594,8882.471304
913.916121,3108.864956,4749.792088,8808.450710
913.916446,3256.906145,3370.820191,8734.430116
913.916770,2220.617826,1838.629195,8364.327145
913.917095,1184.329507,1991.848295,8216.285956
913.917420,1332.370696,1685.410096,7920.203579
913.917745,370.102971,919.314598,9696.697840
913.918070,-2220.617826,-1072.533697,10807.006753
913.918395,-2146.597232,-1225.752797,10214.842000
913.918720,1036.288319,-1838.629195,8438.347739
913.919045,1406.391290,-1149.143247,10658.965565
913.919370,222.061783,-1455.581446,9548.656652
913.919695,-814.226536,-612.876398,8216.285956
913.920020,0.000000,0.000000,6809.894666
913.920344,-444.123565,919.314598,10140.821405
913.920669,-2442.679609,2451.505594,10066.800811
913.920994,-814.226536,2145.067394,9104.533087
913.921319,1850.514855,76.609550,8216.285956
913.921644,1628.453072,-1378.971896,10584.944971
913.921969,0.000000,-306.438199,10140.821405
913.922294,-444.123565,-689.485948,10066.800811
913.922619,-1184.329507,-2221.676944,8438.347739
913.922944,-2294.638420,-2604.724693,10584.944971
913.923269,-2738.761985,-1762.019645,10732.986159
913.923594,-2072.576638,-689.485948,10140.821405
913.923918,518.144159,-1685.410096,8660.409521
913.924243,1110.308913,-1915.238745,11029.068536
913.924568,444.123565,-842.705048,10658.965565
913.924893,1554.432478,0.000000,8956.491898
913.925218,666.185348,842.705048,9252.574275
913.925543,-592.164754,1455.581446,10066.800811
913.925868,-1776.494261,1991.848295,8068.244768
913.926193,-1110.308913,1072.533697,7994.224174
913.926518,740.205942,766.095498,6143.709319
913.926843,518.144159,1991.848295,7254.018232
913.927167,148.041188,3217.601092,7772.162391
913.927492,518.144159,1685.410096,8438.347739
913.927817,-592.164754,-1915.238745,6365.771101
913.928142,-2960.823768,-2451.505594,8216.285956
913.928467,-2220.617826,-995.924147,11251.130318
913.928792,-1332.370696,1532.190996,11991.336260
913.929117,2294.638420,689.485948,11251.130318
913.929441,3997.112087,-153.219100,11695.253884
913.929766,2294.638420,-459.657299,9918.759623
913.930091,2294.638420,1838.629195,9548.656652
913.930416,3404.947333,2451.505594,9030.512492
913.930741,1998.556043,3064.381992,9844.739029
913.931066,0.000000,3064.381992,10288.862594
913.931391,-1184.329507,2834.553343,9918.759623
913.931715,-1036.288319,1378.971896,7476.080014
913.932040,518.144159,689.485948,8142.265362
913.932365,444.123565,76.609550,9696.697840
913.932690,-888.247130,459.657299,9844.739029
913.933015,0.000000,306.438199,9400.615463
913.933340,740.205942,-689.485948,9400.615463
913.933665,-2294.638420,-612.876398,9474.636058
913.933989,-2812.782580,76.609550,9030.512492
913.934314,-962.267725,1762.019645,11251.130318
913.934639,1110.308913,2298.286494,8660.409521
913.934964,2886.803174,229.828649,7179.997637
913.935289,2220.617826,-1378.971896,5699.585753
913.935614,-1036.288319,1149.143247,7105.977043
913.935938,74.020594,5439.278036,8364.327145
913.936263,74.020594,3907.087040,11399.171507
913.936588,-2368.659014,459.657299,11029.068536
913.936913,-2664.741391,-2604.724693,7772.162391
913.937238,-1110.308913,-1991.848295,6069.688724
913.937563,1776.494261,-153.219100,8882.471304
913.937888,74.020594,1915.238745,10881.027347
913.938212,-1184.329507,-995.924147,10362.883188
913.938537,0.000000,-2298.286494,8660.409521
913.938862,0.000000,-1762.019645,9696.697840
913.939187,-2146.597232,0.000000,11325.150913
913.939512,-370.102971,536.266849,10214.842000
913.939837,3256.906145,-766.095498,10955.047942
913.940162,4737.318029,-689.485948,11399.171507
913.940486,4441.235652,1378.971896,10955.047942
913.940811,2738.761985,2834.553343,10881.027347
913.941136,1998.556043,2298.286494,8142.265362
913.941461,666.185348,766.095498,9030.512492
913.941786,-2294.638420,-229.828649,9030.512492
913.942111,-3034.844362,76.609550,8660.409521
913.942436,-2072.576638,536.266849,7698.141797
913.942760,-1480.411884,76.609550,7328.038826
913.943085,-4071.132681,-459.657299,8290.306550
913.943410,-2664.741391,-2528.115143,6957.935855
913.943735,-2368.659014,-383.047749,7254.018232
913.944060,-888.247130,0.000000,7846.182985
913.944385,-1406.391290,1225.752797,8956.491898
913.944710,-1406.391290,1455.581446,9104.533087
913.945034,740.205942,1455.581446,8364.327145
913.945359,3849.070898,2451.505594,9844.739029
913.945684,3108.864956,1915.238745,12657.521608
913.946009,2590.720797,1608.800546,12213.398043
913.946334,2294.638420,0.000000,11917.315666
913.946659,1184.329507,229.828649,11251.130318
913.946983,-814.226536,842.705048,9992.780217
913.947308,-1702.473667,306.438199,9326.594869
913.947633,-518.144159,766.095498,9622.677246
913.947958,444.123565,2145.067394,9474.636058
913.948283,222.061783,2221.676944,9548.656652
913.948608,-1110.308913,612.876398,6513.812290
913.948933,-2738.761985,-1455.581446,5107.421000
913.949257,-1702.473667,-1072.533697,6291.750507
913.949582,-2220.617826,1838.629195,9918.759623
913.949907,-2960.823768,2681.334243,11473.192101
913.950232,-2590.720797,153.219100,9104.533087
913.950557,-370.102971,-2145.067394,7698.141797
913.950882,-296.082377,-1149.143247,9178.553681
913.951207,0.000000,919.314598,7402.059420
913.951531,-222.061783,1762.019645,10881.027347
913.951856,2368.659014,842.705048,7994.224174
913.952181,2368.659014,1608.800546,9622.677246
913.952506,148.041188,2451.505594,10658.965565
913.952831,370.102971,2528.115143,8290.306550
913.953156,1258.350101,842.705048,7772.162391
913.953481,3552.988522,-1225.752797,10658.965565
913.953805,2590.720797,0.000000,10362.883188
913.954130,740.205942,689.485948,9252.574275
913.954455,222.061783,229.828649,9474.636058
913.954780,74.020594,-919.314598,10214.842000
913.955105,-1702.473667,-995.924147,10732.986159
913.955430,-1184.329507,153.219100,9992.780217
913.955754,1184.329507,1225.752797,9326.594869
913.956079,2442.679609,2221.676944,9622.677246
913.956404,3478.967927,2145.067394,9548.656652
913.956729,1258.350101,1608.800546,8142.265362
913.957054,370.102971,1072.533697,5995.668130
913.957379,1184.329507,1225.752797,7920.203579
913.957704,-666.185348,536.266849,9696.697840
913.958028,-3701.029710,612.876398,9918.759623
913.958353,-2072.576638,-229.828649,9474.636058
913.958678,-888.247130,-766.095498,9474.636058
913.959003,-1554.432478,-2681.334243,8808.450710
913.959328,-2516.700203,-1149.143247,9474.636058
913.959653,-1332.370696,-536.266849,9252.574275
913.959978,-962.267725,383.047749,8290.306550
913.960302,-1184.329507,612.876398,9104.533087
913.960627,-1554.432478,1762.019645,9770.718434
913.960952,740.205942,3064.381992,8068.244768
913.961277,3034.844362,2987.772442,8512.368333
913.961602,2812.782580,1149.143247,10881.027347
913.961927,0.000000,612.876398,10436.903782
913.962252,-1258.350101,459.657299,8956.491898
913.962576,-370.102971,-995.924147,8068.244768
913.962901,-1702.473667,-1302.362347,11399.171507
913.963226,-3478.967927,-306.438199,11473.192101
913.963551,-2442.679609,1225.752797,11325.150913
913.963876,370.102971,383.047749,9400.615463
913.964201,74.020594,0.000000,9844.739029
913.964525,-296.082377,-459.657299,7920.203579
913.964850,74.020594,1915.238745,7402.059420
913.965175,1036.288319,2987.772442,7105.977043
913.965500,370.102971,3830.477490,9400.615463
913.965825,-2442.679609,2068.457845,8216.285956
913.966150,-2812.782580,995.924147,7476.080014
913.966475,296.082377,766.095498,7254.018232
913.966799,1110.308913,919.314598,9696.697840
913.967124,-592.164754,76.609550,10510.924376
913.967449,-1998.556043,-459.657299,9992.780217
913.967774,-1258.350101,-1532.190996,8882.471304
913.968099,370.102971,-612.876398,10510.924376
913.968424,-222.061783,383.047749,10214.842000
913.968749,592.164754,4136.915689,10362.883188
913.969073,4145.153275,2068.457845,8438.347739
913.969398,5625.565159,995.924147,9178.553681
913.969723,3997.112087,689.485948,9400.615463
913.970048,1554.432478,1838.629195,9548.656652
913.970373,2220.617826,1685.410096,8956.491898
913.970698,2072.576638,1378.971896,9696.697840
913.971023,-222.061783,0.000000,10214.842000
913.971347,-1258.350101,-1225.752797,9548.656652
913.971672,-888.247130,-306.438199,8734.430116
913.971997,814.226536,1149.143247,10584.944971
913.972322,740.205942,1455.581446,11399.171507
913.972647,148.041188,0.000000,8290.306550
913.972972,-296.082377,-383.047749,7328.038826
913.973296,1036.288319,306.438199,6957.935855
913.973621,444.123565,2987.772442,9770.718434
913.973946,-296.082377,2068.457845,10362.883188
913.974271,-666.185348,766.095498,9474.636058
913.974596,1776.494261,-459.657299,7846.182985
913.974921,1406.391290,612.876398,11547.212695
913.975246,-592.164754,153.219100,9252.574275
913.975570,-2294.638420,-229.828649,8586.388927
913.975895,-1850.514855,-1991.848295,9400.615463
913.976220,-2294.638420,-919.314598,10732.986159
913.976545,-3701.029710,459.657299,10436.903782
913.976870,-3330.926739,383.047749,9474.636058
913.977195,-666.185348,-383.047749,7328.038826
913.977520,962.267725,0.000000,9992.780217
913.977844,1554.432478,1608.800546,9696.697840
913.978169,222.061783,842.705048,8586.388927
913.978494,592.164754,-1455.581446,7994.224174
913.978819,592.164754,76.609550,10584.944971
913.979144,-2146.597232,1991.848295,10955.047942
913.979469,-1702.473667,1532.190996,10288.862594
913.979794,2590.720797,-1302.362347,6809.894666
913.980118,2368.659014,-536.266849,10436.903782
913.980443,148.041188,1072.533697,8512.368333
913.980768,-370.102971,2834.553343,9178.553681
913.981093,518.144159,689.485948,7920.203579
913.981418,518.144159,689.485948,9474.636058
913.981743,-1554.432478,1302.362347,10955.047942
913.982068,-1998.556043,2451.505594,8438.347739
913.982392,444.123565,919.314598,5921.647536
913.982717,1110.308913,-229.828649,9622.677246
913.983042,-444.123565,612.876398,9622.677246
913.983367,-1554.432478,1225.752797,8068.244768
913.983692,-1776.494261,-612.876398,8290.306550
913.984017,-1332.370696,-1225.752797,9104.533087
913.984341,-2886.803174,766.095498,12213.398043
913.984666,-1998.556043,1838.629195,11103.089130
913.984991,0.000000,919.314598,8660.409521
913.985316,1554.432478,-1608.800546,8586.388927
913.985641,2960.823768,153.219100,10288.862594
913.985966,3552.988522,4060.306139,9992.780217
913.986291,3034.844362,3907.087040,10214.842000
913.986615,3182.885551,1455.581446,9770.718434
913.986940,1480.411884,842.705048,10066.800811
913.987265,-740.205942,2298.286494,8586.388927
913.987590,0.000000,2298.286494,6143.709319
913.987915,592.164754,1685.410096,7031.956449
913.988240,444.123565,919.314598,8142.265362
913.988565,-740.205942,842.705048,9252.574275
913.988889,-2220.617826,766.095498,8808.450710
913.989214,-2516.700203,919.314598,8216.285956
913.989539,-1924.535449,-459.657299,9696.697840
913.989864,-3478.967927,-1302.362347,9844.739029
913.990189,-2812.782580,-1378.971896,9178.553681
913.990514,-222.061783,-842.705048,8956.491898
913.990839,2072.576638,1685.410096,11251.130318
913.991163,2146.597232,1685.410096,11177.109724
913.991488,518.144159,1455.581446,9400.615463
913.991813,962.267725,536.266849,6735.874072
913.992138,1998.556043,842.705048,9474.636058
913.992463,592.164754,1072.533697,10658.965565
913.992788,-592.164754,1532.190996,10214.842000
913.993112,1184.329507,689.485948,9474.636058
