#time,accel_x,accel_y,accel_z
5201.758917,3404.947333,4290.134789,7772.162391
5201.759240,2516.700203,4213.525239,7254.018232
5201.759562,2072.576638,3830.477490,8216.285956
5201.759885,1480.411884,3140.991542,9770.718434
5201.760207,0.000000,2834.553343,9992.780217
5201.760530,0.000000,1762.019645,9178.553681
5201.760853,-1184.329507,2068.457845,9252.574275
5201.761175,-1998.556043,1149.143247,9622.677246
5201.761498,-1258.350101,1072.533697,8956.491898
5201.761820,-1702.473667,919.314598,7772.162391
5201.762143,-1406.391290,1302.362347,7402.059420
5201.762465,-1332.370696,1149.143247,8068.244768
5201.762788,-592.164754,1455.581446,7624.121203
5201.763110,592.164754,1991.848295,7476.080014
5201.763433,370.102971,1455.581446,8216.285956
5201.763756,222.061783,1378.971896,9622.677246
5201.764078,370.102971,1532.190996,10807.006753
5201.764401,888.247130,1378.971896,10658.965565
5201.764723,1406.391290,1685.410096,10066.800811
5201.765046,296.082377,612.876398,10881.027347
5201.765368,1480.411884,306.438199,10955.047942
5201.765691,3182.885551,1072.533697,11325.150913
5201.766014,2960.823768,1302.362347,9844.739029
5201.766336,3775.050304,1302.362347,10288.862594
5201.766659,4293.194464,1991.848295,10732.986159
5201.766981,5921.647536,3217.601092,10510.924376
5201.767304,7105.977043,4060.306139,9548.656652
5201.767626,5847.626942,3753.867940,10362.883188
5201.767949,5995.668130,3294.210641,11843.295072
5201.768271,5181.441594,3294.210641,11177.109724
5201.768594,4441.235652,3370.820191,10436.903782
5201.768917,3627.009116,2834.553343,9770.718434
5201.769239,1406.391290,2068.457845,9548.656652
5201.769562,1036.288319,2298.286494,8438.347739
5201.769884,1332.370696,3064.381992,7550.100608
5201.770207,962.267725,2911.162892,6291.750507
5201.770529,222.061783,2681.334243,6883.915261
5201.770852,74.020594,2528.115143,7179.997637
5201.771174,1406.391290,3524.039291,7254.018232
5201.771497,1628.453072,4136.915689,6513.812290
5201.771820,1110.308913,4366.744339,7698.141797
5201.772142,1110.308913,3753.867940,9326.594869
5201.772465,1184.329507,3983.696590,9030.512492
5201.772787,1406.391290,4749.792088,8068.244768
5201.773110,1036.288319,4213.525239,8438.347739
5201.773432,-296.082377,3370.820191,9104.533087
5201.773755,0.000000,3140.991542,9474.636058
5201.774077,222.061783,3600.648841,8512.368333
5201.774400,-296.082377,3064.381992,8586.388927
5201.774723,-962.267725,2068.457845,9252.574275
5201.775045,-1776.494261,1685.410096,10066.800811
5201.775368,-518.144159,1532.190996,9696.697840
5201.775690,-962.267725,1608.800546,8956.491898
5201.776013,-1554.432478,1302.362347,9474.636058
5201.776335,-1110.308913,1532.190996,10436.903782
5201.776658,-666.185348,1762.019645,9770.718434
5201.776981,148.041188,1762.019645,9326.594869
5201.777303,0.000000,1302.362347,10362.883188
5201.777626,-1850.514855,995.924147,10584.944971
5201.777948,-1332.370696,229.828649,10955.047942
5201.778271,-1332.370696,153.219100,9696.697840
5201.778593,-2368.659014,-842.705048,9622.677246
5201.778916,-3404.947333,-2221.676944,10140.821405
5201.779238,-4293.194464,-2911.162892,9918.759623
5201.779561,-3404.947333,-2987.772442,8142.265362
5201.779884,-3627.009116,-3064.381992,7402.059420
5201.780206,-2960.823768,-2834.553343,8142.265362
5201.780529,-1480.411884,-2298.286494,8660.409521
5201.780851,296.082377,-842.705048,8142.265362
5201.781174,2516.700203,-306.438199,8734.430116
5201.781496,2294.638420,383.047749,9252.574275
5201.781819,2738.761985,383.047749,11177.109724
5201.782141,3256.906145,76.609550,11547.212695
5201.782464,2812.782580,0.000000,11547.212695
5201.782787,1702.473667,-1149.143247,11695.253884
5201.783109,370.102971,-2298.286494,11843.295072
5201.783432,666.185348,-2298.286494,10881.027347
5201.783754,814.226536,-2221.676944,8956.491898
5201.784077,370.102971,-1762.019645,8142.265362
5201.784399,1036.288319,-1378.971896,7920.203579
5201.784722,1850.514855,-229.828649,7846.182985
5201.785044,2664.741391,1225.752797,7476.080014
5201.785367,3923.091493,2298.286494,7624.121203
5201.785689,2516.700203,2451.505594,9474.636058
5201.786012,1702.473667,2681.334243,10362.883188
5201.786335,1628.453072,2604.724693,11621.233289
5201.786657,-592.164754,2068.457845,11547.212695
5201.786980,-2072.576638,612.876398,11473.192101
5201.787302,-3404.947333,-536.266849,11103.089130
5201.787625,-2886.803174,-459.657299,9548.656652
5201.787947,-2590.720797,383.047749,7698.141797
5201.788270,-2664.741391,0.000000,6587.832884
5201.788592,-1702.473667,1302.362347,6365.771101
5201.788915,-814.226536,2298.286494,6439.791695
5201.789237,1258.350101,3677.258390,6735.874072
5201.789560,1924.535449,4673.182538,7624.121203
5201.789883,666.185348,3907.087040,9474.636058
5201.790205,814.226536,4136.915689,11325.150913
5201.790528,148.041188,3830.477490,12139.377449
5201.790850,-962.267725,3907.087040,11325.150913
5201.791173,-1850.514855,2451.505594,11621.233289
5201.791495,-2516.700203,1302.362347,10732.986159
5201.791818,-1332.370696,1302.362347,8660.409521
5201.792140,-740.205942,1762.019645,6513.812290
5201.792463,-370.102971,1838.629195,5921.647536
5201.792785,0.000000,2068.457845,5699.585753
5201.793108,888.247130,2911.162892,6069.688724
5201.793431,1702.473667,2834.553343,6883.915261
5201.793753,518.144159,2834.553343,7920.203579
5201.794076,-1258.350101,1991.848295,10510.924376
5201.794398,-1850.514855,919.314598,11917.315666
5201.794721,-2960.823768,76.609550,11547.212695
5201.795043,-3775.050304,-306.438199,10881.027347
5201.795366,-3552.988522,-1072.533697,11103.089130
5201.795688,-2812.782580,-1072.533697,9696.697840
5201.796011,-1554.432478,-689.485948,7402.059420
5201.796333,-1110.308913,-842.705048,5921.647536
5201.796656,0.000000,-536.266849,6143.709319
5201.796979,1184.329507,-383.047749,6735.874072
5201.797301,2294.638420,612.876398,7402.059420
5201.797624,2220.617826,536.266849,9030.512492
5201.797946,814.226536,-306.438199,11103.089130
5201.798269,518.144159,-1072.533697,13027.624579
5201.798591,814.226536,-1685.410096,13545.768739
5201.798914,0.000000,-1838.629195,12805.562797
5201.799236,74.020594,-1991.848295,12509.480420
5201.799559,296.082377,-2145.067394,11843.295072
5201.799881,1554.432478,-1455.581446,9400.615463
5201.800204,3034.844362,-229.828649,7254.018232
5201.800527,2590.720797,0.000000,6661.853478
5201.800849,2442.679609,0.000000,7402.059420
5201.801172,1776.494261,0.000000,8142.265362
5201.801494,1406.391290,306.438199,8364.327145
5201.801817,-148.041188,-229.828649,9104.533087
5201.802139,-3552.988522,-2145.067394,10140.821405
5201.802462,-3997.112087,-2834.553343,11103.089130
5201.802784,-4367.215058,-2374.896044,10510.924376
5201.803107,-4145.153275,-2221.676944,9770.718434
5201.803429,-3701.029710,-1915.238745,9548.656652
5201.803752,-3478.967927,-1838.629195,8882.471304
5201.804075,-962.267725,0.000000,8068.244768
5201.804397,814.226536,1455.581446,6587.832884
5201.804720,444.123565,1685.410096,7402.059420
5201.805042,592.164754,1532.190996,9030.512492
5201.805365,666.185348,1378.971896,10362.883188
5201.805687,888.247130,1378.971896,10658.965565
5201.806010,74.020594,919.314598,10584.944971
5201.806332,-1628.453072,-229.828649,11621.233289
5201.806655,-1776.494261,-383.047749,10807.006753
5201.806978,-740.205942,229.828649,9918.759623
5201.807300,-444.123565,1149.143247,8068.244768
5201.807623,296.082377,1225.752797,7994.224174
5201.807945,296.082377,1378.971896,7994.224174
5201.808268,2220.617826,2451.505594,7698.141797
5201.808590,2368.659014,3217.601092,7328.038826
5201.808913,814.226536,2834.553343,8216.285956
5201.809235,-370.102971,2298.286494,10362.883188
5201.809558,-1850.514855,1072.533697,10436.903782
5201.809880,-2146.597232,1072.533697,9770.718434
5201.810203,-3108.864956,229.828649,9474.636058
5201.810526,-4515.256246,-612.876398,9474.636058
5201.810848,-3404.947333,-689.485948,9326.594869
5201.811171,-2442.679609,459.657299,7179.997637
5201.811493,-1702.473667,766.095498,6513.812290
5201.811816,-148.041188,1225.752797,6439.791695
5201.812138,666.185348,1608.800546,7476.080014
5201.812461,2442.679609,2681.334243,7994.224174
5201.812783,2516.700203,2757.943793,8512.368333
5201.813106,1702.473667,1915.238745,10658.965565
5201.813428,1480.411884,995.924147,11843.295072
5201.813751,1036.288319,1072.533697,11769.274478
5201.814074,1480.411884,536.266849,10955.047942
5201.814396,814.226536,383.047749,10584.944971
5201.814719,444.123565,306.438199,10140.821405
5201.815041,1702.473667,306.438199,9104.533087
5201.815364,2072.576638,1225.752797,7105.977043
5201.815686,2368.659014,1532.190996,7031.956449
5201.816009,1776.494261,1608.800546,8068.244768
5201.816331,1554.432478,995.924147,7846.182985
5201.816654,1554.432478,995.924147,8956.491898
5201.816976,-518.144159,383.047749,9992.780217
5201.817299,-2220.617826,-689.485948,10955.047942
5201.817622,-3478.967927,-1838.629195,11547.212695
5201.817944,-3923.091493,-1991.848295,10658.965565
5201.818267,-3108.864956,-1838.629195,9030.512492
5201.818589,-3404.947333,-1532.190996,8660.409521
5201.818912,-2738.761985,-1685.410096,8290.306550
5201.819234,-1480.411884,-1455.581446,8216.285956
5201.819557,-222.061783,76.609550,7328.038826
5201.819879,592.164754,766.095498,8364.327145
5201.820202,444.123565,306.438199,10140.821405
5201.820524,1036.288319,842.705048,11177.109724
5201.820847,1924.535449,612.876398,11029.068536
5201.821170,148.041188,-383.047749,11991.336260
5201.821492,0.000000,-1072.533697,12287.418637
5201.821815,-740.205942,-1225.752797,11917.315666
5201.822137,148.041188,-689.485948,10066.800811
5201.822460,962.267725,76.609550,8734.430116
5201.822782,0.000000,229.828649,7550.100608
5201.823105,592.164754,0.000000,7105.977043
5201.823427,1480.411884,1378.971896,7254.018232
5201.823750,1480.411884,2221.676944,7550.100608
5201.824072,370.102971,1532.190996,8660.409521
5201.824395,-1258.350101,1302.362347,10066.800811
5201.824718,-666.185348,842.705048,10807.006753
5201.825040,-1406.391290,459.657299,10436.903782
5201.825363,-2886.803174,76.609550,9844.739029
5201.825685,-3108.864956,-995.924147,9992.780217
5201.826008,-3182.885551,-1302.362347,8438.347739
5201.826330,-1554.432478,0.000000,7846.182985
5201.826653,-962.267725,536.266849,6735.874072
5201.826975,-962.267725,459.657299,7105.977043
5201.827298,222.061783,1149.143247,7550.100608
5201.827620,1702.473667,2374.896044,8364.327145
5201.827943,1554.432478,2451.505594,9252.574275
5201.828266,814.226536,1915.238745,10807.006753
5201.828588,666.185348,1378.971896,12139.377449
5201.828911,1110.308913,1838.629195,11177.109724
5201.829233,1036.288319,1608.800546,10436.903782
5201.829556,444.123565,1072.533697,10140.821405
5201.829878,1332.370696,1072.533697,10066.800811
5201.830201,1924.535449,2145.067394,8364.327145
5201.830523,2886.803174,2451.505594,7179.997637
5201.830846,2294.638420,2298.286494,7476.080014
5201.831168,1406.391290,2374.896044,8660.409521
5201.831491,1776.494261,2374.896044,9178.553681
5201.831814,814.226536,2451.505594,9548.656652
5201.832136,-740.205942,1455.581446,9918.759623
5201.832459,-2368.659014,995.924147,10955.047942
5201.832781,-2738.761985,-76.609550,11177.109724
5201.833104,-2072.576638,459.657299,9400.615463
5201.833426,-2368.659014,153.219100,7994.224174
5201.833749,-2220.617826,383.047749,7994.224174
5201.834071,-1110.308913,612.876398,7698.141797
5201.834394,0.000000,1072.533697,7031.956449
5201.834716,1998.556043,2068.457845,6957.935855
5201.835039,814.226536,1991.848295,8364.327145
5201.835362,444.123565,1685.410096,9696.697840
5201.835684,1036.288319,1225.752797,11621.233289
5201.836007,74.020594,1225.752797,11103.089130
5201.836329,-222.061783,536.266849,11769.274478
5201.836652,-1332.370696,0.000000,11769.274478
5201.836974,-444.123565,0.000000,11473.192101
5201.837297,666.185348,383.047749,8882.471304
5201.837619,666.185348,766.095498,7550.100608
5201.837942,814.226536,612.876398,7698.141797
5201.838264,1406.391290,1149.143247,7402.059420
5201.838587,2146.597232,2068.457845,7179.997637
5201.838910,2146.597232,2451.505594,7328.038826
5201.839232,222.061783,1685.410096,9030.512492
5201.839555,-370.102971,919.314598,10955.047942
5201.839877,-1776.494261,383.047749,11029.068536
5201.840200,-2960.823768,-459.657299,10732.986159
5201.840522,-3923.091493,-1072.533697,10658.965565
5201.840845,-4071.132681,-1915.238745,10362.883188
5201.841167,-2738.761985,-1225.752797,9326.594869
5201.841490,-2072.576638,306.438199,7624.121203
5201.841813,-1332.370696,-153.219100,7179.997637
5201.842135,-814.226536,229.828649,7624.121203
5201.842458,296.082377,229.828649,8364.327145
5201.842780,1110.308913,995.924147,8882.471304
5201.843103,962.267725,1072.533697,10140.821405
5201.843425,-444.123565,383.047749,10955.047942
5201.843748,-740.205942,-383.047749,11547.212695
5201.844070,0.000000,76.609550,11177.109724
5201.844393,-666.185348,0.000000,10288.862594
5201.844715,296.082377,-229.828649,9770.718434
5201.845038,592.164754,0.000000,9400.615463
5201.845361,2590.720797,842.705048,7994.224174
5201.845683,2960.823768,1532.190996,7105.977043
5201.846006,2738.761985,2221.676944,7105.977043
5201.846328,2960.823768,2221.676944,8734.430116
5201.846651,2146.597232,2145.067394,9696.697840
5201.846973,1258.350101,1915.238745,10288.862594
5201.847296,0.000000,1149.143247,10732.986159
5201.847618,-2664.741391,-536.266849,11621.233289
5201.847941,-2812.782580,-689.485948,11177.109724
5201.848263,-2812.782580,-229.828649,9474.636058
5201.848586,-2442.679609,-536.266849,8364.327145
5201.848909,-2516.700203,-153.219100,7846.182985
5201.849231,-1776.494261,-536.266849,7550.100608
5201.849554,518.144159,1302.362347,6809.894666
5201.849876,1110.308913,1991.848295,6661.853478
5201.850199,518.144159,1838.629195,8290.306550
5201.850521,814.226536,1378.971896,10658.965565
5201.850844,148.041188,1532.190996,10658.965565
5201.851166,0.000000,1685.410096,11029.068536
5201.851489,-962.267725,383.047749,11473.192101
5201.851811,-1924.535449,-153.219100,11917.315666
5201.852134,-740.205942,0.000000,10955.047942
5201.852457,74.020594,689.485948,8956.491898
5201.852779,666.185348,1225.752797,7698.141797
5201.853102,592.164754,1685.410096,7402.059420
5201.853424,2368.659014,1991.848295,7772.162391
5201.853747,3478.967927,2681.334243,6439.791695
5201.854069,2220.617826,3140.991542,6883.915261
5201.854392,1036.288319,2068.457845,9474.636058
5201.854714,-222.061783,1149.143247,10510.924376
5201.855037,-1628.453072,766.095498,10658.965565
5201.855359,-2146.597232,0.000000,10140.821405
5201.855682,-4071.132681,-1072.533697,10140.821405
5201.856005,-4811.338623,-1302.362347,9770.718434
5201.856327,-3034.844362,-1608.800546,9104.533087
5201.856650,-2590.720797,-383.047749,7402.059420
5201.856972,-1776.494261,0.000000,7179.997637
5201.857295,-1332.370696,153.219100,7920.203579
5201.857617,740.205942,919.314598,8808.450710
5201.857940,2294.638420,1302.362347,9178.553681
5201.858262,518.144159,1149.143247,10140.821405
5201.858585,222.061783,766.095498,11769.274478
5201.858907,-888.247130,-383.047749,12213.398043
5201.859230,-444.123565,-459.657299,11547.212695
5201.859553,-592.164754,-766.095498,10510.924376
5201.859875,-740.205942,-1225.752797,10510.924376
5201.860198,0.000000,-612.876398,9400.615463
5201.860520,1258.350101,-383.047749,7994.224174
5201.860843,1776.494261,1225.752797,7105.977043
5201.861165,1924.535449,1915.238745,7920.203579
5201.861488,1924.535449,1149.143247,9104.533087
5201.861810,2368.659014,1149.143247,9548.656652
5201.862133,1554.432478,1149.143247,9770.718434
5201.862455,-518.144159,0.000000,10732.986159
5201.862778,-1628.453072,-383.047749,11547.212695
5201.863101,-2368.659014,-1455.581446,10436.903782
5201.863423,-1702.473667,-1455.581446,8956.491898
5201.863746,-1998.556043,-1532.190996,8290.306550
5201.864068,-2442.679609,-1378.971896,7698.141797
5201.864391,-1554.432478,-1149.143247,7328.038826
5201.864713,0.000000,0.000000,6809.894666
5201.865036,592.164754,612.876398,6735.874072
5201.865358,222.061783,689.485948,8364.327145
5201.865681,0.000000,612.876398,10658.965565
5201.866003,888.247130,612.876398,11177.109724
5201.866326,0.000000,306.438199,10807.006753
5201.866649,-888.247130,-383.047749,11399.171507
5201.866971,-1332.370696,-919.314598,11695.253884
5201.867294,-962.267725,-459.657299,10214.842000
5201.867616,592.164754,383.047749,9030.512492
5201.867939,518.144159,1149.143247,7254.018232
5201.868261,592.164754,689.485948,7624.121203
5201.868584,1406.391290,1685.410096,7624.121203
5201.868906,2368.659014,2374.896044,7550.100608
5201.869229,1998.556043,2528.115143,8586.388927
5201.869551,888.247130,2374.896044,10066.800811
5201.869874,0.000000,1225.752797,11769.274478
5201.870197,-296.082377,1149.143247,10658.965565
5201.870519,-1628.453072,383.047749,10658.965565
5201.870842,-2442.679609,-383.047749,10288.862594
5201.871164,-2516.700203,-766.095498,9844.739029
5201.871487,-2146.597232,-153.219100,8142.265362
5201.871809,-814.226536,536.266849,7105.977043
5201.872132,-740.205942,1302.362347,7254.018232
5201.872454,-518.144159,1302.362347,7328.038826
5201.872777,296.082377,1838.629195,7772.162391
5201.873099,222.061783,2068.457845,8808.450710
5201.873422,0.000000,1762.019645,10658.965565
5201.873745,-666.185348,919.314598,11621.233289
5201.874067,-222.061783,612.876398,11917.315666
5201.874390,-222.061783,536.266849,10436.903782
5201.874712,-962.267725,306.438199,9696.697840
5201.875035,-296.082377,0.000000,9178.553681
5201.875357,296.082377,306.438199,8364.327145
5201.875680,1628.453072,612.876398,7031.956449
5201.876002,2294.638420,1378.971896,6587.832884
5201.876325,1554.432478,842.705048,7846.182985
5201.876647,1332.370696,1072.533697,8808.450710
5201.876970,1480.411884,1455.581446,9474.636058
5201.877293,222.061783,766.095498,9844.739029
5201.877615,-888.247130,76.609550,11695.253884
5201.877938,-2516.700203,-612.876398,12065.356855
5201.878260,-2220.617826,-1072.533697,11325.150913
5201.878583,-1406.391290,-919.314598,9696.697840
5201.878905,-2368.659014,-1302.362347,8808.450710
5201.879228,-1332.370696,0.000000,8660.409521
5201.879550,-962.267725,-383.047749,7772.162391
5201.879873,518.144159,76.609550,7179.997637
5201.880196,1036.288319,612.876398,7698.141797
5201.880518,-148.041188,306.438199,9770.718434
5201.880841,370.102971,76.609550,11325.150913
5201.881163,148.041188,0.000000,11103.089130
5201.881486,-296.082377,536.266849,11325.150913
5201.881808,-740.205942,-612.876398,12139.377449
5201.882131,-1110.308913,-689.485948,11177.109724
5201.882453,666.185348,153.219100,9992.780217
5201.882776,1554.432478,766.095498,8068.244768
5201.883098,1480.411884,1225.752797,7402.059420
5201.883421,1924.535449,1225.752797,7031.956449
5201.883743,2812.782580,2374.896044,7402.059420
5201.884066,2960.823768,2451.505594,7105.977043
5201.884388,1480.411884,2374.896044,7846.182985
5201.884711,592.164754,1685.410096,9844.739029
5201.885033,-814.226536,995.924147,10658.965565
5201.885356,-1554.432478,612.876398,10584.944971
5201.885678,-2516.700203,153.219100,9696.697840
5201.886001,-3256.906145,-612.876398,10066.800811
5201.886323,-3108.864956,0.000000,8586.388927
5201.886645,-1406.391290,459.657299,7476.080014
5201.886968,-592.164754,1149.143247,6217.729913
5201.887290,-518.144159,1149.143247,7031.956449
5201.887613,222.061783,1685.410096,8068.244768
5201.887935,1036.288319,2145.067394,8808.450710
5201.888258,1332.370696,2145.067394,9400.615463
5201.888580,296.082377,1608.800546,11251.130318
5201.888903,-740.205942,383.047749,11991.336260
5201.889225,-888.247130,306.438199,12731.542202
5201.889548,-1110.308913,536.266849,11251.130318
5201.889870,-1036.288319,306.438199,10510.924376
5201.890193,-962.267725,153.219100,9770.718434
5201.890515,740.205942,995.924147,8956.491898
5201.890838,2220.617826,1915.238745,7105.977043
5201.891160,1998.556043,2221.676944,6587.832884
5201.891483,1628.453072,2374.896044,7550.100608
5201.891805,1554.432478,1838.629195,9104.533087
5201.892128,888.247130,1685.410096,9400.615463
5201.892450,222.061783,1455.581446,9770.718434
5201.892773,-1998.556043,153.219100,10881.027347
5201.893095,-3108.864956,-995.924147,11325.150913
5201.893418,-2812.782580,-1378.971896,10510.924376
5201.893740,-2738.761985,-612.876398,8882.471304
5201.894063,-2442.679609,-919.314598,8290.306550
5201.894385,-2220.617826,-536.266849,8290.306550
5201.894708,0.000000,229.828649,7550.100608
5201.895030,1702.473667,1455.581446,6957.935855
5201.895352,1258.350101,1302.362347,7550.100608
5201.895675,1480.411884,1378.971896,9622.677246
5201.895997,962.267725,383.047749,10584.944971
5201.896320,962.267725,919.314598,11177.109724
5201.896642,444.123565,383.047749,11251.130318
5201.896965,-1258.350101,-919.314598,11473.192101
5201.897287,-1406.391290,-842.705048,11251.130318
5201.897610,0.000000,0.000000,9622.677246
5201.897932,518.144159,766.095498,8586.388927
5201.898255,666.185348,1302.362347,7402.059420
5201.898577,1184.329507,995.924147,7846.182985
5201.898900,2516.700203,1991.848295,7476.080014
5201.899222,2960.823768,2528.115143,7698.141797
5201.899545,1702.473667,2298.286494,9178.553681
5201.899867,444.123565,1378.971896,10807.006753
5201.900190,-666.185348,919.314598,11325.150913
5201.900512,-1554.432478,919.314598,11177.109724
5201.900835,-2664.741391,-229.828649,10066.800811
5201.901157,-3923.091493,-1149.143247,10362.883188
5201.901480,-3256.906145,-995.924147,9474.636058
5201.901802,-1924.535449,-229.828649,7920.203579
5201.902125,-1628.453072,306.438199,7031.956449
5201.902447,-740.205942,689.485948,6883.915261
5201.902770,222.061783,1225.752797,7772.162391
5201.903092,1628.453072,1991.848295,8290.306550
5201.903415,1480.411884,2451.505594,8956.491898
5201.903737,370.102971,1455.581446,10658.965565
5201.904059,-148.041188,536.266849,11843.295072
5201.904382,-296.082377,153.219100,11621.233289
5201.904704,-222.061783,229.828649,10066.800811
5201.905027,-592.164754,229.828649,10214.842000
5201.905349,-814.226536,76.609550,9400.615463
5201.905672,518.144159,383.047749,8068.244768
5201.905994,1110.308913,1149.143247,7105.977043
5201.906317,1554.432478,1991.848295,6957.935855
5201.906639,666.185348,1915.238745,7994.224174
5201.906962,1036.288319,1685.410096,8660.409521
5201.907284,1110.308913,1685.410096,8882.471304
5201.907607,-888.247130,995.924147,9400.615463
5201.907929,-2368.659014,-689.485948,10881.027347
5201.908252,-3330.926739,-1149.143247,11177.109724
5201.908574,-3330.926739,-1149.143247,10140.821405
5201.908897,-2516.700203,-689.485948,8660.409521
5201.909219,-2590.720797,-1072.533697,9104.533087
5201.909542,-2146.597232,-919.314598,8068.244768
5201.909864,0.000000,-383.047749,8364.327145
5201.910187,1110.308913,919.314598,7476.080014
5201.910509,1184.329507,1608.800546,8512.368333
5201.910832,1184.329507,1225.752797,10584.944971
5201.911154,1776.494261,919.314598,11843.295072
5201.911477,1850.514855,919.314598,11251.130318
5201.911799,1110.308913,76.609550,11325.150913
5201.912122,0.000000,-229.828649,11769.274478
5201.912444,0.000000,-383.047749,11251.130318
5201.912767,1110.308913,229.828649,9844.739029
5201.913089,1406.391290,459.657299,7550.100608
5201.913411,1110.308913,612.876398,7402.059420
5201.913734,1480.411884,995.924147,7254.018232
5201.914056,2220.617826,2068.457845,7105.977043
5201.914379,1850.514855,3370.820191,7402.059420
5201.914701,962.267725,2068.457845,9252.574275
5201.915024,-592.164754,995.924147,10288.862594
5201.915346,-1036.288319,919.314598,10807.006753
5201.915669,-1628.453072,153.219100,10362.883188
5201.915991,-2738.761985,-689.485948,10066.800811
5201.916314,-3330.926739,-842.705048,9918.759623
5201.916636,-2812.782580,-919.314598,8808.450710
5201.916959,-1480.411884,0.000000,7402.059420
5201.917281,-888.247130,229.828649,7179.997637
5201.917604,-962.267725,536.266849,7254.018232
5201.917926,74.020594,842.705048,8438.347739
5201.918249,814.226536,1378.971896,8882.471304
5201.918571,370.102971,1378.971896,10362.883188
5201.918894,0.000000,842.705048,11177.109724
5201.919216,0.000000,459.657299,12287.418637
5201.919539,0.000000,689.485948,11177.109724
5201.919861,0.000000,306.438199,10436.903782
5201.920184,-592.164754,0.000000,10066.800811
5201.920506,0.000000,0.000000,9696.697840
5201.920829,740.205942,536.266849,7846.182985
5201.921151,1554.432478,1838.629195,7105.977043
5201.921474,518.144159,1532.190996,6957.935855
5201.921796,222.061783,689.485948,7994.224174
5201.922118,222.061783,995.924147,9178.553681
5201.922441,-444.123565,766.095498,9326.594869
5201.922763,-1776.494261,383.047749,10214.842000
5201.923086,-3330.926739,-612.876398,10955.047942
5201.923408,-3256.906145,-1608.800546,10658.965565
5201.923731,-2294.638420,-1225.752797,8808.450710
5201.924053,-2220.617826,-383.047749,7698.141797
5201.924376,-2072.576638,-766.095498,8438.347739
5201.924698,-962.267725,-689.485948,8142.265362
5201.925021,74.020594,153.219100,7402.059420
5201.925343,1776.494261,1072.533697,7105.977043
5201.925666,1554.432478,919.314598,8734.430116
5201.925988,592.164754,536.266849,10732.986159
5201.926311,1110.308913,459.657299,11769.274478
5201.926633,740.205942,306.438199,11325.150913
5201.926956,148.041188,0.000000,11473.192101
5201.927278,-592.164754,-459.657299,11843.295072
5201.927601,370.102971,-229.828649,11399.171507
5201.927923,1924.535449,0.000000,8586.388927
5201.928246,1480.411884,1149.143247,7254.018232
5201.928568,2220.617826,1455.581446,7772.162391
5201.928891,2294.638420,1149.143247,7624.121203
5201.929213,2516.700203,2145.067394,7254.018232
5201.929536,2368.659014,2451.505594,7698.141797
5201.929858,370.102971,1608.800546,9400.615463
5201.930181,-962.267725,919.314598,10584.944971
5201.930503,-1480.411884,0.000000,10732.986159
5201.930826,-2590.720797,-459.657299,10362.883188
5201.931148,-3627.009116,-689.485948,10362.883188
5201.931470,-3849.070898,-1072.533697,10066.800811
5201.931793,-2294.638420,-612.876398,8882.471304
5201.932115,-888.247130,383.047749,7179.997637
5201.932438,-666.185348,1149.143247,6809.894666
5201.932760,74.020594,1225.752797,7254.018232
5201.933083,592.164754,1685.410096,8438.347739
5201.933405,1406.391290,2451.505594,9030.512492
5201.933728,592.164754,1685.410096,9844.739029
5201.934050,-962.267725,995.924147,11399.171507
5201.934373,-1036.288319,0.000000,11547.212695
5201.934695,-962.267725,-306.438199,11029.068536
5201.935018,-740.205942,0.000000,10288.862594
5201.935340,-370.102971,0.000000,9992.780217
5201.935663,0.000000,536.266849,9178.553681
5201.935985,1332.370696,1225.752797,7698.141797
5201.936308,2146.597232,2068.457845,6957.935855
5201.936630,1702.473667,1762.019645,7550.100608
5201.936953,1480.411884,1685.410096,9104.533087
5201.937275,518.144159,1532.190996,9622.677246
5201.937598,296.082377,842.705048,9918.759623
5201.937920,-1850.514855,229.828649,10140.821405
5201.938243,-3701.029710,-1608.800546,10807.006753
5201.938565,-3627.009116,-1762.019645,10807.006753
5201.938888,-3330.926739,-1532.190996,9326.594869
5201.939210,-2812.782580,-1072.533697,8142.265362
5201.939533,-2368.659014,-995.924147,8216.285956
5201.939855,-1110.308913,-766.095498,8142.265362
5201.940177,1110.308913,612.876398,7031.956449
5201.940500,1628.453072,1225.752797,7105.977043
5201.940822,1332.370696,1302.362347,8808.450710
5201.941145,1702.473667,766.095498,11325.150913
5201.941467,1554.432478,689.485948,11991.336260
5201.941790,1332.370696,536.266849,11843.295072
5201.942112,370.102971,0.000000,11843.295072
5201.942435,-296.082377,-919.314598,12435.459826
5201.942757,222.061783,-612.876398,11399.171507
5201.943080,1184.329507,-229.828649,8956.491898
5201.943402,1628.453072,1072.533697,7624.121203
5201.943725,1850.514855,1455.581446,7772.162391
5201.944047,2590.720797,1838.629195,7476.080014
5201.944370,3034.844362,2757.943793,7105.977043
5201.944692,2738.761985,2834.553343,7698.141797
5201.945015,1258.350101,2987.772442,9992.780217
5201.945337,-518.144159,1225.752797,10955.047942
5201.945660,-1776.494261,229.828649,10658.965565
5201.945982,-2516.700203,76.609550,10066.800811
5201.946305,-4145.153275,-842.705048,9770.718434
5201.946627,-4145.153275,-919.314598,9622.677246
5201.946950,-2960.823768,-766.095498,7772.162391
5201.947272,-1998.556043,306.438199,6735.874072
5201.947595,-740.205942,995.924147,7105.977043
5201.947917,148.041188,1532.190996,7846.182985
5201.948240,1184.329507,1915.238745,8660.409521
5201.948562,1924.535449,2528.115143,9400.615463
5201.948885,814.226536,1991.848295,10362.883188
5201.949207,-518.144159,995.924147,11769.274478
5201.949529,-592.164754,536.266849,11769.274478
5201.949852,0.000000,153.219100,11177.109724
5201.950174,-1036.288319,0.000000,9844.739029
5201.950497,-1554.432478,-459.657299,9844.739029
5201.950819,-592.164754,0.000000,9104.533087
5201.951142,518.144159,689.485948,7772.162391
5201.951464,962.267725,1915.238745,6883.915261
5201.951787,1332.370696,1608.800546,7328.038826
5201.952109,740.205942,1532.190996,8586.388927
5201.952432,1480.411884,1685.410096,9918.759623
5201.952754,444.123565,1685.410096,9548.656652
5201.953077,-1480.411884,459.657299,10584.944971
5201.953399,-2516.700203,-689.485948,11325.150913
5201.953722,-2664.741391,-842.705048,11177.109724
5201.954044,-2368.659014,-306.438199,9474.636058
5201.954367,-1998.556043,-995.924147,8660.409521
5201.954689,-2516.700203,-689.485948,7772.162391
5201.955012,-1184.329507,-153.219100,7624.121203
5201.955334,444.123565,306.438199,7105.977043
5201.955657,1406.391290,1455.581446,7254.018232
5201.955979,1110.308913,1302.362347,9252.574275
5201.956302,1480.411884,995.924147,11177.109724
5201.956624,2294.638420,1838.629195,11843.295072
5201.956947,1776.494261,1225.752797,11177.109724
5201.957269,74.020594,153.219100,11473.192101
5201.957592,0.000000,-306.438199,12065.356855
5201.957914,370.102971,0.000000,10881.027347
5201.958236,1628.453072,919.314598,8586.388927
5201.958559,1406.391290,459.657299,8068.244768
5201.958881,1184.329507,919.314598,7476.080014
5201.959204,2368.659014,1915.238745,7698.141797
5201.959526,2590.720797,2451.505594,7179.997637
5201.959849,1850.514855,2604.724693,8512.368333
5201.960171,148.041188,1532.190996,9770.718434
5201.960494,-518.144159,995.924147,10658.965565
5201.960816,-592.164754,153.219100,9992.780217
5201.961139,-1998.556043,153.219100,9400.615463
5201.961461,-2960.823768,-995.924147,9844.739029
5201.961784,-3330.926739,-612.876398,9030.512492
5201.962106,-2442.679609,-459.657299,8068.244768
5201.962429,-1480.411884,306.438199,6883.915261
5201.962751,-1850.514855,689.485948,6957.935855
5201.963074,-1258.350101,919.314598,7698.141797
5201.963396,222.061783,1072.533697,9030.512492
5201.963719,370.102971,1608.800546,9400.615463
5201.964041,0.000000,1685.410096,10955.047942
5201.964364,-962.267725,612.876398,12213.398043
5201.964686,-148.041188,0.000000,11917.315666
5201.965009,-296.082377,153.219100,10881.027347
5201.965331,-444.123565,153.219100,10140.821405
5201.965654,74.020594,76.609550,9918.759623
5201.965976,296.082377,0.000000,8808.450710
5201.966299,1924.535449,995.924147,7772.162391
5201.966621,1776.494261,1455.581446,6883.915261
5201.966943,1036.288319,995.924147,7772.162391
5201.967266,444.123565,995.924147,8808.450710
5201.967588,148.041188,766.095498,10362.883188
5201.967911,-296.082377,1225.752797,10066.800811
5201.968233,-2368.659014,-459.657299,10584.944971
5201.968556,-3034.844362,-1072.533697,11251.130318
5201.968878,-2442.679609,-689.485948,10658.965565
5201.969201,-1554.432478,-612.876398,9178.553681
5201.969523,-1776.494261,-306.438199,8290.306550
5201.969846,-1258.350101,-612.876398,8216.285956
5201.970168,0.000000,0.000000,7328.038826
5201.970491,1110.308913,1225.752797,7328.038826
5201.970813,1998.556043,1302.362347,7624.121203
5201.971136,1110.308913,689.485948,9622.677246
5201.971458,888.247130,536.266849,11103.089130
5201.971781,962.267725,459.657299,11399.171507
5201.972103,370.102971,153.219100,11177.109724
5201.972426,-148.041188,-689.485948,11473.192101
5201.972748,0.000000,459.657299,11473.192101
5201.973071,1332.370696,383.047749,10140.821405
5201.973393,2368.659014,612.876398,8290.306550
5201.973716,2072.576638,1225.752797,7254.018232
5201.974038,2368.659014,1532.190996,7698.141797
5201.974361,2590.720797,1915.238745,7994.224174
5201.974683,3034.844362,2451.505594,7846.182985
5201.975006,1998.556043,2374.896044,8734.430116
5201.975328,0.000000,1149.143247,10510.924376
5201.975651,-666.185348,1149.143247,10732.986159
5201.975973,-1998.556043,229.828649,10658.965565
5201.976295,-2738.761985,76.609550,10066.800811
5201.976618,-3256.906145,-383.047749,10140.821405
5201.976940,-2960.823768,-229.828649,8956.491898
5201.977263,-1406.391290,536.266849,7031.956449
5201.977585,-1184.329507,1302.362347,5773.606348
5201.977908,-592.164754,1072.533697,7031.956449
5201.978230,0.000000,919.314598,7920.203579
5201.978553,148.041188,1838.629195,8660.409521
5201.978875,666.185348,1915.238745,9474.636058
5201.979198,-962.267725,995.924147,10807.006753
5201.979520,-1776.494261,76.609550,11547.212695
5201.979843,-1258.350101,0.000000,11621.233289
5201.980165,-1628.453072,-612.876398,10510.924376
5201.980488,-1702.473667,229.828649,9696.697840
5201.980810,-1110.308913,229.828649,9770.718434
5201.981133,518.144159,536.266849,8586.388927
5201.981455,1924.535449,1532.190996,7105.977043
5201.981778,2220.617826,1838.629195,6661.853478
5201.982100,1406.391290,1455.581446,8734.430116
5201.982423,1258.350101,1838.629195,9178.553681
5201.982745,740.205942,1149.143247,9622.677246
5201.983068,-518.144159,153.219100,10140.821405
5201.983390,-2442.679609,-536.266849,11103.089130
5201.983713,-3108.864956,-1532.190996,11177.109724
5201.984035,-2738.761985,-2068.457845,9918.759623
5201.984358,-2368.659014,-995.924147,8734.430116
5201.984680,-1776.494261,-612.876398,8216.285956
5201.985002,-1036.288319,-383.047749,8438.347739
5201.985325,518.144159,306.438199,8068.244768
5201.985647,2368.659014,1072.533697,7402.059420
5201.985970,1776.494261,1225.752797,8216.285956
5201.986292,1702.473667,766.095498,10288.862594
5201.986615,962.267725,459.657299,11473.192101
5201.986937,1258.350101,229.828649,11621.233289
5201.987260,370.102971,-306.438199,11473.192101
5201.987582,-1332.370696,-1149.143247,11399.171507
5201.987905,-1036.288319,-1302.362347,11251.130318
5201.988227,0.000000,-383.047749,9400.615463
5201.988549,740.205942,459.657299,7846.182985
5201.988872,962.267725,536.266849,7328.038826
5201.989194,2146.597232,1225.752797,7254.018232
5201.989517,3108.864956,2145.067394,7698.141797
5201.989839,3182.885551,2681.334243,7846.182985
5201.990162,1924.535449,2451.505594,9622.677246
5201.990484,666.185348,1532.190996,10955.047942
5201.990807,-518.144159,612.876398,11177.109724
5201.991129,-1480.411884,536.266849,10436.903782
5201.991452,-2368.659014,-536.266849,9548.656652
5201.991774,-3330.926739,-383.047749,9918.759623
5201.992096,-2886.803174,-612.876398,8956.491898
5201.992419,-1998.556043,0.000000,7402.059420
5201.992741,-1850.514855,612.876398,6661.853478
5201.993064,-666.185348,919.314598,7402.059420
5201.993386,0.000000,1685.410096,8068.244768
5201.993709,1110.308913,2298.286494,8290.306550
5201.994031,296.082377,2068.457845,9326.594869
5201.994354,-518.144159,1762.019645,10658.965565
5201.994676,-1036.288319,383.047749,11917.315666
5201.994999,-1406.391290,153.219100,11325.150913
5201.995321,-888.247130,229.828649,10658.965565
5201.995643,-1480.411884,0.000000,9400.615463
5201.995966,-1036.288319,153.219100,9474.636058
5201.996288,148.041188,995.924147,8660.409521
5201.996611,962.267725,1762.019645,7105.977043
5201.996933,1554.432478,1532.190996,7179.997637
5201.997256,814.226536,1378.971896,8512.368333
5201.997578,1110.308913,1378.971896,9474.636058
5201.997901,1332.370696,1608.800546,9844.739029
5201.998223,0.000000,689.485948,9622.677246
5201.998546,-1998.556043,76.609550,11177.109724
5201.998868,-2738.761985,-995.924147,10881.027347
5201.999190,-2368.659014,-842.705048,10214.842000
5201.999513,-1702.473667,-612.876398,8216.285956
5201.999835,-2072.576638,-536.266849,8216.285956
5202.000158,-1258.350101,-153.219100,7994.224174
5202.000480,740.205942,306.438199,7476.080014
5202.000803,1776.494261,1608.800546,7328.038826
5202.001125,2072.576638,2145.067394,8364.327145
5202.001448,1406.391290,1302.362347,11177.109724
5202.001770,1776.494261,1072.533697,11695.253884
5202.002092,1702.473667,842.705048,11325.150913
5202.002415,296.082377,306.438199,11547.212695
5202.002737,-444.123565,-459.657299,11917.315666
5202.003060,-370.102971,-1225.752797,10732.986159
5202.003382,814.226536,536.266849,8882.471304
5202.003705,1554.432478,842.705048,7698.141797
5202.004027,666.185348,612.876398,7031.956449
5202.004350,1184.329507,919.314598,7105.977043
5202.004672,2220.617826,1991.848295,7550.100608
5202.004995,1702.473667,2987.772442,7920.203579
5202.005317,888.247130,2068.457845,9548.656652
5202.005639,74.020594,1455.581446,11103.089130
5202.005962,-148.041188,919.314598,11251.130318
5202.006284,-1110.308913,612.876398,10436.903782
5202.006607,-2368.659014,0.000000,10362.883188
5202.006929,-2368.659014,-766.095498,10214.842000
5202.007252,-2294.638420,-919.314598,8438.347739
5202.007574,-962.267725,536.266849,7550.100608
5202.007897,-1332.370696,689.485948,6587.832884
5202.008219,-1036.288319,76.609550,6883.915261
5202.008542,-222.061783,1072.533697,8512.368333
5202.008864,-296.082377,1532.190996,8734.430116
5202.009186,-444.123565,1455.581446,10362.883188
5202.009509,-1036.288319,229.828649,11621.233289
5202.009831,-1332.370696,0.000000,11991.336260
5202.010154,-888.247130,0.000000,11103.089130
5202.010476,-814.226536,536.266849,9770.718434
5202.010799,-1258.350101,-306.438199,9400.615463
5202.011121,-444.123565,306.438199,9474.636058
5202.011444,518.144159,842.705048,8068.244768
5202.011766,1850.514855,1378.971896,7031.956449
5202.012089,888.247130,1915.238745,7031.956449
5202.012411,888.247130,919.314598,8808.450710
5202.012733,592.164754,1378.971896,9696.697840
5202.013056,148.041188,842.705048,9918.759623
5202.013378,-1036.288319,919.314598,10362.883188
5202.013701,-2368.659014,-229.828649,11251.130318
5202.014023,-2368.659014,-919.314598,10510.924376
5202.014346,-1110.308913,-612.876398,8808.450710
5202.014668,-1036.288319,-153.219100,7698.141797
5202.014991,-1406.391290,76.609550,7846.182985
5202.015313,-296.082377,-229.828649,7846.182985
5202.015636,1110.308913,766.095498,6809.894666
5202.015958,2220.617826,1532.190996,7105.977043
5202.016280,1110.308913,1225.752797,8586.388927
5202.016603,1258.350101,995.924147,11177.109724
5202.016925,1554.432478,459.657299,11769.274478
5202.017248,740.205942,76.609550,11621.233289
5202.017570,0.000000,153.219100,11843.295072
5202.017893,-888.247130,-383.047749,12287.418637
5202.018215,148.041188,-229.828649,10584.944971
5202.018538,1776.494261,306.438199,8808.450710
5202.018860,1776.494261,1302.362347,7105.977043
5202.019182,1998.556043,1455.581446,7476.080014
5202.019505,2368.659014,1991.848295,7624.121203
5202.019827,2886.803174,2298.286494,7772.162391
5202.020150,1998.556043,2604.724693,8068.244768
5202.020472,0.000000,1378.971896,9992.780217
5202.020795,-1480.411884,612.876398,11177.109724
5202.021117,-2072.576638,306.438199,11251.130318
5202.021440,-3034.844362,0.000000,10140.821405
5202.021762,-3552.988522,-306.438199,9770.718434
5202.022085,-3404.947333,-842.705048,10140.821405
5202.022407,-2368.659014,0.000000,8364.327145
5202.022729,-666.185348,766.095498,7105.977043
5202.023052,-518.144159,1149.143247,6587.832884
5202.023374,0.000000,1455.581446,8068.244768
5202.023697,888.247130,1762.019645,8364.327145
5202.024019,888.247130,3140.991542,8734.430116
5202.024342,296.082377,2145.067394,9844.739029
5202.024664,-1258.350101,842.705048,11399.171507
5202.024987,-1702.473667,0.000000,11621.233289
5202.025309,-1924.535449,-229.828649,10436.903782
5202.025632,-1332.370696,153.219100,9474.636058
5202.025954,-1480.411884,0.000000,9400.615463
5202.026276,-296.082377,306.438199,8882.471304
5202.026599,1332.370696,1762.019645,7254.018232
5202.026921,1702.473667,1991.848295,6587.832884
5202.027244,1258.350101,2145.067394,7254.018232
5202.027566,1110.308913,1762.019645,9030.512492
5202.027889,592.164754,1072.533697,10066.800811
5202.028211,518.144159,1455.581446,10362.883188
5202.028534,-1332.370696,-306.438199,10807.006753
5202.028856,-3034.844362,-1072.533697,11029.068536
5202.029179,-2664.741391,-2068.457845,11103.089130
5202.029501,-2442.679609,-1072.533697,9474.636058
5202.029823,-1776.494261,-842.705048,8068.244768
5202.030146,-1480.411884,-842.705048,8290.306550
5202.030468,-370.102971,-459.657299,7994.224174
5202.030791,2146.597232,842.705048,6735.874072
5202.031113,2664.741391,1455.581446,7698.141797
5202.031436,2146.597232,1302.362347,9474.636058
5202.031758,1554.432478,612.876398,11695.253884
5202.032081,1184.329507,306.438199,12213.398043
5202.032403,1258.350101,76.609550,11843.295072
5202.032725,0.000000,-612.876398,11843.295072
5202.033048,-1258.350101,-1225.752797,11695.253884
5202.033370,-148.041188,-995.924147,10807.006753
5202.033693,814.226536,0.000000,8438.347739
5202.034015,1184.329507,689.485948,7476.080014
5202.034338,1332.370696,995.924147,7698.141797
5202.034660,2220.617826,1302.362347,7994.224174
5202.034983,2960.823768,2221.676944,7105.977043
5202.035305,1628.453072,2451.505594,8734.430116
5202.035628,444.123565,1532.190996,9770.718434
5202.035950,-1184.329507,306.438199,11621.233289
5202.036272,-1702.473667,306.438199,10436.903782
5202.036595,-2442.679609,-229.828649,9918.759623
5202.036917,-4071.132681,-1225.752797,9548.656652
5202.037240,-3701.029710,-1225.752797,9400.615463
5202.037562,-2146.597232,-383.047749,7772.162391
5202.037885,-1850.514855,842.705048,6883.915261
5202.038207,-444.123565,229.828649,7328.038826
5202.038530,-74.020594,1455.581446,8364.327145
5202.038852,888.247130,2145.067394,8734.430116
5202.039175,1480.411884,2221.676944,9622.677246
5202.039497,0.000000,1915.238745,10288.862594
5202.039819,-814.226536,1149.143247,11547.212695
5202.040142,-962.267725,76.609550,11991.336260
5202.040464,-888.247130,459.657299,10362.883188
5202.040787,-1036.288319,76.609550,9326.594869
5202.041109,-1702.473667,0.000000,9178.553681
5202.041432,-592.164754,536.266849,8142.265362
5202.041754,814.226536,919.314598,7105.977043
5202.042077,814.226536,1915.238745,6217.729913
5202.042399,1110.308913,2068.457845,7624.121203
5202.042722,592.164754,1455.581446,9178.553681
5202.043044,1480.411884,1762.019645,9844.739029
5202.043366,592.164754,1455.581446,10066.800811
5202.043689,-1480.411884,383.047749,10881.027347
5202.044011,-2442.679609,-766.095498,11769.274478
5202.044334,-2368.659014,-1225.752797,10881.027347
5202.044656,-2146.597232,-536.266849,9178.553681
5202.044979,-1036.288319,-766.095498,8068.244768
5202.045301,-1702.473667,-153.219100,8142.265362
5202.045624,74.020594,-383.047749,8068.244768
5202.045946,1776.494261,689.485948,7254.018232
5202.046269,2072.576638,1455.581446,7920.203579
5202.046591,1702.473667,1225.752797,9918.759623
5202.046913,1332.370696,842.705048,11917.315666
5202.047236,2220.617826,536.266849,11399.171507
5202.047558,1036.288319,536.266849,10881.027347
5202.047881,0.000000,-229.828649,11695.253884
5202.048203,-666.185348,-995.924147,11843.295072
5202.048526,0.000000,-536.266849,10288.862594
5202.048848,1110.308913,229.828649,7846.182985
5202.049171,1110.308913,1532.190996,7105.977043
5202.049493,296.082377,766.095498,7402.059420
5202.049815,1258.350101,1762.019645,7550.100608
5202.050138,1924.535449,2145.067394,7476.080014
5202.050460,888.247130,1991.848295,8586.388927
5202.050783,-518.144159,1149.143247,10584.944971
5202.051105,-1332.370696,306.438199,11103.089130
5202.051428,-1480.411884,76.609550,10436.903782
5202.051750,-2812.782580,-383.047749,9030.512492
5202.052073,-2812.782580,-919.314598,9326.594869
5202.052395,-2812.782580,-1225.752797,9474.636058
5202.052718,-1850.514855,-536.266849,7550.100608
5202.053040,-740.205942,229.828649,6809.894666
5202.053362,-814.226536,536.266849,6883.915261
5202.053685,-444.123565,1302.362347,8586.388927
5202.054007,518.144159,1608.800546,9030.512492
5202.054330,444.123565,1762.019645,10288.862594
5202.054652,74.020594,1149.143247,10955.047942
5202.054975,-740.205942,689.485948,12213.398043
5202.055297,-740.205942,76.609550,12139.377449
5202.055620,0.000000,153.219100,10658.965565
5202.055942,-888.247130,153.219100,10066.800811
5202.056265,-222.061783,612.876398,8882.471304
5202.056587,296.082377,536.266849,8364.327145
5202.056909,1406.391290,1838.629195,7031.956449
5202.057232,1702.473667,2145.067394,6809.894666
5202.057554,518.144159,1532.190996,7994.224174
5202.057877,666.185348,1302.362347,9548.656652
5202.058199,0.000000,1225.752797,9770.718434
5202.058522,-1110.308913,842.705048,10288.862594
5202.058844,-2368.659014,-459.657299,11399.171507
5202.059167,-3330.926739,-612.876398,10807.006753
5202.059489,-2146.597232,-536.266849,9770.718434
5202.059812,-1184.329507,0.000000,8438.347739
5202.060134,-1332.370696,0.000000,7698.141797
5202.060456,-592.164754,0.000000,7994.224174
5202.060779,1332.370696,612.876398,7772.162391
5202.061101,1850.514855,536.266849,7105.977043
5202.061424,2220.617826,2068.457845,8068.244768
5202.061746,1628.453072,1378.971896,10288.862594
5202.062069,666.185348,766.095498,11399.171507
5202.062391,740.205942,612.876398,11399.171507
5202.062714,0.000000,76.609550,11177.109724
5202.063036,-666.185348,-689.485948,11473.192101
5202.063359,-222.061783,229.828649,10732.986159
5202.063681,1036.288319,229.828649,9178.553681
5202.064003,1776.494261,766.095498,7624.121203
5202.064326,1628.453072,1149.143247,7550.100608
5202.064648,1998.556043,1455.581446,7920.203579
5202.064971,2368.659014,2145.067394,7920.203579
5202.065293,2442.679609,2451.505594,8068.244768
5202.065616,1110.308913,2145.067394,9104.533087
5202.065938,-592.164754,766.095498,11325.150913
5202.066261,-1406.391290,229.828649,11473.192101
5202.066583,-2664.741391,-306.438199,10658.965565
5202.066905,-3330.926739,-536.266849,9844.739029
5202.067228,-3997.112087,-1225.752797,9696.697840
5202.067550,-2812.782580,-383.047749,8882.471304
5202.067873,-1258.350101,229.828649,7031.956449
5202.068195,-666.185348,229.828649,6143.709319
5202.068518,0.000000,995.924147,6883.915261
5202.068840,0.000000,1302.362347,8216.285956
5202.069163,1258.350101,1685.410096,9178.553681
5202.069485,1036.288319,1915.238745,9696.697840
5202.069808,-222.061783,995.924147,11029.068536
5202.070130,-962.267725,0.000000,12213.398043
5202.070452,-814.226536,-306.438199,11399.171507
5202.070775,-592.164754,76.609550,10807.006753
5202.071097,0.000000,229.828649,9844.739029
5202.071420,-148.041188,76.609550,9400.615463
5202.071742,1406.391290,842.705048,8586.388927
5202.072065,2664.741391,1685.410096,7179.997637
5202.072387,1702.473667,1915.238745,7254.018232
5202.072710,1406.391290,1838.629195,8586.388927
5202.073032,444.123565,1685.410096,9474.636058
5202.073355,-148.041188,689.485948,9844.739029
5202.073677,-1332.370696,459.657299,9474.636058
5202.073999,-3404.947333,-612.876398,10658.965565
5202.074322,-4145.153275,-1762.019645,10732.986159
5202.074644,-3552.988522,-1455.581446,9696.697840
5202.074967,-2738.761985,-842.705048,8290.306550
5202.075289,-2146.597232,-766.095498,7476.080014
5202.075612,-1184.329507,229.828649,8290.306550
5202.075934,814.226536,459.657299,7920.203579
5202.076257,2442.679609,1608.800546,7402.059420
5202.076579,2220.617826,1991.848295,8660.409521
5202.076902,1924.535449,1149.143247,10881.027347
5202.077224,1554.432478,842.705048,12213.398043
5202.077546,1184.329507,383.047749,11843.295072
5202.077869,814.226536,76.609550,11325.150913
5202.078191,-888.247130,-1072.533697,11325.150913
5202.078514,-296.082377,-459.657299,11029.068536
5202.078836,592.164754,0.000000,9030.512492
5202.079159,962.267725,995.924147,7476.080014
5202.079481,1110.308913,1378.971896,7254.018232
5202.079804,1924.535449,1685.410096,6883.915261
5202.080126,3034.844362,2834.553343,7105.977043
5202.080449,2442.679609,3140.991542,7772.162391
5202.080771,1258.350101,2374.896044,9548.656652
5202.081093,-592.164754,1378.971896,11029.068536
5202.081416,-1850.514855,383.047749,11103.089130
5202.081738,-2368.659014,306.438199,10436.903782
5202.082061,-3404.947333,-766.095498,9696.697840
5202.082383,-3923.091493,-1762.019645,9400.615463
5202.082706,-2960.823768,-1072.533697,8586.388927
5202.083028,-1702.473667,-306.438199,7254.018232
5202.083351,-1110.308913,612.876398,6513.812290
5202.083673,-592.164754,1149.143247,7624.121203
5202.083995,592.164754,1378.971896,8290.306550
5202.084318,1406.391290,1685.410096,8808.450710
5202.084640,1110.308913,1762.019645,9992.780217
5202.084963,296.082377,1149.143247,11695.253884
5202.085285,-370.102971,536.266849,12139.377449
5202.085608,-296.082377,153.219100,11325.150913
5202.085930,-296.082377,229.828649,10140.821405
5202.086253,-592.164754,76.609550,9844.739029
5202.086575,74.020594,229.828649,9326.594869
5202.086898,1036.288319,383.047749,8290.306550
5202.087220,1628.453072,1149.143247,7105.977043
5202.087542,1554.432478,1762.019645,7772.162391
5202.087865,296.082377,1149.143247,9252.574275
5202.088187,592.164754,1225.752797,9844.739029
5202.088510,296.082377,1225.752797,10214.842000
5202.088832,-1554.432478,0.000000,10140.821405
5202.089154,-3478.967927,-1149.143247,10881.027347
5202.089477,-4293.194464,-1532.190996,10658.965565
5202.089799,-2368.659014,-1149.143247,8882.471304
5202.090122,-2220.617826,-766.095498,7698.141797
5202.090444,-2516.700203,-612.876398,7476.080014
5202.090766,-1850.514855,-612.876398,7994.224174
5202.091089,74.020594,306.438199,7105.977043
5202.091411,1406.391290,1225.752797,7550.100608
5202.091733,1258.350101,1225.752797,8512.368333
5202.092056,740.205942,1149.143247,11399.171507
5202.092378,666.185348,612.876398,12213.398043
5202.092700,1258.350101,459.657299,11695.253884
5202.093023,518.144159,0.000000,11399.171507
5202.093345,-518.144159,-919.314598,12139.377449
5202.093668,0.000000,-459.657299,10658.965565
5202.093990,1036.288319,306.438199,8438.347739
5202.094312,1998.556043,995.924147,6809.894666
5202.094635,1554.432478,766.095498,7328.038826
5202.094957,1406.391290,1149.143247,7254.018232
5202.095279,1850.514855,1991.848295,7550.100608
5202.095602,1776.494261,2374.896044,7994.224174
5202.095924,666.185348,1915.238745,9918.759623
5202.096247,-296.082377,1072.533697,10881.027347
5202.096569,-1110.308913,383.047749,11251.130318
5202.096891,-1998.556043,-536.266849,10066.800811
5202.097214,-2886.803174,-766.095498,9622.677246
5202.097536,-3034.844362,-1225.752797,9474.636058
5202.097858,-2072.576638,-689.485948,8438.347739
5202.098181,-1110.308913,0.000000,6957.935855
5202.098503,-518.144159,459.657299,6587.832884
5202.098825,-296.082377,842.705048,7698.141797
5202.099148,222.061783,536.266849,8882.471304
5202.099470,592.164754,1915.238745,9548.656652
5202.099793,148.041188,1838.629195,10584.944971
5202.100115,-148.041188,919.314598,11695.253884
5202.100437,-666.185348,766.095498,11917.315666
5202.100760,74.020594,383.047749,11177.109724
5202.101082,-148.041188,76.609550,9474.636058
5202.101404,-222.061783,689.485948,9326.594869
5202.101727,444.123565,536.266849,8882.471304
5202.102049,1184.329507,919.314598,7772.162391
5202.102371,2368.659014,1838.629195,7105.977043
5202.102694,1554.432478,1915.238745,7920.203579
5202.103016,962.267725,1608.800546,9252.574275
5202.103339,888.247130,2298.286494,10066.800811
5202.103661,-296.082377,1762.019645,10362.883188
5202.103983,-1554.432478,536.266849,10658.965565
5202.104306,-2738.761985,-536.266849,11621.233289
5202.104628,-2516.700203,-919.314598,10510.924376
5202.104950,-1332.370696,-689.485948,8586.388927
5202.105273,-1702.473667,-612.876398,7328.038826
5202.105595,-1480.411884,-536.266849,7031.956449
5202.105917,-666.185348,-153.219100,7994.224174
5202.106240,296.082377,842.705048,6957.935855
5202.106562,1258.350101,1225.752797,7328.038826
5202.106885,370.102971,612.876398,9030.512492
5202.107207,-370.102971,229.828649,10881.027347
5202.107529,-148.041188,-536.266849,11547.212695
5202.107852,-592.164754,0.000000,11029.068536
5202.108174,-1258.350101,-383.047749,11547.212695
5202.108496,-1554.432478,-1072.533697,11399.171507
5202.108819,0.000000,-306.438199,10436.903782
5202.109141,1850.514855,459.657299,8438.347739
5202.109464,1850.514855,842.705048,7328.038826
5202.109786,2442.679609,1072.533697,8068.244768
5202.110108,2516.700203,1915.238745,7624.121203
5202.110431,3256.906145,2681.334243,7698.141797
5202.110753,2738.761985,1762.019645,8660.409521
5202.111075,296.082377,1149.143247,10288.862594
5202.111398,-740.205942,229.828649,11325.150913
5202.111720,-1850.514855,-306.438199,11177.109724
5202.112042,-2590.720797,-995.924147,10955.047942
5202.112365,-2960.823768,-536.266849,10066.800811
5202.112687,-3256.906145,-1685.410096,9844.739029
5202.113010,-1628.453072,76.609550,8290.306550
5202.113332,-666.185348,459.657299,7105.977043
5202.113654,-592.164754,689.485948,6883.915261
5202.113977,0.000000,842.705048,7772.162391
5202.114299,222.061783,1225.752797,9030.512492
5202.114621,666.185348,1455.581446,9548.656652
5202.114944,-148.041188,1225.752797,10288.862594
5202.115266,-1480.411884,0.000000,11547.212695
5202.115588,-1258.350101,-383.047749,11843.295072
5202.115911,-1184.329507,-153.219100,10881.027347
5202.116233,-962.267725,229.828649,9622.677246
5202.116556,-592.164754,229.828649,9696.697840
5202.116878,444.123565,612.876398,8586.388927
5202.117200,2738.761985,1532.190996,7476.080014
5202.117523,2590.720797,2528.115143,6143.709319
5202.117845,2368.659014,1838.629195,7772.162391
5202.118167,1332.370696,1685.410096,9252.574275
5202.118490,888.247130,1762.019645,10140.821405
5202.118812,0.000000,1532.190996,10214.842000
5202.119134,-1924.535449,306.438199,10362.883188
5202.119457,-3108.864956,-689.485948,10732.986159
5202.119779,-3108.864956,-1225.752797,10955.047942
5202.120102,-2738.761985,-689.485948,8808.450710
5202.120424,-2294.638420,-306.438199,7328.038826
5202.120746,-1998.556043,0.000000,7698.141797
5202.121069,-370.102971,536.266849,7476.080014
5202.121391,1998.556043,1762.019645,6439.791695
5202.121713,1850.514855,1838.629195,7105.977043
5202.122036,962.267725,919.314598,9252.574275
5202.122358,888.247130,1072.533697,11251.130318
5202.122681,592.164754,536.266849,11621.233289
5202.123003,518.144159,306.438199,11473.192101
5202.123325,-1184.329507,-383.047749,11695.253884
5202.123648,-1554.432478,-383.047749,11473.192101
5202.123970,-592.164754,0.000000,10362.883188
5202.124292,1258.350101,459.657299,8290.306550
5202.124615,1702.473667,1302.362347,7402.059420
5202.124937,1776.494261,1685.410096,7920.203579
5202.125259,2886.803174,2068.457845,8216.285956
5202.125582,2960.823768,2451.505594,7920.203579
5202.125904,1850.514855,2374.896044,9474.636058
5202.126227,740.205942,1149.143247,10955.047942
5202.126549,-740.205942,153.219100,11177.109724
5202.126871,-1850.514855,-383.047749,10584.944971
5202.127194,-2442.679609,-995.924147,9992.780217
5202.127516,-3849.070898,-1378.971896,9622.677246
5202.127838,-3330.926739,-1455.581446,9030.512492
5202.128161,-2516.700203,-689.485948,7328.038826
5202.128483,-1406.391290,306.438199,7031.956449
5202.128805,-296.082377,536.266849,6883.915261
5202.129128,-296.082377,689.485948,8142.265362
5202.129450,1110.308913,1532.190996,9030.512492
5202.129773,1258.350101,1762.019645,9918.759623
5202.130095,-148.041188,1378.971896,10881.027347
5202.130417,-518.144159,459.657299,11991.336260
5202.130740,-518.144159,-153.219100,11843.295072
5202.131062,-592.164754,229.828649,10362.883188
5202.131384,-222.061783,-612.876398,9696.697840
5202.131707,-1406.391290,-306.438199,9030.512492
5202.132029,0.000000,229.828649,8068.244768
5202.132351,1036.288319,1302.362347,6809.894666
5202.132674,1628.453072,1685.410096,6883.915261
5202.132996,888.247130,1915.238745,7994.224174
5202.133319,1184.329507,1838.629195,9770.718434
5202.133641,1406.391290,1991.848295,10066.800811
5202.133963,0.000000,1532.190996,10288.862594
5202.134286,-1776.494261,536.266849,10658.965565
5202.134608,-2442.679609,-766.095498,11325.150913
5202.134930,-2442.679609,-766.095498,10436.903782
5202.135253,-1924.535449,-306.438199,8808.450710
5202.135575,-1554.432478,-306.438199,7402.059420
5202.135897,-1850.514855,0.000000,8068.244768
5202.136220,222.061783,306.438199,7846.182985
5202.136542,1110.308913,1378.971896,7402.059420
5202.136865,1554.432478,1532.190996,8290.306550
5202.137187,888.247130,1455.581446,10436.903782
5202.137509,592.164754,766.095498,11843.295072
5202.137832,1406.391290,689.485948,11547.212695
5202.138154,0.000000,229.828649,11029.068536
5202.138476,-592.164754,-229.828649,11399.171507
5202.138799,-666.185348,-689.485948,10732.986159
5202.139121,296.082377,0.000000,9326.594869
5202.139444,1480.411884,766.095498,7328.038826
5202.139766,1406.391290,1149.143247,7550.100608
5202.140088,1406.391290,1072.533697,7698.141797
5202.140411,1998.556043,1378.971896,7920.203579
5202.140733,2442.679609,2604.724693,8216.285956
5202.141055,1406.391290,2374.896044,9548.656652
5202.141378,148.041188,1302.362347,11251.130318
5202.141700,-740.205942,689.485948,11621.233289
5202.142022,-1332.370696,0.000000,10362.883188
5202.142345,-2516.700203,-383.047749,9548.656652
5202.142667,-2664.741391,-766.095498,9400.615463
5202.142990,-2516.700203,-689.485948,8734.430116
5202.143312,-1554.432478,0.000000,7624.121203
5202.143634,-740.205942,612.876398,6439.791695
5202.143957,-962.267725,383.047749,6957.935855
5202.144279,-370.102971,919.314598,7994.224174
5202.144601,518.144159,1532.190996,9400.615463
5202.144924,518.144159,1762.019645,10066.800811
5202.145246,-962.267725,1225.752797,11029.068536
5202.145568,-666.185348,306.438199,12287.418637
5202.145891,0.000000,76.609550,11843.295072
5202.146213,-370.102971,459.657299,10288.862594
5202.146536,-296.082377,383.047749,9770.718434
5202.146858,148.041188,612.876398,9474.636058
5202.147180,370.102971,459.657299,7994.224174
5202.147503,2220.617826,1225.752797,7624.121203
5202.147825,1850.514855,1532.190996,7105.977043
5202.148147,666.185348,842.705048,8290.306550
5202.148470,296.082377,842.705048,9548.656652
5202.148792,0.000000,689.485948,9770.718434
5202.149114,-1184.329507,229.828649,10362.883188
5202.149437,-2368.659014,-1302.362347,11103.089130
5202.149759,-3256.906145,-1608.800546,11029.068536
5202.150082,-1924.535449,-995.924147,9844.739029
5202.150404,-1406.391290,0.000000,7994.224174
5202.150726,-1628.453072,-383.047749,7772.162391
5202.151049,-592.164754,-306.438199,8068.244768
5202.151371,444.123565,459.657299,7698.141797
5202.151693,1702.473667,1302.362347,7772.162391
5202.152016,1776.494261,1149.143247,8660.409521
5202.152338,444.123565,689.485948,10658.965565
5202.152661,444.123565,76.609550,11917.315666
5202.152983,370.102971,153.219100,11621.233289
5202.153305,-296.082377,0.000000,11399.171507
5202.153628,-962.267725,-689.485948,11621.233289
5202.153950,0.000000,-919.314598,10955.047942
5202.154272,1258.350101,383.047749,8364.327145
5202.154595,1702.473667,1455.581446,7328.038826
5202.154917,1850.514855,1378.971896,6735.874072
5202.155239,1850.514855,1455.581446,7402.059420
5202.155562,2442.679609,2145.067394,7698.141797
5202.155884,2072.576638,2451.505594,8142.265362
5202.156207,370.102971,1685.410096,9474.636058
5202.156529,-962.267725,1149.143247,10732.986159
5202.156851,-2072.576638,459.657299,11029.068536
5202.157174,-2664.741391,0.000000,10066.800811
5202.157496,-3182.885551,-766.095498,9844.739029
5202.157818,-3256.906145,-919.314598,9400.615463
5202.158141,-2220.617826,-383.047749,8586.388927
5202.158463,-592.164754,536.266849,7031.956449
5202.158785,-296.082377,1302.362347,6513.812290
5202.159108,0.000000,1072.533697,7254.018232
5202.159430,740.205942,1225.752797,8586.388927
5202.159753,1184.329507,2221.676944,9400.615463
5202.160075,592.164754,1838.629195,9770.718434
5202.160397,-1036.288319,919.314598,11251.130318
5202.160720,-1554.432478,76.609550,11843.295072
5202.161042,-1036.288319,0.000000,10955.047942
5202.161364,-592.164754,153.219100,10436.903782
5202.161687,-222.061783,612.876398,9474.636058
5202.162009,-296.082377,306.438199,9030.512492
5202.162331,1184.329507,919.314598,7994.224174
5202.162654,2368.659014,1608.800546,6809.894666
5202.162976,2072.576638,1532.190996,7179.997637
5202.163299,1184.329507,1455.581446,9030.512492
5202.163621,296.082377,1302.362347,9622.677246
5202.163943,0.000000,1225.752797,9696.697840
5202.164266,-962.267725,459.657299,9992.780217
5202.164588,-3182.885551,-689.485948,10658.965565
5202.164910,-3627.009116,-1378.971896,10584.944971
5202.165233,-2886.803174,-1225.752797,9844.739029
5202.165555,-2146.597232,-536.266849,7994.224174
5202.165877,-1036.288319,0.000000,8216.285956
5202.166200,-518.144159,0.000000,7772.162391
5202.166522,1554.432478,1225.752797,7846.182985
5202.166845,2886.803174,1455.581446,8142.265362
5202.167167,2294.638420,1532.190996,9474.636058
5202.167489,1332.370696,689.485948,11547.212695
5202.167812,740.205942,383.047749,12435.459826
5202.168134,814.226536,0.000000,11769.274478
5202.168456,148.041188,-459.657299,11325.150913
5202.168779,-1332.370696,-689.485948,11325.150913
5202.169101,-1184.329507,-995.924147,10955.047942
5202.169424,148.041188,0.000000,8808.450710
5202.169746,1036.288319,1072.533697,7179.997637
5202.170068,1554.432478,1455.581446,7179.997637
5202.170391,1998.556043,2298.286494,7402.059420
5202.170713,2812.782580,2451.505594,7402.059420
5202.171035,2442.679609,2374.896044,7698.141797
5202.171358,814.226536,2528.115143,9696.697840
5202.171680,-518.144159,1225.752797,11325.150913
5202.172002,-1628.453072,0.000000,11251.130318
5202.172325,-2368.659014,-306.438199,9918.759623
5202.172647,-3256.906145,-689.485948,9548.656652
5202.172970,-3552.988522,-766.095498,9104.533087
5202.173292,-2960.823768,-689.485948,8068.244768
5202.173614,-1332.370696,995.924147,6883.915261
5202.173937,-1184.329507,689.485948,6661.853478
5202.174259,-518.144159,1378.971896,7624.121203
5202.174581,1036.288319,1762.019645,8734.430116
5202.174904,1776.494261,2374.896044,8882.471304
5202.175226,518.144159,2451.505594,10140.821405
5202.175548,-592.164754,0.000000,11029.068536
5202.175871,-814.226536,383.047749,11991.336260
5202.176193,-740.205942,76.609550,10658.965565
5202.176516,-592.164754,76.609550,9622.677246
5202.176838,-1184.329507,-459.657299,9326.594869
5202.177160,-740.205942,153.219100,8808.450710
5202.177483,962.267725,689.485948,7550.100608
5202.177805,1554.432478,1455.581446,7476.080014
5202.178127,1332.370696,2221.676944,7994.224174
5202.178450,814.226536,1838.629195,9548.656652
5202.178772,444.123565,1455.581446,10584.944971
5202.179094,888.247130,1225.752797,10658.965565
5202.179417,-1480.411884,383.047749,10732.986159
5202.179739,-2738.761985,-1072.533697,11251.130318
5202.180062,-3108.864956,-995.924147,10732.986159
5202.180384,-2368.659014,-383.047749,9104.533087
5202.180706,-1332.370696,-766.095498,7846.182985
5202.181029,-2220.617826,-919.314598,7920.203579
5202.181351,-1406.391290,-536.266849,7846.182985
5202.181673,370.102971,76.609550,7550.100608
5202.181996,962.267725,1762.019645,8216.285956
5202.182318,962.267725,1378.971896,9326.594869
5202.182641,0.000000,612.876398,11177.109724
5202.182963,1258.350101,1378.971896,11621.233289
5202.183285,814.226536,689.485948,11399.171507
5202.183608,0.000000,76.609550,11103.089130
5202.183930,-222.061783,-306.438199,11177.109724
5202.184252,370.102971,-153.219100,9696.697840
5202.184575,1850.514855,1149.143247,8068.244768
5202.184897,1998.556043,842.705048,6735.874072
5202.185219,1480.411884,1225.752797,6587.832884
5202.185542,2368.659014,1838.629195,7254.018232
5202.185864,2590.720797,2451.505594,7550.100608
5202.186187,1702.473667,2145.067394,8290.306550
5202.186509,148.041188,766.095498,10140.821405
5202.186831,-1110.308913,919.314598,11029.068536
5202.187154,-962.267725,766.095498,11177.109724
5202.187476,-2368.659014,76.609550,9400.615463
5202.187798,-3034.844362,-536.266849,9400.615463
5202.188121,-2664.741391,-766.095498,9326.594869
5202.188443,-2072.576638,-306.438199,7920.203579
5202.188765,-370.102971,536.266849,6883.915261
5202.189088,-814.226536,1225.752797,6587.832884
5202.189410,0.000000,229.828649,8512.368333
5202.189732,370.102971,1455.581446,9474.636058
5202.190055,444.123565,1532.190996,10436.903782
5202.190377,0.000000,1532.190996,11399.171507
5202.190699,-1036.288319,689.485948,12435.459826
5202.191022,-666.185348,0.000000,12435.459826
5202.191344,-370.102971,306.438199,11103.089130
5202.191667,-370.102971,229.828649,9326.594869
5202.191989,-1036.288319,306.438199,8512.368333
5202.192311,222.061783,383.047749,8216.285956
5202.192634,1332.370696,1149.143247,7179.997637
5202.192956,2072.576638,2068.457845,6513.812290
5202.193278,962.267725,1991.848295,7698.141797
5202.193601,518.144159,1455.581446,9178.553681
5202.193923,-148.041188,1149.143247,10214.842000
5202.194245,-814.226536,1072.533697,9918.759623
5202.194568,-2294.638420,0.000000,10807.006753
5202.194890,-3256.906145,-536.266849,11029.068536
5202.195212,-2812.782580,-1149.143247,9992.780217
5202.195535,-1554.432478,-766.095498,8364.327145
5202.195857,-1480.411884,-383.047749,7179.997637
5202.196179,-1332.370696,0.000000,6957.935855
5202.196502,-296.082377,0.000000,7105.977043
5202.196824,1258.350101,1149.143247,7254.018232
5202.197146,1850.514855,1378.971896,7920.203579
5202.197469,740.205942,919.314598,9844.739029
5202.197791,222.061783,536.266849,11695.253884
5202.198113,296.082377,306.438199,12213.398043
5202.198436,0.000000,306.438199,11399.171507
5202.198758,-518.144159,0.000000,11621.233289
5202.199080,-222.061783,-153.219100,11473.192101
5202.199403,1110.308913,76.609550,9918.759623
5202.199725,1998.556043,919.314598,7994.224174
5202.200047,2368.659014,1225.752797,7328.038826
5202.200370,2516.700203,1608.800546,7698.141797
5202.200692,2442.679609,1608.800546,7772.162391
5202.201015,3108.864956,2221.676944,7994.224174
5202.201337,2146.597232,2145.067394,9326.594869
5202.201659,-740.205942,919.314598,10807.006753
5202.201982,-1406.391290,0.000000,11399.171507
5202.202304,-2590.720797,-306.438199,10510.924376
5202.202626,-3627.009116,-766.095498,9622.677246
5202.202949,-3478.967927,-459.657299,9326.594869
5202.203271,-2812.782580,-919.314598,8364.327145
5202.203593,-1480.411884,153.219100,7179.997637
5202.203916,-962.267725,995.924147,6217.729913
5202.204238,-222.061783,1149.143247,6809.894666
5202.204560,74.020594,1225.752797,8290.306550
5202.204883,814.226536,1915.238745,9474.636058
5202.205205,1184.329507,2068.457845,10658.965565
5202.205527,-444.123565,919.314598,10584.944971
5202.205850,-1406.391290,306.438199,11991.336260
5202.206172,-962.267725,-842.705048,11695.253884
5202.206494,-1554.432478,-306.438199,10807.006753
5202.206817,-814.226536,0.000000,9474.636058
5202.207139,-444.123565,0.000000,9030.512492
5202.207461,592.164754,0.000000,8216.285956
5202.207784,2294.638420,1455.581446,6809.894666
5202.208106,2442.679609,2068.457845,7179.997637
5202.208428,2072.576638,2298.286494,8364.327145
5202.208751,888.247130,1532.190996,9548.656652
5202.209073,0.000000,1149.143247,10214.842000
5202.209395,-666.185348,842.705048,10362.883188
5202.209718,-2812.782580,-306.438199,10732.986159
5202.210040,-3849.070898,-1762.019645,10510.924376
5202.210362,-3182.885551,-1455.581446,9992.780217
5202.210685,-2664.741391,-306.438199,8290.306550
5202.211007,-1924.535449,-383.047749,7772.162391
5202.211330,-1480.411884,0.000000,8142.265362
5202.211652,592.164754,459.657299,7846.182985
5202.211974,2368.659014,1378.971896,7254.018232
5202.212297,2072.576638,1838.629195,8364.327145
5202.212619,1036.288319,1072.533697,10584.944971
5202.212941,740.205942,229.828649,11399.171507
5202.213264,888.247130,459.657299,11399.171507
5202.213586,296.082377,306.438199,10881.027347
5202.213908,-962.267725,-383.047749,10955.047942
5202.214231,-592.164754,-919.314598,10436.903782
5202.214553,444.123565,-459.657299,9252.574275
5202.214875,1406.391290,919.314598,6883.915261
5202.215198,2294.638420,1532.190996,7254.018232
5202.215520,2368.659014,1991.848295,7254.018232
5202.215842,3182.885551,2528.115143,8290.306550
5202.216165,3330.926739,3294.210641,8290.306550
5202.216487,2072.576638,2451.505594,9844.739029
5202.216809,296.082377,1608.800546,10658.965565
5202.217132,-1184.329507,76.609550,11473.192101
5202.217454,-2220.617826,-153.219100,10807.006753
5202.217776,-2886.803174,-383.047749,9548.656652
5202.218099,-3923.091493,-1378.971896,9104.533087
5202.218421,-3478.967927,-1302.362347,8216.285956
5202.218743,-2812.782580,-612.876398,7105.977043
5202.219066,-1924.535449,0.000000,6439.791695
5202.219388,-1406.391290,766.095498,6957.935855
5202.219710,-1258.350101,919.314598,8216.285956
5202.220033,444.123565,1302.362347,9252.574275
5202.220355,0.000000,1608.800546,10066.800811
5202.220678,-888.247130,919.314598,11251.130318
5202.221000,-1184.329507,153.219100,12213.398043
5202.221322,-1258.350101,306.438199,12065.356855
5202.221645,-518.144159,0.000000,10214.842000
5202.221967,-370.102971,-459.657299,9992.780217
5202.222289,-666.185348,0.000000,9104.533087
5202.222612,1332.370696,306.438199,8956.491898
5202.222934,1776.494261,1302.362347,7402.059420
5202.223256,1998.556043,1685.410096,7105.977043
5202.223579,1332.370696,1532.190996,8956.491898
5202.223901,1406.391290,1302.362347,10214.842000
5202.224223,1036.288319,995.924147,9770.718434
5202.224546,-814.226536,766.095498,9918.759623
5202.224868,-2368.659014,-383.047749,10510.924376
5202.225190,-3182.885551,-1608.800546,10955.047942
5202.225513,-3108.864956,-1302.362347,9326.594869
5202.225835,-2368.659014,-459.657299,7772.162391
5202.226157,-2294.638420,-306.438199,7105.977043
5202.226480,-2146.597232,-383.047749,7031.956449
5202.226802,0.000000,0.000000,7328.038826
5202.227124,1258.350101,1149.143247,7476.080014
5202.227447,1036.288319,1302.362347,8734.430116
5202.227769,962.267725,995.924147,11029.068536
5202.228091,814.226536,383.047749,12213.398043
5202.228414,1702.473667,689.485948,11325.150913
5202.228736,148.041188,306.438199,10955.047942
5202.229058,370.102971,-536.266849,11325.150913
5202.229381,444.123565,-229.828649,10807.006753
5202.229703,1184.329507,459.657299,8660.409521
5202.230026,2590.720797,1378.971896,7179.997637
5202.230348,1850.514855,1608.800546,6957.935855
5202.230670,1998.556043,1838.629195,7402.059420
5202.230993,2812.782580,2604.724693,7772.162391
5202.231315,1776.494261,3064.381992,8586.388927
5202.231637,962.267725,2528.115143,9770.718434
5202.231960,-444.123565,1149.143247,11547.212695
5202.232282,-1480.411884,536.266849,11473.192101
5202.232604,-2072.576638,229.828649,10214.842000
5202.232927,-3404.947333,-383.047749,9622.677246
5202.233249,-3627.009116,-459.657299,8956.491898
5202.233571,-2738.761985,-1762.019645,8142.265362
5202.233894,-1924.535449,-306.438199,6587.832884
5202.234216,-888.247130,536.266849,6217.729913
5202.234538,-1258.350101,612.876398,7105.977043
5202.234861,-222.061783,1072.533697,8438.347739
5202.235183,148.041188,1455.581446,9474.636058
5202.235505,148.041188,1378.971896,10436.903782
5202.235828,-592.164754,1072.533697,11547.212695
5202.236150,-592.164754,229.828649,12657.521608
5202.236472,148.041188,612.876398,11621.233289
5202.236795,0.000000,383.047749,10214.842000
5202.237117,0.000000,383.047749,9770.718434
5202.237439,370.102971,229.828649,8956.491898
5202.237762,1184.329507,612.876398,7846.182985
5202.238084,2516.700203,1685.410096,7476.080014
5202.238406,1702.473667,1762.019645,7476.080014
5202.238729,0.000000,1302.362347,9104.533087
5202.239051,0.000000,536.266849,9696.697840
5202.239373,-666.185348,612.876398,9992.780217
5202.239696,-2072.576638,229.828649,10140.821405
5202.240018,-3330.926739,-612.876398,10807.006753
5202.240341,-3552.988522,-1685.410096,10140.821405
5202.240663,-1924.535449,-919.314598,8808.450710
5202.240985,-1332.370696,-919.314598,7031.956449
5202.241308,-1776.494261,-612.876398,7105.977043
5202.241630,-518.144159,0.000000,7920.203579
5202.241952,814.226536,306.438199,7254.018232
5202.242275,2368.659014,1225.752797,7846.182985
5202.242597,1776.494261,1378.971896,9474.636058
5202.242919,518.144159,-153.219100,11621.233289
5202.243242,740.205942,229.828649,12509.480420
5202.243564,740.205942,153.219100,11547.212695
5202.243886,0.000000,-306.438199,11399.171507
5202.244209,-888.247130,-689.485948,11843.295072
5202.244531,0.000000,-536.266849,10732.986159
5202.244853,1628.453072,689.485948,8216.285956
5202.245176,1702.473667,1378.971896,6809.894666
5202.245498,1998.556043,919.314598,7254.018232
5202.245820,2146.597232,1915.238745,7698.141797
5202.246143,2294.638420,2528.115143,7772.162391
5202.246465,2442.679609,2451.505594,8290.306550
5202.246787,0.000000,1532.190996,9918.759623
5202.247110,-1480.411884,612.876398,11473.192101
5202.247432,-1850.514855,229.828649,11325.150913
5202.247754,-3404.947333,0.000000,9696.697840
5202.248077,-2812.782580,383.047749,9770.718434
5202.248399,-3256.906145,0.000000,9326.594869
5202.248721,-2146.597232,0.000000,8586.388927
5202.249044,-370.102971,1072.533697,6661.853478
5202.249366,0.000000,1378.971896,6291.750507
5202.249689,592.164754,1838.629195,7698.141797
5202.250011,1036.288319,689.485948,8586.388927
5202.250333,1110.308913,2145.067394,9548.656652
5202.250656,814.226536,1225.752797,10288.862594
5202.250978,-1036.288319,766.095498,11251.130318
5202.251300,-1480.411884,0.000000,11621.233289
5202.251623,-1110.308913,153.219100,10955.047942
5202.251945,-1332.370696,76.609550,9696.697840
5202.252267,-1110.308913,76.609550,9104.533087
5202.252590,0.000000,612.876398,8734.430116
5202.252912,1850.514855,1455.581446,7772.162391
5202.253234,2294.638420,1991.848295,6735.874072
5202.253557,1776.494261,1915.238745,7920.203579
5202.253879,1332.370696,1532.190996,9252.574275
5202.254201,370.102971,1149.143247,10140.821405
5202.254524,0.000000,1532.190996,10140.821405
5202.254846,-1406.391290,459.657299,10658.965565
5202.255168,-3182.885551,-459.657299,11177.109724
5202.255491,-3330.926739,-1532.190996,10584.944971
5202.255813,-2294.638420,-842.705048,9252.574275
5202.256135,-1998.556043,-612.876398,7624.121203
5202.256458,-1554.432478,0.000000,7920.203579
5202.256780,-74.020594,0.000000,7550.100608
5202.257102,1776.494261,842.705048,7254.018232
5202.257425,2072.576638,1455.581446,7328.038826
5202.257747,1258.350101,1762.019645,9326.594869
5202.258069,888.247130,842.705048,11547.212695
5202.258392,518.144159,229.828649,11769.274478
5202.258714,592.164754,383.047749,11177.109724
5202.259037,-666.185348,-383.047749,10955.047942
5202.259359,-1184.329507,-1072.533697,11325.150913
5202.259681,-444.123565,-612.876398,10214.842000
5202.260004,888.247130,0.000000,8142.265362
5202.260326,1702.473667,1149.143247,7105.977043
5202.260648,2220.617826,1455.581446,7476.080014
5202.260971,2738.761985,2068.457845,7772.162391
5202.261293,3108.864956,2757.943793,7698.141797
5202.261615,2368.659014,1762.019645,8586.388927
5202.261938,740.205942,1991.848295,10140.821405
5202.262260,-518.144159,612.876398,11843.295072
5202.262582,-1776.494261,-229.828649,11251.130318
5202.262905,-2368.659014,-306.438199,9844.739029
5202.263227,-3775.050304,-689.485948,9548.656652
5202.263549,-3552.988522,-1532.190996,9326.594869
5202.263872,-2072.576638,-919.314598,8068.244768
5202.264194,-2294.638420,153.219100,6217.729913
5202.264516,-888.247130,842.705048,6661.853478
5202.264839,-296.082377,1302.362347,8290.306550
5202.265161,296.082377,1455.581446,9252.574275
5202.265483,1184.329507,1838.629195,9770.718434
5202.265806,-222.061783,842.705048,10881.027347
5202.266128,-1036.288319,995.924147,11251.130318
5202.266450,-740.205942,-229.828649,11621.233289
5202.266773,-1110.308913,0.000000,10362.883188
5202.267095,-962.267725,-306.438199,9474.636058
5202.267417,-1258.350101,-459.657299,9030.512492
5202.267740,-222.061783,-229.828649,8290.306550
5202.268062,1036.288319,612.876398,7402.059420
5202.268384,1332.370696,2145.067394,7179.997637
5202.268707,1702.473667,1838.629195,8216.285956
5202.269029,814.226536,1149.143247,9252.574275
5202.269352,666.185348,1762.019645,10510.924376
5202.269674,296.082377,1149.143247,10288.862594
5202.269996,-1628.453072,229.828649,10732.986159
5202.270319,-2516.700203,-612.876398,11103.089130
5202.270641,-2368.659014,-995.924147,10436.903782
5202.270963,-1924.535449,-383.047749,8438.347739
5202.271286,-1332.370696,-306.438199,7105.977043
5202.271608,-1702.473667,-612.876398,7254.018232
5202.271930,-444.123565,0.000000,7698.141797
5202.272253,1184.329507,1149.143247,7476.080014
5202.272575,1554.432478,1838.629195,8438.347739
5202.272897,1036.288319,1225.752797,9918.759623
5202.273220,444.123565,766.095498,11473.192101
5202.273542,1036.288319,1149.143247,11695.253884
5202.273864,888.247130,842.705048,11103.089130
5202.274187,-296.082377,0.000000,11103.089130
5202.274509,-518.144159,-459.657299,11177.109724
5202.274831,370.102971,229.828649,9770.718434
5202.275154,1776.494261,1149.143247,7550.100608
5202.275476,1850.514855,1762.019645,7105.977043
5202.275798,1406.391290,1838.629195,7105.977043
5202.276121,2146.597232,1991.848295,7328.038826
5202.276443,1850.514855,2681.334243,8364.327145
5202.276765,1406.391290,2374.896044,9326.594869
5202.277088,-148.041188,1455.581446,10807.006753
5202.277410,-1258.350101,689.485948,11103.089130
5202.277732,-1406.391290,0.000000,10362.883188
5202.278055,-3034.844362,0.000000,9622.677246
5202.278377,-2738.761985,-1072.533697,9696.697840
5202.278700,-2738.761985,-766.095498,8956.491898
5202.279022,-1702.473667,0.000000,7402.059420
5202.279344,-592.164754,766.095498,6513.812290
5202.279667,-1110.308913,689.485948,6587.832884
5202.279989,-370.102971,766.095498,8142.265362
5202.280311,-148.041188,1685.410096,9400.615463
5202.280634,0.000000,1608.800546,9918.759623
5202.280956,-1036.288319,1072.533697,10955.047942
5202.281278,-1850.514855,0.000000,12435.459826
5202.281601,-1110.308913,-383.047749,11843.295072
5202.281923,-666.185348,-229.828649,10214.842000
5202.282245,-666.185348,-229.828649,9178.553681
5202.282568,0.000000,0.000000,9252.574275
5202.282890,592.164754,153.219100,7698.141797
5202.283212,1702.473667,766.095498,6809.894666
5202.283535,2146.597232,1378.971896,7105.977043
5202.283857,1406.391290,1072.533697,8216.285956
5202.284179,1036.288319,1149.143247,9474.636058
5202.284502,518.144159,842.705048,11177.109724
5202.284824,-518.144159,306.438199,10510.924376
5202.285146,-1998.556043,-229.828649,11473.192101
5202.285468,-2664.741391,-1378.971896,11103.089130
5202.285791,-1998.556043,-1149.143247,10362.883188
5202.286113,-1036.288319,-842.705048,8364.327145
5202.286436,-888.247130,-383.047749,7698.141797
5202.286758,-370.102971,-306.438199,7920.203579
5202.287080,74.020594,536.266849,7179.997637
5202.287403,1924.535449,1225.752797,7624.121203
5202.287725,1258.350101,1225.752797,7994.224174
5202.288048,444.123565,689.485948,9696.697840
5202.288370,518.144159,459.657299,11473.192101
5202.288693,296.082377,229.828649,11473.192101
5202.289015,-666.185348,153.219100,10807.006753
5202.289337,-1258.350101,0.000000,10955.047942
5202.289660,-666.185348,0.000000,10436.903782
5202.289982,592.164754,612.876398,8512.368333
5202.290305,2146.597232,1608.800546,7031.956449
5202.290627,2294.638420,1838.629195,7254.018232
5202.290949,2368.659014,2145.067394,7476.080014
5202.291272,2516.700203,2681.334243,8216.285956
5202.291594,2664.741391,3217.601092,8290.306550
5202.291917,444.123565,2528.115143,9474.636058
5202.292239,-1258.350101,919.314598,10436.903782
5202.292562,-1776.494261,383.047749,11325.150913
5202.292884,-2516.700203,0.000000,10436.903782
5202.293206,-3627.009116,0.000000,9622.677246
5202.293529,-3997.112087,-612.876398,9400.615463
5202.293851,-3182.885551,-612.876398,8512.368333
5202.294174,-1332.370696,536.266849,7031.956449
5202.294496,-888.247130,766.095498,5847.626942
5202.294818,-444.123565,1762.019645,7402.059420
5202.295141,74.020594,1149.143247,8660.409521
5202.295463,888.247130,1838.629195,9474.636058
5202.295786,888.247130,2145.067394,10362.883188
5202.296108,-740.205942,1302.362347,11251.130318
5202.296431,-1332.370696,-76.609550,12435.459826
5202.296753,-1110.308913,-536.266849,11695.253884
5202.297075,-1110.308913,153.219100,9992.780217
5202.297398,-1110.308913,0.000000,9030.512492
5202.297720,-740.205942,0.000000,8956.491898
5202.298043,444.123565,306.438199,7772.162391
5202.298365,2146.597232,1455.581446,6439.791695
5202.298687,2072.576638,1915.238745,6365.771101
5202.299010,1258.350101,1838.629195,8364.327145
5202.299332,814.226536,1685.410096,9918.759623
5202.299655,-148.041188,459.657299,10288.862594
5202.299977,-370.102971,459.657299,9992.780217
5202.300300,-2590.720797,-612.876398,10732.986159
5202.300622,-3034.844362,-1685.410096,10807.006753
5202.300944,-2664.741391,-1302.362347,9696.697840
5202.301267,-1480.411884,-842.705048,8142.265362
5202.301589,-1036.288319,-766.095498,7402.059420
5202.301912,-518.144159,-229.828649,8216.285956
5202.302234,1258.350101,229.828649,8142.265362
5202.302556,2812.782580,1149.143247,7846.182985
5202.302879,2368.659014,995.924147,9030.512492
5202.303201,1702.473667,1225.752797,11325.150913
5202.303524,1480.411884,0.000000,12731.542202
5202.303846,1036.288319,306.438199,11695.253884
5202.304169,296.082377,0.000000,10881.027347
5202.304491,-1332.370696,-689.485948,11251.130318
5202.304813,-962.267725,-689.485948,10584.944971
5202.305136,148.041188,0.000000,9104.533087
5202.305458,962.267725,919.314598,6957.935855
5202.305781,1702.473667,1378.971896,7105.977043
5202.306103,2072.576638,1991.848295,7476.080014
5202.306425,2664.741391,2528.115143,7846.182985
5202.306748,2368.659014,2987.772442,8068.244768
5202.307070,592.164754,2298.286494,9918.759623
5202.307393,-666.185348,1072.533697,11325.150913
5202.307715,-1776.494261,536.266849,11695.253884
5202.308038,-2664.741391,383.047749,10214.842000
5202.308360,-3182.885551,-383.047749,9918.759623
5202.308682,-3627.009116,-689.485948,9104.533087
5202.309005,-2442.679609,-306.438199,8586.388927
5202.309327,-1554.432478,459.657299,6957.935855
5202.309650,-814.226536,1608.800546,6143.709319
5202.309972,-296.082377,1532.190996,7105.977043
5202.310294,518.144159,2145.067394,8290.306550
5202.310617,2072.576638,3064.381992,9474.636058
5202.310939,740.205942,2528.115143,9252.574275
5202.311262,-370.102971,1149.143247,11399.171507
5202.311584,-962.267725,536.266849,12361.439231
5202.311907,-1332.370696,153.219100,11399.171507
5202.312229,-962.267725,306.438199,9696.697840
5202.312551,-1258.350101,-306.438199,9178.553681
5202.312874,-1184.329507,0.000000,8142.265362
5202.313196,518.144159,766.095498,7846.182985
5202.313519,1406.391290,1455.581446,6809.894666
5202.313841,1110.308913,1991.848295,7254.018232
5202.314163,444.123565,1838.629195,9252.574275
5202.314486,518.144159,1455.581446,10288.862594
5202.314808,1406.391290,1378.971896,9696.697840
5202.315131,-666.185348,1072.533697,10214.842000
5202.315453,-2368.659014,-306.438199,10732.986159
5202.315776,-2368.659014,-766.095498,10807.006753
5202.316098,-2220.617826,-1149.143247,9104.533087
5202.316420,-1258.350101,-842.705048,8216.285956
5202.316743,-1480.411884,-919.314598,7476.080014
5202.317065,-1110.308913,-919.314598,8216.285956
5202.317388,518.144159,-229.828649,7624.121203
5202.317710,1406.391290,842.705048,8216.285956
5202.318032,1480.411884,1149.143247,9992.780217
5202.318355,666.185348,76.609550,11769.274478
5202.318677,888.247130,229.828649,12435.459826
5202.319000,1036.288319,0.000000,11399.171507
5202.319322,-370.102971,-306.438199,11177.109724
5202.319645,-518.144159,-306.438199,11029.068536
5202.319967,296.082377,-919.314598,9918.759623
5202.320289,1258.350101,0.000000,7698.141797
5202.320612,2072.576638,842.705048,6217.729913
5202.320934,1406.391290,612.876398,6883.915261
5202.321257,1850.514855,1225.752797,7624.121203
5202.321579,2442.679609,1991.848295,7994.224174
5202.321901,1776.494261,2757.943793,8660.409521
5202.322224,518.144159,1915.238745,10658.965565
5202.322546,-666.185348,1225.752797,11325.150913
5202.322869,-1258.350101,229.828649,11547.212695
5202.323191,-1850.514855,0.000000,10214.842000
5202.323514,-2812.782580,-766.095498,9696.697840
5202.323836,-2812.782580,-766.095498,9474.636058
5202.324158,-1924.535449,-383.047749,8290.306550
5202.324481,-888.247130,536.266849,6883.915261
5202.324803,0.000000,995.924147,6143.709319
5202.325126,-888.247130,842.705048,7476.080014
5202.325448,-370.102971,1072.533697,8956.491898
5202.325770,222.061783,1762.019645,9844.739029
5202.326093,-666.185348,1915.238745,10288.862594
5202.326415,-1110.308913,1302.362347,11621.233289
5202.326738,-1628.453072,306.438199,11769.274478
5202.327060,-1184.329507,536.266849,10807.006753
5202.327383,-296.082377,459.657299,8882.471304
5202.327705,-740.205942,229.828649,8660.409521
5202.328027,74.020594,766.095498,8734.430116
5202.328350,1036.288319,1378.971896,7624.121203
5202.328672,2220.617826,2298.286494,6513.812290
5202.328995,1776.494261,1608.800546,7698.141797
5202.329317,592.164754,1608.800546,8956.491898
5202.329639,592.164754,1685.410096,10510.924376
5202.329962,-222.061783,1302.362347,10436.903782
5202.330284,-1406.391290,536.266849,10436.903782
5202.330607,-2960.823768,-383.047749,10955.047942
5202.330929,-2590.720797,-1149.143247,10362.883188
5202.331252,-1332.370696,-689.485948,8882.471304
5202.331574,-1184.329507,0.000000,7179.997637
5202.331896,-888.247130,-612.876398,7328.038826
5202.332219,-148.041188,0.000000,7994.224174
5202.332541,888.247130,459.657299,7624.121203
5202.332864,1850.514855,1455.581446,8216.285956
5202.333186,888.247130,842.705048,9844.739029
5202.333508,444.123565,689.485948,11695.253884
5202.333831,222.061783,76.609550,12065.356855
5202.334153,148.041188,76.609550,11769.274478
5202.334476,74.020594,0.000000,11399.171507
5202.334798,0.000000,-536.266849,11547.212695
5202.335121,296.082377,0.000000,10214.842000
5202.335443,2146.597232,459.657299,7920.203579
5202.335765,2146.597232,1149.143247,6957.935855
5202.336088,2738.761985,1225.752797,6957.935855
5202.336410,2664.741391,1532.190996,7772.162391
5202.336733,3330.926739,2834.553343,7328.038826
5202.337055,2516.700203,2298.286494,8882.471304
5202.337377,0.000000,995.924147,10436.903782
5202.337700,-1480.411884,306.438199,11547.212695
5202.338022,-2294.638420,-612.876398,11103.089130
5202.338345,-3330.926739,-612.876398,9622.677246
5202.338667,-3108.864956,-536.266849,9252.574275
5202.338990,-3182.885551,-1225.752797,9252.574275
5202.339312,-2146.597232,-689.485948,7772.162391
5202.339634,-814.226536,612.876398,6661.853478
5202.339957,-814.226536,612.876398,6883.915261
5202.340279,0.000000,919.314598,8142.265362
5202.340602,74.020594,1072.533697,9178.553681
5202.340924,222.061783,1378.971896,10140.821405
5202.341246,370.102971,1378.971896,10584.944971
5202.341569,-1924.535449,0.000000,11399.171507
5202.341891,-1702.473667,-229.828649,11843.295072
5202.342214,-1184.329507,0.000000,10807.006753
5202.342536,-888.247130,153.219100,9326.594869
5202.342859,0.000000,76.609550,8882.471304
5202.343181,370.102971,536.266849,8364.327145
5202.343503,1850.514855,1915.238745,7698.141797
5202.343826,2442.679609,1991.848295,7105.977043
5202.344148,1628.453072,1838.629195,7846.182985
5202.344471,1036.288319,1532.190996,9474.636058
5202.344793,296.082377,995.924147,10436.903782
5202.345115,0.000000,1302.362347,10288.862594
5202.345438,-1702.473667,0.000000,10214.842000
5202.345760,-3775.050304,-919.314598,10584.944971
5202.346083,-3182.885551,-1532.190996,10584.944971
5202.346405,-2516.700203,-995.924147,9030.512492
5202.346728,-2146.597232,-383.047749,7476.080014
5202.347050,-1332.370696,-383.047749,7698.141797
5202.347372,-370.102971,306.438199,7476.080014
5202.347695,2146.597232,766.095498,7105.977043
5202.348017,2220.617826,1838.629195,7772.162391
5202.348340,1850.514855,1378.971896,9918.759623
5202.348662,1258.350101,842.705048,11547.212695
5202.348984,592.164754,612.876398,11843.295072
5202.349307,1036.288319,229.828649,11399.171507
5202.349629,0.000000,0.000000,11251.130318
5202.349952,-296.082377,-612.876398,11325.150913
5202.350274,740.205942,76.609550,9326.594869
5202.350597,1480.411884,1072.533697,8142.265362
5202.350919,2146.597232,1915.238745,7105.977043
5202.351241,2294.638420,1685.410096,7476.080014
5202.351564,3182.885551,2221.676944,7846.182985
5202.351886,3256.906145,2757.943793,7920.203579
5202.352209,1480.411884,2451.505594,9030.512492
5202.352531,148.041188,1685.410096,10436.903782
5202.352853,-1628.453072,459.657299,10807.006753
5202.353176,-2886.803174,306.438199,10510.924376
5202.353498,-3552.988522,-536.266849,9178.553681
5202.353821,-4737.318029,-1149.143247,9252.574275
5202.354143,-4515.256246,-1149.143247,8438.347739
5202.354466,-3330.926739,-689.485948,7402.059420
5202.354788,-2368.659014,536.266849,6217.729913
5202.355110,-1036.288319,1302.362347,7105.977043
5202.355433,-666.185348,995.924147,8512.368333
5202.355755,814.226536,1762.019645,9474.636058
5202.356078,1480.411884,1991.848295,9992.780217
5202.356400,0.000000,1302.362347,11251.130318
5202.356722,-296.082377,-229.828649,11917.315666
5202.357045,-740.205942,-153.219100,11695.253884
5202.357367,-296.082377,229.828649,10510.924376
5202.357690,222.061783,0.000000,9474.636058
5202.358012,-666.185348,-306.438199,9030.512492
5202.358335,444.123565,383.047749,8068.244768
5202.358657,1702.473667,1149.143247,7476.080014
5202.358979,1998.556043,1685.410096,7105.977043
5202.359302,1406.391290,1991.848295,7846.182985
5202.359624,592.164754,1915.238745,9992.780217
5202.359947,888.247130,2374.896044,10140.821405
5202.360269,0.000000,995.924147,10140.821405
5202.360591,-2072.576638,-383.047749,10807.006753
5202.360914,-2960.823768,-1532.190996,11029.068536
5202.361236,-2960.823768,-1608.800546,10362.883188
5202.361559,-1924.535449,-1608.800546,8142.265362
5202.361881,-1702.473667,-919.314598,7105.977043
5202.362204,-1554.432478,-1072.533697,7254.018232
5202.362526,-296.082377,-459.657299,7328.038826
5202.362848,1628.453072,536.266849,7402.059420
5202.363171,1628.453072,1225.752797,8512.368333
5202.363493,1184.329507,842.705048,10881.027347
5202.363816,1406.391290,612.876398,12065.356855
5202.364138,1850.514855,536.266849,12361.439231
5202.364460,814.226536,459.657299,11029.068536
5202.364783,370.102971,-383.047749,11251.130318
5202.365105,148.041188,-766.095498,11177.109724
5202.365428,1036.288319,76.609550,9326.594869
5202.365750,2294.638420,1225.752797,7550.100608
5202.366073,1480.411884,1378.971896,6809.894666
5202.366395,1776.494261,1532.190996,7698.141797
5202.366717,2368.659014,2221.676944,8512.368333
5202.367040,1628.453072,2374.896044,8364.327145
5202.367362,592.164754,2068.457845,9770.718434
5202.367685,-592.164754,1225.752797,11251.130318
5202.368007,-1924.535449,612.876398,11547.212695
5202.368330,-2368.659014,153.219100,10362.883188
5202.368652,-3108.864956,-459.657299,9252.574275
5202.368974,-3997.112087,-689.485948,8512.368333
5202.369297,-3108.864956,-995.924147,8438.347739
5202.369619,-2146.597232,229.828649,6957.935855
5202.369942,-814.226536,995.924147,5995.668130
5202.370264,-1110.308913,1455.581446,6661.853478
5202.370586,-370.102971,1685.410096,8068.244768
5202.370909,592.164754,2298.286494,9178.553681
5202.371231,148.041188,1991.848295,10510.924376
5202.371554,-148.041188,1302.362347,11547.212695
5202.371876,-1332.370696,766.095498,12435.459826
5202.372199,-666.185348,229.828649,11695.253884
5202.372521,-222.061783,766.095498,9992.780217
5202.372843,-370.102971,1378.971896,9474.636058
5202.373166,74.020594,383.047749,8660.409521
5202.373488,962.267725,919.314598,7624.121203
5202.373811,1628.453072,2298.286494,6809.894666
5202.374133,2072.576638,2374.896044,6809.894666
5202.374455,444.123565,1685.410096,8438.347739
5202.374778,296.082377,1378.971896,9622.677246
5202.375100,-370.102971,1072.533697,10510.924376
5202.375423,-1554.432478,919.314598,10584.944971
5202.375745,-2294.638420,-306.438199,10881.027347
5202.376068,-3627.009116,-1532.190996,10881.027347
5202.376390,-2220.617826,-995.924147,9622.677246
5202.376712,-1036.288319,-689.485948,8068.244768
5202.377035,-1110.308913,-689.485948,7476.080014
5202.377357,-592.164754,-612.876398,8068.244768
5202.377680,518.144159,76.609550,7698.141797
5202.378002,2294.638420,842.705048,7698.141797
5202.378324,1776.494261,1149.143247,9104.533087
5202.378647,814.226536,536.266849,10955.047942
5202.378969,518.144159,0.000000,11991.336260
5202.379292,222.061783,-153.219100,11843.295072
5202.379614,222.061783,-383.047749,11325.150913
5202.379937,-444.123565,-689.485948,10807.006753
5202.380259,-74.020594,-459.657299,10436.903782
5202.380581,1776.494261,0.000000,8586.388927
5202.380904,2294.638420,689.485948,6661.853478
5202.381226,2368.659014,1455.581446,7031.956449
5202.381549,2516.700203,1685.410096,7772.162391
5202.381871,2516.700203,2221.676944,8364.327145
5202.382193,2442.679609,2298.286494,8290.306550
5202.382516,888.247130,1532.190996,9992.780217
5202.382838,-1036.288319,306.438199,11251.130318
5202.383161,-2294.638420,-459.657299,11621.233289
5202.383483,-3182.885551,-612.876398,10362.883188
5202.383806,-3478.967927,-383.047749,9474.636058
5202.384128,-3923.091493,-919.314598,9252.574275
5202.384450,-2886.803174,-306.438199,7994.224174
5202.384773,-666.185348,306.438199,6439.791695
5202.385095,-518.144159,995.924147,5625.565159
5202.385418,0.000000,1302.362347,7105.977043
5202.385740,148.041188,1378.971896,8808.450710
5202.386062,444.123565,2068.457845,9400.615463
5202.386385,148.041188,1915.238745,10214.842000
5202.386707,-1554.432478,842.705048,11029.068536
5202.387030,-1480.411884,229.828649,12065.356855
5202.387352,-1480.411884,76.609550,12139.377449
5202.387675,-1332.370696,612.876398,10066.800811
5202.387997,-962.267725,459.657299,9474.636058
5202.388319,-592.164754,306.438199,9030.512492
5202.388642,1480.411884,1149.143247,8068.244768
5202.388964,2442.679609,2145.067394,6661.853478
5202.389286,2072.576638,2604.724693,7179.997637
5202.389609,1480.411884,2221.676944,8808.450710
5202.389931,888.247130,1762.019645,9844.739029
5202.390253,296.082377,1532.190996,10066.800811
5202.390576,-740.205942,919.314598,10362.883188
5202.390898,-2664.741391,-459.657299,10955.047942
5202.391220,-3330.926739,-1378.971896,10658.965565
5202.391543,-2368.659014,-1072.533697,9844.739029
5202.391865,-1850.514855,0.000000,7698.141797
5202.392187,-1184.329507,153.219100,7772.162391
5202.392510,-444.123565,459.657299,7994.224174
5202.392832,1036.288319,689.485948,7772.162391
5202.393154,2294.638420,1455.581446,7550.100608
5202.393477,1924.535449,1302.362347,9104.533087
5202.393799,1332.370696,536.266849,11621.233289
5202.394121,592.164754,689.485948,11917.315666
5202.394444,592.164754,459.657299,11843.295072
5202.394766,814.226536,0.000000,11103.089130
5202.395088,-1258.350101,-1225.752797,10955.047942
5202.395411,-222.061783,-612.876398,10214.842000
5202.395733,1110.308913,0.000000,8290.306550
5202.396055,1628.453072,689.485948,6809.894666
5202.396378,2294.638420,1608.800546,7476.080014
5202.396700,2442.679609,2145.067394,7550.100608
5202.397022,3404.947333,2221.676944,8364.327145
5202.397345,2516.700203,2451.505594,8808.450710
5202.397667,962.267725,1532.190996,10584.944971
5202.397989,-592.164754,536.266849,11991.336260
5202.398312,-1850.514855,0.000000,11843.295072
5202.398634,-2220.617826,-229.828649,10807.006753
5202.398956,-3478.967927,-919.314598,9178.553681
5202.399279,-3923.091493,-1149.143247,9178.553681
5202.399601,-2516.700203,-919.314598,7846.182985
5202.399923,-1998.556043,153.219100,6809.894666
5202.400246,-1110.308913,1302.362347,6217.729913
5202.400568,-814.226536,919.314598,7920.203579
5202.400890,518.144159,1455.581446,8660.409521
5202.401213,740.205942,1838.629195,9400.615463
5202.401535,222.061783,1302.362347,10362.883188
5202.401857,-962.267725,1072.533697,11621.233289
5202.402180,-1332.370696,76.609550,12065.356855
5202.402502,-1184.329507,76.609550,10881.027347
5202.402824,-592.164754,76.609550,9326.594869
5202.403147,-962.267725,153.219100,8290.306550
5202.403469,0.000000,459.657299,8142.265362
5202.403791,1110.308913,919.314598,8068.244768
5202.404114,1776.494261,1685.410096,6957.935855
5202.404436,1480.411884,1991.848295,7698.141797
5202.404758,888.247130,1838.629195,9770.718434
5202.405081,888.247130,1685.410096,10436.903782
5202.405403,1036.288319,1225.752797,10362.883188
5202.405725,-888.247130,919.314598,10140.821405
5202.406048,-2220.617826,-919.314598,10881.027347
5202.406370,-2886.803174,-1072.533697,10288.862594
5202.406692,-2294.638420,-995.924147,8808.450710
5202.407015,-1184.329507,-383.047749,7476.080014
5202.407337,-2072.576638,-842.705048,7698.141797
5202.407659,-814.226536,-229.828649,7772.162391
5202.407982,814.226536,-153.219100,8438.347739
5202.408304,1480.411884,1149.143247,8438.347739
5202.408626,814.226536,1072.533697,9622.677246
5202.408949,444.123565,306.438199,11843.295072
5202.409271,814.226536,306.438199,12583.501014
5202.409593,740.205942,76.609550,11547.212695
5202.409916,0.000000,-536.266849,11399.171507
5202.410238,0.000000,-1072.533697,11103.089130
5202.410560,444.123565,-612.876398,9844.739029
5202.410883,1924.535449,306.438199,8068.244768
5202.411205,2220.617826,919.314598,6883.915261
5202.411527,1850.514855,919.314598,7179.997637
5202.411850,2146.597232,1225.752797,7846.182985
5202.412172,2368.659014,1915.238745,8586.388927
5202.412495,1406.391290,2298.286494,9252.574275
5202.412817,296.082377,1302.362347,11177.109724
5202.413139,-740.205942,766.095498,11621.233289
5202.413462,-1406.391290,536.266849,11177.109724
5202.413784,-2590.720797,0.000000,9696.697840
5202.414106,-3034.844362,-459.657299,9252.574275
5202.414429,-3108.864956,-766.095498,8882.471304
5202.414751,-2368.659014,0.000000,6957.935855
5202.415073,-962.267725,1149.143247,7105.977043
5202.415396,-740.205942,1149.143247,6217.729913
5202.415718,-592.164754,1149.143247,8438.347739
5202.416040,0.000000,1685.410096,9178.553681
5202.416363,0.000000,1915.238745,10140.821405
5202.416685,-814.226536,1762.019645,10807.006753
5202.417007,-962.267725,766.095498,12435.459826
5202.417330,-1110.308913,383.047749,11917.315666
5202.417652,-666.185348,229.828649,10140.821405
5202.417974,-666.185348,459.657299,9030.512492
5202.418297,-592.164754,306.438199,8364.327145
5202.418619,222.061783,689.485948,8216.285956
5202.418941,1258.350101,1302.362347,7179.997637
5202.419264,1850.514855,2298.286494,6809.894666
5202.419586,1184.329507,1838.629195,7698.141797
5202.419908,444.123565,1149.143247,9474.636058
5202.420231,0.000000,1225.752797,10214.842000
5202.420553,-1258.350101,766.095498,10436.903782
5202.420875,-2146.597232,76.609550,10881.027347
5202.421198,-3552.988522,-1302.362347,11103.089130
5202.421520,-2738.761985,-1149.143247,10436.903782
5202.421842,-1702.473667,-1225.752797,8586.388927
5202.422165,-1702.473667,-919.314598,6735.874072
5202.422487,-888.247130,-919.314598,7476.080014
5202.422809,-148.041188,-306.438199,7550.100608
5202.423132,1258.350101,612.876398,7624.121203
5202.423454,2220.617826,1378.971896,8438.347739
5202.423776,1332.370696,919.314598,10362.883188
5202.424099,888.247130,306.438199,11843.295072
5202.424421,888.247130,612.876398,12657.521608
5202.424743,666.185348,306.438199,12065.356855
5202.425066,296.082377,-153.219100,11695.253884
5202.425388,0.000000,-689.485948,11473.192101
5202.425710,1184.329507,-229.828649,9622.677246
5202.426033,2072.576638,612.876398,7772.162391
5202.426355,2368.659014,1225.752797,6735.874072
5202.426677,2220.617826,1149.143247,7031.956449
5202.427000,2368.659014,1685.410096,7624.121203
5202.427322,2072.576638,2298.286494,8068.244768
5202.427644,1406.391290,1915.238745,9178.553681
5202.427967,-888.247130,766.095498,10658.965565
5202.428289,-1480.411884,229.828649,11103.089130
5202.428611,-2442.679609,-306.438199,10807.006753
5202.428934,-3256.906145,-306.438199,9104.533087
5202.429256,-3478.967927,0.000000,9252.574275
5202.429578,-2886.803174,0.000000,8068.244768
5202.429901,-1036.288319,689.485948,7624.121203
5202.430223,0.000000,1455.581446,6291.750507
5202.430545,74.020594,1838.629195,7105.977043
5202.430868,518.144159,2374.896044,8882.471304
5202.431190,888.247130,1915.238745,9252.574275
5202.431512,1258.350101,2681.334243,9770.718434
5202.431835,222.061783,1685.410096,10510.924376
5202.432157,-1702.473667,229.828649,11473.192101
5202.432479,-1628.453072,153.219100,11621.233289
5202.432802,-1480.411884,153.219100,10066.800811
5202.433124,-1258.350101,-306.438199,8808.450710
5202.433446,-1406.391290,766.095498,8586.388927
5202.433769,74.020594,536.266849,7920.203579
5202.434091,1776.494261,1762.019645,6513.812290
5202.434413,1332.370696,2221.676944,6217.729913
5202.434736,370.102971,2068.457845,7772.162391
5202.435058,-222.061783,1455.581446,9844.739029
5202.435380,-296.082377,1532.190996,10807.006753
5202.435703,-592.164754,842.705048,10288.862594
5202.436025,-3775.050304,0.000000,10510.924376
5202.436347,-3404.947333,-1532.190996,11029.068536
5202.436670,-2960.823768,-1455.581446,10584.944971
5202.436992,-2072.576638,-919.314598,8512.368333
5202.437314,-1480.411884,-689.485948,7698.141797
5202.437637,-962.267725,-306.438199,8364.327145
5202.437959,592.164754,0.000000,7920.203579
5202.438281,2812.782580,1838.629195,7920.203579
5202.438604,2886.803174,1608.800546,8586.388927
5202.438926,1702.473667,1149.143247,10288.862594
5202.439248,1258.350101,306.438199,12287.418637
5202.439571,1036.288319,153.219100,11917.315666
5202.439893,962.267725,76.609550,11029.068536
5202.440215,-296.082377,-842.705048,10807.006753
5202.440538,-592.164754,-1072.533697,10436.903782
5202.440860,1036.288319,-689.485948,9474.636058
5202.441182,1332.370696,306.438199,7402.059420
5202.441505,1628.453072,766.095498,7105.977043
5202.441827,1628.453072,842.705048,7698.141797
5202.442149,2516.700203,1455.581446,7920.203579
5202.442472,2590.720797,2068.457845,8068.244768
5202.442794,1110.308913,2145.067394,9548.656652
5202.443116,0.000000,842.705048,11029.068536
5202.443439,-1480.411884,-612.876398,11473.192101
5202.443761,-1850.514855,0.000000,10436.903782
5202.444083,-2146.597232,-766.095498,9622.677246
5202.444406,-3108.864956,-1149.143247,9252.574275
5202.444728,-1998.556043,-459.657299,8512.368333
5202.445050,-1110.308913,229.828649,7031.956449
5202.445373,-370.102971,919.314598,6513.812290
5202.445695,518.144159,2068.457845,7328.038826
5202.446017,814.226536,1455.581446,9178.553681
5202.446340,1850.514855,2528.115143,10140.821405
5202.446662,1776.494261,2604.724693,10658.965565
5202.446984,148.041188,1915.238745,11695.253884
5202.447307,-296.082377,536.266849,12213.398043
5202.447629,-1110.308913,229.828649,11769.274478
5202.447951,-1184.329507,612.876398,9844.739029
5202.448274,-1480.411884,153.219100,8808.450710
5202.448596,-1628.453072,229.828649,8364.327145
5202.448919,-518.144159,995.924147,7476.080014
5202.449241,222.061783,1532.190996,6735.874072
5202.449563,0.000000,2374.896044,6217.729913
5202.449886,-148.041188,1685.410096,8142.265362
5202.450208,-740.205942,1378.971896,9622.677246
5202.450530,-370.102971,1455.581446,10288.862594
5202.450853,-2146.597232,995.924147,9696.697840
5202.451175,-3478.967927,0.000000,10807.006753
5202.451497,-3404.947333,-1072.533697,10881.027347
5202.451820,-3182.885551,-1225.752797,9622.677246
5202.452142,-1850.514855,-383.047749,7846.182985
5202.452464,-1406.391290,-229.828649,7402.059420
5202.452787,-888.247130,153.219100,7772.162391
5202.453109,888.247130,612.876398,8216.285956
5202.453431,1776.494261,1378.971896,7994.224174
5202.453754,1628.453072,1532.190996,9104.533087
5202.454076,1332.370696,1072.533697,11399.171507
5202.454398,1184.329507,536.266849,11769.274478
5202.454721,1628.453072,536.266849,11177.109724
5202.455043,888.247130,153.219100,10955.047942
5202.455365,148.041188,-842.705048,10807.006753
5202.455688,74.020594,-919.314598,10288.862594
5202.456010,1258.350101,0.000000,8438.347739
5202.456332,1924.535449,459.657299,7105.977043
5202.456655,1628.453072,459.657299,6217.729913
5202.456977,2368.659014,1149.143247,7994.224174
5202.457299,1998.556043,1225.752797,8364.327145
5202.457622,1702.473667,2298.286494,8808.450710
5202.457944,222.061783,995.924147,10436.903782
5202.458266,-1258.350101,306.438199,11917.315666
5202.458589,-1406.391290,-383.047749,11769.274478
5202.458911,-2072.576638,-689.485948,10362.883188
5202.459233,-2664.741391,-1149.143247,9548.656652
5202.459556,-2738.761985,-1685.410096,8956.491898
5202.459878,-1702.473667,-766.095498,8216.285956
5202.460200,-592.164754,229.828649,6661.853478
5202.460523,222.061783,842.705048,6291.750507
5202.460845,0.000000,1149.143247,7846.182985
5202.461167,444.123565,1455.581446,9252.574275
5202.461490,1184.329507,2221.676944,9844.739029
5202.461812,296.082377,1685.410096,10584.944971
5202.462134,-740.205942,1455.581446,11769.274478
5202.462457,-1184.329507,229.828649,12805.562797
5202.462779,-518.144159,229.828649,11399.171507
5202.463101,-222.061783,536.266849,9622.677246
5202.463424,-740.205942,536.266849,8586.388927
5202.463746,148.041188,383.047749,8438.347739
5202.464068,296.082377,1225.752797,6957.935855
5202.464391,1776.494261,1378.971896,6217.729913
5202.464713,1332.370696,2451.505594,6809.894666
5202.465035,-518.144159,1532.190996,8364.327145
5202.465358,-888.247130,1532.190996,10140.821405
5202.465680,-1480.411884,919.314598,10288.862594
5202.466002,-2442.679609,995.924147,10066.800811
5202.466325,-3478.967927,-306.438199,11029.068536
5202.466647,-3627.009116,-1532.190996,10658.965565
5202.466969,-2442.679609,-766.095498,9400.615463
5202.467292,-1628.453072,0.000000,7698.141797
5202.467614,-1332.370696,-306.438199,7105.977043
5202.467936,0.000000,0.000000,7698.141797
5202.468259,1110.308913,1149.143247,7772.162391
5202.468581,2812.782580,1685.410096,8068.244768
5202.468903,1628.453072,1685.410096,9474.636058
5202.469226,1258.350101,536.266849,11917.315666
5202.469548,1332.370696,536.266849,12509.480420
5202.469870,592.164754,153.219100,11843.295072
5202.470193,296.082377,76.609550,11251.130318
5202.470515,-148.041188,-536.266849,11251.130318
5202.470837,444.123565,-229.828649,10214.842000
5202.471160,1850.514855,536.266849,8068.244768
5202.471482,1776.494261,995.924147,6143.709319
5202.471804,2368.659014,1532.190996,6957.935855
5202.472127,2368.659014,1762.019645,7698.141797
5202.472449,2220.617826,2298.286494,7994.224174
5202.472771,1998.556043,2451.505594,8882.471304
5202.473094,-444.123565,1991.848295,9770.718434
5202.473416,-1776.494261,689.485948,11843.295072
5202.473738,-2516.700203,76.609550,11029.068536
5202.474061,-3552.988522,-306.438199,9622.677246
5202.474383,-3627.009116,-919.314598,9252.574275
5202.474705,-3404.947333,-995.924147,9326.594869
5202.475028,-1924.535449,-383.047749,7920.203579
5202.475350,-592.164754,459.657299,6365.771101
5202.475672,0.000000,689.485948,5995.668130
5202.475995,222.061783,1072.533697,7624.121203
5202.476317,962.267725,1455.581446,8734.430116
5202.476639,1480.411884,1915.238745,10214.842000
5202.476962,1110.308913,1455.581446,10807.006753
5202.477284,-1258.350101,383.047749,11695.253884
5202.477606,-1184.329507,-383.047749,12065.356855
5202.477929,-1406.391290,-153.219100,11177.109724
5202.478251,-296.082377,153.219100,10140.821405
5202.478573,74.020594,0.000000,9252.574275
5202.478896,0.000000,306.438199,9030.512492
5202.479218,1924.535449,1532.190996,7772.162391
5202.479540,2368.659014,1991.848295,6661.853478
5202.479863,1628.453072,2374.896044,7550.100608
5202.480185,1406.391290,1302.362347,9474.636058
5202.480507,0.000000,229.828649,10214.842000
5202.480830,0.000000,1302.362347,10732.986159
5202.481152,-1554.432478,0.000000,10510.924376
5202.481474,-3997.112087,-1532.190996,10881.027347
5202.481797,-3775.050304,-1608.800546,10510.924376
5202.482119,-2812.782580,-1378.971896,9252.574275
5202.482441,-1998.556043,-536.266849,8216.285956
5202.482764,-1554.432478,-153.219100,7402.059420
5202.483086,-1110.308913,0.000000,7698.141797
5202.483408,1036.288319,689.485948,7328.038826
5202.483731,2072.576638,1455.581446,7698.141797
5202.484053,1258.350101,1378.971896,9178.553681
5202.484376,592.164754,842.705048,11695.253884
5202.484698,592.164754,76.609550,12139.377449
5202.485020,1258.350101,842.705048,11325.150913
5202.485343,0.000000,-229.828649,11325.150913
5202.485665,-740.205942,-612.876398,10955.047942
5202.485987,222.061783,-459.657299,10214.842000
5202.486310,740.205942,689.485948,7846.182985
5202.486632,1554.432478,1302.362347,6883.915261
5202.486954,1776.494261,1762.019645,7031.956449
5202.487277,2442.679609,2145.067394,7550.100608
5202.487599,2886.803174,2911.162892,7105.977043
5202.487921,1924.535449,2528.115143,8438.347739
5202.488243,0.000000,1532.190996,9918.759623
5202.488566,-1554.432478,459.657299,11547.212695
5202.488888,-2294.638420,76.609550,11177.109724
5202.489210,-2368.659014,0.000000,10066.800811
5202.489533,-3775.050304,-1072.533697,9400.615463
5202.489855,-3775.050304,-919.314598,9178.553681
5202.490177,-2146.597232,-766.095498,7994.224174
5202.490500,-1628.453072,383.047749,7105.977043
5202.490822,-740.205942,995.924147,6883.915261
5202.491144,-222.061783,612.876398,8586.388927
5202.491466,1110.308913,1455.581446,9548.656652
5202.491789,1776.494261,2221.676944,9326.594869
5202.492111,962.267725,1685.410096,10881.027347
5202.492433,296.082377,459.657299,11991.336260
5202.492756,-444.123565,0.000000,12287.418637
5202.493078,0.000000,0.000000,10732.986159
5202.493400,296.082377,612.876398,9326.594869
5202.493723,-296.082377,153.219100,9030.512492
5202.494045,444.123565,612.876398,8216.285956
5202.494367,1924.535449,1915.238745,7402.059420
5202.494689,2220.617826,2374.896044,6439.791695
5202.495012,1702.473667,2145.067394,7846.182985
5202.495334,666.185348,1915.238745,9622.677246
5202.495656,814.226536,1455.581446,10066.800811
5202.495979,0.000000,1149.143247,9992.780217
5202.496301,-1924.535449,459.657299,10658.965565
5202.496623,-2960.823768,-612.876398,10658.965565
5202.496946,-3478.967927,-1608.800546,10214.842000
5202.497268,-2590.720797,-536.266849,8364.327145
5202.497590,-1702.473667,-689.485948,7179.997637
5202.497912,-2590.720797,-766.095498,7105.977043
5202.498235,-1110.308913,-383.047749,7550.100608
5202.498557,592.164754,153.219100,7328.038826
5202.498879,888.247130,1608.800546,8290.306550
5202.499202,814.226536,612.876398,10510.924376
5202.499524,222.061783,919.314598,11917.315666
5202.499846,1332.370696,689.485948,12287.418637
5202.500169,592.164754,383.047749,11251.130318
5202.500491,0.000000,-229.828649,11473.192101
5202.500813,296.082377,-153.219100,11473.192101
5202.501135,814.226536,0.000000,9696.697840
5202.501458,2220.617826,1302.362347,7698.141797
5202.501780,2516.700203,1072.533697,7476.080014
5202.502102,1702.473667,919.314598,7624.121203
5202.502425,2294.638420,1685.410096,8438.347739
5202.502747,1924.535449,1915.238745,8512.368333
5202.503069,814.226536,1762.019645,9326.594869
5202.503392,-666.185348,842.705048,11251.130318
5202.503714,-1702.473667,153.219100,11177.109724
5202.504036,-1998.556043,-459.657299,10584.944971
5202.504358,-3552.988522,-689.485948,9178.553681
5202.504681,-3404.947333,-1378.971896,8956.491898
5202.505003,-3034.844362,-1302.362347,8586.388927
5202.505325,-2220.617826,-153.219100,7179.997637
5202.505648,-1036.288319,612.876398,5921.647536
5202.505970,-1258.350101,459.657299,6735.874072
5202.506292,-296.082377,842.705048,8586.388927
5202.506615,666.185348,1532.190996,9696.697840
5202.506937,592.164754,1685.410096,10362.883188
5202.507259,0.000000,1455.581446,11251.130318
5202.507581,-740.205942,459.657299,12361.439231
5202.507904,-148.041188,306.438199,11843.295072
5202.508226,148.041188,612.876398,9844.739029
5202.508548,518.144159,536.266849,8586.388927
5202.508871,0.000000,459.657299,8586.388927
5202.509193,962.267725,536.266849,8142.265362
5202.509515,2146.597232,1532.190996,6883.915261
5202.509838,2294.638420,2298.286494,6957.935855
5202.510160,962.267725,1608.800546,8512.368333
5202.510482,0.000000,1149.143247,9844.739029
5202.510804,222.061783,1149.143247,10288.862594
5202.511127,-1554.432478,842.705048,10362.883188
5202.511449,-2738.761985,0.000000,10658.965565
5202.511771,-3775.050304,-1149.143247,10881.027347
5202.512094,-3108.864956,-919.314598,9770.718434
5202.512416,-1776.494261,-153.219100,8216.285956
5202.512738,-1554.432478,-842.705048,6513.812290
5202.513061,-1184.329507,-153.219100,7328.038826
5202.513383,0.000000,0.000000,8142.265362
5202.513705,1406.391290,1378.971896,7624.121203
5202.514027,1776.494261,1378.971896,8364.327145
5202.514350,148.041188,766.095498,10436.903782
5202.514672,74.020594,459.657299,11473.192101
5202.514994,444.123565,383.047749,11695.253884
5202.515317,-444.123565,383.047749,11029.068536
5202.515639,-518.144159,-459.657299,11325.150913
5202.515961,-74.020594,-383.047749,11399.171507
5202.516284,1184.329507,383.047749,9252.574275
5202.516606,2072.576638,995.924147,7105.977043
5202.516928,1998.556043,1915.238745,7105.977043
5202.517250,2294.638420,1838.629195,8068.244768
5202.517573,2368.659014,2298.286494,8216.285956
5202.517895,2442.679609,2681.334243,8364.327145
5202.518217,1036.288319,1762.019645,9770.718434
5202.518540,-1110.308913,689.485948,11325.150913
5202.518862,-1776.494261,0.000000,11769.274478
5202.519184,-2738.761985,-459.657299,10436.903782
5202.519506,-2960.823768,-536.266849,9474.636058
5202.519829,-4367.215058,-383.047749,8882.471304
5202.520151,-2516.700203,-1378.971896,8068.244768
5202.520473,-814.226536,306.438199,7179.997637
5202.520796,-592.164754,689.485948,5995.668130
5202.521118,-74.020594,612.876398,7105.977043
5202.521440,370.102971,1072.533697,9178.553681
5202.521763,740.205942,1991.848295,9696.697840
5202.522085,518.144159,2068.457845,9770.718434
5202.522407,-740.205942,1072.533697,10881.027347
5202.522729,-1776.494261,-153.219100,11917.315666
5202.523052,-1110.308913,-229.828649,11621.233289
5202.523374,-888.247130,0.000000,9918.759623
5202.523696,-370.102971,229.828649,9252.574275
5202.524019,-296.082377,229.828649,8586.388927
5202.524341,1406.391290,1149.143247,7994.224174
5202.524663,2738.761985,1762.019645,6661.853478
5202.524986,2294.638420,2145.067394,6661.853478
5202.525308,1554.432478,1838.629195,8956.491898
5202.525630,740.205942,1149.143247,10066.800811
5202.525952,74.020594,1072.533697,10066.800811
5202.526275,-666.185348,1149.143247,9992.780217
5202.526597,-3034.844362,0.000000,10732.986159
5202.526919,-3404.947333,-2068.457845,11103.089130
5202.527242,-3182.885551,-995.924147,10214.842000
5202.527564,-2590.720797,-536.266849,8068.244768
5202.527886,-1850.514855,-459.657299,7994.224174
5202.528209,-1332.370696,-229.828649,8142.265362
5202.528531,592.164754,1149.143247,7624.121203
5202.528853,2072.576638,919.314598,7624.121203
5202.529175,1406.391290,1532.190996,8808.450710
5202.529498,1258.350101,995.924147,10732.986159
5202.529820,592.164754,383.047749,12139.377449
5202.530142,740.205942,536.266849,11695.253884
5202.530465,74.020594,0.000000,11029.068536
5202.530787,-1332.370696,-689.485948,11029.068536
5202.531109,-370.102971,-919.314598,10807.006753
5202.531432,888.247130,0.000000,8512.368333
5202.531754,1332.370696,1072.533697,7105.977043
5202.532076,1998.556043,1608.800546,7402.059420
5202.532398,2220.617826,2145.067394,8068.244768
5202.532721,3330.926739,2604.724693,7920.203579
5202.533043,3108.864956,2911.162892,8512.368333
5202.533365,1036.288319,2834.553343,9474.636058
5202.533688,148.041188,1302.362347,11103.089130
5202.534010,-1184.329507,536.266849,11177.109724
5202.534332,-1776.494261,306.438199,9992.780217
5202.534655,-2294.638420,-1302.362347,9696.697840
5202.534977,-3701.029710,-1302.362347,8956.491898
5202.535299,-2516.700203,-766.095498,8512.368333
5202.535621,-1406.391290,76.609550,6809.894666
5202.535944,-740.205942,612.876398,6365.771101
5202.536266,-222.061783,995.924147,7105.977043
5202.536588,592.164754,1532.190996,9104.533087
5202.536911,1480.411884,2145.067394,9474.636058
5202.537233,370.102971,1762.019645,9696.697840
5202.537555,-444.123565,306.438199,11547.212695
5202.537878,-1036.288319,0.000000,12509.480420
5202.538200,-1332.370696,0.000000,11399.171507
5202.538522,-148.041188,229.828649,10066.800811
5202.538844,-1406.391290,459.657299,9400.615463
5202.539167,-370.102971,0.000000,9104.533087
5202.539489,1036.288319,689.485948,8364.327145
5202.539811,1554.432478,1762.019645,6883.915261
5202.540134,1776.494261,2068.457845,7550.100608
5202.540456,592.164754,1915.238745,9326.594869
5202.540778,666.185348,1608.800546,9992.780217
5202.541101,740.205942,1302.362347,10362.883188
5202.541423,-1184.329507,766.095498,9918.759623
5202.541745,-2442.679609,-842.705048,11103.089130
5202.542067,-3108.864956,-1302.362347,10807.006753
5202.542390,-2516.700203,-919.314598,9326.594869
5202.542712,-1554.432478,-612.876398,7698.141797
5202.543034,-1924.535449,-842.705048,7550.100608
5202.543357,-1036.288319,-612.876398,7402.059420
5202.543679,518.144159,459.657299,7698.141797
5202.544001,888.247130,1225.752797,7550.100608
5202.544324,1110.308913,1455.581446,9474.636058
5202.544646,962.267725,919.314598,11769.274478
5202.544968,1258.350101,1072.533697,11991.336260
5202.545290,1184.329507,1072.533697,11325.150913
5202.545613,444.123565,229.828649,11103.089130
5202.545935,0.000000,-612.876398,11029.068536
5202.546257,148.041188,-995.924147,9548.656652
5202.546580,1184.329507,536.266849,8290.306550
5202.546902,2146.597232,995.924147,6883.915261
5202.547224,1258.350101,1302.362347,7105.977043
5202.547546,2220.617826,1762.019645,7624.121203
5202.547869,2590.720797,2221.676944,8142.265362
5202.548191,1776.494261,3140.991542,8660.409521
5202.548513,222.061783,1685.410096,10288.862594
5202.548836,-962.267725,842.705048,11325.150913
5202.549158,-1036.288319,536.266849,11177.109724
5202.549480,-1702.473667,0.000000,9770.718434
5202.549803,-2812.782580,-383.047749,9622.677246
5202.550125,-2516.700203,-306.438199,9178.553681
5202.550447,-2220.617826,-229.828649,7476.080014
5202.550769,-148.041188,689.485948,7105.977043
5202.551092,-444.123565,842.705048,6439.791695
5202.551414,-740.205942,919.314598,8068.244768
5202.551736,148.041188,1532.190996,9400.615463
5202.552059,0.000000,1532.190996,9844.739029
5202.552381,-740.205942,1149.143247,10214.842000
5202.552703,-1554.432478,306.438199,11621.233289
5202.553026,-1776.494261,0.000000,11621.233289
5202.553348,-518.144159,153.219100,10658.965565
5202.553670,-666.185348,306.438199,9104.533087
5202.553992,-740.205942,0.000000,8734.430116
5202.554315,-444.123565,0.000000,8660.409521
5202.554637,370.102971,459.657299,7402.059420
5202.554959,1924.535449,1685.410096,6661.853478
5202.555282,888.247130,1608.800546,7846.182985
5202.555604,444.123565,1302.362347,9548.656652
5202.555926,-296.082377,536.266849,11029.068536
5202.556249,-888.247130,689.485948,10807.006753
5202.556571,-2294.638420,-153.219100,11251.130318
5202.556893,-3256.906145,-995.924147,10881.027347
5202.557215,-2812.782580,-995.924147,10955.047942
5202.557538,-1850.514855,-1072.533697,8438.347739
5202.557860,-1406.391290,-536.266849,6957.935855
5202.558182,-1110.308913,-536.266849,7179.997637
5202.558505,-370.102971,0.000000,7772.162391
5202.558827,1332.370696,766.095498,7328.038826
5202.559149,2294.638420,1838.629195,7994.224174
5202.559472,1258.350101,1762.019645,9770.718434
5202.559794,370.102971,842.705048,11695.253884
5202.560116,592.164754,153.219100,11991.336260
5202.560438,148.041188,76.609550,11399.171507
5202.560761,-148.041188,0.000000,10881.027347
5202.561083,-222.061783,-459.657299,11251.130318
5202.561405,962.267725,76.609550,9548.656652
5202.561728,1850.514855,689.485948,7476.080014
5202.562050,2294.638420,1302.362347,6365.771101
5202.562372,2220.617826,1762.019645,7179.997637
5202.562695,2220.617826,1685.410096,7846.182985
5202.563017,2516.700203,2451.505594,8364.327145
5202.563339,2072.576638,2451.505594,9474.636058
5202.563661,-666.185348,1378.971896,10732.986159
5202.563984,-962.267725,459.657299,11621.233289
5202.564306,-1924.535449,-229.828649,11029.068536
5202.564628,-2738.761985,-306.438199,9770.718434
5202.564951,-2812.782580,-306.438199,9252.574275
5202.565273,-3034.844362,-612.876398,9178.553681
5202.565595,-1036.288319,383.047749,7698.141797
5202.565918,-370.102971,919.314598,6661.853478
5202.566240,0.000000,842.705048,6883.915261
5202.566562,592.164754,1991.848295,8734.430116
5202.566884,666.185348,2145.067394,9770.718434
