#time,accel_x,accel_y,accel_z
4954.808270,-3034.844362,2451.505594,10214.842000
4954.808584,-3849.070898,3064.381992,9252.574275
4954.808899,-4219.173869,3600.648841,8290.306550
4954.809213,-3923.091493,3677.258390,7550.100608
4954.809527,-3034.844362,4903.011187,6883.915261
4954.809842,-3108.864956,4749.792088,7179.997637
4954.810156,-3034.844362,4213.525239,6883.915261
4954.810470,-2664.741391,4290.134789,6513.812290
4954.810785,-2368.659014,3600.648841,6365.771101
4954.811099,-2220.617826,3447.429741,7254.018232
4954.811414,-1628.453072,2757.943793,7846.182985
4954.811728,-1110.308913,2681.334243,8216.285956
4954.812042,-666.185348,2987.772442,8882.471304
4954.812357,-1332.370696,3217.601092,9548.656652
4954.812671,-592.164754,2834.553343,9918.759623
4954.812985,-370.102971,3447.429741,9918.759623
4954.813300,222.061783,3830.477490,11029.068536
4954.813614,0.000000,3830.477490,11769.274478
4954.813928,-814.226536,3753.867940,11621.233289
4954.814243,-1406.391290,3600.648841,10881.027347
4954.814557,-1924.535449,3140.991542,11177.109724
4954.814871,-2368.659014,3294.210641,11695.253884
4954.815186,-3034.844362,2681.334243,11695.253884
4954.815500,-3404.947333,2681.334243,11621.233289
4954.815814,-4071.132681,2681.334243,11695.253884
4954.816129,-4515.256246,2528.115143,11473.192101
4954.816443,-4367.215058,2604.724693,10807.006753
4954.816757,-4219.173869,3677.258390,10510.924376
4954.817072,-4145.153275,4290.134789,9622.677246
4954.817386,-3701.029710,5056.230287,8808.450710
4954.817700,-2590.720797,5669.106685,8364.327145
4954.818015,-2294.638420,6971.469032,7179.997637
4954.818329,-2220.617826,7277.907231,6661.853478
4954.818643,-2590.720797,7431.126331,6809.894666
4954.818958,-3182.885551,7660.954980,6439.791695
4954.819272,-3108.864956,7277.907231,6809.894666
4954.819586,-3404.947333,6435.202183,7031.956449
4954.819901,-3849.070898,5975.544884,7031.956449
4954.820215,-4145.153275,5209.449386,7031.956449
4954.820529,-4145.153275,4749.792088,7179.997637
4954.820844,-4071.132681,4366.744339,7402.059420
4954.821158,-3182.885551,3753.867940,7846.182985
4954.821472,-2368.659014,3600.648841,7846.182985
4954.821787,-2220.617826,2681.334243,8364.327145
4954.822101,-1628.453072,2298.286494,9252.574275
4954.822415,-1332.370696,1455.581446,10362.883188
4954.822730,-1258.350101,689.485948,11473.192101
4954.823044,-888.247130,842.705048,12361.439231
4954.823358,-814.226536,536.266849,13101.645173
4954.823673,-888.247130,459.657299,12287.418637
4954.823987,-444.123565,995.924147,12657.521608
4954.824301,-222.061783,1302.362347,12361.439231
4954.824616,370.102971,1991.848295,11547.212695
4954.824930,666.185348,2068.457845,10140.821405
4954.825244,592.164754,2451.505594,9178.553681
4954.825559,814.226536,2145.067394,8956.491898
4954.825873,296.082377,2145.067394,7698.141797
4954.826187,962.267725,1072.533697,7550.100608
4954.826502,296.082377,153.219100,7476.080014
4954.826816,74.020594,-612.876398,8438.347739
4954.827130,-222.061783,-1225.752797,8956.491898
4954.827445,-444.123565,-995.924147,9104.533087
4954.827759,-1184.329507,-1225.752797,9992.780217
4954.828073,-1406.391290,-995.924147,10955.047942
4954.828388,-1850.514855,229.828649,11103.089130
4954.828702,-2294.638420,1532.190996,11251.130318
4954.829016,-2590.720797,2911.162892,11177.109724
4954.829331,-2886.803174,3983.696590,10436.903782
4954.829645,-2812.782580,4826.401637,9474.636058
4954.829959,-2812.782580,5898.935335,8734.430116
4954.830274,-2442.679609,5745.716235,7402.059420
4954.830588,-2294.638420,5439.278036,6587.832884
4954.830902,-1924.535449,5056.230287,6143.709319
4954.831217,-1924.535449,3064.381992,5699.585753
4954.831531,-2368.659014,2068.457845,6809.894666
4954.831845,-2886.803174,0.000000,8512.368333
4954.832160,-3478.967927,-1302.362347,10140.821405
4954.832474,-3775.050304,-1838.629195,11103.089130
4954.832788,-3627.009116,-2911.162892,12361.439231
4954.833103,-2664.741391,-1455.581446,12657.521608
4954.833417,-2146.597232,-919.314598,12213.398043
4954.833732,-444.123565,1685.410096,12065.356855
4954.834046,1628.453072,4443.353888,10807.006753
4954.834361,3182.885551,6818.249932,9104.533087
4954.834675,4367.215058,8120.612279,7328.038826
4954.834990,4071.132681,9116.536426,6513.812290
4954.835304,3182.885551,8120.612279,6513.812290
4954.835619,962.267725,5975.544884,7254.018232
4954.835933,-2220.617826,4443.353888,8956.491898
4954.836248,-4589.276840,1991.848295,10288.862594
4954.836562,-6957.935855,-459.657299,10658.965565
4954.836877,-8290.306550,-1915.238745,11177.109724
4954.837191,-8438.347739,-1915.238745,11177.109724
4954.837506,-6439.791695,-1455.581446,9400.615463
4954.837820,-3997.112087,0.000000,7624.121203
4954.838135,-1702.473667,2451.505594,6957.935855
4954.838449,1554.432478,4060.306139,5995.668130
4954.838764,3627.009116,5975.544884,6217.729913
4954.839078,5773.606348,6894.859482,6661.853478
4954.839393,7031.956449,6358.592633,7624.121203
4954.839707,7920.203579,4979.620737,8660.409521
4954.840022,7105.977043,2681.334243,9326.594869
4954.840336,6217.729913,1149.143247,9770.718434
4954.840651,4219.173869,-459.657299,10288.862594
4954.840965,2368.659014,-1532.190996,11769.274478
4954.841280,1036.288319,-2757.943793,11325.150913
4954.841594,-592.164754,-3753.867940,11325.150913
4954.841909,-1924.535449,-4060.306139,10955.047942
4954.842223,-3182.885551,-3753.867940,10658.965565
4954.842538,-3404.947333,-3217.601092,11325.150913
4954.842852,-2738.761985,-2068.457845,11769.274478
4954.843167,-2516.700203,-1762.019645,11695.253884
4954.843481,-1332.370696,-919.314598,10955.047942
4954.843796,-148.041188,459.657299,9548.656652
4954.844110,1332.370696,2604.724693,8882.471304
4954.844425,3478.967927,2911.162892,8364.327145
4954.844739,4737.318029,2911.162892,8290.306550
4954.845054,4663.297435,1762.019645,8142.265362
4954.845368,3701.029710,306.438199,8290.306550
4954.845683,2072.576638,-536.266849,8512.368333
4954.845997,888.247130,-2221.676944,8956.491898
4954.846312,444.123565,-3677.258390,9178.553681
4954.846626,-148.041188,-4443.353888,9104.533087
4954.846941,-1332.370696,-5056.230287,9252.574275
4954.847255,-1776.494261,-4213.525239,8438.347739
4954.847570,-1332.370696,-2068.457845,7772.162391
4954.847884,-592.164754,-1149.143247,7846.182985
4954.848199,-518.144159,459.657299,8512.368333
4954.848513,-740.205942,536.266849,8438.347739
4954.848828,-1406.391290,1838.629195,8586.388927
4954.849142,-1924.535449,3064.381992,9622.677246
4954.849457,-1924.535449,2451.505594,10881.027347
4954.849771,-1924.535449,3064.381992,11769.274478
4954.850086,-2146.597232,1991.848295,11325.150913
4954.850400,-1850.514855,1608.800546,9992.780217
4954.850714,-1628.453072,1378.971896,9104.533087
4954.851029,296.082377,1685.410096,8660.409521
4954.851343,1406.391290,1532.190996,8364.327145
4954.851658,1554.432478,995.924147,8438.347739
4954.851972,1110.308913,919.314598,9104.533087
4954.852287,1110.308913,-459.657299,9770.718434
4954.852601,592.164754,-919.314598,10658.965565
4954.852916,296.082377,-919.314598,10288.862594
4954.853230,296.082377,-689.485948,10881.027347
4954.853545,74.020594,612.876398,10436.903782
4954.853859,740.205942,1838.629195,9474.636058
4954.854174,1406.391290,3447.429741,8512.368333
4954.854488,1184.329507,4519.963438,7920.203579
4954.854803,814.226536,5898.935335,7994.224174
4954.855117,518.144159,6358.592633,7698.141797
4954.855432,74.020594,5745.716235,8512.368333
4954.855746,-814.226536,4903.011187,9474.636058
4954.856061,-1776.494261,4060.306139,9474.636058
4954.856375,-2294.638420,2757.943793,8956.491898
4954.856690,-2368.659014,2451.505594,8512.368333
4954.857004,-1554.432478,2221.676944,8290.306550
4954.857319,0.000000,1838.629195,8660.409521
4954.857633,1184.329507,1915.238745,7920.203579
4954.857948,1850.514855,1532.190996,7550.100608
4954.858262,1776.494261,919.314598,7550.100608
4954.858577,1998.556043,1915.238745,8734.430116
4954.858891,2590.720797,1915.238745,10066.800811
4954.859206,2516.700203,459.657299,9844.739029
4954.859520,2220.617826,-536.266849,10658.965565
4954.859835,1628.453072,-842.705048,10214.842000
4954.860149,888.247130,-612.876398,9326.594869
4954.860464,962.267725,-612.876398,9474.636058
4954.860778,666.185348,-689.485948,9696.697840
4954.861093,-148.041188,-995.924147,9548.656652
4954.861407,-1110.308913,-1838.629195,9918.759623
4954.861722,-2664.741391,-2145.067394,9992.780217
4954.862036,-3552.988522,-2757.943793,10807.006753
4954.862351,-3701.029710,-2451.505594,11547.212695
4954.862665,-3775.050304,-2681.334243,11399.171507
4954.862980,-2812.782580,-1685.410096,10955.047942
4954.863294,-1332.370696,-1685.410096,9770.718434
4954.863609,-370.102971,-1149.143247,8734.430116
4954.863923,2368.659014,612.876398,8142.265362
4954.864238,4441.235652,1532.190996,7031.956449
4954.864552,4959.379811,1608.800546,6513.812290
4954.864867,4737.318029,1072.533697,7105.977043
4954.865181,4219.173869,536.266849,8586.388927
4954.865496,3627.009116,-612.876398,9178.553681
4954.865810,3034.844362,-2374.896044,9844.739029
4954.866125,1702.473667,-2298.286494,10066.800811
4954.866439,518.144159,-3524.039291,10214.842000
4954.866754,0.000000,-3370.820191,10140.821405
4954.867068,-1110.308913,-2681.334243,8734.430116
4954.867383,-1850.514855,-1991.848295,9252.574275
4954.867697,-2442.679609,-536.266849,9474.636058
4954.868012,-3256.906145,76.609550,9696.697840
4954.868326,-3849.070898,612.876398,10288.862594
4954.868640,-4367.215058,383.047749,11103.089130
4954.868955,-4219.173869,76.609550,11399.171507
4954.869269,-3849.070898,1302.362347,10881.027347
4954.869584,-3108.864956,1915.238745,9770.718434
4954.869898,-2368.659014,2604.724693,9548.656652
4954.870213,-370.102971,3370.820191,8956.491898
4954.870527,1480.411884,3983.696590,8364.327145
4954.870842,2738.761985,4596.572988,7328.038826
4954.871156,3034.844362,4136.915689,6365.771101
4954.871471,3330.926739,3370.820191,7031.956449
4954.871785,3182.885551,3064.381992,7772.162391
4954.872100,2886.803174,2068.457845,8882.471304
4954.872414,2220.617826,1149.143247,9770.718434
4954.872729,1036.288319,76.609550,10066.800811
4954.873043,592.164754,459.657299,9548.656652
4954.873358,148.041188,1532.190996,8512.368333
4954.873672,0.000000,2451.505594,8586.388927
4954.873987,-296.082377,3294.210641,8734.430116
4954.874301,-962.267725,3907.087040,8586.388927
4954.874616,-2368.659014,4519.963438,9030.512492
4954.874930,-3256.906145,4290.134789,9770.718434
4954.875245,-3627.009116,4290.134789,10362.883188
4954.875559,-4293.194464,2604.724693,10658.965565
4954.875874,-4367.215058,2221.676944,10510.924376
4954.876188,-3404.947333,1685.410096,9474.636058
4954.876503,-2516.700203,1455.581446,8660.409521
4954.876817,-814.226536,2451.505594,8586.388927
4954.877132,444.123565,2298.286494,8808.450710
4954.877446,1702.473667,1378.971896,8290.306550
4954.877761,2368.659014,1149.143247,8956.491898
4954.878075,2886.803174,1378.971896,9030.512492
4954.878390,2886.803174,842.705048,9548.656652
4954.878704,3182.885551,-536.266849,10066.800811
4954.879019,2960.823768,-612.876398,10214.842000
4954.879333,2664.741391,-536.266849,10732.986159
4954.879648,2368.659014,0.000000,10362.883188
4954.879962,2072.576638,76.609550,9178.553681
4954.880277,1776.494261,0.000000,8290.306550
4954.880591,444.123565,1072.533697,8142.265362
4954.880906,-740.205942,1072.533697,8882.471304
4954.881220,-2368.659014,689.485948,9474.636058
4954.881535,-3775.050304,0.000000,9844.739029
4954.881849,-4441.235652,-766.095498,10732.986159
4954.882164,-5033.400406,-2145.067394,10288.862594
4954.882478,-4367.215058,-2374.896044,9844.739029
4954.882793,-3256.906145,-2374.896044,8734.430116
4954.883107,-1480.411884,-1838.629195,8438.347739
4954.883422,1110.308913,-306.438199,8364.327145
4954.883736,2812.782580,612.876398,8068.244768
4954.884051,3552.988522,536.266849,7994.224174
4954.884365,3849.070898,1072.533697,8586.388927
4954.884680,4071.132681,76.609550,9474.636058
4954.884994,4367.215058,-1302.362347,10732.986159
4954.885309,4441.235652,-1762.019645,10658.965565
4954.885623,2664.741391,-1991.848295,11029.068536
4954.885938,2220.617826,-2221.676944,10066.800811
4954.886252,1628.453072,-1378.971896,9696.697840
4954.886566,888.247130,-383.047749,9400.615463
4954.886881,370.102971,76.609550,9252.574275
4954.887195,-666.185348,536.266849,9252.574275
4954.887510,-1776.494261,919.314598,9030.512492
4954.887824,-2960.823768,1225.752797,9622.677246
4954.888139,-3701.029710,1225.752797,10288.862594
4954.888453,-4071.132681,842.705048,10732.986159
4954.888768,-3849.070898,766.095498,10807.006753
4954.889082,-3404.947333,919.314598,9992.780217
4954.889397,-2146.597232,1838.629195,8956.491898
4954.889711,-444.123565,2757.943793,7624.121203
4954.890026,1628.453072,3753.867940,7476.080014
4954.890340,2960.823768,4136.915689,7402.059420
4954.890655,3182.885551,4443.353888,7624.121203
4954.890969,3108.864956,3600.648841,8438.347739
4954.891284,3034.844362,2451.505594,9104.533087
4954.891598,2590.720797,1225.752797,9548.656652
4954.891913,2368.659014,536.266849,9992.780217
4954.892227,1184.329507,536.266849,9770.718434
4954.892542,370.102971,1455.581446,9326.594869
4954.892856,148.041188,1608.800546,9104.533087
4954.893171,-518.144159,2451.505594,8512.368333
4954.893485,-962.267725,2834.553343,8586.388927
4954.893800,-2072.576638,2681.334243,8956.491898
4954.894114,-2960.823768,2834.553343,9178.553681
4954.894429,-3478.967927,2528.115143,9844.739029
4954.894743,-3775.050304,2221.676944,10510.924376
4954.895058,-3849.070898,2221.676944,11029.068536
4954.895372,-3552.988522,2451.505594,10510.924376
4954.895687,-2516.700203,2911.162892,9770.718434
4954.896001,-1184.329507,2834.553343,9104.533087
4954.896316,592.164754,3217.601092,8216.285956
4954.896630,2368.659014,2911.162892,7402.059420
4954.896945,2664.741391,2451.505594,6513.812290
4954.897259,2738.761985,2757.943793,7846.182985
4954.897574,2590.720797,1685.410096,8734.430116
4954.897888,2812.782580,306.438199,9548.656652
4954.898203,2664.741391,-995.924147,10066.800811
4954.898517,1998.556043,-1915.238745,10066.800811
4954.898832,1110.308913,-1608.800546,9400.615463
4954.899146,814.226536,-1378.971896,8734.430116
4954.899461,1036.288319,-1149.143247,9030.512492
4954.899775,1184.329507,459.657299,9400.615463
4954.900090,74.020594,1149.143247,8512.368333
4954.900404,-666.185348,1225.752797,9178.553681
4954.900719,-1850.514855,842.705048,9548.656652
4954.901033,-2812.782580,0.000000,10510.924376
4954.901348,-2960.823768,-766.095498,11029.068536
4954.901662,-2886.803174,-1149.143247,11177.109724
4954.901977,-2812.782580,-919.314598,10510.924376
4954.902291,-1480.411884,-842.705048,9474.636058
4954.902606,370.102971,229.828649,9030.512492
4954.902920,1776.494261,-229.828649,8512.368333
4954.903235,2738.761985,-153.219100,7920.203579
4954.903549,3404.947333,-306.438199,7846.182985
4954.903864,3701.029710,-612.876398,8808.450710
4954.904178,3997.112087,-689.485948,9770.718434
4954.904492,3627.009116,-1915.238745,10436.903782
4954.904807,3627.009116,-3064.381992,10436.903782
4954.905121,2590.720797,-3064.381992,10066.800811
4954.905436,1554.432478,-2834.553343,10066.800811
4954.905750,1258.350101,-1378.971896,9326.594869
4954.906065,1332.370696,-766.095498,8660.409521
4954.906379,814.226536,76.609550,9104.533087
4954.906694,-444.123565,766.095498,8956.491898
4954.907008,-1554.432478,842.705048,9326.594869
4954.907323,-2590.720797,1378.971896,10066.800811
4954.907637,-3627.009116,612.876398,10510.924376
4954.907952,-4589.276840,0.000000,10807.006753
4954.908266,-4071.132681,-153.219100,10584.944971
4954.908581,-3478.967927,459.657299,9400.615463
4954.908895,-1850.514855,1455.581446,8586.388927
4954.909210,222.061783,1991.848295,7994.224174
4954.909524,2072.576638,2451.505594,7254.018232
4954.909839,2886.803174,2604.724693,7402.059420
4954.910153,3478.967927,2604.724693,7920.203579
4954.910468,3330.926739,2451.505594,8512.368333
4954.910782,3404.947333,1991.848295,9992.780217
4954.911097,3330.926739,842.705048,10658.965565
4954.911411,2516.700203,0.000000,10658.965565
4954.911726,1702.473667,76.609550,10362.883188
4954.912040,592.164754,383.047749,8956.491898
4954.912355,222.061783,1532.190996,8660.409521
4954.912669,-370.102971,2221.676944,8438.347739
4954.912984,-2072.576638,2834.553343,8956.491898
4954.913298,-3256.906145,2681.334243,9104.533087
4954.913613,-4515.256246,2145.067394,9326.594869
4954.913927,-4959.379811,1762.019645,9696.697840
4954.914242,-5625.565159,1455.581446,10658.965565
4954.914556,-5847.626942,919.314598,10807.006753
4954.914871,-5255.462188,1072.533697,10362.883188
4954.915185,-3923.091493,2451.505594,9474.636058
4954.915500,-1924.535449,3217.601092,8660.409521
4954.915814,222.061783,3524.039291,8290.306550
4954.916129,2072.576638,3830.477490,6883.915261
4954.916443,3108.864956,3907.087040,6809.894666
4954.916758,3256.906145,3907.087040,8068.244768
4954.917072,3923.091493,3370.820191,9252.574275
4954.917387,3552.988522,995.924147,9844.739029
4954.917701,3330.926739,-536.266849,9844.739029
4954.918016,2294.638420,-995.924147,10066.800811
4954.918330,1554.432478,-995.924147,9844.739029
4954.918645,1184.329507,-306.438199,8956.491898
4954.918959,962.267725,153.219100,8586.388927
4954.919274,0.000000,842.705048,8882.471304
4954.919588,-814.226536,1608.800546,8882.471304
4954.919903,-2220.617826,1302.362347,8808.450710
4954.920217,-3108.864956,766.095498,9474.636058
4954.920532,-3182.885551,612.876398,11103.089130
4954.920846,-3627.009116,-306.438199,11473.192101
4954.921161,-3701.029710,-383.047749,10955.047942
4954.921475,-2812.782580,-842.705048,10214.842000
4954.921790,-1036.288319,383.047749,9474.636058
4954.922104,1184.329507,995.924147,9030.512492
4954.922418,2516.700203,766.095498,8290.306550
4954.922733,3478.967927,689.485948,7624.121203
4954.923047,3923.091493,459.657299,8290.306550
4954.923362,3849.070898,0.000000,8808.450710
4954.923676,4515.256246,-919.314598,9992.780217
4954.923991,4293.194464,-2298.286494,11103.089130
4954.924305,3849.070898,-3447.429741,10955.047942
4954.924620,2738.761985,-3140.991542,10658.965565
4954.924934,2220.617826,-2451.505594,9992.780217
4954.925249,1554.432478,-1608.800546,9104.533087
4954.925563,888.247130,-153.219100,8586.388927
4954.925878,0.000000,612.876398,8290.306550
4954.926192,-1628.453072,919.314598,8364.327145
4954.926507,-3182.885551,459.657299,8586.388927
4954.926821,-3997.112087,0.000000,9918.759623
4954.927136,-4441.235652,-229.828649,10881.027347
4954.927450,-4737.318029,-612.876398,10658.965565
4954.927765,-4367.215058,-612.876398,10584.944971
4954.928079,-3256.906145,229.828649,9474.636058
4954.928394,-1110.308913,1378.971896,9030.512492
4954.928708,962.267725,1991.848295,7698.141797
4954.929023,2294.638420,2374.896044,6439.791695
4954.929337,3182.885551,2451.505594,7105.977043
4954.929652,3256.906145,2145.067394,7994.224174
4954.929966,3404.947333,2298.286494,9400.615463
4954.930281,3701.029710,766.095498,10881.027347
4954.930595,3108.864956,-306.438199,10436.903782
4954.930910,2294.638420,-766.095498,10436.903782
4954.931224,1554.432478,-689.485948,9844.739029
4954.931538,666.185348,536.266849,9326.594869
4954.931853,74.020594,1838.629195,8734.430116
4954.932167,-370.102971,2681.334243,8882.471304
4954.932481,-1628.453072,2834.553343,8660.409521
4954.932796,-2738.761985,2987.772442,8438.347739
4954.933110,-3478.967927,3064.381992,9548.656652
4954.933424,-4959.379811,2757.943793,9400.615463
4954.933739,-5699.585753,2451.505594,10732.986159
4954.934053,-5255.462188,1302.362347,10807.006753
4954.934368,-4441.235652,1302.362347,9844.739029
4954.934682,-3034.844362,2221.676944,8956.491898
4954.934996,-1332.370696,3600.648841,8364.327145
4954.935311,962.267725,4213.525239,7179.997637
4954.935625,2368.659014,4136.915689,6957.935855
4954.935939,3182.885551,4136.915689,7105.977043
4954.936254,3701.029710,4060.306139,7920.203579
4954.936568,3849.070898,3064.381992,9252.574275
4954.936882,3849.070898,1378.971896,9918.759623
4954.937197,3256.906145,0.000000,10140.821405
4954.937511,2368.659014,-383.047749,10066.800811
4954.937826,2146.597232,0.000000,10066.800811
4954.938140,1036.288319,306.438199,9622.677246
4954.938454,888.247130,689.485948,8586.388927
4954.938769,0.000000,1225.752797,8512.368333
4954.939083,-1036.288319,1302.362347,9326.594869
4954.939397,-1998.556043,1302.362347,9992.780217
4954.939712,-2590.720797,919.314598,10584.944971
4954.940026,-3552.988522,306.438199,11103.089130
4954.940340,-3627.009116,-76.609550,11325.150913
4954.940655,-3330.926739,-306.438199,10658.965565
4954.940969,-2146.597232,0.000000,9474.636058
4954.941284,-370.102971,1149.143247,9548.656652
4954.941598,1332.370696,1838.629195,8808.450710
4954.941912,2960.823768,1455.581446,7476.080014
4954.942227,4145.153275,1072.533697,7105.977043
4954.942541,4071.132681,1991.848295,7994.224174
4954.942855,4145.153275,1608.800546,8956.491898
4954.943170,3997.112087,-1225.752797,9548.656652
4954.943484,3701.029710,-2987.772442,10214.842000
4954.943798,2664.741391,-3064.381992,10214.842000
4954.944113,1776.494261,-3217.601092,9622.677246
4954.944427,1480.411884,-2221.676944,8956.491898
4954.944742,962.267725,-1302.362347,8882.471304
4954.945056,444.123565,-306.438199,9400.615463
4954.945370,-444.123565,459.657299,8882.471304
4954.945685,-1776.494261,0.000000,8586.388927
4954.945999,-3108.864956,-229.828649,9548.656652
4954.946313,-3330.926739,-306.438199,10955.047942
4954.946628,-4071.132681,-689.485948,11251.130318
4954.946942,-4219.173869,-612.876398,11399.171507
4954.947256,-3701.029710,-306.438199,11103.089130
4954.947571,-2368.659014,536.266849,9770.718434
4954.947885,-592.164754,1915.238745,8438.347739
4954.948200,1184.329507,1455.581446,7772.162391
4954.948514,2442.679609,1378.971896,7476.080014
4954.948828,3108.864956,1685.410096,7698.141797
4954.949143,3330.926739,1762.019645,8660.409521
4954.949457,3478.967927,1608.800546,9474.636058
4954.949771,3849.070898,0.000000,10066.800811
4954.950086,3404.947333,-919.314598,10658.965565
4954.950400,2442.679609,-306.438199,10510.924376
4954.950714,1924.535449,-229.828649,9696.697840
4954.951029,1776.494261,612.876398,8734.430116
4954.951343,1184.329507,1532.190996,8142.265362
4954.951658,296.082377,2221.676944,8660.409521
4954.951972,-1406.391290,3140.991542,8734.430116
4954.952286,-3182.885551,3140.991542,8290.306550
4954.952601,-3552.988522,2374.896044,9400.615463
4954.952915,-3923.091493,2068.457845,10214.842000
4954.953229,-4515.256246,1991.848295,10584.944971
4954.953544,-4959.379811,1378.971896,10288.862594
4954.953858,-4441.235652,1532.190996,9696.697840
4954.954172,-3330.926739,2604.724693,9400.615463
4954.954487,-1332.370696,3447.429741,8364.327145
4954.954801,666.185348,2911.162892,7846.182985
4954.955116,2368.659014,2834.553343,6883.915261
4954.955430,2590.720797,3600.648841,7624.121203
4954.955744,3108.864956,3447.429741,9030.512492
4954.956059,3330.926739,2681.334243,9696.697840
4954.956373,3552.988522,689.485948,10288.862594
4954.956687,2812.782580,995.924147,10658.965565
4954.957002,2590.720797,1072.533697,9918.759623
4954.957316,1998.556043,919.314598,8882.471304
4954.957630,1110.308913,1378.971896,8142.265362
4954.957945,148.041188,1302.362347,9104.533087
4954.958259,-962.267725,1225.752797,9178.553681
4954.958574,-2072.576638,1225.752797,8808.450710
4954.958888,-3330.926739,919.314598,9178.553681
4954.959202,-4219.173869,1225.752797,10140.821405
4954.959517,-4515.256246,842.705048,10955.047942
4954.959831,-4663.297435,0.000000,10214.842000
4954.960145,-4219.173869,153.219100,10362.883188
4954.960460,-3330.926739,536.266849,9918.759623
4954.960774,-1628.453072,1149.143247,8734.430116
4954.961089,444.123565,1225.752797,7698.141797
4954.961403,2664.741391,1455.581446,7624.121203
4954.961717,3478.967927,1532.190996,7105.977043
4954.962032,3330.926739,1225.752797,8142.265362
4954.962346,3775.050304,612.876398,9252.574275
4954.962660,3849.070898,-689.485948,10066.800811
4954.962975,4293.194464,-1762.019645,10584.944971
4954.963289,3627.009116,-2834.553343,9992.780217
4954.963603,2590.720797,-2911.162892,9696.697840
4954.963918,2516.700203,-2068.457845,9326.594869
4954.964232,1850.514855,-766.095498,8882.471304
4954.964547,1258.350101,229.828649,8956.491898
4954.964861,74.020594,-919.314598,8438.347739
4954.965175,-1554.432478,-229.828649,9178.553681
4954.965490,-2294.638420,0.000000,10288.862594
4954.965804,-3034.844362,0.000000,10510.924376
4954.966118,-3923.091493,-766.095498,11103.089130
4954.966433,-3701.029710,-842.705048,10807.006753
4954.966747,-3627.009116,306.438199,10362.883188
4954.967061,-2220.617826,842.705048,9326.594869
4954.967376,-592.164754,842.705048,8290.306550
4954.967690,962.267725,536.266849,8290.306550
4954.968005,2072.576638,459.657299,7846.182985
4954.968319,2368.659014,1072.533697,7920.203579
4954.968633,2590.720797,306.438199,8882.471304
4954.968948,2812.782580,-1225.752797,10584.944971
4954.969262,3256.906145,-1072.533697,11843.295072
4954.969576,3108.864956,-1532.190996,10807.006753
4954.969891,2886.803174,-1225.752797,10658.965565
4954.970205,2220.617826,-842.705048,9548.656652
4954.970519,1702.473667,1072.533697,8882.471304
4954.970834,1628.453072,2374.896044,8142.265362
4954.971148,814.226536,3600.648841,8364.327145
4954.971463,-1184.329507,3064.381992,8956.491898
4954.971777,-2812.782580,2374.896044,9030.512492
4954.972091,-3627.009116,2757.943793,9326.594869
4954.972406,-4811.338623,1915.238745,10066.800811
4954.972720,-5329.482782,1532.190996,10584.944971
4954.973034,-5551.544565,1302.362347,10066.800811
4954.973349,-4441.235652,1225.752797,8438.347739
4954.973663,-3552.988522,2145.067394,7994.224174
4954.973977,-1184.329507,2298.286494,7920.203579
4954.974292,518.144159,2604.724693,7328.038826
4954.974606,1258.350101,3447.429741,7550.100608
4954.974921,1702.473667,2757.943793,8364.327145
4954.975235,2072.576638,2298.286494,9548.656652
4954.975549,2664.741391,689.485948,10584.944971
4954.975864,2812.782580,229.828649,11103.089130
4954.976178,2886.803174,153.219100,10732.986159
4954.976492,2072.576638,0.000000,10288.862594
4954.976807,2146.597232,612.876398,9844.739029
4954.977121,1702.473667,1608.800546,9178.553681
4954.977435,1036.288319,2068.457845,9178.553681
4954.977750,0.000000,2298.286494,8956.491898
4954.978064,-1184.329507,1915.238745,8956.491898
4954.978379,-2220.617826,1455.581446,9252.574275
4954.978693,-3256.906145,1072.533697,10510.924376
4954.979007,-3849.070898,0.000000,10362.883188
4954.979322,-4293.194464,-306.438199,10140.821405
4954.979636,-3849.070898,0.000000,9474.636058
4954.979950,-2442.679609,1302.362347,9178.553681
4954.980265,-222.061783,1685.410096,8216.285956
4954.980579,1702.473667,1838.629195,7994.224174
4954.980893,2886.803174,2298.286494,7402.059420
4954.981208,3330.926739,1685.410096,6883.915261
4954.981522,4071.132681,1149.143247,8142.265362
4954.981837,4663.297435,612.876398,9178.553681
4954.982151,4885.359217,-536.266849,10362.883188
4954.982465,4589.276840,-1762.019645,10807.006753
4954.982780,3404.947333,-1685.410096,10066.800811
4954.983094,2738.761985,-2451.505594,9178.553681
4954.983408,1924.535449,-1225.752797,9326.594869
4954.983723,1628.453072,-612.876398,9474.636058
4954.984037,518.144159,-1072.533697,9474.636058
4954.984351,-1036.288319,-842.705048,9770.718434
4954.984666,-2516.700203,-1149.143247,9770.718434
4954.984980,-3775.050304,-995.924147,10362.883188
4954.985295,-3849.070898,-1532.190996,11251.130318
4954.985609,-4219.173869,-1608.800546,11621.233289
4954.985923,-3404.947333,-612.876398,11399.171507
4954.986238,-2368.659014,-306.438199,9548.656652
4954.986552,-1184.329507,1072.533697,8956.491898
4954.986866,370.102971,1762.019645,8142.265362
4954.987181,1998.556043,1915.238745,7550.100608
4954.987495,2664.741391,1915.238745,7105.977043
4954.987810,3330.926739,2221.676944,8290.306550
4954.988124,3108.864956,1685.410096,8734.430116
4954.988438,2886.803174,-153.219100,9252.574275
4954.988753,3108.864956,-766.095498,9918.759623
4954.989067,2368.659014,-1072.533697,9918.759623
4954.989381,1406.391290,-689.485948,9548.656652
4954.989696,814.226536,-459.657299,9252.574275
4954.990010,518.144159,459.657299,8660.409521
4954.990324,0.000000,1762.019645,8512.368333
4954.990639,-888.247130,2681.334243,8364.327145
4954.990953,-2442.679609,2451.505594,8216.285956
4954.991268,-3404.947333,2681.334243,9252.574275
4954.991582,-4071.132681,2298.286494,10362.883188
4954.991896,-4367.215058,2068.457845,11399.171507
4954.992211,-4737.318029,1072.533697,10955.047942
4954.992525,-4293.194464,1378.971896,9992.780217
4954.992839,-3478.967927,2451.505594,8808.450710
4954.993154,-888.247130,2911.162892,8882.471304
4954.993468,666.185348,3447.429741,8142.265362
4954.993782,1480.411884,3140.991542,7624.121203
4954.994097,2220.617826,3064.381992,7698.141797
4954.994411,2516.700203,2987.772442,8734.430116
4954.994726,3034.844362,2451.505594,9548.656652
4954.995040,3552.988522,1378.971896,10288.862594
4954.995354,3330.926739,0.000000,10362.883188
4954.995669,2812.782580,0.000000,9770.718434
4954.995983,2442.679609,995.924147,9474.636058
4954.996297,1480.411884,1608.800546,8956.491898
4954.996612,1480.411884,2528.115143,8882.471304
4954.996926,592.164754,2528.115143,8734.430116
4954.997240,-740.205942,2298.286494,9030.512492
4954.997555,-2072.576638,2374.896044,8364.327145
4954.997869,-3256.906145,1991.848295,8808.450710
4954.998184,-3923.091493,1225.752797,9992.780217
4954.998498,-5033.400406,689.485948,10436.903782
4954.998812,-4811.338623,383.047749,10362.883188
4954.999127,-4071.132681,-153.219100,9622.677246
4954.999441,-2886.803174,306.438199,9252.574275
4954.999755,-592.164754,1149.143247,8364.327145
4955.000070,1036.288319,842.705048,7846.182985
4955.000384,1628.453072,1149.143247,6957.935855
4955.000698,2220.617826,995.924147,8364.327145
4955.001013,2664.741391,995.924147,9844.739029
4955.001327,3478.967927,-153.219100,10362.883188
4955.001642,3997.112087,-919.314598,10955.047942
4955.001956,4071.132681,-1991.848295,10436.903782
4955.002270,3701.029710,-2221.676944,9770.718434
4955.002585,3404.947333,-1149.143247,9474.636058
4955.002899,2886.803174,-306.438199,8882.471304
4955.003213,2368.659014,76.609550,9252.574275
4955.003528,814.226536,153.219100,9104.533087
4955.003842,-518.144159,0.000000,9474.636058
4955.004156,-1554.432478,-536.266849,9770.718434
4955.004471,-2368.659014,-842.705048,10362.883188
4955.004785,-3330.926739,-1302.362347,10658.965565
4955.005100,-3404.947333,-1608.800546,10362.883188
4955.005414,-3034.844362,-459.657299,10140.821405
4955.005728,-2146.597232,0.000000,9992.780217
4955.006043,-666.185348,995.924147,8808.450710
4955.006357,962.267725,1532.190996,7698.141797
4955.006671,2072.576638,1685.410096,7179.997637
4955.006986,2294.638420,1762.019645,7179.997637
4955.007300,2738.761985,1149.143247,8290.306550
4955.007614,3034.844362,383.047749,9400.615463
4955.007929,3256.906145,-306.438199,9992.780217
4955.008243,2738.761985,-1762.019645,10288.862594
4955.008558,2072.576638,-1532.190996,9770.718434
4955.008872,1702.473667,-1149.143247,9400.615463
4955.009186,1332.370696,76.609550,9178.553681
4955.009501,1184.329507,383.047749,9178.553681
4955.009815,666.185348,459.657299,8882.471304
4955.010129,-444.123565,1762.019645,9030.512492
4955.010444,-1850.514855,2068.457845,9400.615463
4955.010758,-2738.761985,2068.457845,9918.759623
4955.011072,-3256.906145,2068.457845,10436.903782
4955.011387,-3330.926739,1762.019645,10881.027347
4955.011701,-3701.029710,2451.505594,10140.821405
4955.012016,-3182.885551,2298.286494,9474.636058
4955.012330,-2886.803174,3294.210641,8512.368333
4955.012644,-1850.514855,3370.820191,7920.203579
4955.012959,-296.082377,3524.039291,7772.162391
4955.013273,740.205942,3217.601092,7698.141797
4955.013587,740.205942,2451.505594,7550.100608
4955.013902,962.267725,2145.067394,8512.368333
4955.014216,740.205942,1762.019645,8956.491898
4955.014530,1480.411884,689.485948,9696.697840
4955.014845,1332.370696,0.000000,9474.636058
4955.015159,1036.288319,0.000000,9474.636058
4955.015474,888.247130,919.314598,8956.491898
4955.015788,962.267725,1608.800546,8808.450710
4955.016102,814.226536,2221.676944,8734.430116
4955.016417,444.123565,1991.848295,8956.491898
4955.016731,-518.144159,2374.896044,9474.636058
4955.017045,-1332.370696,2221.676944,9326.594869
4955.017360,-2220.617826,1838.629195,9992.780217
4955.017674,-3108.864956,1838.629195,11177.109724
4955.017989,-3404.947333,995.924147,11325.150913
4955.018303,-3108.864956,919.314598,10732.986159
4955.018617,-2294.638420,383.047749,9030.512492
4955.018932,-1850.514855,1072.533697,9030.512492
4955.019246,0.000000,229.828649,7772.162391
4955.019560,1258.350101,306.438199,7698.141797
4955.019875,2220.617826,766.095498,8216.285956
4955.020189,2368.659014,919.314598,8882.471304
4955.020503,2664.741391,536.266849,9548.656652
4955.020818,3627.009116,-612.876398,9622.677246
4955.021132,4293.194464,-995.924147,9104.533087
4955.021447,3701.029710,-919.314598,9474.636058
4955.021761,2442.679609,-1378.971896,9474.636058
4955.022075,2516.700203,-919.314598,9400.615463
4955.022390,2442.679609,0.000000,9178.553681
4955.022704,1776.494261,76.609550,9474.636058
4955.023018,518.144159,76.609550,9622.677246
4955.023333,-1184.329507,-383.047749,9178.553681
4955.023647,-2294.638420,-919.314598,9474.636058
4955.023961,-2960.823768,-153.219100,10288.862594
4955.024276,-3552.988522,-1149.143247,10510.924376
4955.024590,-3701.029710,-995.924147,10288.862594
4955.024905,-2886.803174,-306.438199,9770.718434
4955.025219,-1702.473667,229.828649,9474.636058
4955.025533,-148.041188,689.485948,8956.491898
4955.025848,1332.370696,-459.657299,8068.244768
4955.026162,2220.617826,459.657299,7550.100608
4955.026476,2664.741391,1302.362347,8364.327145
4955.026791,2590.720797,1225.752797,9326.594869
4955.027105,2812.782580,0.000000,10140.821405
4955.027419,3034.844362,-995.924147,10288.862594
4955.027734,2368.659014,-1762.019645,10362.883188
4955.028048,1702.473667,-1302.362347,9548.656652
4955.028363,1184.329507,-919.314598,9400.615463
4955.028677,1332.370696,-459.657299,9474.636058
4955.028991,740.205942,459.657299,9474.636058
4955.029306,370.102971,612.876398,9474.636058
4955.029620,-962.267725,766.095498,9474.636058
4955.029934,-2220.617826,1302.362347,9548.656652
4955.030249,-3182.885551,1225.752797,9548.656652
4955.030563,-3552.988522,1685.410096,10066.800811
4955.030877,-3034.844362,1225.752797,10066.800811
4955.031192,-2738.761985,2451.505594,9770.718434
4955.031506,-2220.617826,2528.115143,8586.388927
4955.031821,-1110.308913,3370.820191,8216.285956
4955.032135,444.123565,3600.648841,7179.997637
4955.032450,1480.411884,3370.820191,7105.977043
4955.032764,1628.453072,3294.210641,7402.059420
4955.033078,1332.370696,2681.334243,8142.265362
4955.033393,1406.391290,1608.800546,9400.615463
4955.033707,1628.453072,689.485948,9844.739029
4955.034022,1184.329507,-153.219100,10510.924376
4955.034336,444.123565,-383.047749,10140.821405
4955.034651,0.000000,0.000000,9622.677246
4955.034965,74.020594,459.657299,9178.553681
4955.035279,370.102971,1915.238745,8956.491898
4955.035594,888.247130,2068.457845,9252.574275
4955.035908,444.123565,2681.334243,9252.574275
4955.036223,-444.123565,2681.334243,9030.512492
4955.036537,-1258.350101,2604.724693,10066.800811
4955.036852,-2146.597232,2681.334243,10510.924376
4955.037166,-2442.679609,2221.676944,10955.047942
4955.037480,-2368.659014,2145.067394,10362.883188
4955.037795,-2072.576638,2451.505594,9622.677246
4955.038109,-1406.391290,2451.505594,8512.368333
4955.038424,-74.020594,2604.724693,7624.121203
4955.038738,814.226536,2451.505594,7624.121203
4955.039052,888.247130,2068.457845,7402.059420
4955.039367,1036.288319,1455.581446,7550.100608
4955.039681,740.205942,766.095498,8438.347739
4955.039996,666.185348,-229.828649,9548.656652
4955.040310,1554.432478,-1532.190996,9770.718434
4955.040625,888.247130,-1072.533697,9696.697840
4955.040939,370.102971,-1608.800546,9400.615463
4955.041253,74.020594,-1149.143247,9252.574275
4955.041568,666.185348,153.219100,8808.450710
4955.041882,1332.370696,612.876398,9178.553681
4955.042197,1258.350101,536.266849,9548.656652
4955.042511,888.247130,459.657299,9918.759623
4955.042826,444.123565,842.705048,10288.862594
4955.043140,74.020594,842.705048,10584.944971
4955.043454,-1036.288319,459.657299,11177.109724
4955.043769,-962.267725,-153.219100,11843.295072
4955.044083,-814.226536,-306.438199,11103.089130
4955.044398,-518.144159,76.609550,10140.821405
4955.044712,-148.041188,153.219100,8956.491898
4955.045027,888.247130,995.924147,8068.244768
4955.045341,1702.473667,766.095498,7550.100608
4955.045655,1998.556043,612.876398,7846.182985
4955.045970,1480.411884,-153.219100,8364.327145
4955.046284,1036.288319,-995.924147,9030.512492
4955.046599,1332.370696,-1225.752797,10066.800811
4955.046913,1036.288319,-2068.457845,10288.862594
4955.047228,1110.308913,-2068.457845,9918.759623
4955.047542,1406.391290,-2145.067394,9178.553681
4955.047856,888.247130,-1072.533697,8808.450710
4955.048171,1110.308913,306.438199,8438.347739
4955.048485,888.247130,842.705048,8512.368333
4955.048800,666.185348,1149.143247,8882.471304
4955.049114,-296.082377,1302.362347,9178.553681
4955.049428,-1184.329507,1378.971896,9474.636058
4955.049743,-1776.494261,919.314598,9326.594869
4955.050057,-2442.679609,1302.362347,10140.821405
4955.050372,-2960.823768,1378.971896,10510.924376
4955.050686,-2368.659014,1072.533697,9992.780217
4955.051001,-1406.391290,1608.800546,8808.450710
4955.051315,0.000000,2604.724693,8290.306550
4955.051629,1184.329507,2834.553343,7624.121203
4955.051944,2220.617826,2987.772442,7550.100608
4955.052258,2368.659014,2451.505594,7624.121203
4955.052573,1998.556043,2068.457845,8438.347739
4955.052887,1998.556043,1455.581446,9622.677246
4955.053202,2072.576638,459.657299,10288.862594
4955.053516,1480.411884,-459.657299,10584.944971
4955.053830,518.144159,-459.657299,10214.842000
4955.054145,0.000000,0.000000,9474.636058
4955.054459,-148.041188,536.266849,8882.471304
4955.054774,-148.041188,1302.362347,9474.636058
4955.055088,-1036.288319,1915.238745,8512.368333
4955.055403,-2146.597232,1838.629195,8956.491898
4955.055717,-2960.823768,1762.019645,9474.636058
4955.056031,-3478.967927,2068.457845,10066.800811
4955.056346,-3552.988522,1915.238745,10732.986159
4955.056660,-3256.906145,1608.800546,10881.027347
4955.056975,-3256.906145,1685.410096,9696.697840
4955.057289,-1998.556043,2451.505594,8882.471304
4955.057604,-740.205942,3064.381992,8290.306550
4955.057918,740.205942,3677.258390,7994.224174
4955.058232,2220.617826,3677.258390,7698.141797
4955.058547,2590.720797,3064.381992,7328.038826
4955.058861,2590.720797,2374.896044,7920.203579
4955.059176,2220.617826,1532.190996,9030.512492
4955.059490,2368.659014,536.266849,9844.739029
4955.059804,2072.576638,-612.876398,10436.903782
4955.060119,1702.473667,-1378.971896,10288.862594
4955.060433,740.205942,-1302.362347,10066.800811
4955.060748,222.061783,-689.485948,9548.656652
4955.061062,370.102971,229.828649,8882.471304
4955.061377,370.102971,153.219100,8734.430116
4955.061691,296.082377,612.876398,9326.594869
4955.062005,-444.123565,842.705048,9474.636058
4955.062320,-1776.494261,766.095498,9252.574275
4955.062634,-2294.638420,383.047749,9918.759623
4955.062949,-2886.803174,459.657299,11325.150913
4955.063263,-2590.720797,306.438199,11251.130318
4955.063578,-1776.494261,0.000000,10214.842000
4955.063892,-592.164754,0.000000,9400.615463
4955.064206,1184.329507,306.438199,7994.224174
4955.064521,2368.659014,1378.971896,7846.182985
4955.064835,2812.782580,1302.362347,7994.224174
4955.065150,3034.844362,919.314598,7994.224174
4955.065464,2812.782580,459.657299,8882.471304
4955.065779,2590.720797,-306.438199,10288.862594
4955.066093,2368.659014,-1378.971896,9252.574275
4955.066407,2072.576638,-2451.505594,9844.739029
4955.066722,1480.411884,-2911.162892,9770.718434
4955.067036,518.144159,-1302.362347,9400.615463
4955.067351,518.144159,-766.095498,8956.491898
4955.067665,74.020594,-383.047749,8734.430116
4955.067980,0.000000,383.047749,9030.512492
4955.068294,-962.267725,306.438199,9474.636058
4955.068608,-1776.494261,0.000000,9400.615463
4955.068923,-2368.659014,153.219100,9918.759623
4955.069237,-2664.741391,0.000000,10584.944971
4955.069552,-2442.679609,306.438199,11325.150913
4955.069866,-2738.761985,536.266849,10807.006753
4955.070180,-2294.638420,612.876398,9992.780217
4955.070495,-592.164754,1532.190996,8882.471304
4955.070809,666.185348,1915.238745,8216.285956
4955.071124,2368.659014,2681.334243,8290.306550
4955.071438,2960.823768,2681.334243,7920.203579
4955.071753,2516.700203,2451.505594,7994.224174
4955.072067,1998.556043,1762.019645,9178.553681
4955.072381,2294.638420,919.314598,9696.697840
4955.072696,2368.659014,-306.438199,9918.759623
4955.073010,1702.473667,-306.438199,9696.697840
4955.073325,740.205942,-229.828649,9252.574275
4955.073639,-74.020594,689.485948,8438.347739
4955.073954,-222.061783,1608.800546,8808.450710
4955.074268,-148.041188,1838.629195,8808.450710
4955.074582,-1110.308913,1685.410096,9400.615463
4955.074897,-2368.659014,1532.190996,9178.553681
4955.075211,-2886.803174,1608.800546,9400.615463
4955.075526,-3256.906145,1685.410096,9992.780217
4955.075840,-3404.947333,1685.410096,11177.109724
4955.076155,-3627.009116,1991.848295,11251.130318
4955.076469,-2960.823768,1532.190996,10436.903782
4955.076783,-1998.556043,2528.115143,9252.574275
4955.077098,-666.185348,3524.039291,7994.224174
4955.077412,1110.308913,3753.867940,7846.182985
4955.077727,2590.720797,3677.258390,7476.080014
4955.078041,2960.823768,3217.601092,7105.977043
4955.078356,3182.885551,3064.381992,7920.203579
4955.078670,2664.741391,1762.019645,8734.430116
4955.078984,2516.700203,766.095498,9770.718434
4955.079299,2220.617826,-306.438199,10214.842000
4955.079613,1554.432478,-689.485948,10066.800811
4955.079928,370.102971,-1149.143247,9474.636058
4955.080242,-222.061783,-689.485948,9474.636058
4955.080556,-444.123565,-459.657299,8882.471304
4955.080871,-888.247130,-612.876398,9400.615463
4955.081185,-1110.308913,536.266849,10140.821405
4955.081500,-2368.659014,612.876398,9992.780217
4955.081814,-2960.823768,459.657299,9622.677246
4955.082129,-3108.864956,689.485948,9844.739029
4955.082443,-3108.864956,919.314598,10658.965565
4955.082757,-2738.761985,842.705048,10362.883188
4955.083072,-1924.535449,995.924147,9622.677246
4955.083386,-888.247130,1225.752797,9104.533087
4955.083701,1258.350101,1685.410096,8364.327145
4955.084015,2812.782580,1991.848295,7994.224174
4955.084330,3330.926739,1608.800546,7179.997637
4955.084644,3552.988522,1915.238745,7698.141797
4955.084958,3552.988522,612.876398,8882.471304
4955.085273,3256.906145,-153.219100,9992.780217
4955.085587,3108.864956,-1072.533697,10362.883188
4955.085902,2368.659014,-2145.067394,9992.780217
4955.086216,1480.411884,-2374.896044,9474.636058
4955.086531,740.205942,-1915.238745,9178.553681
4955.086845,148.041188,-1149.143247,8882.471304
4955.087159,-222.061783,-459.657299,9400.615463
4955.087474,-962.267725,-383.047749,9326.594869
4955.087788,-1850.514855,0.000000,9474.636058
4955.088103,-3034.844362,229.828649,9770.718434
4955.088417,-3627.009116,-383.047749,10066.800811
4955.088731,-3775.050304,-306.438199,10881.027347
4955.089046,-3330.926739,-459.657299,11251.130318
4955.089360,-3108.864956,-306.438199,10807.006753
4955.089675,-2146.597232,459.657299,9400.615463
4955.089989,0.000000,1225.752797,8364.327145
4955.090304,1480.411884,2221.676944,8068.244768
4955.090618,3330.926739,2374.896044,7624.121203
4955.090932,3997.112087,2451.505594,7550.100608
4955.091247,4219.173869,2298.286494,8068.244768
4955.091561,3997.112087,1608.800546,8956.491898
4955.091876,3997.112087,766.095498,9696.697840
4955.092190,4145.153275,76.609550,10288.862594
4955.092505,2738.761985,0.000000,10214.842000
4955.092819,1628.453072,383.047749,9770.718434
4955.093133,1110.308913,842.705048,9252.574275
4955.093448,444.123565,1225.752797,8660.409521
4955.093762,0.000000,1378.971896,8438.347739
4955.094077,-1480.411884,1455.581446,8734.430116
4955.094391,-3256.906145,1149.143247,9030.512492
4955.094706,-4145.153275,1378.971896,9474.636058
4955.095020,-4737.318029,1838.629195,9992.780217
4955.095334,-5107.421000,1302.362347,10584.944971
4955.095649,-4737.318029,1225.752797,10436.903782
4955.095963,-3997.112087,1225.752797,9696.697840
4955.096278,-2146.597232,1838.629195,8734.430116
4955.096592,0.000000,2987.772442,8364.327145
4955.096907,1406.391290,3447.429741,8290.306550
4955.097221,2960.823768,3677.258390,7994.224174
4955.097535,3552.988522,3677.258390,7846.182985
4955.097850,3997.112087,3064.381992,9104.533087
4955.098164,3775.050304,2068.457845,10436.903782
4955.098479,3478.967927,153.219100,10584.944971
4955.098793,3182.885551,-306.438199,10214.842000
4955.099107,2368.659014,-306.438199,10362.883188
4955.099422,740.205942,229.828649,9696.697840
4955.099736,222.061783,689.485948,8660.409521
4955.100051,-444.123565,842.705048,7994.224174
4955.100365,-814.226536,1685.410096,8512.368333
4955.100680,-1850.514855,1302.362347,9178.553681
4955.100994,-3182.885551,995.924147,8734.430116
4955.101308,-4145.153275,536.266849,9252.574275
4955.101623,-4441.235652,1149.143247,10140.821405
4955.101937,-4367.215058,306.438199,10881.027347
4955.102252,-3552.988522,383.047749,10436.903782
4955.102566,-2368.659014,1149.143247,9252.574275
4955.102881,-888.247130,1149.143247,8364.327145
4955.103195,888.247130,1455.581446,8142.265362
4955.103509,2812.782580,1685.410096,8068.244768
4955.103824,3701.029710,1762.019645,7772.162391
4955.104138,4071.132681,1149.143247,8660.409521
4955.104453,4145.153275,689.485948,9696.697840
4955.104767,3997.112087,-536.266849,10362.883188
4955.105082,3997.112087,-1532.190996,10510.924376
4955.105396,3478.967927,-2221.676944,10214.842000
4955.105710,2664.741391,-1915.238745,9548.656652
4955.106025,1628.453072,-1149.143247,9548.656652
4955.106339,1332.370696,-153.219100,9400.615463
4955.106654,592.164754,0.000000,9178.553681
4955.106968,-370.102971,-459.657299,9622.677246
4955.107283,-1480.411884,0.000000,9474.636058
4955.107597,-2812.782580,-383.047749,9770.718434
4955.107911,-3552.988522,-459.657299,10362.883188
4955.108226,-3701.029710,-612.876398,10881.027347
4955.108540,-3404.947333,0.000000,10807.006753
4955.108855,-2960.823768,459.657299,9474.636058
4955.109169,-1480.411884,1149.143247,8216.285956
4955.109483,0.000000,1915.238745,7624.121203
4955.109798,1924.535449,2604.724693,7846.182985
4955.110112,2590.720797,2145.067394,8068.244768
4955.110427,3034.844362,1762.019645,8364.327145
4955.110741,3108.864956,919.314598,8956.491898
4955.111056,2664.741391,229.828649,10066.800811
4955.111370,2442.679609,-153.219100,10510.924376
4955.111684,2220.617826,-842.705048,10288.862594
4955.111999,1480.411884,-612.876398,10288.862594
4955.112313,444.123565,0.000000,9696.697840
4955.112628,-444.123565,459.657299,8808.450710
4955.112942,-444.123565,1302.362347,8512.368333
4955.113257,-740.205942,1838.629195,8364.327145
4955.113571,-1702.473667,2068.457845,8956.491898
4955.113885,-3034.844362,2068.457845,8808.450710
4955.114200,-3404.947333,1608.800546,8808.450710
4955.114514,-4071.132681,1915.238745,9326.594869
4955.114829,-4515.256246,1762.019645,9918.759623
4955.115143,-3701.029710,1685.410096,10214.842000
4955.115458,-3034.844362,1915.238745,9622.677246
4955.115772,-1406.391290,2451.505594,9474.636058
4955.116086,296.082377,2911.162892,9178.553681
4955.116401,2220.617826,2604.724693,8586.388927
4955.116715,3034.844362,2528.115143,7550.100608
4955.117030,3478.967927,2834.553343,8142.265362
4955.117344,3552.988522,2298.286494,9770.718434
4955.117659,3404.947333,2221.676944,10658.965565
4955.117973,3256.906145,689.485948,10658.965565
4955.118287,2294.638420,0.000000,10140.821405
4955.118602,740.205942,-306.438199,9400.615463
4955.118916,0.000000,459.657299,8882.471304
4955.119231,-592.164754,766.095498,8364.327145
4955.119545,-1332.370696,1072.533697,8734.430116
4955.119859,-1628.453072,919.314598,9326.594869
4955.120174,-2738.761985,689.485948,8956.491898
4955.120488,-3478.967927,842.705048,9030.512492
4955.120803,-3627.009116,919.314598,9696.697840
4955.121117,-3330.926739,919.314598,10362.883188
4955.121432,-2146.597232,1608.800546,10288.862594
4955.121746,-1554.432478,766.095498,9178.553681
4955.122060,-222.061783,1225.752797,8734.430116
4955.122375,1332.370696,2604.724693,7920.203579
4955.122689,3108.864956,3140.991542,7846.182985
4955.123004,4145.153275,2987.772442,7772.162391
4955.123318,4219.173869,2145.067394,8142.265362
4955.123633,4071.132681,1225.752797,8512.368333
4955.123947,3404.947333,842.705048,9400.615463
4955.124261,2442.679609,-842.705048,9918.759623
4955.124576,1924.535449,-2221.676944,10732.986159
4955.124890,1184.329507,-2834.553343,10584.944971
4955.125205,74.020594,-2757.943793,9992.780217
4955.125519,-666.185348,-2068.457845,9474.636058
4955.125834,-592.164754,-842.705048,9104.533087
4955.126148,-222.061783,-459.657299,9104.533087
4955.126462,-1110.308913,-76.609550,9326.594869
4955.126777,-2368.659014,0.000000,9696.697840
4955.127091,-2960.823768,-536.266849,10214.842000
4955.127406,-2960.823768,-459.657299,10510.924376
4955.127720,-2738.761985,-459.657299,11177.109724
4955.128035,-1998.556043,-229.828649,10955.047942
4955.128349,-1406.391290,229.828649,10066.800811
4955.128663,666.185348,1149.143247,9918.759623
4955.128978,2220.617826,1838.629195,7624.121203
4955.129292,3330.926739,1532.190996,7254.018232
4955.129607,3997.112087,1991.848295,7254.018232
4955.129921,3923.091493,1838.629195,8068.244768
4955.130235,3478.967927,1378.971896,8956.491898
4955.130550,3034.844362,-536.266849,9474.636058
4955.130864,2442.679609,-995.924147,9992.780217
4955.131179,2294.638420,-1608.800546,10288.862594
4955.131493,592.164754,-1455.581446,9252.574275
4955.131808,-222.061783,-1149.143247,8882.471304
4955.132122,-666.185348,-459.657299,8882.471304
4955.132436,-814.226536,536.266849,9178.553681
4955.132751,-1406.391290,995.924147,9400.615463
4955.133065,-2516.700203,1378.971896,9400.615463
4955.133380,-3182.885551,1072.533697,9548.656652
4955.133694,-2960.823768,1455.581446,10658.965565
4955.134009,-3108.864956,1072.533697,10881.027347
4955.134323,-2960.823768,1302.362347,11029.068536
4955.134637,-2368.659014,1685.410096,10214.842000
4955.134952,-1776.494261,2221.676944,9178.553681
4955.135266,-370.102971,3064.381992,8290.306550
4955.135581,1332.370696,3830.477490,7846.182985
4955.135895,2960.823768,3753.867940,7402.059420
4955.136209,2812.782580,2374.896044,7476.080014
4955.136524,2368.659014,2681.334243,8438.347739
4955.136838,1850.514855,1991.848295,9622.677246
4955.137153,2368.659014,1149.143247,10362.883188
4955.137467,2072.576638,306.438199,10658.965565
4955.137782,962.267725,0.000000,9844.739029
4955.138096,0.000000,-153.219100,9104.533087
4955.138410,-888.247130,689.485948,8142.265362
4955.138725,-740.205942,1378.971896,7846.182985
4955.139039,-740.205942,1762.019645,8586.388927
4955.139354,-1406.391290,2298.286494,9252.574275
4955.139668,-2738.761985,2298.286494,9326.594869
4955.139983,-3404.947333,1608.800546,9400.615463
4955.140297,-3404.947333,1991.848295,10288.862594
4955.140611,-3404.947333,842.705048,10732.986159
4955.140926,-3182.885551,459.657299,10436.903782
4955.141240,-2294.638420,1608.800546,9992.780217
4955.141555,-370.102971,2298.286494,9104.533087
4955.141869,740.205942,2834.553343,8808.450710
4955.142183,1480.411884,2604.724693,8512.368333
4955.142498,2886.803174,2604.724693,7550.100608
4955.142812,3182.885551,2528.115143,7550.100608
4955.143127,2442.679609,1455.581446,8660.409521
4955.143441,2738.761985,383.047749,9918.759623
4955.143756,2368.659014,-612.876398,10658.965565
4955.144070,1776.494261,-1991.848295,10288.862594
4955.144384,518.144159,-1838.629195,10066.800811
4955.144699,-148.041188,-1378.971896,9400.615463
4955.145013,0.000000,-383.047749,9030.512492
4955.145328,74.020594,229.828649,8068.244768
4955.145642,-296.082377,0.000000,9548.656652
4955.145957,-1628.453072,0.000000,9622.677246
4955.146271,-2368.659014,-383.047749,9474.636058
4955.146585,-2664.741391,-536.266849,9548.656652
4955.146900,-2664.741391,0.000000,10288.862594
4955.147214,-2220.617826,-229.828649,10807.006753
4955.147529,-1036.288319,536.266849,10362.883188
4955.147843,-296.082377,1302.362347,9030.512492
4955.148157,1036.288319,1838.629195,7846.182985
4955.148472,2368.659014,2298.286494,7994.224174
4955.148786,3330.926739,1838.629195,7550.100608
4955.149101,4071.132681,1532.190996,7402.059420
4955.149415,3256.906145,995.924147,8586.388927
4955.149730,2664.741391,153.219100,9918.759623
4955.150044,2442.679609,-842.705048,10436.903782
4955.150358,1924.535449,-2528.115143,10510.924376
4955.150673,222.061783,-2604.724693,10584.944971
4955.150987,-296.082377,-2604.724693,10214.842000
4955.151302,-962.267725,-1915.238745,9400.615463
4955.151616,-666.185348,-842.705048,8660.409521
4955.151931,-296.082377,612.876398,9178.553681
4955.152245,-1332.370696,1532.190996,9548.656652
4955.152559,-1776.494261,1302.362347,9474.636058
4955.152874,-2146.597232,1302.362347,9326.594869
4955.153188,-2294.638420,1608.800546,10510.924376
4955.153503,-2368.659014,1532.190996,10881.027347
4955.153817,-2220.617826,1455.581446,10510.924376
4955.154131,-1406.391290,1838.629195,9548.656652
4955.154446,-296.082377,2604.724693,8512.368333
4955.154760,1036.288319,2834.553343,7772.162391
4955.155075,2072.576638,3524.039291,7550.100608
4955.155389,3256.906145,2987.772442,7772.162391
4955.155704,3256.906145,2604.724693,7698.141797
4955.156018,2442.679609,1838.629195,8364.327145
4955.156332,2146.597232,842.705048,9622.677246
4955.156647,1776.494261,459.657299,10140.821405
4955.156961,1480.411884,-76.609550,10066.800811
4955.157276,0.000000,0.000000,9918.759623
4955.157590,-814.226536,0.000000,9178.553681
4955.157905,-1332.370696,995.924147,8660.409521
4955.158219,-888.247130,1685.410096,8586.388927
4955.158533,-1110.308913,2451.505594,8734.430116
4955.158848,-1998.556043,2221.676944,9252.574275
4955.159162,-2664.741391,2145.067394,9474.636058
4955.159477,-3478.967927,1838.629195,9252.574275
4955.159791,-3404.947333,1455.581446,10288.862594
4955.160105,-2960.823768,995.924147,11251.130318
4955.160420,-2886.803174,766.095498,10732.986159
4955.160734,-1924.535449,919.314598,9918.759623
4955.161049,-592.164754,1532.190996,9326.594869
4955.161363,666.185348,2528.115143,9030.512492
4955.161678,2368.659014,2221.676944,8142.265362
4955.161992,3775.050304,2681.334243,7920.203579
4955.162306,3627.009116,3140.991542,7994.224174
4955.162621,3108.864956,1838.629195,8956.491898
4955.162935,2812.782580,766.095498,9844.739029
4955.163250,2590.720797,-383.047749,10436.903782
4955.163564,1998.556043,-919.314598,9992.780217
4955.163879,666.185348,-995.924147,9400.615463
4955.164193,-370.102971,-842.705048,8882.471304
4955.164507,-1258.350101,-689.485948,8216.285956
4955.164822,-1184.329507,76.609550,8290.306550
4955.165136,-1628.453072,-536.266849,8586.388927
4955.165451,-2442.679609,-153.219100,9252.574275
4955.165765,-2886.803174,0.000000,9992.780217
4955.166079,-2812.782580,0.000000,10362.883188
4955.166394,-2294.638420,-383.047749,10881.027347
4955.166708,-1480.411884,-306.438199,10732.986159
4955.167023,-222.061783,1225.752797,10436.903782
4955.167337,592.164754,1685.410096,9178.553681
4955.167652,1998.556043,1915.238745,8586.388927
4955.167966,3108.864956,2604.724693,8438.347739
4955.168280,4293.194464,2451.505594,8734.430116
4955.168595,4441.235652,2068.457845,8142.265362
4955.168909,3627.009116,459.657299,8956.491898
4955.169224,2664.741391,-919.314598,9548.656652
4955.169538,2664.741391,-995.924147,10288.862594
4955.169852,1924.535449,-2374.896044,10362.883188
4955.170167,740.205942,-2757.943793,9844.739029
4955.170481,-518.144159,-2298.286494,9252.574275
4955.170796,-1036.288319,-1608.800546,8586.388927
4955.171110,-962.267725,-306.438199,8216.285956
4955.171425,-1184.329507,76.609550,8586.388927
4955.171739,-2072.576638,0.000000,8956.491898
4955.172053,-1702.473667,536.266849,9622.677246
4955.172368,-2220.617826,459.657299,9844.739029
4955.172682,-2516.700203,766.095498,10436.903782
4955.172997,-2146.597232,919.314598,10881.027347
4955.173311,-1628.453072,2145.067394,10510.924376
4955.173626,-814.226536,2221.676944,9548.656652
4955.173940,814.226536,2068.457845,8882.471304
4955.174254,1332.370696,2374.896044,7550.100608
4955.174569,2516.700203,2681.334243,7254.018232
4955.174883,2812.782580,2451.505594,7846.182985
4955.175198,2590.720797,2145.067394,7920.203579
4955.175512,2368.659014,766.095498,9104.533087
4955.175826,2368.659014,-459.657299,9992.780217
4955.176141,1480.411884,-1302.362347,10658.965565
4955.176455,888.247130,-1302.362347,10510.924376
4955.176770,-222.061783,-1455.581446,9548.656652
4955.177084,-814.226536,-689.485948,9400.615463
4955.177399,-740.205942,536.266849,9400.615463
4955.177713,-148.041188,1532.190996,9178.553681
4955.178027,-518.144159,1838.629195,8734.430116
4955.178342,-1850.514855,2068.457845,8660.409521
4955.178656,-2146.597232,2987.772442,8956.491898
4955.178971,-2146.597232,2145.067394,9548.656652
4955.179285,-2960.823768,2068.457845,10584.944971
4955.179600,-3182.885551,1532.190996,10807.006753
4955.179914,-3256.906145,1532.190996,9992.780217
4955.180228,-2294.638420,1991.848295,9474.636058
4955.180543,-1110.308913,1838.629195,8068.244768
4955.180857,444.123565,2451.505594,7846.182985
4955.181172,2220.617826,2451.505594,7624.121203
4955.181486,2368.659014,2681.334243,7031.956449
4955.181800,2146.597232,2451.505594,7476.080014
4955.182115,2294.638420,1685.410096,8956.491898
4955.182429,2220.617826,766.095498,10066.800811
4955.182744,2220.617826,-306.438199,10288.862594
4955.183058,1628.453072,-689.485948,10066.800811
4955.183373,666.185348,-383.047749,9474.636058
4955.183687,296.082377,-459.657299,9104.533087
4955.184001,740.205942,383.047749,9030.512492
4955.184316,148.041188,919.314598,8956.491898
4955.184630,-444.123565,1302.362347,9474.636058
4955.184945,-1332.370696,1455.581446,9326.594869
4955.185259,-1628.453072,1225.752797,9474.636058
4955.185574,-2072.576638,689.485948,9992.780217
4955.185888,-2590.720797,76.609550,11547.212695
4955.186202,-2294.638420,229.828649,11547.212695
4955.186517,-2072.576638,0.000000,10066.800811
4955.186831,-888.247130,689.485948,8438.347739
4955.187146,222.061783,1072.533697,7846.182985
4955.187460,1776.494261,1991.848295,7846.182985
4955.187774,2886.803174,2451.505594,7772.162391
4955.188089,2960.823768,1378.971896,8216.285956
4955.188403,2886.803174,1072.533697,9252.574275
4955.188718,2442.679609,-459.657299,9770.718434
4955.189032,2664.741391,-1378.971896,10362.883188
4955.189347,2368.659014,-1915.238745,10362.883188
4955.189661,1850.514855,-1991.848295,10140.821405
4955.189975,1258.350101,-1608.800546,9474.636058
4955.190290,740.205942,-995.924147,8438.347739
4955.190604,592.164754,383.047749,9030.512492
4955.190919,222.061783,689.485948,8882.471304
4955.191233,-1110.308913,459.657299,9252.574275
4955.191548,-2146.597232,306.438199,9844.739029
4955.191862,-2664.741391,536.266849,10658.965565
4955.192176,-3478.967927,459.657299,10955.047942
4955.192491,-3775.050304,76.609550,10732.986159
4955.192805,-3330.926739,995.924147,10510.924376
4955.193120,-2146.597232,1072.533697,9326.594869
4955.193434,-740.205942,2221.676944,8142.265362
4955.193748,1110.308913,2604.724693,7920.203579
4955.194063,2294.638420,2757.943793,7254.018232
4955.194377,2812.782580,2757.943793,6957.935855
4955.194692,2368.659014,2374.896044,7772.162391
4955.195006,2516.700203,1225.752797,9474.636058
4955.195321,2516.700203,0.000000,10288.862594
4955.195635,1998.556043,-1149.143247,10436.903782
4955.195949,1110.308913,-1991.848295,10214.842000
4955.196264,-148.041188,-1378.971896,9696.697840
4955.196578,-296.082377,0.000000,9104.533087
4955.196893,148.041188,689.485948,9252.574275
4955.197207,222.061783,1532.190996,8882.471304
4955.197522,-592.164754,1991.848295,9474.636058
4955.197836,-1554.432478,2528.115143,9548.656652
4955.198150,-2368.659014,2451.505594,9474.636058
4955.198465,-2886.803174,2221.676944,10066.800811
4955.198779,-3034.844362,2145.067394,10955.047942
4955.199094,-3256.906145,1991.848295,10510.924376
4955.199408,-3034.844362,2374.896044,9622.677246
4955.199722,-2220.617826,1991.848295,8438.347739
4955.200037,-814.226536,2987.772442,8068.244768
4955.200351,740.205942,3677.258390,7846.182985
4955.200666,1554.432478,2374.896044,7550.100608
4955.200980,2368.659014,2068.457845,7550.100608
4955.201295,2368.659014,1302.362347,8660.409521
4955.201609,2220.617826,919.314598,9696.697840
4955.201923,2516.700203,-306.438199,10436.903782
4955.202238,2516.700203,-612.876398,9992.780217
4955.202552,2368.659014,-919.314598,9918.759623
4955.202867,1480.411884,0.000000,9992.780217
4955.203181,1184.329507,383.047749,9030.512492
4955.203495,1776.494261,1149.143247,8586.388927
4955.203810,1184.329507,1532.190996,9252.574275
4955.204124,0.000000,1149.143247,9770.718434
4955.204439,-1258.350101,766.095498,9474.636058
4955.204753,-2368.659014,383.047749,9474.636058
4955.205068,-3478.967927,612.876398,10732.986159
4955.205382,-3923.091493,383.047749,11399.171507
4955.205696,-3478.967927,-229.828649,10214.842000
4955.206011,-2368.659014,-306.438199,9400.615463
4955.206325,-1110.308913,766.095498,8512.368333
4955.206640,592.164754,1915.238745,8142.265362
4955.206954,1924.535449,1838.629195,7698.141797
4955.207269,2886.803174,2068.457845,7105.977043
4955.207583,3330.926739,1532.190996,7846.182985
4955.207897,3108.864956,306.438199,9252.574275
4955.208212,3034.844362,-766.095498,9696.697840
4955.208526,3404.947333,-1532.190996,10362.883188
4955.208841,2664.741391,-1915.238745,10510.924376
4955.209155,1998.556043,-2528.115143,10288.862594
4955.209469,1184.329507,-1685.410096,10140.821405
4955.209784,1036.288319,-383.047749,8808.450710
4955.210098,222.061783,76.609550,9104.533087
4955.210413,-518.144159,0.000000,9474.636058
4955.210727,-1406.391290,76.609550,9252.574275
4955.211042,-2368.659014,0.000000,9622.677246
4955.211356,-3404.947333,0.000000,10436.903782
4955.211670,-4071.132681,306.438199,11103.089130
4955.211985,-3997.112087,-153.219100,10140.821405
4955.212299,-3256.906145,689.485948,9844.739029
4955.212614,-2368.659014,1302.362347,8956.491898
4955.212928,-666.185348,1762.019645,7698.141797
4955.213243,1332.370696,2145.067394,7105.977043
4955.213557,2442.679609,2528.115143,7031.956449
4955.213871,2812.782580,2374.896044,7105.977043
4955.214186,2960.823768,1838.629195,7772.162391
4955.214500,3256.906145,689.485948,9474.636058
4955.214815,3330.926739,0.000000,10658.965565
4955.215129,3108.864956,-766.095498,10658.965565
4955.215443,2146.597232,-1685.410096,10140.821405
4955.215758,962.267725,-1149.143247,9474.636058
4955.216072,592.164754,153.219100,9326.594869
4955.216387,444.123565,1608.800546,8882.471304
4955.216701,222.061783,1685.410096,8660.409521
4955.217016,-296.082377,1991.848295,9770.718434
4955.217330,-1332.370696,2068.457845,9844.739029
4955.217644,-2664.741391,1991.848295,9918.759623
4955.217959,-3627.009116,1532.190996,10732.986159
4955.218273,-3997.112087,1608.800546,10955.047942
4955.218588,-3923.091493,2298.286494,10658.965565
4955.218902,-3182.885551,2451.505594,9400.615463
4955.219217,-2294.638420,2757.943793,8438.347739
4955.219531,-962.267725,3600.648841,7772.162391
4955.219845,1184.329507,2911.162892,6883.915261
4955.220160,2294.638420,3830.477490,6661.853478
4955.220474,2368.659014,2834.553343,7476.080014
4955.220789,2664.741391,2221.676944,8586.388927
4955.221103,2664.741391,1302.362347,9770.718434
4955.221417,3256.906145,-459.657299,10436.903782
4955.221732,2368.659014,-1072.533697,10066.800811
4955.222046,1480.411884,-919.314598,9918.759623
4955.222361,666.185348,-612.876398,9326.594869
4955.222675,666.185348,536.266849,8882.471304
4955.222990,962.267725,919.314598,9030.512492
4955.223304,148.041188,612.876398,8882.471304
4955.223618,-740.205942,689.485948,9178.553681
4955.223933,-2146.597232,1302.362347,9992.780217
4955.224247,-3034.844362,1302.362347,9918.759623
4955.224562,-3552.988522,229.828649,11103.089130
4955.224876,-3478.967927,-153.219100,11103.089130
4955.225191,-3478.967927,0.000000,10436.903782
4955.225505,-2590.720797,459.657299,9400.615463
4955.225819,-962.267725,1685.410096,8142.265362
4955.226134,888.247130,1225.752797,8068.244768
4955.226448,2368.659014,2221.676944,7624.121203
4955.226763,3034.844362,1915.238745,7402.059420
4955.227077,3256.906145,1149.143247,8438.347739
4955.227391,3256.906145,76.609550,9770.718434
4955.227706,3404.947333,-766.095498,10955.047942
4955.228020,3552.988522,-1838.629195,11103.089130
4955.228335,2738.761985,-2681.334243,10881.027347
4955.228649,2146.597232,-1991.848295,9474.636058
4955.228964,1184.329507,-1532.190996,8216.285956
4955.229278,888.247130,153.219100,8660.409521
4955.229592,518.144159,536.266849,9178.553681
4955.229907,-666.185348,612.876398,9474.636058
4955.230221,-1776.494261,612.876398,9474.636058
4955.230536,-2960.823768,-229.828649,9696.697840
4955.230850,-3108.864956,0.000000,10955.047942
4955.231165,-3330.926739,153.219100,10881.027347
4955.231479,-3478.967927,459.657299,10584.944971
4955.231793,-2960.823768,995.924147,9844.739029
4955.232108,-1998.556043,1838.629195,8882.471304
4955.232422,-518.144159,2374.896044,7846.182985
4955.232737,814.226536,2757.943793,6883.915261
4955.233051,1628.453072,2834.553343,7031.956449
4955.233365,2516.700203,2298.286494,7772.162391
4955.233680,2664.741391,1915.238745,8956.491898
4955.233994,2442.679609,689.485948,10066.800811
4955.234309,2368.659014,-612.876398,10807.006753
4955.234623,1998.556043,-1302.362347,10436.903782
4955.234938,1036.288319,-919.314598,10510.924376
4955.235252,888.247130,-459.657299,9326.594869
4955.235566,740.205942,306.438199,8586.388927
4955.235881,444.123565,995.924147,8956.491898
4955.236195,740.205942,1685.410096,9104.533087
4955.236510,-962.267725,2221.676944,9104.533087
4955.236824,-2220.617826,1915.238745,9400.615463
4955.237138,-2960.823768,1838.629195,10436.903782
4955.237453,-3330.926739,1455.581446,11251.130318
4955.237767,-3997.112087,1302.362347,10955.047942
4955.238082,-3627.009116,1685.410096,10066.800811
4955.238396,-2368.659014,2451.505594,9252.574275
4955.238710,-1184.329507,3294.210641,8216.285956
4955.239025,222.061783,3907.087040,7624.121203
4955.239339,1628.453072,3524.039291,7402.059420
4955.239653,2146.597232,3217.601092,7254.018232
4955.239968,2146.597232,2911.162892,7476.080014
4955.240282,2368.659014,1838.629195,9030.512492
4955.240597,2368.659014,-306.438199,10066.800811
4955.240911,2368.659014,-1378.971896,10584.944971
4955.241225,1776.494261,-1838.629195,10140.821405
4955.241540,888.247130,-1378.971896,9548.656652
4955.241854,518.144159,-766.095498,8956.491898
4955.242169,666.185348,229.828649,8956.491898
4955.242483,148.041188,995.924147,9326.594869
4955.242797,-370.102971,1225.752797,9696.697840
4955.243112,-1480.411884,919.314598,9252.574275
4955.243426,-2590.720797,689.485948,9178.553681
4955.243741,-3330.926739,383.047749,10362.883188
4955.244055,-3478.967927,459.657299,10955.047942
4955.244369,-3849.070898,229.828649,10732.986159
4955.244684,-3478.967927,612.876398,10140.821405
4955.244998,-1998.556043,995.924147,9474.636058
4955.245313,-148.041188,1532.190996,8068.244768
4955.245627,1036.288319,1608.800546,7476.080014
4955.245941,2368.659014,1532.190996,7105.977043
4955.246256,3108.864956,1608.800546,7846.182985
4955.246570,3108.864956,1225.752797,9252.574275
4955.246885,3108.864956,0.000000,9844.739029
4955.247199,3404.947333,-995.924147,10510.924376
4955.247513,2812.782580,-2298.286494,10881.027347
4955.247828,1924.535449,-2221.676944,10066.800811
4955.248142,2072.576638,-2068.457845,9474.636058
4955.248456,1776.494261,-1302.362347,9252.574275
4955.248771,1184.329507,153.219100,9474.636058
4955.249085,740.205942,612.876398,9474.636058
4955.249400,-444.123565,689.485948,9178.553681
4955.249714,-1480.411884,459.657299,9326.594869
4955.250028,-2368.659014,1072.533697,9474.636058
4955.250343,-2812.782580,536.266849,9918.759623
4955.250657,-3552.988522,306.438199,10066.800811
4955.250972,-3701.029710,842.705048,10214.842000
4955.251286,-3034.844362,842.705048,9400.615463
4955.251600,-1776.494261,1532.190996,8364.327145
4955.251915,148.041188,1838.629195,7698.141797
4955.252229,1702.473667,2221.676944,7179.997637
4955.252544,2664.741391,2145.067394,7179.997637
4955.252858,2738.761985,1838.629195,7624.121203
4955.253172,3108.864956,766.095498,8956.491898
4955.253487,3552.988522,383.047749,10288.862594
4955.253801,3627.009116,-612.876398,11103.089130
4955.254116,3330.926739,-689.485948,11251.130318
4955.254430,2368.659014,-842.705048,10362.883188
4955.254744,1924.535449,-612.876398,9400.615463
4955.255059,2294.638420,919.314598,9400.615463
4955.255373,1036.288319,1225.752797,9696.697840
4955.255687,-296.082377,1685.410096,9474.636058
4955.256002,-1776.494261,1608.800546,9548.656652
4955.256316,-3182.885551,1225.752797,9918.759623
4955.256631,-4145.153275,1072.533697,10214.842000
4955.256945,-4737.318029,306.438199,9770.718434
4955.257259,-5033.400406,536.266849,10214.842000
4955.257574,-5181.441594,1455.581446,9770.718434
4955.257888,-3997.112087,2145.067394,8808.450710
4955.258203,-2368.659014,2451.505594,8068.244768
4955.258517,-296.082377,2757.943793,7402.059420
4955.258831,1258.350101,3140.991542,6439.791695
4955.259146,2294.638420,3064.381992,6217.729913
4955.259460,2886.803174,2757.943793,8290.306550
4955.259775,3330.926739,2221.676944,9400.615463
4955.260089,4515.256246,689.485948,10510.924376
4955.260403,4071.132681,306.438199,10807.006753
4955.260718,3404.947333,-383.047749,10658.965565
4955.261032,2294.638420,-229.828649,9844.739029
4955.261347,1776.494261,0.000000,9252.574275
4955.261661,1184.329507,842.705048,8882.471304
4955.261975,296.082377,766.095498,9030.512492
4955.262290,-1110.308913,76.609550,9252.574275
4955.262604,-2220.617826,842.705048,9400.615463
4955.262919,-3552.988522,766.095498,9474.636058
4955.263233,-4219.173869,0.000000,10140.821405
4955.263547,-4515.256246,229.828649,10732.986159
4955.263862,-4737.318029,153.219100,10362.883188
4955.264176,-4441.235652,842.705048,9918.759623
4955.264490,-2812.782580,919.314598,8808.450710
4955.264805,-740.205942,1838.629195,8216.285956
4955.265119,1258.350101,1532.190996,8364.327145
4955.265434,2368.659014,2145.067394,7920.203579
4955.265748,3034.844362,1991.848295,8142.265362
4955.266062,3552.988522,1378.971896,9474.636058
4955.266377,4219.173869,459.657299,9844.739029
4955.266691,4589.276840,0.000000,10658.965565
4955.267006,4737.318029,-1072.533697,10510.924376
4955.267320,3182.885551,-1149.143247,9918.759623
4955.267634,2590.720797,-766.095498,9326.594869
4955.267949,2072.576638,-229.828649,8586.388927
4955.268263,1628.453072,842.705048,8438.347739
4955.268578,592.164754,612.876398,8882.471304
4955.268892,-1110.308913,995.924147,8438.347739
4955.269206,-2072.576638,536.266849,9326.594869
4955.269521,-3256.906145,459.657299,9696.697840
4955.269835,-3627.009116,229.828649,10362.883188
4955.270150,-4293.194464,-306.438199,10140.821405
4955.270464,-4293.194464,0.000000,10362.883188
4955.270778,-3627.009116,995.924147,9696.697840
4955.271093,-1998.556043,689.485948,8956.491898
4955.271407,74.020594,306.438199,8956.491898
4955.271722,1406.391290,919.314598,8068.244768
4955.272036,2368.659014,919.314598,8068.244768
4955.272350,2368.659014,1225.752797,8882.471304
4955.272665,2664.741391,1072.533697,9992.780217
4955.272979,3256.906145,153.219100,10881.027347
4955.273293,3552.988522,-1072.533697,11177.109724
4955.273608,3256.906145,-766.095498,10510.924376
4955.273922,2072.576638,-536.266849,9770.718434
4955.274237,2146.597232,153.219100,8660.409521
4955.274551,1554.432478,1149.143247,8438.347739
4955.274865,1110.308913,1991.848295,8734.430116
4955.275180,0.000000,2221.676944,8956.491898
4955.275494,-1406.391290,1762.019645,8660.409521
4955.275809,-2368.659014,2068.457845,9030.512492
4955.276123,-3701.029710,1378.971896,9400.615463
4955.276437,-3849.070898,1378.971896,9844.739029
4955.276752,-4737.318029,536.266849,9474.636058
4955.277066,-4441.235652,842.705048,9400.615463
4955.277381,-3627.009116,1838.629195,8734.430116
4955.277695,-2146.597232,2221.676944,8068.244768
4955.278009,0.000000,2451.505594,7624.121203
4955.278324,1628.453072,2221.676944,7772.162391
4955.278638,1998.556043,2757.943793,7920.203579
4955.278953,2886.803174,2145.067394,8956.491898
4955.279267,2960.823768,1302.362347,9770.718434
4955.279581,3552.988522,153.219100,11103.089130
4955.279896,3404.947333,-306.438199,11399.171507
4955.280210,2738.761985,-689.485948,10436.903782
4955.280525,1924.535449,-842.705048,9474.636058
4955.280839,1628.453072,383.047749,8586.388927
4955.281153,1850.514855,76.609550,9326.594869
4955.281468,1184.329507,1072.533697,9326.594869
4955.281782,-518.144159,842.705048,9474.636058
4955.282096,-2072.576638,459.657299,9696.697840
4955.282411,-3182.885551,689.485948,10288.862594
4955.282725,-3478.967927,0.000000,10955.047942
4955.283040,-3775.050304,0.000000,10214.842000
4955.283354,-3404.947333,459.657299,10066.800811
4955.283668,-2664.741391,1149.143247,9326.594869
4955.283983,-1036.288319,2298.286494,8956.491898
4955.284297,222.061783,2451.505594,8290.306550
4955.284612,1702.473667,2451.505594,7698.141797
4955.284926,2220.617826,2374.896044,7550.100608
4955.285240,2368.659014,2451.505594,7772.162391
4955.285555,2960.823768,1455.581446,8364.327145
4955.285869,2960.823768,0.000000,9696.697840
4955.286184,3627.009116,-1225.752797,10288.862594
4955.286498,2960.823768,-1532.190996,10066.800811
4955.286812,1628.453072,-1608.800546,9474.636058
4955.287127,1184.329507,-995.924147,8586.388927
4955.287441,1036.288319,-229.828649,8660.409521
4955.287756,592.164754,0.000000,9104.533087
4955.288070,0.000000,459.657299,8956.491898
4955.288384,-1406.391290,229.828649,9252.574275
4955.288699,-2886.803174,-76.609550,9770.718434
4955.289013,-3627.009116,536.266849,10510.924376
4955.289328,-3701.029710,229.828649,11103.089130
4955.289642,-3627.009116,459.657299,10362.883188
4955.289956,-3330.926739,842.705048,9548.656652
4955.290271,-1554.432478,1915.238745,8734.430116
4955.290585,-222.061783,2374.896044,8290.306550
4955.290899,1258.350101,2298.286494,7920.203579
4955.291214,2368.659014,2298.286494,7846.182985
4955.291528,2960.823768,2068.457845,8586.388927
4955.291843,2812.782580,1608.800546,9326.594869
4955.292157,2960.823768,153.219100,10066.800811
4955.292471,3330.926739,-1072.533697,10436.903782
4955.292786,3108.864956,-2374.896044,10807.006753
4955.293100,2368.659014,-1378.971896,10362.883188
4955.293415,1406.391290,-536.266849,9104.533087
4955.293729,962.267725,76.609550,8882.471304
4955.294043,1036.288319,1149.143247,8660.409521
4955.294358,592.164754,1762.019645,8512.368333
4955.294672,-814.226536,1225.752797,8438.347739
4955.294987,-2220.617826,766.095498,8660.409521
4955.295301,-3775.050304,1455.581446,9622.677246
4955.295615,-3997.112087,1532.190996,10510.924376
4955.295930,-4293.194464,995.924147,10955.047942
4955.296244,-4663.297435,383.047749,10140.821405
4955.296559,-3701.029710,995.924147,9178.553681
4955.296873,-1998.556043,1838.629195,8512.368333
4955.297187,74.020594,2221.676944,8216.285956
4955.297502,1406.391290,1991.848295,8438.347739
4955.297816,2516.700203,1532.190996,7846.182985
4955.298131,3552.988522,2451.505594,9178.553681
4955.298445,4145.153275,2298.286494,9622.677246
4955.298759,4663.297435,766.095498,10510.924376
4955.299074,4441.235652,-306.438199,10732.986159
4955.299388,3552.988522,-536.266849,10584.944971
4955.299702,2368.659014,-459.657299,10214.842000
4955.300017,1406.391290,0.000000,9104.533087
4955.300331,962.267725,536.266849,8882.471304
4955.300646,518.144159,153.219100,9178.553681
4955.300960,-962.267725,766.095498,8734.430116
4955.301274,-2664.741391,612.876398,8882.471304
4955.301589,-3849.070898,459.657299,9178.553681
4955.301903,-4589.276840,0.000000,9992.780217
4955.302218,-5329.482782,-612.876398,9992.780217
4955.302532,-5181.441594,-76.609550,9992.780217
4955.302846,-5033.400406,536.266849,9770.718434
4955.303161,-3552.988522,383.047749,8512.368333
4955.303475,-1184.329507,1149.143247,7772.162391
4955.303790,666.185348,2298.286494,7772.162391
4955.304104,2294.638420,2604.724693,7846.182985
4955.304418,3108.864956,2604.724693,8216.285956
4955.304733,3701.029710,2451.505594,9400.615463
4955.305047,4663.297435,1532.190996,10066.800811
4955.305362,4737.318029,0.000000,10510.924376
4955.305676,4737.318029,-536.266849,10807.006753
4955.305990,3627.009116,-766.095498,10066.800811
4955.306305,2738.761985,-612.876398,9992.780217
4955.306619,1998.556043,-229.828649,9400.615463
4955.306933,1184.329507,766.095498,9474.636058
4955.307248,370.102971,536.266849,9030.512492
4955.307562,-962.267725,766.095498,8808.450710
4955.307877,-2516.700203,612.876398,8734.430116
4955.308191,-3701.029710,229.828649,9622.677246
4955.308505,-4219.173869,536.266849,10140.821405
4955.308820,-4367.215058,306.438199,10510.924376
4955.309134,-4515.256246,0.000000,9918.759623
4955.309449,-3552.988522,842.705048,8882.471304
4955.309763,-1702.473667,1991.848295,8660.409521
4955.310077,0.000000,2911.162892,8364.327145
4955.310392,1480.411884,2757.943793,7846.182985
4955.310706,2812.782580,2528.115143,7550.100608
4955.311021,3108.864956,2528.115143,7772.162391
4955.311335,3034.844362,2145.067394,9030.512492
4955.311649,3108.864956,995.924147,9474.636058
4955.311964,3404.947333,0.000000,10066.800811
4955.312278,2812.782580,-766.095498,9770.718434
4955.312593,1406.391290,-1225.752797,9474.636058
4955.312907,518.144159,-1072.533697,9104.533087
4955.313221,74.020594,0.000000,8882.471304
4955.313536,-222.061783,306.438199,9400.615463
4955.313850,-740.205942,459.657299,9474.636058
4955.314165,-1702.473667,459.657299,9844.739029
4955.314479,-2368.659014,689.485948,9696.697840
4955.314793,-3108.864956,1072.533697,9326.594869
4955.315108,-3034.844362,1225.752797,9918.759623
4955.315422,-3627.009116,766.095498,10881.027347
4955.315736,-2960.823768,919.314598,10288.862594
4955.316051,-2368.659014,1685.410096,9104.533087
4955.316365,-962.267725,2374.896044,8808.450710
4955.316680,518.144159,2221.676944,8438.347739
4955.316994,2220.617826,2451.505594,7698.141797
4955.317308,2812.782580,1378.971896,7772.162391
4955.317623,2664.741391,1378.971896,8882.471304
4955.317937,2368.659014,689.485948,9622.677246
4955.318252,2294.638420,-383.047749,10436.903782
4955.318566,2442.679609,-689.485948,10436.903782
4955.318880,2368.659014,-1455.581446,10510.924376
4955.319195,1332.370696,-1149.143247,9474.636058
4955.319509,888.247130,-689.485948,8364.327145
4955.319824,888.247130,536.266849,7994.224174
4955.320138,888.247130,1302.362347,8586.388927
4955.320452,-222.061783,1455.581446,9104.533087
4955.320767,-1924.535449,1302.362347,9400.615463
4955.321081,-2812.782580,1532.190996,8882.471304
4955.321396,-3552.988522,919.314598,9622.677246
4955.321710,-3701.029710,766.095498,9992.780217
4955.322024,-3404.947333,536.266849,10140.821405
4955.322339,-2738.761985,536.266849,9622.677246
4955.322653,-1776.494261,1455.581446,9252.574275
4955.322968,-296.082377,2068.457845,8660.409521
4955.323282,1406.391290,2221.676944,8660.409521
4955.323596,2590.720797,1838.629195,7550.100608
4955.323911,2590.720797,2298.286494,7920.203579
4955.324225,2590.720797,1378.971896,9030.512492
4955.324539,2960.823768,1072.533697,10140.821405
4955.324854,3256.906145,153.219100,10510.924376
4955.325168,3034.844362,-612.876398,10288.862594
4955.325483,2442.679609,-689.485948,9622.677246
4955.325797,1406.391290,0.000000,8734.430116
4955.326111,1036.288319,612.876398,8512.368333
4955.326426,1110.308913,1991.848295,8882.471304
4955.326740,296.082377,1532.190996,8660.409521
4955.327055,-1036.288319,842.705048,8956.491898
4955.327369,-2442.679609,919.314598,9252.574275
4955.327683,-3108.864956,383.047749,9770.718434
4955.327998,-3330.926739,612.876398,10807.006753
4955.328312,-3404.947333,612.876398,10732.986159
4955.328627,-2960.823768,689.485948,9770.718434
4955.328941,-2368.659014,1532.190996,8882.471304
4955.329255,-1332.370696,1915.238745,8068.244768
4955.329570,518.144159,2834.553343,8216.285956
4955.329884,1776.494261,2834.553343,8068.244768
4955.330199,2516.700203,2298.286494,8068.244768
4955.330513,2516.700203,1685.410096,8808.450710
4955.330827,2590.720797,1455.581446,10066.800811
4955.331142,2664.741391,-229.828649,10436.903782
4955.331456,2812.782580,-1532.190996,10288.862594
4955.331771,1480.411884,-2068.457845,9770.718434
4955.332085,1554.432478,-2068.457845,9326.594869
4955.332399,592.164754,-1378.971896,8956.491898
4955.332714,74.020594,-536.266849,9104.533087
4955.333028,-222.061783,459.657299,9474.636058
4955.333342,-1036.288319,842.705048,9400.615463
4955.333657,-1332.370696,229.828649,9326.594869
4955.333971,-2294.638420,383.047749,9030.512492
4955.334286,-2368.659014,689.485948,10140.821405
4955.334600,-2516.700203,919.314598,10881.027347
4955.334914,-2664.741391,1149.143247,10214.842000
4955.335229,-2368.659014,1685.410096,9696.697840
4955.335543,-1036.288319,2068.457845,8586.388927
4955.335858,592.164754,2374.896044,7624.121203
4955.336172,1776.494261,1991.848295,7402.059420
4955.336486,2368.659014,2451.505594,7402.059420
4955.336801,2368.659014,1532.190996,7846.182985
4955.337115,2294.638420,1072.533697,9030.512492
4955.337430,2368.659014,0.000000,10066.800811
4955.337744,2368.659014,-1149.143247,10732.986159
4955.338058,2220.617826,-1838.629195,10510.924376
4955.338373,1776.494261,-1225.752797,10362.883188
4955.338687,1110.308913,-842.705048,9400.615463
4955.339001,1036.288319,-1149.143247,8660.409521
4955.339316,1036.288319,766.095498,9030.512492
4955.339630,222.061783,2298.286494,9548.656652
4955.339945,-888.247130,2221.676944,9400.615463
4955.340259,-1776.494261,2145.067394,9770.718434
4955.340573,-2294.638420,1455.581446,10066.800811
4955.340888,-3478.967927,1455.581446,9992.780217
4955.341202,-3997.112087,1072.533697,9696.697840
4955.341516,-4515.256246,1302.362347,9326.594869
4955.341831,-3701.029710,1915.238745,9326.594869
4955.342145,-2072.576638,2221.676944,9178.553681
4955.342460,-370.102971,2221.676944,8290.306550
4955.342774,1036.288319,2145.067394,7994.224174
4955.343088,1628.453072,2068.457845,7254.018232
4955.343403,1480.411884,2298.286494,8142.265362
4955.343717,2886.803174,1762.019645,9030.512492
4955.344031,3627.009116,1072.533697,10436.903782
4955.344346,3701.029710,153.219100,11177.109724
4955.344660,3034.844362,-536.266849,10066.800811
4955.344975,2368.659014,0.000000,9252.574275
4955.345289,1332.370696,0.000000,8808.450710
4955.345603,1110.308913,1149.143247,9326.594869
4955.345918,1258.350101,1532.190996,9400.615463
4955.346232,0.000000,1225.752797,9622.677246
4955.346546,-1998.556043,689.485948,9400.615463
4955.346861,-3108.864956,0.000000,9400.615463
4955.347175,-4145.153275,306.438199,9844.739029
4955.347490,-3849.070898,306.438199,10807.006753
4955.347804,-3849.070898,-229.828649,10510.924376
4955.348118,-2590.720797,229.828649,9326.594869
4955.348433,-1776.494261,995.924147,8586.388927
4955.348747,-592.164754,1991.848295,8216.285956
4955.349061,1258.350101,2451.505594,8068.244768
4955.349376,2960.823768,2374.896044,7698.141797
4955.349690,3627.009116,2145.067394,8734.430116
4955.350005,3404.947333,842.705048,9326.594869
4955.350319,3775.050304,-766.095498,8956.491898
4955.350633,4071.132681,-612.876398,10066.800811
4955.350948,3923.091493,-1225.752797,10436.903782
4955.351262,2664.741391,-1532.190996,10214.842000
4955.351576,1850.514855,-1685.410096,9622.677246
4955.351891,1184.329507,-1225.752797,9178.553681
4955.352205,666.185348,-612.876398,8882.471304
4955.352520,0.000000,-995.924147,8808.450710
4955.352834,-1406.391290,-1072.533697,9326.594869
4955.353148,-2368.659014,-153.219100,10140.821405
4955.353463,-3404.947333,-459.657299,10658.965565
4955.353777,-3775.050304,-459.657299,10436.903782
4955.354092,-4071.132681,0.000000,10436.903782
4955.354406,-3849.070898,689.485948,9696.697840
4955.354720,-2664.741391,1532.190996,9030.512492
4955.355035,-1332.370696,2528.115143,8438.347739
4955.355349,222.061783,2451.505594,7846.182985
4955.355663,1628.453072,2068.457845,7772.162391
4955.355978,2072.576638,2451.505594,8142.265362
4955.356292,2590.720797,1685.410096,8364.327145
4955.356607,2664.741391,1608.800546,10066.800811
4955.356921,2886.803174,153.219100,10288.862594
4955.357235,3182.885551,-612.876398,9770.718434
4955.357550,1924.535449,-766.095498,9696.697840
4955.357864,1036.288319,-689.485948,9696.697840
4955.358178,222.061783,689.485948,9400.615463
4955.358493,0.000000,995.924147,8956.491898
4955.358807,-296.082377,1302.362347,8956.491898
4955.359122,-1184.329507,1762.019645,9252.574275
4955.359436,-1998.556043,1838.629195,9104.533087
4955.359750,-3552.988522,1838.629195,8882.471304
4955.360065,-4219.173869,2451.505594,9474.636058
4955.360379,-4589.276840,1915.238745,10288.862594
4955.360693,-4219.173869,2145.067394,10362.883188
4955.361008,-3256.906145,2145.067394,9252.574275
4955.361322,-2442.679609,3064.381992,8512.368333
4955.361637,-962.267725,3600.648841,8290.306550
4955.361951,444.123565,3753.867940,7994.224174
4955.362265,2516.700203,3830.477490,7772.162391
4955.362580,3404.947333,3370.820191,8438.347739
4955.362894,2590.720797,2528.115143,9326.594869
4955.363208,2516.700203,1532.190996,9844.739029
4955.363523,3108.864956,536.266849,10362.883188
4955.363837,2960.823768,-383.047749,10658.965565
4955.364152,2664.741391,-766.095498,9992.780217
4955.364466,1998.556043,76.609550,9400.615463
4955.364780,1554.432478,1072.533697,8734.430116
4955.365095,962.267725,1532.190996,8512.368333
4955.365409,740.205942,1762.019645,9030.512492
4955.365723,74.020594,1455.581446,8882.471304
4955.366038,-1406.391290,1149.143247,9178.553681
4955.366352,-1924.535449,153.219100,9326.594869
4955.366667,-2368.659014,459.657299,10140.821405
4955.366981,-2738.761985,0.000000,10807.006753
4955.367295,-2146.597232,-153.219100,10140.821405
4955.367610,-2442.679609,229.828649,9400.615463
4955.367924,-1554.432478,306.438199,8512.368333
4955.368239,-222.061783,1302.362347,7698.141797
4955.368553,1258.350101,1149.143247,8364.327145
4955.368867,2368.659014,536.266849,8364.327145
4955.369182,3108.864956,229.828649,8956.491898
4955.369496,2886.803174,-306.438199,9696.697840
4955.369810,3108.864956,-766.095498,10732.986159
4955.370125,3330.926739,-1532.190996,11029.068536
4955.370439,2664.741391,-2374.896044,10955.047942
4955.370754,2146.597232,-2068.457845,10362.883188
4955.371068,1184.329507,-1608.800546,9326.594869
4955.371382,888.247130,-1072.533697,8438.347739
4955.371697,518.144159,-153.219100,8808.450710
4955.372011,-222.061783,229.828649,9474.636058
4955.372325,-1110.308913,0.000000,9252.574275
4955.372640,-2516.700203,-153.219100,9474.636058
4955.372954,-3256.906145,-766.095498,9770.718434
4955.373269,-3627.009116,-153.219100,10288.862594
4955.373583,-3330.926739,76.609550,10066.800811
4955.373897,-2886.803174,1455.581446,9252.574275
4955.374212,-1702.473667,2221.676944,8290.306550
4955.374526,-370.102971,2528.115143,7476.080014
4955.374840,962.267725,2911.162892,7550.100608
4955.375155,1924.535449,2911.162892,7772.162391
4955.375469,2294.638420,2145.067394,7994.224174
4955.375784,2146.597232,1378.971896,8660.409521
4955.376098,2220.617826,459.657299,9918.759623
4955.376412,1924.535449,-153.219100,10658.965565
4955.376727,2294.638420,-919.314598,11399.171507
4955.377041,962.267725,-842.705048,10362.883188
4955.377355,518.144159,-459.657299,9548.656652
4955.377670,0.000000,0.000000,9104.533087
4955.377984,0.000000,766.095498,8808.450710
4955.378299,0.000000,1532.190996,8808.450710
4955.378613,-962.267725,1991.848295,9178.553681
4955.378927,-2146.597232,2298.286494,9326.594869
4955.379242,-2812.782580,1991.848295,9622.677246
4955.379556,-3478.967927,1915.238745,10510.924376
4955.379870,-3330.926739,1838.629195,10955.047942
4955.380185,-3256.906145,2221.676944,10066.800811
4955.380499,-2516.700203,2451.505594,8660.409521
4955.380814,-1554.432478,3524.039291,8216.285956
4955.381128,444.123565,4749.792088,7624.121203
4955.381442,1850.514855,4596.572988,7550.100608
4955.381757,2368.659014,3983.696590,7476.080014
4955.382071,2664.741391,2681.334243,8068.244768
4955.382386,2664.741391,1991.848295,8808.450710
4955.382700,2960.823768,1225.752797,9548.656652
4955.383014,2812.782580,-306.438199,10436.903782
4955.383329,2368.659014,-153.219100,10881.027347
4955.383643,1554.432478,-229.828649,9992.780217
4955.383957,888.247130,0.000000,8882.471304
4955.384272,1110.308913,766.095498,8512.368333
4955.384586,740.205942,1149.143247,8586.388927
4955.384901,518.144159,1532.190996,8956.491898
4955.385215,-518.144159,1608.800546,9178.553681
4955.385529,-1998.556043,842.705048,9622.677246
4955.385844,-2664.741391,459.657299,9770.718434
4955.386158,-3034.844362,1149.143247,10362.883188
4955.386472,-3034.844362,229.828649,10732.986159
4955.386787,-2738.761985,153.219100,10140.821405
4955.387101,-2072.576638,536.266849,8808.450710
4955.387416,-592.164754,689.485948,7772.162391
4955.387730,666.185348,1378.971896,7476.080014
4955.388044,1258.350101,1608.800546,8142.265362
4955.388359,1998.556043,1149.143247,8882.471304
4955.388673,2590.720797,919.314598,8882.471304
4955.388987,3034.844362,-459.657299,10214.842000
4955.389302,3775.050304,-1915.238745,10658.965565
4955.389616,3552.988522,-2451.505594,11029.068536
4955.389931,2664.741391,-2528.115143,11325.150913
4955.390245,1850.514855,-2221.676944,10214.842000
4955.390559,1258.350101,-1302.362347,9474.636058
4955.390874,518.144159,-1302.362347,8438.347739
4955.391188,444.123565,0.000000,8660.409521
4955.391502,-592.164754,459.657299,9622.677246
4955.391817,-1850.514855,153.219100,9622.677246
4955.392131,-3034.844362,-766.095498,9622.677246
4955.392446,-4145.153275,-919.314598,10584.944971
4955.392760,-4589.276840,-842.705048,10362.883188
4955.393074,-4145.153275,-689.485948,9178.553681
4955.393389,-3627.009116,306.438199,8438.347739
4955.393703,-2886.803174,842.705048,8364.327145
4955.394017,-666.185348,2298.286494,7920.203579
4955.394332,1406.391290,2221.676944,7698.141797
4955.394646,2812.782580,2145.067394,7402.059420
4955.394961,3182.885551,2451.505594,8364.327145
4955.395275,3701.029710,1991.848295,8734.430116
4955.395589,4293.194464,1762.019645,9548.656652
4955.395904,4885.359217,995.924147,10584.944971
4955.396218,3849.070898,-459.657299,10807.006753
4955.396533,2590.720797,0.000000,10214.842000
4955.396847,1702.473667,0.000000,9326.594869
4955.397161,1332.370696,842.705048,9252.574275
4955.397476,814.226536,1072.533697,9474.636058
4955.397790,-222.061783,1302.362347,9326.594869
4955.398104,-1776.494261,1455.581446,9474.636058
4955.398419,-3923.091493,1378.971896,8956.491898
4955.398733,-4959.379811,1302.362347,9548.656652
4955.399048,-5033.400406,1532.190996,10066.800811
4955.399362,-4811.338623,1608.800546,10881.027347
4955.399676,-4737.318029,1915.238745,9844.739029
4955.399991,-3775.050304,2145.067394,8586.388927
4955.400305,-2368.659014,2757.943793,7994.224174
4955.400619,-444.123565,3217.601092,7402.059420
4955.400934,2294.638420,4060.306139,7772.162391
4955.401248,2812.782580,3524.039291,7846.182985
4955.401563,3256.906145,3217.601092,8512.368333
4955.401877,3627.009116,3064.381992,9474.636058
4955.402191,4367.215058,1608.800546,9918.759623
4955.402506,4441.235652,1072.533697,10140.821405
4955.402820,3997.112087,536.266849,10436.903782
4955.403134,2590.720797,229.828649,9992.780217
4955.403449,1406.391290,76.609550,9252.574275
4955.403763,740.205942,536.266849,9178.553681
4955.404078,148.041188,842.705048,8956.491898
4955.404392,-1184.329507,995.924147,8956.491898
4955.404706,-2442.679609,536.266849,8660.409521
4955.405021,-3775.050304,536.266849,9104.533087
4955.405335,-4737.318029,153.219100,9696.697840
4955.405649,-4885.359217,-76.609550,10510.924376
4955.405964,-4885.359217,-306.438199,9992.780217
4955.406278,-4885.359217,0.000000,9474.636058
4955.406593,-3330.926739,153.219100,8660.409521
4955.406907,-1406.391290,689.485948,9030.512492
4955.407221,1036.288319,919.314598,8882.471304
4955.407536,2960.823768,1225.752797,8808.450710
4955.407850,3701.029710,1072.533697,9400.615463
4955.408164,4071.132681,459.657299,9918.759623
4955.408479,5033.400406,0.000000,10436.903782
4955.408793,5551.544565,-1149.143247,10955.047942
4955.409108,5255.462188,-1915.238745,11251.130318
4955.409422,4219.173869,-1378.971896,10584.944971
4955.409736,2516.700203,-1378.971896,9474.636058
4955.410051,888.247130,-459.657299,8290.306550
4955.410365,592.164754,-306.438199,8586.388927
4955.410680,-222.061783,-536.266849,8512.368333
4955.410994,-1480.411884,0.000000,8734.430116
4955.411308,-3330.926739,-153.219100,9326.594869
4955.411623,-4367.215058,-842.705048,9178.553681
4955.411937,-4737.318029,-766.095498,9474.636058
4955.412251,-4589.276840,-536.266849,9696.697840
4955.412566,-4145.153275,0.000000,9400.615463
4955.412880,-2442.679609,919.314598,9030.512492
4955.413195,-888.247130,1532.190996,8290.306550
4955.413509,1332.370696,1838.629195,7698.141797
4955.413823,2960.823768,2374.896044,8364.327145
4955.414138,4367.215058,2451.505594,8586.388927
4955.414452,4663.297435,2068.457845,8512.368333
4955.414766,4737.318029,1302.362347,9696.697840
4955.415081,4367.215058,0.000000,10584.944971
4955.415395,4441.235652,-383.047749,11473.192101
4955.415710,3849.070898,-1149.143247,10584.944971
4955.416024,2220.617826,-842.705048,10214.842000
4955.416338,444.123565,-229.828649,9844.739029
4955.416653,-222.061783,306.438199,9030.512492
4955.416967,-370.102971,919.314598,8438.347739
4955.417281,-888.247130,1532.190996,9252.574275
4955.417596,-2812.782580,1608.800546,9104.533087
4955.417910,-3923.091493,1532.190996,9030.512492
4955.418225,-4515.256246,1838.629195,9326.594869
4955.418539,-4737.318029,1915.238745,10362.883188
4955.418853,-4515.256246,1455.581446,10214.842000
4955.419168,-3923.091493,1685.410096,9252.574275
4955.419482,-2738.761985,2068.457845,8734.430116
4955.419796,-888.247130,3064.381992,8512.368333
4955.420111,592.164754,3677.258390,7846.182985
4955.420425,1776.494261,3294.210641,7994.224174
4955.420740,2442.679609,3217.601092,8512.368333
4955.421054,2886.803174,2911.162892,9326.594869
4955.421368,3256.906145,1762.019645,9548.656652
4955.421683,2960.823768,919.314598,9918.759623
4955.421997,2664.741391,0.000000,9696.697840
4955.422311,2294.638420,0.000000,9844.739029
4955.422626,1110.308913,459.657299,9252.574275
4955.422940,444.123565,995.924147,8808.450710
4955.423255,0.000000,1149.143247,8216.285956
4955.423569,-444.123565,1915.238745,8512.368333
4955.423883,-1628.453072,1455.581446,8808.450710
4955.424198,-2664.741391,1455.581446,9178.553681
4955.424512,-3330.926739,766.095498,9178.553681
4955.424826,-3849.070898,0.000000,10066.800811
4955.425141,-3701.029710,766.095498,11029.068536
4955.425455,-3108.864956,536.266849,10436.903782
4955.425770,-2664.741391,1072.533697,9770.718434
4955.426084,-1406.391290,1762.019645,8734.430116
4955.426398,444.123565,1838.629195,8142.265362
4955.426713,1406.391290,1915.238745,8364.327145
4955.427027,2738.761985,1455.581446,7920.203579
4955.427342,3256.906145,1149.143247,8512.368333
4955.427656,3108.864956,689.485948,9548.656652
4955.427970,3552.988522,153.219100,10214.842000
4955.428285,3701.029710,-306.438199,10362.883188
4955.428599,2812.782580,-2298.286494,10140.821405
4955.428913,2072.576638,-2374.896044,9474.636058
4955.429228,1406.391290,-1378.971896,8956.491898
4955.429542,814.226536,-1149.143247,8808.450710
4955.429857,740.205942,-536.266849,9400.615463
4955.430171,370.102971,-383.047749,9474.636058
4955.430485,-592.164754,-153.219100,9400.615463
4955.430800,-1184.329507,383.047749,9400.615463
4955.431114,-2294.638420,-153.219100,9696.697840
4955.431428,-2368.659014,-76.609550,10436.903782
4955.431743,-2072.576638,383.047749,10658.965565
4955.432057,-2220.617826,536.266849,10288.862594
4955.432372,-1480.411884,919.314598,9178.553681
4955.432686,-592.164754,1455.581446,7920.203579
4955.433000,962.267725,2145.067394,7698.141797
4955.433315,2590.720797,1915.238745,7772.162391
4955.433629,3627.009116,1685.410096,8586.388927
4955.433943,3256.906145,1072.533697,9474.636058
4955.434258,2886.803174,306.438199,10066.800811
4955.434572,2738.761985,-383.047749,10658.965565
4955.434886,2368.659014,-1532.190996,10510.924376
4955.435200,1702.473667,-1991.848295,10214.842000
4955.435515,1184.329507,-1762.019645,9770.718434
4955.435829,666.185348,-459.657299,9030.512492
4955.436143,444.123565,919.314598,8290.306550
4955.436458,-444.123565,919.314598,8660.409521
4955.436772,-1554.432478,1225.752797,9104.533087
4955.437086,-2886.803174,1378.971896,9474.636058
4955.437400,-3701.029710,995.924147,9326.594869
4955.437715,-4293.194464,612.876398,9918.759623
4955.438029,-4219.173869,1149.143247,10807.006753
4955.438343,-3923.091493,1532.190996,10510.924376
4955.438658,-3404.947333,2528.115143,8956.491898
4955.438972,-2516.700203,2528.115143,8290.306550
4955.439286,-888.247130,3983.696590,8364.327145
4955.439601,888.247130,3983.696590,7772.162391
4955.439915,2516.700203,3907.087040,7402.059420
4955.440229,3404.947333,2757.943793,7772.162391
4955.440543,3108.864956,3217.601092,8438.347739
4955.440858,3701.029710,2757.943793,9622.677246
4955.441172,3701.029710,1915.238745,10584.944971
4955.441486,2886.803174,459.657299,11251.130318
4955.441801,1776.494261,-459.657299,10214.842000
4955.442115,444.123565,153.219100,9326.594869
4955.442429,-518.144159,689.485948,8660.409521
4955.442743,-592.164754,1149.143247,8882.471304
4955.443058,-666.185348,1685.410096,8512.368333
4955.443372,-1554.432478,1608.800546,9178.553681
4955.443686,-3404.947333,1072.533697,9770.718434
4955.444001,-4441.235652,689.485948,9696.697840
4955.444315,-4589.276840,842.705048,10214.842000
4955.444629,-4145.153275,459.657299,10436.903782
4955.444944,-3701.029710,766.095498,10066.800811
4955.445258,-2812.782580,1608.800546,9030.512492
4955.445572,-814.226536,2757.943793,8068.244768
4955.445886,962.267725,3677.258390,7772.162391
4955.446201,2664.741391,2911.162892,7846.182985
4955.446515,4145.153275,2757.943793,8142.265362
4955.446829,4737.318029,2604.724693,8808.450710
4955.447144,4737.318029,1991.848295,9696.697840
4955.447458,4293.194464,-459.657299,9918.759623
4955.447772,4367.215058,-1685.410096,10362.883188
4955.448086,3923.091493,-1838.629195,10288.862594
4955.448401,2590.720797,-919.314598,9992.780217
4955.448715,1110.308913,-1991.848295,9104.533087
4955.449029,518.144159,-1532.190996,8216.285956
4955.449344,74.020594,-689.485948,8808.450710
4955.449658,-518.144159,-383.047749,9326.594869
4955.449972,-2220.617826,-766.095498,9474.636058
4955.450286,-2590.720797,-842.705048,9622.677246
4955.450601,-3404.947333,-1072.533697,9918.759623
4955.450915,-3256.906145,-995.924147,10732.986159
4955.451229,-2886.803174,-459.657299,10658.965565
4955.451544,-2590.720797,-536.266849,9474.636058
4955.451858,-1702.473667,766.095498,8882.471304
4955.452172,0.000000,1225.752797,8586.388927
4955.452487,1628.453072,1608.800546,8364.327145
4955.452801,3182.885551,1455.581446,8882.471304
4955.453115,3552.988522,536.266849,8364.327145
4955.453429,3552.988522,0.000000,9030.512492
4955.453744,3552.988522,-1072.533697,9622.677246
4955.454058,3256.906145,-1608.800546,10807.006753
4955.454372,2664.741391,-2068.457845,10955.047942
4955.454687,2220.617826,-1762.019645,10510.924376
4955.455001,1406.391290,-995.924147,9474.636058
4955.455315,888.247130,-459.657299,8586.388927
4955.455629,888.247130,229.828649,7846.182985
4955.455944,444.123565,689.485948,8142.265362
4955.456258,-1110.308913,1608.800546,9030.512492
4955.456572,-2516.700203,2298.286494,9696.697840
4955.456887,-3404.947333,1685.410096,9548.656652
4955.457201,-3997.112087,1149.143247,9622.677246
4955.457515,-4589.276840,1302.362347,10288.862594
4955.457830,-4219.173869,1838.629195,9770.718434
4955.458144,-3108.864956,2221.676944,8216.285956
4955.458458,-1998.556043,2681.334243,7402.059420
4955.458772,-592.164754,2987.772442,8438.347739
4955.459087,740.205942,3830.477490,8586.388927
4955.459401,2220.617826,3524.039291,8068.244768
4955.459715,3256.906145,3064.381992,7920.203579
4955.460030,3182.885551,2374.896044,9400.615463
4955.460344,3034.844362,1149.143247,10214.842000
4955.460658,3552.988522,383.047749,10510.924376
4955.460972,2664.741391,536.266849,10288.862594
4955.461287,1110.308913,919.314598,10732.986159
4955.461601,296.082377,766.095498,9548.656652
4955.461915,518.144159,1762.019645,8660.409521
4955.462230,148.041188,2145.067394,8290.306550
4955.462544,-1184.329507,2145.067394,8660.409521
4955.462858,-2516.700203,2145.067394,8660.409521
4955.463172,-3404.947333,2145.067394,9178.553681
4955.463487,-3923.091493,2298.286494,9622.677246
4955.463801,-4441.235652,1838.629195,10658.965565
4955.464115,-3849.070898,1225.752797,10214.842000
4955.464430,-3182.885551,1991.848295,9104.533087
4955.464744,-2368.659014,2451.505594,8808.450710
4955.465058,-666.185348,2528.115143,7698.141797
4955.465373,666.185348,2757.943793,7920.203579
4955.465687,2146.597232,2451.505594,8142.265362
4955.466001,3108.864956,2451.505594,8438.347739
4955.466315,3330.926739,1225.752797,8808.450710
4955.466630,3478.967927,306.438199,9992.780217
4955.466944,3849.070898,-536.266849,10658.965565
4955.467258,3775.050304,-1378.971896,10955.047942
4955.467573,2886.803174,-1915.238745,9844.739029
4955.467887,2072.576638,-1608.800546,9770.718434
4955.468201,1110.308913,-689.485948,9770.718434
4955.468515,1110.308913,-1072.533697,9178.553681
4955.468830,666.185348,-919.314598,9104.533087
4955.469144,-1110.308913,-842.705048,9252.574275
4955.469458,-2738.761985,-612.876398,9844.739029
4955.469773,-3627.009116,-383.047749,9474.636058
4955.470087,-3775.050304,-1149.143247,10436.903782
4955.470401,-3997.112087,-1378.971896,10955.047942
4955.470715,-3849.070898,-612.876398,10436.903782
4955.471030,-3404.947333,-229.828649,9474.636058
4955.471344,-1702.473667,1532.190996,7698.141797
4955.471658,592.164754,2298.286494,7846.182985
4955.471973,2146.597232,1991.848295,7772.162391
4955.472287,3552.988522,1838.629195,7402.059420
4955.472601,3849.070898,1072.533697,7254.018232
4955.472916,3849.070898,919.314598,8290.306550
4955.473230,3404.947333,153.219100,9622.677246
4955.473544,3330.926739,-766.095498,10658.965565
4955.473858,3182.885551,-1685.410096,10510.924376
4955.474173,2220.617826,-1302.362347,10140.821405
4955.474487,962.267725,-1455.581446,8956.491898
4955.474801,518.144159,-1685.410096,8290.306550
4955.475116,148.041188,689.485948,9252.574275
4955.475430,-222.061783,1225.752797,9992.780217
4955.475744,-1554.432478,1072.533697,9770.718434
4955.476058,-2812.782580,1378.971896,9992.780217
4955.476373,-3923.091493,766.095498,9918.759623
4955.476687,-3997.112087,1762.019645,10288.862594
4955.477001,-4367.215058,1149.143247,9844.739029
4955.477316,-3923.091493,1149.143247,9326.594869
4955.477630,-2738.761985,2374.896044,8586.388927
4955.477944,-1702.473667,2604.724693,7698.141797
4955.478259,0.000000,3447.429741,7179.997637
4955.478573,1776.494261,3217.601092,7254.018232
4955.478887,2738.761985,2298.286494,7624.121203
4955.479201,3108.864956,2068.457845,9104.533087
4955.479516,3108.864956,1378.971896,9696.697840
4955.479830,3330.926739,383.047749,11029.068536
4955.480144,3182.885551,-76.609550,11251.130318
4955.480459,2664.741391,-842.705048,10955.047942
4955.480773,2072.576638,306.438199,10362.883188
4955.481087,1702.473667,459.657299,9252.574275
4955.481401,1924.535449,1532.190996,9252.574275
4955.481716,962.267725,2604.724693,9104.533087
4955.482030,-296.082377,2528.115143,9400.615463
4955.482344,-1998.556043,2987.772442,9548.656652
4955.482659,-2886.803174,1915.238745,9400.615463
4955.482973,-3849.070898,1532.190996,9696.697840
4955.483287,-4293.194464,995.924147,9622.677246
4955.483601,-4811.338623,919.314598,9844.739029
4955.483916,-4293.194464,1072.533697,8734.430116
4955.484230,-2886.803174,1685.410096,7846.182985
4955.484544,-1480.411884,2451.505594,7624.121203
4955.484859,370.102971,1991.848295,7920.203579
4955.485173,1998.556043,2068.457845,7624.121203
4955.485487,2590.720797,1532.190996,8068.244768
4955.485802,3182.885551,1149.143247,9548.656652
4955.486116,3404.947333,1225.752797,9918.759623
4955.486430,3775.050304,-306.438199,10362.883188
4955.486744,3775.050304,-1378.971896,10288.862594
4955.487059,2738.761985,-1225.752797,10140.821405
4955.487373,1850.514855,-1149.143247,9252.574275
4955.487687,1406.391290,-306.438199,8512.368333
4955.488002,1036.288319,459.657299,9030.512492
4955.488316,370.102971,383.047749,9770.718434
4955.488630,-592.164754,383.047749,10140.821405
4955.488944,-2072.576638,-229.828649,9622.677246
4955.489259,-2886.803174,-459.657299,10214.842000
4955.489573,-3256.906145,-842.705048,10658.965565
4955.489887,-3108.864956,-536.266849,10658.965565
4955.490202,-2368.659014,76.609550,10436.903782
4955.490516,-2146.597232,919.314598,9252.574275
4955.490830,-666.185348,2681.334243,7994.224174
4955.491144,592.164754,2757.943793,7550.100608
4955.491459,2072.576638,2451.505594,7402.059420
4955.491773,2516.700203,1685.410096,7772.162391
4955.492087,2590.720797,1225.752797,8142.265362
4955.492402,2220.617826,306.438199,8956.491898
4955.492716,1628.453072,0.000000,9918.759623
4955.493030,1776.494261,-1685.410096,10214.842000
4955.493345,1924.535449,-2221.676944,10140.821405
4955.493659,1110.308913,-1685.410096,9770.718434
4955.493973,444.123565,-1532.190996,9326.594869
4955.494287,444.123565,-383.047749,9326.594869
4955.494602,592.164754,536.266849,9474.636058
4955.494916,0.000000,1072.533697,9992.780217
4955.495230,-444.123565,995.924147,10140.821405
4955.495545,-1850.514855,1302.362347,9548.656652
4955.495859,-2516.700203,1378.971896,10066.800811
4955.496173,-2294.638420,1455.581446,10288.862594
4955.496487,-2220.617826,1455.581446,10214.842000
4955.496802,-2220.617826,1915.238745,9400.615463
4955.497116,-1628.453072,2374.896044,8216.285956
4955.497430,-518.144159,3294.210641,8068.244768
4955.497745,1332.370696,3140.991542,8068.244768
4955.498059,2146.597232,2451.505594,8364.327145
4955.498373,2146.597232,1991.848295,8364.327145
4955.498688,2146.597232,1072.533697,8290.306550
4955.499002,1924.535449,0.000000,9104.533087
4955.499316,1850.514855,-459.657299,9770.718434
4955.499630,2368.659014,-1072.533697,10658.965565
4955.499945,1850.514855,-766.095498,10140.821405
4955.500259,814.226536,-995.924147,9770.718434
4955.500573,814.226536,153.219100,10140.821405
4955.500888,1110.308913,1072.533697,9400.615463
4955.501202,1110.308913,1532.190996,9326.594869
4955.501516,-444.123565,2604.724693,9548.656652
4955.501830,-1924.535449,2604.724693,10214.842000
4955.502145,-2516.700203,2298.286494,9770.718434
4955.502459,-2812.782580,2068.457845,8956.491898
4955.502773,-3478.967927,1455.581446,9770.718434
4955.503088,-3923.091493,1608.800546,9474.636058
4955.503402,-3775.050304,2298.286494,9030.512492
4955.503716,-2368.659014,2298.286494,8216.285956
4955.504030,-962.267725,2298.286494,7624.121203
4955.504345,0.000000,2068.457845,7328.038826
4955.504659,962.267725,1991.848295,7698.141797
4955.504973,1850.514855,1915.238745,7698.141797
4955.505288,1998.556043,612.876398,9178.553681
4955.505602,2590.720797,306.438199,9844.739029
4955.505916,2886.803174,-919.314598,10510.924376
4955.506231,2442.679609,-1149.143247,10584.944971
4955.506545,1998.556043,-612.876398,9992.780217
4955.506859,1258.350101,0.000000,9844.739029
4955.507173,1332.370696,76.609550,9770.718434
4955.507488,1628.453072,536.266849,9474.636058
4955.507802,148.041188,612.876398,9104.533087
4955.508116,-666.185348,919.314598,9992.780217
4955.508431,-1850.514855,919.314598,9770.718434
4955.508745,-2516.700203,153.219100,10066.800811
4955.509059,-2590.720797,306.438199,10584.944971
4955.509373,-3034.844362,153.219100,10732.986159
4955.509688,-3034.844362,153.219100,9622.677246
4955.510002,-2442.679609,1072.533697,8216.285956
4955.510316,-1184.329507,1838.629195,7624.121203
4955.510631,666.185348,1378.971896,7846.182985
4955.510945,1998.556043,1302.362347,7476.080014
4955.511259,2442.679609,1455.581446,7920.203579
4955.511574,2886.803174,995.924147,8660.409521
4955.511888,3330.926739,-306.438199,10066.800811
4955.512202,3775.050304,-1072.533697,10658.965565
4955.512516,4145.153275,-1532.190996,10584.944971
4955.512831,3256.906145,-1608.800546,10214.842000
4955.513145,2368.659014,-919.314598,10214.842000
4955.513459,1998.556043,-689.485948,9770.718434
4955.513774,1554.432478,-229.828649,9474.636058
4955.514088,814.226536,153.219100,9696.697840
4955.514402,0.000000,766.095498,9770.718434
4955.514716,-1702.473667,689.485948,9178.553681
4955.515031,-2960.823768,459.657299,9400.615463
4955.515345,-3775.050304,306.438199,10066.800811
4955.515659,-4367.215058,306.438199,10288.862594
4955.515974,-4589.276840,766.095498,10362.883188
4955.516288,-4293.194464,1302.362347,8882.471304
4955.516602,-3034.844362,1838.629195,8512.368333
4955.516916,-1850.514855,3217.601092,7624.121203
4955.517231,148.041188,2221.676944,7105.977043
4955.517545,1406.391290,2451.505594,7328.038826
4955.517859,2146.597232,2145.067394,8142.265362
4955.518174,2368.659014,1455.581446,9104.533087
4955.518488,3108.864956,383.047749,9844.739029
4955.518802,3256.906145,-306.438199,10658.965565
4955.519117,3256.906145,0.000000,11029.068536
4955.519431,2590.720797,-383.047749,10584.944971
4955.519745,1702.473667,-306.438199,10140.821405
4955.520059,1480.411884,536.266849,8956.491898
4955.520374,1184.329507,1302.362347,9030.512492
4955.520688,370.102971,2145.067394,9918.759623
4955.521002,-814.226536,2604.724693,10066.800811
4955.521317,-2368.659014,2451.505594,9400.615463
4955.521631,-3034.844362,1838.629195,9326.594869
4955.521945,-3923.091493,1455.581446,9474.636058
4955.522259,-4515.256246,2068.457845,9622.677246
4955.522574,-4367.215058,2451.505594,9474.636058
4955.522888,-3552.988522,2834.553343,8216.285956
4955.523202,-2220.617826,2834.553343,8290.306550
4955.523517,-740.205942,2681.334243,7624.121203
4955.523831,1036.288319,2604.724693,7105.977043
4955.524145,2294.638420,2145.067394,6957.935855
4955.524459,2368.659014,1991.848295,8438.347739
4955.524774,2738.761985,1532.190996,10362.883188
4955.525088,3404.947333,-459.657299,10955.047942
4955.525402,3775.050304,-919.314598,10807.006753
4955.525717,3034.844362,-1225.752797,11103.089130
4955.526031,2368.659014,-612.876398,10658.965565
4955.526345,2072.576638,0.000000,9548.656652
4955.526660,2146.597232,76.609550,8956.491898
4955.526974,1776.494261,766.095498,9104.533087
4955.527288,740.205942,919.314598,9548.656652
4955.527602,-592.164754,1455.581446,9548.656652
4955.527917,-1554.432478,1072.533697,9474.636058
4955.528231,-2738.761985,306.438199,10214.842000
4955.528545,-2960.823768,-153.219100,11177.109724
4955.528860,-3478.967927,0.000000,9622.677246
4955.529174,-3849.070898,0.000000,8882.471304
4955.529488,-3256.906145,919.314598,8216.285956
4955.529802,-1924.535449,1072.533697,8142.265362
4955.530117,0.000000,842.705048,7698.141797
4955.530431,1554.432478,689.485948,7624.121203
4955.530745,2294.638420,306.438199,8364.327145
4955.531060,2516.700203,-995.924147,9178.553681
4955.531374,2960.823768,-1915.238745,10362.883188
4955.531688,3627.009116,-1685.410096,11029.068536
4955.532003,3627.009116,-2068.457845,11251.130318
4955.532317,2590.720797,-1762.019645,10732.986159
4955.532631,2072.576638,-1072.533697,9696.697840
4955.532945,2072.576638,0.000000,8438.347739
4955.533260,2146.597232,0.000000,8290.306550
4955.533574,1036.288319,153.219100,8586.388927
4955.533888,0.000000,1838.629195,10214.842000
4955.534203,-1924.535449,1149.143247,9622.677246
4955.534517,-2812.782580,153.219100,10362.883188
4955.534831,-3627.009116,0.000000,10584.944971
4955.535146,-4219.173869,0.000000,10955.047942
4955.535460,-4441.235652,1225.752797,10140.821405
4955.535774,-3701.029710,1838.629195,8438.347739
4955.536089,-2664.741391,1915.238745,8068.244768
4955.536403,-888.247130,2604.724693,7624.121203
4955.536717,962.267725,2834.553343,7031.956449
4955.537032,1554.432478,2451.505594,7179.997637
4955.537346,1702.473667,1915.238745,7772.162391
4955.537660,2146.597232,1302.362347,8956.491898
4955.537975,2442.679609,153.219100,9770.718434
4955.538289,2738.761985,-612.876398,10140.821405
4955.538603,2072.576638,-1072.533697,11103.089130
4955.538918,1702.473667,0.000000,10584.944971
4955.539232,1702.473667,229.828649,9474.636058
4955.539546,1850.514855,995.924147,9400.615463
4955.539861,1850.514855,1608.800546,9474.636058
4955.540175,1406.391290,2451.505594,9474.636058
4955.540489,148.041188,3830.477490,9622.677246
4955.540804,-1036.288319,3140.991542,10140.821405
4955.541118,-1406.391290,2681.334243,10214.842000
4955.541432,-2368.659014,2221.676944,10362.883188
4955.541747,-3182.885551,2528.115143,10066.800811
4955.542061,-3775.050304,2451.505594,9474.636058
4955.542375,-3330.926739,2681.334243,8512.368333
4955.542689,-1998.556043,2757.943793,7476.080014
4955.543004,0.000000,2681.334243,7624.121203
4955.543318,296.082377,2604.724693,7624.121203
4955.543632,814.226536,1915.238745,7254.018232
4955.543947,1110.308913,1225.752797,8290.306550
4955.544261,1998.556043,383.047749,9400.615463
4955.544575,2368.659014,-919.314598,10436.903782
4955.544890,2368.659014,-1838.629195,10140.821405
4955.545204,1924.535449,-1225.752797,9844.739029
4955.545518,1850.514855,-536.266849,9622.677246
4955.545833,2516.700203,0.000000,9326.594869
4955.546147,3034.844362,306.438199,9326.594869
4955.546461,2812.782580,1225.752797,8956.491898
4955.546776,1480.411884,1378.971896,9844.739029
4955.547090,0.000000,1072.533697,9992.780217
4955.547404,-1036.288319,612.876398,10584.944971
4955.547719,-1850.514855,306.438199,10955.047942
4955.548033,-2516.700203,0.000000,11103.089130
4955.548347,-3404.947333,-306.438199,10584.944971
4955.548662,-3775.050304,229.828649,9622.677246
4955.548976,-2664.741391,919.314598,8660.409521
4955.549290,-1924.535449,1225.752797,8068.244768
4955.549605,-296.082377,842.705048,7698.141797
4955.549919,444.123565,689.485948,7402.059420
4955.550233,814.226536,229.828649,7254.018232
4955.550548,1480.411884,-153.219100,7920.203579
4955.550862,1776.494261,-1149.143247,9326.594869
4955.551176,2220.617826,-1532.190996,10214.842000
4955.551491,2368.659014,-2451.505594,10732.986159
4955.551805,1998.556043,-1991.848295,9992.780217
4955.552119,2072.576638,-1532.190996,9548.656652
4955.552434,2294.638420,-995.924147,9548.656652
4955.552748,2516.700203,612.876398,9474.636058
4955.553062,2220.617826,842.705048,9622.677246
4955.553377,666.185348,1225.752797,9474.636058
4955.553691,-370.102971,842.705048,10214.842000
4955.554005,-1184.329507,1302.362347,10584.944971
4955.554320,-1850.514855,1225.752797,10436.903782
4955.554634,-2960.823768,1072.533697,10288.862594
4955.554948,-3478.967927,1608.800546,9548.656652
4955.555263,-3404.947333,2145.067394,8364.327145
4955.555577,-2442.679609,2298.286494,7402.059420
4955.555891,-1332.370696,1915.238745,7105.977043
4955.556206,-370.102971,1915.238745,7402.059420
4955.556520,-74.020594,1608.800546,7624.121203
4955.556834,444.123565,1225.752797,8068.244768
4955.557149,1110.308913,383.047749,9326.594869
4955.557463,2294.638420,-842.705048,10362.883188
4955.557777,2664.741391,-919.314598,10362.883188
4955.558092,3034.844362,-689.485948,10140.821405
4955.558406,2368.659014,-459.657299,10214.842000
4955.558720,2368.659014,229.828649,9992.780217
4955.559035,2442.679609,1072.533697,9622.677246
4955.559349,2442.679609,1685.410096,9844.739029
4955.559663,1332.370696,2145.067394,9992.780217
4955.559978,-518.144159,2681.334243,10436.903782
4955.560292,-1776.494261,2298.286494,9770.718434
4955.560606,-2442.679609,2298.286494,10362.883188
4955.560921,-3701.029710,1991.848295,9992.780217
4955.561235,-4515.256246,1762.019645,9474.636058
4955.561549,-4885.359217,2451.505594,8734.430116
4955.561864,-4219.173869,2681.334243,7476.080014
4955.562178,-2516.700203,3524.039291,7105.977043
4955.562492,-814.226536,2987.772442,6365.771101
4955.562807,592.164754,2604.724693,7105.977043
4955.563121,1036.288319,2451.505594,7179.997637
4955.563435,1776.494261,1302.362347,7994.224174
4955.563750,2442.679609,306.438199,9474.636058
4955.564064,2886.803174,-459.657299,11103.089130
4955.564378,3108.864956,-1072.533697,11251.130318
4955.564693,2812.782580,-1225.752797,10214.842000
4955.565007,2294.638420,-842.705048,9770.718434
4955.565321,2590.720797,153.219100,9918.759623
4955.565636,2442.679609,0.000000,9992.780217
4955.565950,1850.514855,689.485948,9696.697840
4955.566264,-74.020594,842.705048,10066.800811
4955.566579,-1776.494261,459.657299,10140.821405
4955.566893,-2442.679609,689.485948,9770.718434
4955.567207,-2886.803174,383.047749,10881.027347
4955.567522,-3478.967927,689.485948,10807.006753
4955.567836,-3997.112087,536.266849,9770.718434
4955.568150,-3627.009116,995.924147,8364.327145
4955.568465,-2294.638420,1608.800546,7105.977043
4955.568779,-444.123565,2298.286494,7254.018232
4955.569093,1184.329507,1608.800546,7179.997637
4955.569408,2072.576638,1225.752797,7179.997637
4955.569722,2664.741391,919.314598,8364.327145
4955.570036,2516.700203,-995.924147,9622.677246
4955.570351,3552.988522,-1378.971896,10955.047942
4955.570665,3701.029710,-1838.629195,11325.150913
4955.570979,3182.885551,-2221.676944,11473.192101
4955.571294,2886.803174,-2068.457845,10584.944971
4955.571608,2368.659014,-1225.752797,9400.615463
4955.571922,2368.659014,0.000000,8808.450710
4955.572237,2072.576638,153.219100,8882.471304
4955.572551,740.205942,995.924147,9030.512492
4955.572865,-888.247130,1302.362347,9400.615463
4955.573179,-2368.659014,1149.143247,9696.697840
4955.573494,-2886.803174,919.314598,9918.759623
4955.573808,-3775.050304,153.219100,10510.924376
4955.574122,-4145.153275,766.095498,9992.780217
4955.574437,-3923.091493,1608.800546,8808.450710
4955.574751,-3330.926739,1915.238745,7994.224174
4955.575065,-1554.432478,2298.286494,7772.162391
4955.575380,222.061783,2451.505594,8068.244768
4955.575694,1554.432478,2451.505594,7772.162391
4955.576008,2072.576638,1991.848295,7994.224174
4955.576323,2368.659014,842.705048,8586.388927
4955.576637,2960.823768,306.438199,10066.800811
4955.576951,3997.112087,0.000000,11473.192101
4955.577266,3627.009116,-766.095498,11547.212695
4955.577580,2812.782580,-459.657299,10955.047942
4955.577894,1776.494261,-306.438199,9918.759623
4955.578209,1406.391290,229.828649,8956.491898
4955.578523,1406.391290,919.314598,9030.512492
4955.578837,0.000000,1302.362347,9474.636058
4955.579152,-1702.473667,1762.019645,9400.615463
4955.579466,-2960.823768,1685.410096,9178.553681
4955.579780,-4145.153275,1302.362347,9400.615463
4955.580095,-4515.256246,919.314598,10436.903782
4955.580409,-4589.276840,1378.971896,10510.924376
4955.580723,-4811.338623,2221.676944,9474.636058
4955.581038,-4293.194464,2834.553343,7994.224174
4955.581352,-2664.741391,3370.820191,7254.018232
4955.581666,-518.144159,3753.867940,7031.956449
4955.581981,1628.453072,4290.134789,6809.894666
4955.582295,2220.617826,4136.915689,7105.977043
4955.582609,2516.700203,3140.991542,7920.203579
4955.582924,2960.823768,2068.457845,9326.594869
4955.583238,3404.947333,842.705048,10584.944971
4955.583552,3775.050304,-229.828649,10584.944971
4955.583867,3034.844362,-766.095498,10584.944971
4955.584181,2294.638420,-766.095498,9474.636058
4955.584495,1998.556043,0.000000,8956.491898
4955.584810,1924.535449,842.705048,9918.759623
4955.585124,962.267725,459.657299,9696.697840
4955.585438,-296.082377,306.438199,9770.718434
4955.585753,-1554.432478,306.438199,9252.574275
4955.586067,-2442.679609,766.095498,9770.718434
4955.586381,-2886.803174,689.485948,10658.965565
4955.586696,-3552.988522,0.000000,10732.986159
4955.587010,-4293.194464,-306.438199,10362.883188
4955.587324,-4219.173869,536.266849,8956.491898
4955.587639,-3256.906145,766.095498,8512.368333
4955.587953,-1332.370696,1455.581446,8216.285956
4955.588267,444.123565,1915.238745,8216.285956
4955.588582,2072.576638,2145.067394,8068.244768
4955.588896,2220.617826,383.047749,7624.121203
4955.589210,2886.803174,-536.266849,8586.388927
4955.589525,3182.885551,-689.485948,9474.636058
4955.589839,3701.029710,-919.314598,10362.883188
4955.590153,3923.091493,-1915.238745,10658.965565
4955.590468,3478.967927,-2298.286494,10140.821405
