#time,accel_x,accel_y,accel_z
2365.697893,-592.164754,919.314598,7994.224174
2365.698215,0.000000,153.219100,9104.533087
2365.698538,0.000000,612.876398,8956.491898
2365.698860,74.020594,459.657299,8808.450710
2365.699182,-296.082377,153.219100,8734.430116
2365.699504,-1036.288319,459.657299,9104.533087
2365.699826,-296.082377,0.000000,9622.677246
2365.700149,-296.082377,459.657299,9400.615463
2365.700471,-518.144159,689.485948,9030.512492
2365.700793,-888.247130,766.095498,9992.780217
2365.701115,0.000000,689.485948,10288.862594
2365.701437,1184.329507,919.314598,10362.883188
2365.701759,666.185348,1225.752797,9844.739029
2365.702082,-740.205942,689.485948,9474.636058
2365.702404,0.000000,1378.971896,9548.656652
2365.702726,666.185348,1149.143247,9400.615463
2365.703048,0.000000,612.876398,8586.388927
2365.703370,-1184.329507,842.705048,9030.512492
2365.703693,-1702.473667,383.047749,9178.553681
2365.704015,-740.205942,842.705048,8808.450710
2365.704337,-370.102971,842.705048,8956.491898
2365.704659,-1998.556043,842.705048,8882.471304
2365.704981,-1998.556043,1455.581446,8586.388927
2365.705303,296.082377,1762.019645,9030.512492
2365.705626,0.000000,2068.457845,8808.450710
2365.705948,-1776.494261,1608.800546,8660.409521
2365.706270,-2072.576638,1685.410096,9474.636058
2365.706592,-1036.288319,1915.238745,9844.739029
2365.706914,-962.267725,1762.019645,9326.594869
2365.707237,-1998.556043,2221.676944,9474.636058
2365.707559,-3552.988522,2145.067394,9770.718434
2365.707881,-2960.823768,1608.800546,9326.594869
2365.708203,-1998.556043,2145.067394,10140.821405
2365.708525,-3330.926739,2374.896044,10214.842000
2365.708848,-4219.173869,2528.115143,10140.821405
2365.709170,-3849.070898,2757.943793,10140.821405
2365.709492,-2442.679609,3753.867940,9400.615463
2365.709814,-3330.926739,3217.601092,9326.594869
2365.710136,-4885.359217,3140.991542,9178.553681
2365.710458,-4441.235652,3677.258390,8956.491898
2365.710781,-3404.947333,3524.039291,7994.224174
2365.711103,-3552.988522,3524.039291,8068.244768
2365.711425,-4367.215058,3983.696590,8142.265362
2365.711747,-4145.153275,3140.991542,7402.059420
2365.712069,-2738.761985,3907.087040,6883.915261
2365.712392,-2294.638420,3677.258390,7476.080014
2365.712714,-3627.009116,3524.039291,8586.388927
2365.713036,-3775.050304,3294.210641,8660.409521
2365.713358,-2220.617826,3447.429741,8660.409521
2365.713680,-1628.453072,3447.429741,9326.594869
2365.714002,-3034.844362,3370.820191,9992.780217
2365.714325,-3923.091493,2604.724693,10510.924376
2365.714647,-2960.823768,3907.087040,9918.759623
2365.714969,-1480.411884,3294.210641,10066.800811
2365.715291,-2220.617826,3524.039291,9918.759623
2365.715613,-2294.638420,3677.258390,10066.800811
2365.715936,-962.267725,3217.601092,8438.347739
2365.716258,1332.370696,3907.087040,7920.203579
2365.716580,592.164754,3294.210641,8438.347739
2365.716902,-444.123565,1915.238745,8660.409521
2365.717224,-814.226536,2298.286494,8882.471304
2365.717546,740.205942,1608.800546,9400.615463
2365.717869,-1036.288319,459.657299,10584.944971
2365.718191,-3849.070898,0.000000,11769.274478
2365.718513,-4145.153275,76.609550,11843.295072
2365.718835,-2294.638420,306.438199,11029.068536
2365.719157,-2146.597232,919.314598,10584.944971
2365.719480,-1998.556043,766.095498,10140.821405
2365.719802,-2516.700203,2451.505594,9252.574275
2365.720124,-370.102971,2911.162892,8142.265362
2365.720446,1110.308913,3064.381992,8216.285956
2365.720768,0.000000,3753.867940,7920.203579
2365.721090,-370.102971,3447.429741,6957.935855
2365.721413,1554.432478,3524.039291,6365.771101
2365.721735,1776.494261,2451.505594,6809.894666
2365.722057,-1850.514855,689.485948,8586.388927
2365.722379,-3849.070898,-153.219100,10658.965565
2365.722701,-4885.359217,-689.485948,11621.233289
2365.723024,-5921.647536,-1225.752797,11917.315666
2365.723346,-6809.894666,-766.095498,12805.562797
2365.723668,-7105.977043,153.219100,11843.295072
2365.723990,-6365.771101,1225.752797,9474.636058
2365.724312,-3330.926739,2451.505594,8660.409521
2365.724634,-2368.659014,3524.039291,8068.244768
2365.724957,-1924.535449,4673.182538,7031.956449
2365.725279,148.041188,5286.058936,5329.482782
2365.725601,3404.947333,5286.058936,4663.297435
2365.725923,2072.576638,5132.839837,5995.668130
2365.726245,-962.267725,3677.258390,7624.121203
2365.726568,-2072.576638,2145.067394,10140.821405
2365.726890,-3552.988522,919.314598,11399.171507
2365.727212,-4959.379811,-306.438199,12953.603985
2365.727534,-7476.080014,-842.705048,14137.933492
2365.727856,-9252.574275,-689.485948,13693.809927
2365.728178,-7402.059420,536.266849,13027.624579
2365.728501,-5033.400406,2451.505594,11621.233289
2365.728823,-4071.132681,3753.867940,9474.636058
2365.729145,-3108.864956,4903.011187,6735.874072
2365.729467,-888.247130,6435.202183,5329.482782
2365.729789,2072.576638,7660.954980,5181.441594
2365.730112,1258.350101,7201.297681,4737.318029
2365.730434,666.185348,5822.325785,5403.503377
2365.730756,444.123565,5515.887586,7328.038826
2365.731078,0.000000,4903.011187,8068.244768
2365.731400,-2146.597232,2834.553343,10436.903782
2365.731722,-3997.112087,1991.848295,12435.459826
2365.732045,-5995.668130,1225.752797,12361.439231
2365.732367,-5329.482782,76.609550,12065.356855
2365.732689,-4663.297435,459.657299,10214.842000
2365.733011,-4737.318029,2068.457845,10066.800811
2365.733333,-4367.215058,3524.039291,9474.636058
2365.733656,-2294.638420,4673.182538,7920.203579
2365.733978,370.102971,4979.620737,5181.441594
2365.734300,1184.329507,5362.668486,4663.297435
2365.734622,888.247130,6511.811733,6957.935855
2365.734944,1628.453072,4979.620737,8142.265362
2365.735266,1110.308913,4136.915689,8660.409521
2365.735589,1184.329507,3064.381992,10214.842000
2365.735911,-1702.473667,2757.943793,12435.459826
2365.736233,-3256.906145,1532.190996,12065.356855
2365.736555,-1480.411884,919.314598,12213.398043
2365.736877,-1554.432478,689.485948,11547.212695
2365.737200,-3701.029710,766.095498,12731.542202
2365.737522,-4071.132681,842.705048,11251.130318
2365.737844,-1850.514855,1532.190996,8364.327145
2365.738166,-1406.391290,1302.362347,7105.977043
2365.738488,-4071.132681,2528.115143,6735.874072
2365.738810,-3108.864956,2987.772442,6809.894666
2365.739133,-222.061783,3064.381992,5625.565159
2365.739455,0.000000,2757.943793,5181.441594
2365.739777,-2368.659014,2298.286494,8290.306550
2365.740099,-3330.926739,2374.896044,9992.780217
2365.740421,-2146.597232,1608.800546,10510.924376
2365.740744,-814.226536,689.485948,10214.842000
2365.741066,-2294.638420,306.438199,10807.006753
2365.741388,-3404.947333,229.828649,11103.089130
2365.741710,-2664.741391,0.000000,10584.944971
2365.742032,-1480.411884,0.000000,9548.656652
2365.742355,-2590.720797,306.438199,10658.965565
2365.742677,-4515.256246,536.266849,10658.965565
2365.742999,-2960.823768,842.705048,9474.636058
2365.743321,-1036.288319,1072.533697,7846.182985
2365.743643,-2368.659014,1378.971896,9252.574275
2365.743965,-3108.864956,2068.457845,9696.697840
2365.744288,-3034.844362,1302.362347,8660.409521
2365.744610,-2590.720797,2604.724693,9474.636058
2365.744932,-1406.391290,1455.581446,9104.533087
2365.745254,-2664.741391,1762.019645,9844.739029
2365.745576,-3182.885551,2451.505594,10214.842000
2365.745899,-1998.556043,1991.848295,9474.636058
2365.746221,-1702.473667,1532.190996,8808.450710
2365.746543,-3478.967927,2681.334243,9844.739029
2365.746865,-4219.173869,1378.971896,7624.121203
2365.747187,-3923.091493,2145.067394,7105.977043
2365.747509,-2738.761985,2068.457845,8068.244768
2365.747832,-4293.194464,2374.896044,9474.636058
2365.748154,-5255.462188,2145.067394,9770.718434
2365.748476,-3330.926739,2528.115143,7846.182985
2365.748798,-2146.597232,2911.162892,7624.121203
2365.749120,-1702.473667,4060.306139,8438.347739
2365.749443,-3923.091493,3217.601092,9104.533087
2365.749765,-592.164754,4443.353888,8808.450710
2365.750087,1406.391290,4290.134789,8956.491898
2365.750409,814.226536,4213.525239,8438.347739
2365.750731,-814.226536,3600.648841,9400.615463
2365.751053,-148.041188,4136.915689,9400.615463
2365.751375,296.082377,3447.429741,8734.430116
2365.751697,666.185348,2911.162892,8290.306550
2365.752019,-888.247130,2528.115143,9992.780217
2365.752341,-1258.350101,2221.676944,9622.677246
2365.752663,0.000000,1991.848295,9030.512492
2365.752985,-888.247130,1762.019645,10362.883188
2365.753307,-1776.494261,1915.238745,9992.780217
2365.753629,-1924.535449,2298.286494,9548.656652
2365.753950,-296.082377,3064.381992,9548.656652
2365.754272,518.144159,2604.724693,7994.224174
2365.754594,74.020594,2374.896044,8364.327145
2365.754916,444.123565,2451.505594,9548.656652
2365.755238,814.226536,2528.115143,8882.471304
2365.755560,740.205942,2068.457845,9400.615463
2365.755882,-370.102971,1302.362347,9474.636058
2365.756204,-1776.494261,766.095498,9400.615463
2365.756526,-1480.411884,306.438199,8734.430116
2365.756848,-592.164754,306.438199,9252.574275
2365.757169,-1850.514855,-383.047749,10288.862594
2365.757491,-2738.761985,-689.485948,10658.965565
2365.757813,-2368.659014,-306.438199,9696.697840
2365.758135,814.226536,459.657299,9474.636058
2365.758457,666.185348,306.438199,9918.759623
2365.758779,-740.205942,-306.438199,8142.265362
2365.759101,148.041188,306.438199,9178.553681
2365.759423,2146.597232,842.705048,8586.388927
2365.759745,1480.411884,229.828649,8068.244768
2365.760066,1110.308913,-306.438199,7698.141797
2365.760388,-814.226536,-766.095498,7846.182985
2365.760710,74.020594,-995.924147,7698.141797
2365.761032,444.123565,-1225.752797,9252.574275
2365.761354,-370.102971,-2221.676944,9030.512492
2365.761676,-1036.288319,-2757.943793,8956.491898
2365.761998,222.061783,-1838.629195,10066.800811
2365.762320,0.000000,-1991.848295,11621.233289
2365.762642,-666.185348,-2221.676944,11399.171507
2365.762963,-1184.329507,-1608.800546,11103.089130
2365.763285,666.185348,-1455.581446,10288.862594
2365.763607,888.247130,-1225.752797,9918.759623
2365.763929,1036.288319,-612.876398,10214.842000
2365.764251,666.185348,-995.924147,9844.739029
2365.764573,814.226536,-689.485948,9474.636058
2365.764895,1850.514855,-459.657299,8956.491898
2365.765217,962.267725,-689.485948,9252.574275
2365.765539,-296.082377,-459.657299,9770.718434
2365.765861,444.123565,0.000000,9400.615463
2365.766182,1184.329507,0.000000,9178.553681
2365.766504,0.000000,-306.438199,9178.553681
2365.766826,-2368.659014,-383.047749,8808.450710
2365.767148,-2072.576638,76.609550,9844.739029
2365.767470,-592.164754,-153.219100,8512.368333
2365.767792,-444.123565,995.924147,8660.409521
2365.768114,-1702.473667,612.876398,8216.285956
2365.768436,-1480.411884,1149.143247,7550.100608
2365.768758,-666.185348,1608.800546,7550.100608
2365.769079,74.020594,2298.286494,8290.306550
2365.769401,-1036.288319,1991.848295,9104.533087
2365.769723,-1110.308913,1149.143247,8438.347739
2365.770045,-444.123565,2145.067394,9178.553681
2365.770367,74.020594,1608.800546,9548.656652
2365.770689,-666.185348,1455.581446,9770.718434
2365.771011,-1850.514855,2068.457845,9770.718434
2365.771333,74.020594,1915.238745,9918.759623
2365.771655,370.102971,1838.629195,9252.574275
2365.771977,-740.205942,1838.629195,8586.388927
2365.772298,-592.164754,2298.286494,9918.759623
2365.772620,-222.061783,2834.553343,8660.409521
2365.772942,1036.288319,2298.286494,8734.430116
2365.773264,814.226536,2681.334243,8068.244768
2365.773586,222.061783,2911.162892,8364.327145
2365.773908,296.082377,2911.162892,8364.327145
2365.774230,2294.638420,2298.286494,9104.533087
2365.774552,1776.494261,2068.457845,9548.656652
2365.774874,0.000000,2451.505594,10140.821405
2365.775195,-74.020594,1378.971896,11251.130318
2365.775517,0.000000,1455.581446,9770.718434
2365.775839,-296.082377,689.485948,9844.739029
2365.776161,-1628.453072,459.657299,9622.677246
2365.776483,-2442.679609,536.266849,10510.924376
2365.776805,-1036.288319,383.047749,9844.739029
2365.777127,592.164754,153.219100,8734.430116
2365.777449,-814.226536,1149.143247,9400.615463
2365.777771,-2886.803174,383.047749,8586.388927
2365.778092,-1776.494261,536.266849,8068.244768
2365.778414,888.247130,306.438199,8068.244768
2365.778736,666.185348,306.438199,6735.874072
2365.779058,-1258.350101,-459.657299,7254.018232
2365.779380,-1184.329507,0.000000,9178.553681
2365.779702,296.082377,-1072.533697,9770.718434
2365.780024,222.061783,-1915.238745,10436.903782
2365.780346,-370.102971,-2221.676944,9474.636058
2365.780668,-962.267725,-1532.190996,9918.759623
2365.780990,1036.288319,-995.924147,8882.471304
2365.781311,2516.700203,-1455.581446,9474.636058
2365.781633,1628.453072,-995.924147,9326.594869
2365.781955,1332.370696,-842.705048,10510.924376
2365.782277,2442.679609,-612.876398,10807.006753
2365.782599,2738.761985,-1225.752797,10510.924376
2365.782921,1998.556043,-1302.362347,11547.212695
2365.783243,1258.350101,-995.924147,10807.006753
2365.783565,1702.473667,-995.924147,10658.965565
2365.783887,1702.473667,-1685.410096,9474.636058
2365.784208,-740.205942,-2298.286494,9992.780217
2365.784530,-2220.617826,-1685.410096,9474.636058
2365.784852,-2516.700203,-2298.286494,9104.533087
2365.785174,-1776.494261,-1762.019645,9400.615463
2365.785496,-3182.885551,-1838.629195,9474.636058
2365.785818,-3997.112087,-1532.190996,9474.636058
2365.786140,-2812.782580,-919.314598,8586.388927
2365.786462,518.144159,459.657299,8364.327145
2365.786784,740.205942,383.047749,7772.162391
2365.787106,-444.123565,1072.533697,8216.285956
2365.787427,370.102971,1225.752797,8512.368333
2365.787749,1776.494261,1455.581446,8364.327145
2365.788071,2368.659014,1302.362347,7698.141797
2365.788393,1036.288319,1072.533697,9252.574275
2365.788715,-148.041188,919.314598,9104.533087
2365.789037,-74.020594,842.705048,8808.450710
2365.789359,666.185348,766.095498,9918.759623
2365.789681,-592.164754,995.924147,9844.739029
2365.790003,-2886.803174,766.095498,10214.842000
2365.790324,-814.226536,536.266849,9030.512492
2365.790646,148.041188,1225.752797,9622.677246
2365.790968,-1036.288319,2757.943793,9474.636058
2365.791290,-2072.576638,1915.238745,9844.739029
2365.791612,-814.226536,2604.724693,9474.636058
2365.791934,0.000000,1762.019645,8956.491898
2365.792256,-592.164754,2374.896044,8438.347739
2365.792578,-666.185348,2451.505594,9030.512492
2365.792900,-296.082377,2451.505594,8364.327145
2365.793221,444.123565,2221.676944,8734.430116
2365.793543,0.000000,2221.676944,9696.697840
2365.793865,-1628.453072,1685.410096,9474.636058
2365.794187,-888.247130,1685.410096,8438.347739
2365.794509,1036.288319,2451.505594,9252.574275
2365.794831,740.205942,2834.553343,10140.821405
2365.795153,-1184.329507,2451.505594,11029.068536
2365.795475,-666.185348,3140.991542,9326.594869
2365.795797,1110.308913,2221.676944,7624.121203
2365.796119,1258.350101,3217.601092,7772.162391
2365.796440,-296.082377,2987.772442,8808.450710
2365.796762,-1036.288319,1915.238745,9178.553681
2365.797084,-296.082377,1991.848295,7772.162391
2365.797406,1036.288319,1685.410096,8438.347739
2365.797728,-444.123565,1455.581446,8808.450710
2365.798050,-1776.494261,536.266849,9104.533087
2365.798372,-518.144159,0.000000,8068.244768
2365.798694,1924.535449,1072.533697,10510.924376
2365.799016,518.144159,229.828649,9844.739029
2365.799337,-740.205942,-766.095498,10140.821405
2365.799659,0.000000,-1378.971896,9844.739029
2365.799981,592.164754,-1225.752797,9400.615463
2365.800303,74.020594,-1072.533697,9844.739029
2365.800625,0.000000,-842.705048,10362.883188
2365.800947,0.000000,-1378.971896,9252.574275
2365.801269,222.061783,-1915.238745,8068.244768
2365.801591,592.164754,-612.876398,9326.594869
2365.801913,-148.041188,-919.314598,8882.471304
2365.802234,444.123565,-995.924147,9178.553681
2365.802556,2294.638420,-459.657299,8734.430116
2365.802878,2590.720797,76.609550,9326.594869
2365.803200,814.226536,-842.705048,9992.780217
2365.803522,-370.102971,-2145.067394,9992.780217
2365.803844,1258.350101,-1608.800546,10881.027347
2365.804166,814.226536,-1378.971896,11177.109724
2365.804488,-1332.370696,-2604.724693,10881.027347
2365.804810,-2368.659014,-2451.505594,10955.047942
2365.805132,-2294.638420,-2298.286494,9844.739029
2365.805453,-1850.514855,-1685.410096,9770.718434
2365.805775,-2664.741391,-1915.238745,9992.780217
2365.806097,-3256.906145,-1608.800546,9696.697840
2365.806419,-1258.350101,-306.438199,8364.327145
2365.806741,1110.308913,766.095498,8068.244768
2365.807063,222.061783,689.485948,8438.347739
2365.807385,-1924.535449,153.219100,7772.162391
2365.807707,-2738.761985,1149.143247,8586.388927
2365.808029,-740.205942,842.705048,7550.100608
2365.808350,-592.164754,153.219100,8142.265362
2365.808672,-888.247130,536.266849,8290.306550
2365.808994,-2738.761985,306.438199,8660.409521
2365.809316,-1258.350101,766.095498,9400.615463
2365.809638,-148.041188,229.828649,9474.636058
2365.809960,-444.123565,612.876398,8660.409521
2365.810282,-444.123565,1378.971896,9992.780217
2365.810604,962.267725,2757.943793,10436.903782
2365.810926,2294.638420,2681.334243,10732.986159
2365.811248,1184.329507,2681.334243,9918.759623
2365.811569,1036.288319,3294.210641,9400.615463
2365.811891,1850.514855,3600.648841,9178.553681
2365.812213,2442.679609,3524.039291,8956.491898
2365.812535,1184.329507,3140.991542,9622.677246
2365.812857,-592.164754,2987.772442,9696.697840
2365.813179,-1110.308913,2604.724693,9030.512492
2365.813501,296.082377,2451.505594,8216.285956
2365.813823,-740.205942,1685.410096,8660.409521
2365.814145,-4515.256246,1532.190996,9770.718434
2365.814466,-2738.761985,1915.238745,8364.327145
2365.814788,-1776.494261,2068.457845,8290.306550
2365.815110,962.267725,2987.772442,8734.430116
2365.815432,-2368.659014,1072.533697,8216.285956
2365.815754,-1036.288319,2911.162892,9178.553681
2365.816076,814.226536,2451.505594,8734.430116
2365.816398,1776.494261,2681.334243,9104.533087
2365.816720,370.102971,1685.410096,9326.594869
2365.817042,-296.082377,2604.724693,8586.388927
2365.817363,1554.432478,1608.800546,8586.388927
2365.817685,2442.679609,1532.190996,8882.471304
2365.818007,1332.370696,1608.800546,10066.800811
2365.818329,518.144159,1149.143247,9844.739029
2365.818651,888.247130,76.609550,8586.388927
2365.818973,2886.803174,-612.876398,9178.553681
2365.819295,1850.514855,-383.047749,11251.130318
2365.819617,148.041188,-459.657299,10436.903782
2365.819939,-518.144159,-1915.238745,10066.800811
2365.820261,370.102971,-2145.067394,8438.347739
2365.820582,-296.082377,-1608.800546,9844.739029
2365.820904,-740.205942,-1991.848295,9918.759623
2365.821226,-814.226536,-2528.115143,9030.512492
2365.821548,-296.082377,-1838.629195,8882.471304
2365.821870,-1036.288319,-1762.019645,10732.986159
2365.822192,-888.247130,-2221.676944,10362.883188
2365.822514,-962.267725,-2528.115143,8586.388927
2365.822836,1184.329507,-1378.971896,9104.533087
2365.823158,148.041188,-1225.752797,10362.883188
2365.823479,-962.267725,-2221.676944,10362.883188
2365.823801,-962.267725,-2528.115143,10288.862594
2365.824123,0.000000,-1302.362347,9252.574275
2365.824445,-592.164754,-1838.629195,9252.574275
2365.824767,-2368.659014,-2068.457845,11177.109724
2365.825089,-2960.823768,-2757.943793,9622.677246
2365.825411,-1184.329507,-1608.800546,9252.574275
2365.825733,-370.102971,-1072.533697,9030.512492
2365.826055,-1110.308913,-536.266849,10066.800811
2365.826376,-1924.535449,-766.095498,9252.574275
2365.826698,-222.061783,766.095498,9030.512492
2365.827020,592.164754,612.876398,8438.347739
2365.827342,592.164754,766.095498,7698.141797
2365.827664,-666.185348,766.095498,8364.327145
2365.827986,0.000000,1378.971896,8438.347739
2365.828308,1036.288319,1149.143247,9474.636058
2365.828630,370.102971,1532.190996,8290.306550
2365.828952,-1332.370696,919.314598,9030.512492
2365.829274,-1702.473667,995.924147,8956.491898
2365.829595,-1110.308913,995.924147,9992.780217
2365.829917,-444.123565,689.485948,9400.615463
2365.830239,-1776.494261,1455.581446,10140.821405
2365.830561,-1258.350101,1915.238745,9474.636058
2365.830883,666.185348,2681.334243,8956.491898
2365.831205,2960.823768,2298.286494,8734.430116
2365.831527,74.020594,2987.772442,9104.533087
2365.831849,666.185348,3370.820191,8216.285956
2365.832171,1850.514855,3140.991542,8882.471304
2365.832492,2886.803174,3677.258390,10066.800811
2365.832814,370.102971,3370.820191,9770.718434
2365.833136,296.082377,3140.991542,9992.780217
2365.833458,1258.350101,3064.381992,8660.409521
2365.833780,1998.556043,2604.724693,9474.636058
2365.834102,962.267725,2451.505594,10066.800811
2365.834424,-666.185348,2374.896044,9030.512492
2365.834746,-296.082377,2528.115143,8216.285956
2365.835068,1628.453072,2451.505594,7550.100608
2365.835390,814.226536,2681.334243,7920.203579
2365.835711,-1406.391290,2221.676944,9992.780217
2365.836033,-1258.350101,1762.019645,8882.471304
2365.836355,-740.205942,1072.533697,8586.388927
2365.836677,-518.144159,1072.533697,9252.574275
2365.836999,-888.247130,995.924147,8586.388927
2365.837321,-1924.535449,459.657299,8512.368333
2365.837643,-1036.288319,766.095498,8364.327145
2365.837965,-666.185348,-766.095498,9178.553681
2365.838287,-666.185348,0.000000,8808.450710
2365.838608,-2294.638420,-612.876398,9844.739029
2365.838930,-962.267725,-229.828649,10140.821405
2365.839252,592.164754,-766.095498,9992.780217
2365.839574,1036.288319,-766.095498,9696.697840
2365.839896,0.000000,-612.876398,10584.944971
2365.840218,444.123565,-1149.143247,10658.965565
2365.840540,1036.288319,-1762.019645,10066.800811
2365.840862,592.164754,-1532.190996,9696.697840
2365.841184,-148.041188,-1762.019645,10362.883188
2365.841505,0.000000,-1149.143247,10140.821405
2365.841827,74.020594,-1225.752797,9252.574275
2365.842149,-370.102971,-2145.067394,8142.265362
2365.842471,-2146.597232,-2221.676944,8438.347739
2365.842793,-2368.659014,-1072.533697,9770.718434
2365.843115,-1184.329507,-1378.971896,8586.388927
2365.843437,-740.205942,-1991.848295,7994.224174
2365.843759,-2146.597232,-2298.286494,8660.409521
2365.844081,-1924.535449,-1378.971896,10584.944971
2365.844403,-740.205942,-1838.629195,10436.903782
2365.844724,222.061783,-1302.362347,9400.615463
2365.845046,-518.144159,-1838.629195,10362.883188
2365.845368,-1998.556043,-383.047749,10658.965565
2365.845690,-814.226536,-689.485948,10658.965565
2365.846012,1110.308913,-612.876398,9178.553681
2365.846334,814.226536,-153.219100,9770.718434
2365.846656,-222.061783,612.876398,10362.883188
2365.846978,0.000000,689.485948,9474.636058
2365.847300,2442.679609,842.705048,8882.471304
2365.847621,1480.411884,383.047749,8808.450710
2365.847943,-1702.473667,842.705048,9918.759623
2365.848265,-1258.350101,842.705048,9178.553681
2365.848587,-518.144159,153.219100,7846.182985
2365.848909,222.061783,1149.143247,7846.182985
2365.849231,-1554.432478,1608.800546,8364.327145
2365.849553,-962.267725,1762.019645,8512.368333
2365.849875,-518.144159,1302.362347,8068.244768
2365.850197,74.020594,1838.629195,7698.141797
2365.850519,-666.185348,2068.457845,8216.285956
2365.850840,-222.061783,2987.772442,8512.368333
2365.851163,2146.597232,2834.553343,8956.491898
2365.851485,2664.741391,3064.381992,9030.512492
2365.851807,1480.411884,3294.210641,10066.800811
2365.852129,444.123565,3217.601092,9844.739029
2365.852451,2146.597232,3217.601092,9622.677246
2365.852773,2294.638420,2757.943793,9696.697840
2365.853095,1258.350101,2604.724693,10955.047942
2365.853417,-444.123565,2528.115143,11103.089130
2365.853739,-814.226536,2221.676944,9474.636058
2365.854061,814.226536,1225.752797,8660.409521
2365.854383,-814.226536,2374.896044,8512.368333
2365.854705,-2738.761985,1608.800546,9178.553681
2365.855027,-2368.659014,1915.238745,9474.636058
2365.855348,-296.082377,2374.896044,9400.615463
2365.855670,-666.185348,1762.019645,8216.285956
2365.855992,-1850.514855,1915.238745,8364.327145
2365.856314,-2072.576638,1532.190996,8068.244768
2365.856636,-370.102971,2145.067394,7846.182985
2365.856958,-962.267725,995.924147,7772.162391
2365.857280,-1184.329507,689.485948,8808.450710
2365.857602,-2442.679609,229.828649,8586.388927
2365.857924,-1332.370696,0.000000,8808.450710
2365.858246,0.000000,-383.047749,9400.615463
2365.858568,-666.185348,536.266849,9770.718434
2365.858890,0.000000,766.095498,9844.739029
2365.859212,888.247130,0.000000,9252.574275
2365.859534,2294.638420,153.219100,9474.636058
2365.859856,962.267725,76.609550,10288.862594
2365.860178,0.000000,-459.657299,9992.780217
2365.860500,1406.391290,-689.485948,10288.862594
2365.860822,1998.556043,-459.657299,9548.656652
2365.861144,592.164754,306.438199,9696.697840
2365.861466,-518.144159,-1532.190996,9622.677246
2365.861788,-666.185348,-2221.676944,8808.450710
2365.862109,-962.267725,-2221.676944,9474.636058
2365.862431,-1110.308913,-2221.676944,10214.842000
2365.862753,-2886.803174,-2451.505594,10214.842000
2365.863075,-1554.432478,-2757.943793,8364.327145
2365.863397,0.000000,-2221.676944,8290.306550
2365.863719,518.144159,-1072.533697,9178.553681
2365.864041,-1776.494261,-1762.019645,10436.903782
2365.864363,-1258.350101,-1838.629195,9696.697840
2365.864685,814.226536,-842.705048,10362.883188
2365.865007,2072.576638,0.000000,9400.615463
2365.865329,1480.411884,0.000000,9622.677246
2365.865651,148.041188,-995.924147,10288.862594
2365.865973,1258.350101,766.095498,9474.636058
2365.866295,2294.638420,0.000000,9770.718434
2365.866617,1628.453072,229.828649,9622.677246
2365.866939,-740.205942,153.219100,10214.842000
2365.867261,148.041188,919.314598,8956.491898
2365.867583,962.267725,612.876398,8512.368333
2365.867905,222.061783,383.047749,8734.430116
2365.868227,-1554.432478,536.266849,8586.388927
2365.868549,-1332.370696,1455.581446,8438.347739
2365.868871,0.000000,612.876398,7920.203579
2365.869192,-444.123565,612.876398,7698.141797
2365.869514,-1628.453072,919.314598,9030.512492
2365.869836,-1924.535449,1149.143247,8290.306550
2365.870158,-296.082377,1302.362347,8364.327145
2365.870480,0.000000,153.219100,8290.306550
2365.870802,-1480.411884,1762.019645,9696.697840
2365.871124,-518.144159,1302.362347,9770.718434
2365.871446,1998.556043,2298.286494,9770.718434
2365.871768,2294.638420,1991.848295,9474.636058
2365.872090,814.226536,2068.457845,10214.842000
2365.872412,0.000000,2221.676944,10436.903782
2365.872734,1776.494261,3217.601092,10436.903782
2365.873056,2516.700203,1455.581446,10584.944971
2365.873378,-666.185348,2068.457845,11029.068536
2365.873700,-1628.453072,2068.457845,10436.903782
2365.874022,-1850.514855,2221.676944,8808.450710
2365.874344,148.041188,1991.848295,7550.100608
2365.874666,-1110.308913,1991.848295,7846.182985
2365.874988,-2368.659014,2451.505594,9030.512492
2365.875310,-1776.494261,2681.334243,8586.388927
2365.875632,-222.061783,2528.115143,8290.306550
2365.875953,-518.144159,1455.581446,6957.935855
2365.876275,-2368.659014,1838.629195,7179.997637
2365.876597,-1554.432478,1762.019645,8660.409521
2365.876919,-592.164754,1302.362347,8882.471304
2365.877241,-370.102971,1149.143247,7920.203579
2365.877563,0.000000,1072.533697,9252.574275
2365.877885,-1332.370696,1072.533697,9326.594869
2365.878207,-666.185348,-306.438199,8512.368333
2365.878529,592.164754,0.000000,9252.574275
2365.878851,296.082377,766.095498,9696.697840
2365.879173,740.205942,919.314598,10732.986159
2365.879495,1998.556043,459.657299,9474.636058
2365.879817,3034.844362,-306.438199,9622.677246
2365.880139,1258.350101,0.000000,9622.677246
2365.880461,0.000000,-459.657299,10955.047942
2365.880783,296.082377,-766.095498,11177.109724
2365.881105,1258.350101,-1072.533697,9844.739029
2365.881427,296.082377,-1608.800546,9326.594869
2365.881749,-1998.556043,-2221.676944,8956.491898
2365.882071,-2368.659014,-2528.115143,8734.430116
2365.882393,370.102971,-1455.581446,8586.388927
2365.882714,-740.205942,-1915.238745,10362.883188
2365.883036,-2442.679609,-2451.505594,9474.636058
2365.883358,-814.226536,-1762.019645,9178.553681
2365.883680,1998.556043,-1225.752797,8808.450710
2365.884002,2368.659014,-842.705048,9770.718434
2365.884324,592.164754,-1302.362347,10584.944971
2365.884646,1110.308913,-612.876398,10881.027347
2365.884968,2590.720797,-306.438199,9178.553681
2365.885290,1998.556043,-689.485948,8956.491898
2365.885612,444.123565,-995.924147,10066.800811
2365.885934,-1554.432478,-1378.971896,9918.759623
2365.886256,-148.041188,-1608.800546,9696.697840
2365.886578,-296.082377,-1455.581446,9844.739029
2365.886900,-1924.535449,-1455.581446,10955.047942
2365.887222,-1702.473667,-766.095498,9104.533087
2365.887544,-1628.453072,-1072.533697,7994.224174
2365.887866,74.020594,-459.657299,8512.368333
2365.888188,-1184.329507,0.000000,9622.677246
2365.888510,-1406.391290,612.876398,9548.656652
2365.888832,-814.226536,766.095498,9992.780217
2365.889154,296.082377,306.438199,8142.265362
2365.889475,-370.102971,459.657299,8364.327145
2365.889797,592.164754,1915.238745,8512.368333
2365.890119,0.000000,2298.286494,8142.265362
2365.890441,2220.617826,2528.115143,8068.244768
2365.890763,1036.288319,1915.238745,8660.409521
2365.891085,-370.102971,2528.115143,8586.388927
2365.891407,-814.226536,2374.896044,8216.285956
2365.891729,1554.432478,2374.896044,8956.491898
2365.892051,1480.411884,2911.162892,9770.718434
2365.892373,-740.205942,2757.943793,9474.636058
2365.892695,-1776.494261,2221.676944,9548.656652
2365.893017,-1036.288319,2221.676944,8660.409521
2365.893339,-444.123565,1915.238745,8956.491898
2365.893661,-2146.597232,2987.772442,10584.944971
2365.893983,-2590.720797,2451.505594,10066.800811
2365.894305,-1480.411884,2068.457845,9622.677246
2365.894627,-518.144159,2374.896044,9178.553681
2365.894949,-666.185348,2681.334243,8882.471304
2365.895271,-2368.659014,2451.505594,8660.409521
2365.895593,-1554.432478,2834.553343,9474.636058
2365.895915,1258.350101,3294.210641,9104.533087
2365.896236,1332.370696,2451.505594,8216.285956
2365.896558,222.061783,3064.381992,7476.080014
2365.896880,-296.082377,2374.896044,7476.080014
2365.897202,1406.391290,1762.019645,7994.224174
2365.897524,1184.329507,1225.752797,8734.430116
2365.897846,222.061783,842.705048,10140.821405
2365.898168,370.102971,1685.410096,9252.574275
2365.898490,0.000000,0.000000,8290.306550
2365.898812,1480.411884,76.609550,7698.141797
2365.899134,0.000000,-536.266849,8142.265362
2365.899456,74.020594,0.000000,10436.903782
2365.899778,1110.308913,0.000000,10584.944971
2365.900100,1924.535449,-229.828649,9992.780217
2365.900422,0.000000,-1455.581446,9400.615463
2365.900744,0.000000,-1225.752797,9178.553681
2365.901066,1184.329507,-766.095498,9992.780217
2365.901388,2072.576638,-995.924147,10510.924376
2365.901710,-222.061783,-1762.019645,11177.109724
2365.902032,-1554.432478,-2451.505594,10658.965565
2365.902354,-2664.741391,-2987.772442,9474.636058
2365.902676,-1258.350101,-2604.724693,9104.533087
2365.902997,-1998.556043,-3370.820191,9844.739029
2365.903319,-2960.823768,-2374.896044,9844.739029
2365.903641,-2738.761985,-3217.601092,9918.759623
2365.903963,-518.144159,-2145.067394,8882.471304
2365.904285,-592.164754,-2221.676944,8660.409521
2365.904607,-1776.494261,-1608.800546,8956.491898
2365.904929,-1628.453072,-1685.410096,8512.368333
2365.905251,1110.308913,-1072.533697,9104.533087
2365.905573,1332.370696,-612.876398,8660.409521
2365.905895,1184.329507,-919.314598,9252.574275
2365.906217,0.000000,0.000000,9252.574275
2365.906539,444.123565,-459.657299,9104.533087
2365.906861,962.267725,-536.266849,9622.677246
2365.907183,222.061783,-306.438199,9474.636058
2365.907505,0.000000,229.828649,10288.862594
2365.907827,370.102971,842.705048,9400.615463
2365.908149,814.226536,0.000000,9474.636058
2365.908471,-296.082377,76.609550,9400.615463
2365.908793,-1702.473667,383.047749,9992.780217
2365.909115,0.000000,1072.533697,9770.718434
2365.909437,-222.061783,1225.752797,9918.759623
2365.909758,-518.144159,766.095498,8734.430116
2365.910080,-1332.370696,1762.019645,8956.491898
2365.910402,-1184.329507,1608.800546,8364.327145
2365.910724,-370.102971,1915.238745,8290.306550
2365.911046,-296.082377,1838.629195,9400.615463
2365.911368,-1554.432478,2145.067394,9622.677246
2365.911690,-1258.350101,2757.943793,9104.533087
2365.912012,1184.329507,3140.991542,9400.615463
2365.912334,2294.638420,3294.210641,8660.409521
2365.912656,1184.329507,3064.381992,9992.780217
2365.912978,0.000000,3217.601092,10510.924376
2365.913300,1110.308913,3524.039291,9030.512492
2365.913622,1110.308913,3140.991542,8438.347739
2365.913944,0.000000,3294.210641,9474.636058
2365.914266,-1924.535449,2911.162892,9104.533087
2365.914588,-666.185348,2451.505594,8808.450710
2365.914910,888.247130,3294.210641,8512.368333
2365.915232,74.020594,3140.991542,9326.594869
2365.915554,-518.144159,3294.210641,9104.533087
2365.915876,-518.144159,2604.724693,8068.244768
2365.916198,888.247130,2221.676944,7476.080014
2365.916519,-370.102971,1455.581446,7254.018232
2365.916841,-962.267725,2298.286494,9326.594869
2365.917163,-666.185348,919.314598,8808.450710
2365.917485,222.061783,76.609550,7179.997637
2365.917807,-518.144159,76.609550,8512.368333
2365.918129,-1184.329507,0.000000,9548.656652
2365.918451,-740.205942,-459.657299,10658.965565
2365.918773,222.061783,-842.705048,9844.739029
2365.919095,296.082377,-1455.581446,9992.780217
2365.919417,0.000000,-842.705048,9104.533087
2365.919739,-296.082377,-306.438199,10584.944971
2365.920061,1554.432478,-306.438199,10584.944971
2365.920383,2146.597232,-842.705048,10732.986159
2365.920705,592.164754,-1302.362347,9992.780217
2365.921027,-148.041188,-1225.752797,11103.089130
2365.921349,-222.061783,-1149.143247,11399.171507
2365.921671,1184.329507,-1532.190996,9548.656652
2365.921993,-148.041188,-2298.286494,9844.739029
2365.922315,-2590.720797,-2145.067394,10288.862594
2365.922637,-2368.659014,-2374.896044,9104.533087
2365.922959,-962.267725,-2528.115143,8586.388927
2365.923281,-666.185348,-1838.629195,10214.842000
2365.923602,-3552.988522,-2221.676944,9474.636058
2365.923924,-2516.700203,-2451.505594,8364.327145
2365.924246,0.000000,-1378.971896,8882.471304
2365.924568,370.102971,-995.924147,8290.306550
2365.924890,-962.267725,-1991.848295,9030.512492
2365.925212,-962.267725,-766.095498,8808.450710
2365.925534,296.082377,-766.095498,8586.388927
2365.925856,1850.514855,-459.657299,7550.100608
2365.926178,0.000000,-306.438199,8956.491898
2365.926500,592.164754,153.219100,9252.574275
2365.926822,-296.082377,229.828649,9918.759623
2365.927144,888.247130,76.609550,9548.656652
2365.927466,-814.226536,-229.828649,10510.924376
2365.927788,-1332.370696,459.657299,8956.491898
2365.928110,296.082377,612.876398,9474.636058
2365.928432,1110.308913,766.095498,9474.636058
2365.928754,-296.082377,766.095498,10140.821405
2365.929076,-1332.370696,536.266849,10510.924376
2365.929398,-222.061783,612.876398,9770.718434
2365.929720,1110.308913,1915.238745,9030.512492
2365.930042,-592.164754,1455.581446,9696.697840
2365.930363,-666.185348,2145.067394,10510.924376
2365.930685,-222.061783,1838.629195,8882.471304
2365.931007,1702.473667,2681.334243,8142.265362
2365.931329,1480.411884,2987.772442,8660.409521
2365.931651,-370.102971,3600.648841,9178.553681
2365.931973,444.123565,3830.477490,8956.491898
2365.932295,2442.679609,3830.477490,8216.285956
2365.932617,2072.576638,3524.039291,7994.224174
2365.932939,0.000000,3524.039291,8808.450710
2365.933261,-1628.453072,3064.381992,9474.636058
2365.933583,222.061783,2987.772442,8660.409521
2365.933905,-666.185348,2221.676944,8512.368333
2365.934227,-1554.432478,2528.115143,9178.553681
2365.934549,-3330.926739,2221.676944,8660.409521
2365.934871,-1480.411884,1915.238745,7624.121203
2365.935193,-666.185348,1532.190996,8142.265362
2365.935515,-1110.308913,2145.067394,9474.636058
2365.935837,-1628.453072,1762.019645,9400.615463
2365.936159,0.000000,1378.971896,8586.388927
2365.936481,740.205942,1685.410096,9326.594869
2365.936803,222.061783,1685.410096,9474.636058
2365.937124,-740.205942,1072.533697,9400.615463
2365.937446,2072.576638,1072.533697,9770.718434
2365.937768,2738.761985,919.314598,9252.574275
2365.938090,2072.576638,383.047749,9400.615463
2365.938412,888.247130,0.000000,10732.986159
2365.938734,-666.185348,-919.314598,9696.697840
2365.939056,592.164754,-995.924147,9400.615463
2365.939378,0.000000,-1149.143247,10066.800811
2365.939700,-1258.350101,-1302.362347,10584.944971
2365.940022,-2590.720797,-1991.848295,9844.739029
2365.940344,-592.164754,-1532.190996,9030.512492
2365.940666,-74.020594,-1455.581446,9030.512492
2365.940988,-1776.494261,-1532.190996,9474.636058
2365.941310,-2812.782580,-2221.676944,9696.697840
2365.941632,-1702.473667,-1608.800546,9474.636058
2365.941954,-1110.308913,-1532.190996,9622.677246
2365.942276,-2146.597232,-1915.238745,10066.800811
2365.942598,-2738.761985,-2834.553343,10140.821405
2365.942920,-1924.535449,-1302.362347,9622.677246
2365.943242,-518.144159,-1915.238745,9474.636058
2365.943564,0.000000,-2068.457845,9030.512492
2365.943885,-592.164754,-1072.533697,9992.780217
2365.944207,296.082377,-383.047749,9178.553681
2365.944529,2812.782580,0.000000,9252.574275
2365.944851,1998.556043,-842.705048,8290.306550
2365.945173,296.082377,0.000000,9770.718434
2365.945495,1110.308913,-153.219100,9844.739029
2365.945817,222.061783,0.000000,9400.615463
2365.946139,592.164754,-995.924147,8586.388927
2365.946461,-1184.329507,-1455.581446,8734.430116
2365.946783,-1184.329507,306.438199,9474.636058
2365.947105,-592.164754,0.000000,8808.450710
2365.947427,-296.082377,0.000000,9030.512492
2365.947749,-666.185348,0.000000,9030.512492
2365.948071,-888.247130,1378.971896,9030.512492
2365.948393,1406.391290,1608.800546,9252.574275
2365.948715,888.247130,1225.752797,9770.718434
2365.949037,-296.082377,1455.581446,9844.739029
2365.949359,-740.205942,1225.752797,9770.718434
2365.949681,296.082377,1915.238745,11177.109724
2365.950003,1628.453072,2298.286494,9622.677246
2365.950325,1184.329507,1072.533697,9400.615463
2365.950646,148.041188,1991.848295,9474.636058
2365.950968,296.082377,1149.143247,9474.636058
2365.951290,1332.370696,2451.505594,9252.574275
2365.951612,1480.411884,2451.505594,9474.636058
2365.951934,-148.041188,2834.553343,9696.697840
2365.952255,-518.144159,2757.943793,8364.327145
2365.952577,1406.391290,3064.381992,8512.368333
2365.952899,666.185348,3830.477490,8734.430116
2365.953221,148.041188,3600.648841,7105.977043
2365.953543,-1184.329507,2298.286494,7476.080014
2365.953864,-222.061783,2911.162892,6957.935855
2365.954186,-592.164754,2374.896044,8290.306550
2365.954508,-1332.370696,2451.505594,8364.327145
2365.954830,-2590.720797,1455.581446,9252.574275
2365.955152,-1036.288319,1762.019645,7698.141797
2365.955473,-296.082377,1225.752797,9474.636058
2365.955795,-1036.288319,1225.752797,9770.718434
2365.956117,-1110.308913,1455.581446,9400.615463
2365.956439,148.041188,1378.971896,9252.574275
2365.956761,1406.391290,1225.752797,9770.718434
2365.957082,444.123565,1072.533697,9770.718434
2365.957404,74.020594,459.657299,9844.739029
2365.957726,1036.288319,153.219100,10807.006753
2365.958048,1184.329507,612.876398,10140.821405
2365.958369,-518.144159,-459.657299,9696.697840
2365.958691,-1332.370696,-1225.752797,9178.553681
2365.959013,-1850.514855,-1608.800546,8364.327145
2365.959335,-888.247130,-1072.533697,8068.244768
2365.959657,-1258.350101,-612.876398,9770.718434
2365.959978,-2664.741391,-2604.724693,9252.574275
2365.960300,-2368.659014,-2451.505594,8808.450710
2365.960622,-370.102971,-1225.752797,8956.491898
2365.960944,444.123565,-1149.143247,9474.636058
2365.961266,-1406.391290,-1838.629195,9992.780217
2365.961587,-740.205942,-1685.410096,9992.780217
2365.961909,1036.288319,-306.438199,9474.636058
2365.962231,1628.453072,-612.876398,8438.347739
2365.962553,518.144159,-1302.362347,8956.491898
2365.962875,-518.144159,-842.705048,10436.903782
2365.963196,222.061783,-842.705048,11251.130318
2365.963518,1776.494261,-1762.019645,9696.697840
2365.963840,0.000000,-1762.019645,10288.862594
2365.964162,-888.247130,-536.266849,10584.944971
2365.964484,-1110.308913,-1072.533697,9770.718434
2365.964805,296.082377,-1455.581446,9548.656652
2365.965127,-1258.350101,-1532.190996,9992.780217
2365.965449,-1850.514855,-842.705048,9770.718434
2365.965771,-592.164754,-1378.971896,8808.450710
2365.966092,0.000000,-995.924147,8512.368333
2365.966414,-592.164754,-383.047749,9326.594869
2365.966736,-666.185348,153.219100,9400.615463
2365.967058,-962.267725,0.000000,7772.162391
2365.967380,1628.453072,383.047749,7254.018232
2365.967701,1406.391290,995.924147,8512.368333
2365.968023,0.000000,1302.362347,8956.491898
2365.968345,1036.288319,1225.752797,9178.553681
2365.968667,3108.864956,1838.629195,9844.739029
2365.968989,3997.112087,2221.676944,9696.697840
2365.969310,962.267725,2528.115143,9104.533087
2365.969632,962.267725,2298.286494,9474.636058
2365.969954,2146.597232,2528.115143,10436.903782
2365.970276,2516.700203,2528.115143,9770.718434
2365.970598,666.185348,1838.629195,9622.677246
2365.970919,-444.123565,2681.334243,10362.883188
2365.971241,-740.205942,1685.410096,9326.594869
2365.971563,-666.185348,1991.848295,8068.244768
2365.971885,-1110.308913,2374.896044,9178.553681
2365.972207,-2738.761985,2145.067394,9400.615463
2365.972528,-2442.679609,2221.676944,8438.347739
2365.972850,-888.247130,2221.676944,8438.347739
2365.973172,-1480.411884,2298.286494,7772.162391
2365.973494,-1554.432478,2298.286494,8660.409521
2365.973815,-2812.782580,2145.067394,8660.409521
2365.974137,-962.267725,1762.019645,8734.430116
2365.974459,-1554.432478,1302.362347,8068.244768
2365.974781,-1702.473667,1991.848295,9622.677246
2365.975103,-1850.514855,1838.629195,9252.574275
2365.975424,0.000000,1455.581446,8882.471304
2365.975746,740.205942,1685.410096,9030.512492
2365.976068,0.000000,1915.238745,8808.450710
2365.976390,74.020594,2451.505594,9548.656652
2365.976712,2146.597232,2068.457845,9326.594869
2365.977033,2590.720797,1991.848295,9474.636058
2365.977355,814.226536,1532.190996,9474.636058
2365.977677,0.000000,1225.752797,10140.821405
2365.977999,1110.308913,766.095498,9104.533087
2365.978321,2812.782580,-383.047749,9030.512492
2365.978642,296.082377,0.000000,9252.574275
2365.978964,-1480.411884,-995.924147,9992.780217
2365.979286,-2294.638420,-1455.581446,9178.553681
2365.979608,-370.102971,-1072.533697,8512.368333
2365.979930,-962.267725,-1149.143247,10288.862594
2365.980251,-3034.844362,-1072.533697,9696.697840
2365.980573,-2960.823768,-2145.067394,9474.636058
2365.980895,-148.041188,-1685.410096,8882.471304
2365.981217,0.000000,-1915.238745,9474.636058
2365.981538,-962.267725,-1762.019645,10066.800811
2365.981860,-2146.597232,-2068.457845,10066.800811
2365.982182,444.123565,-1302.362347,9918.759623
2365.982504,1332.370696,-1378.971896,9992.780217
2365.982826,814.226536,-995.924147,10214.842000
2365.983147,-222.061783,-612.876398,10362.883188
2365.983469,444.123565,-919.314598,8956.491898
2365.983791,1480.411884,-995.924147,10214.842000
2365.984113,814.226536,-536.266849,9992.780217
2365.984435,74.020594,-459.657299,9696.697840
2365.984756,296.082377,-995.924147,8956.491898
2365.985078,1184.329507,-306.438199,8808.450710
2365.985400,74.020594,-1072.533697,9400.615463
2365.985722,-1776.494261,-842.705048,8882.471304
2365.986044,-666.185348,-995.924147,9030.512492
2365.986365,-370.102971,-1302.362347,8660.409521
2365.986687,-1184.329507,-612.876398,8734.430116
2365.987009,-2368.659014,-1302.362347,9474.636058
2365.987331,-1480.411884,0.000000,9030.512492
2365.987653,0.000000,766.095498,8586.388927
2365.987974,962.267725,459.657299,8068.244768
2365.988296,-1110.308913,76.609550,8142.265362
2365.988618,-1406.391290,995.924147,9252.574275
2365.988940,962.267725,1838.629195,10066.800811
2365.989261,2146.597232,1149.143247,8882.471304
2365.989583,74.020594,1455.581446,10066.800811
2365.989905,-370.102971,1762.019645,10140.821405
2365.990227,148.041188,1762.019645,10066.800811
2365.990549,666.185348,1302.362347,9326.594869
2365.990870,-666.185348,1455.581446,9474.636058
2365.991192,-1776.494261,1838.629195,10066.800811
2365.991514,-1110.308913,1762.019645,9326.594869
2365.991836,296.082377,2451.505594,8586.388927
2365.992158,-444.123565,2528.115143,9178.553681
2365.992479,-1258.350101,3524.039291,9252.574275
2365.992801,-1110.308913,2757.943793,8512.368333
2365.993123,962.267725,3370.820191,7994.224174
2365.993445,814.226536,3447.429741,7920.203579
2365.993767,0.000000,3217.601092,9400.615463
2365.994088,0.000000,3140.991542,9104.533087
2365.994410,518.144159,2987.772442,7698.141797
2365.994732,888.247130,2451.505594,7550.100608
2365.995054,74.020594,2298.286494,8808.450710
2365.995376,-888.247130,1762.019645,8808.450710
2365.995697,370.102971,1149.143247,8438.347739
2365.996019,0.000000,766.095498,9474.636058
2365.996341,-1924.535449,383.047749,10140.821405
2365.996663,-3108.864956,383.047749,10214.842000
2365.996984,296.082377,1072.533697,9548.656652
2365.997306,2516.700203,1685.410096,9030.512492
2365.997628,1406.391290,1608.800546,9474.636058
2365.997950,-740.205942,612.876398,9104.533087
2365.998272,1184.329507,1762.019645,9696.697840
2365.998593,2442.679609,612.876398,8882.471304
2365.998915,370.102971,-153.219100,8808.450710
2365.999237,-1480.411884,-919.314598,9918.759623
2365.999559,-1776.494261,-153.219100,9770.718434
2365.999881,0.000000,-1838.629195,8586.388927
2366.000202,444.123565,-2298.286494,9622.677246
2366.000524,-2590.720797,-2451.505594,9992.780217
2366.000846,-2516.700203,-2145.067394,9918.759623
2366.001168,-444.123565,-2528.115143,9548.656652
2366.001490,444.123565,-2528.115143,9770.718434
2366.001811,-296.082377,-229.828649,10955.047942
2366.002133,-444.123565,-1225.752797,10881.027347
2366.002455,0.000000,-1685.410096,9104.533087
2366.002777,1258.350101,-2298.286494,8216.285956
2366.003099,74.020594,-1608.800546,9622.677246
2366.003420,-518.144159,-995.924147,9400.615463
2366.003742,-370.102971,-1838.629195,9326.594869
2366.004064,1406.391290,-1685.410096,9104.533087
2366.004386,222.061783,-2528.115143,10214.842000
2366.004708,-1480.411884,-1838.629195,10066.800811
2366.005029,-666.185348,-1685.410096,9622.677246
2366.005351,518.144159,-1302.362347,9474.636058
2366.005673,-518.144159,-1532.190996,10510.924376
2366.005995,-2072.576638,-766.095498,10658.965565
2366.006316,-740.205942,-612.876398,9622.677246
2366.006638,1702.473667,-612.876398,8734.430116
2366.006960,888.247130,-459.657299,7994.224174
2366.007282,74.020594,76.609550,9178.553681
2366.007604,74.020594,766.095498,8956.491898
2366.007925,1850.514855,1378.971896,8364.327145
2366.008247,1554.432478,1302.362347,9548.656652
2366.008569,-814.226536,1378.971896,9844.739029
2366.008891,-666.185348,1378.971896,8586.388927
2366.009213,2146.597232,1378.971896,8364.327145
2366.009534,1776.494261,2298.286494,9104.533087
2366.009856,0.000000,2298.286494,9696.697840
2366.010178,-1480.411884,1685.410096,10214.842000
2366.010500,148.041188,1915.238745,9770.718434
2366.010822,-148.041188,1378.971896,8586.388927
2366.011143,-74.020594,2298.286494,9178.553681
2366.011465,-1184.329507,2451.505594,9696.697840
2366.011787,-1110.308913,2528.115143,9400.615463
2366.012109,-296.082377,2374.896044,8956.491898
2366.012431,-1332.370696,2987.772442,8142.265362
2366.012752,-1480.411884,3140.991542,8956.491898
2366.013074,0.000000,2681.334243,8438.347739
2366.013396,2146.597232,3217.601092,8586.388927
2366.013718,1850.514855,2451.505594,9400.615463
2366.014039,-296.082377,3217.601092,8290.306550
2366.014361,444.123565,2451.505594,9252.574275
2366.014683,1258.350101,1991.848295,8142.265362
2366.015005,-592.164754,1838.629195,9400.615463
2366.015327,-740.205942,1915.238745,9918.759623
2366.015648,-1332.370696,1302.362347,9770.718434
2366.015970,666.185348,0.000000,7698.141797
2366.016292,222.061783,536.266849,8956.491898
2366.016614,-2294.638420,1302.362347,9104.533087
2366.016936,-2368.659014,306.438199,9474.636058
2366.017257,296.082377,536.266849,9178.553681
2366.017579,1554.432478,1149.143247,10214.842000
2366.017901,-1628.453072,536.266849,9104.533087
2366.018223,-2220.617826,0.000000,9696.697840
2366.018545,0.000000,-229.828649,9918.759623
2366.018866,592.164754,-536.266849,9178.553681
2366.019188,-370.102971,-689.485948,9992.780217
2366.019510,-1184.329507,-1072.533697,9326.594869
2366.019832,-1480.411884,-1072.533697,9400.615463
2366.020154,-592.164754,-1455.581446,9474.636058
2366.020475,0.000000,-1608.800546,9844.739029
2366.020797,-1554.432478,-1762.019645,9844.739029
2366.021119,-666.185348,-1302.362347,10066.800811
2366.021441,370.102971,-1225.752797,9252.574275
2366.021762,592.164754,-1685.410096,8586.388927
2366.022084,-296.082377,-1225.752797,9474.636058
2366.022406,0.000000,-1072.533697,9770.718434
2366.022728,518.144159,-1302.362347,9326.594869
2366.023050,148.041188,-1762.019645,9400.615463
2366.023371,-296.082377,-1608.800546,9548.656652
2366.023693,-1702.473667,-1608.800546,9326.594869
2366.024015,-1702.473667,-2068.457845,9252.574275
2366.024337,-740.205942,-1762.019645,9548.656652
2366.024659,-1554.432478,-1838.629195,9178.553681
2366.024980,-1554.432478,-1302.362347,9770.718434
2366.025302,296.082377,-306.438199,10362.883188
2366.025624,1702.473667,0.000000,10584.944971
2366.025946,518.144159,-383.047749,9844.739029
2366.026268,-370.102971,-459.657299,8956.491898
2366.026589,1036.288319,459.657299,9474.636058
2366.026911,2812.782580,689.485948,9178.553681
2366.027233,1480.411884,1225.752797,8882.471304
2366.027555,1110.308913,153.219100,10807.006753
2366.027877,-370.102971,1302.362347,9622.677246
2366.028198,2072.576638,1685.410096,8586.388927
2366.028520,2072.576638,1378.971896,8660.409521
2366.028842,74.020594,2145.067394,8882.471304
2366.029164,-518.144159,2451.505594,9252.574275
2366.029485,1776.494261,2604.724693,7550.100608
2366.029807,1480.411884,2451.505594,8512.368333
2366.030129,0.000000,2451.505594,8586.388927
2366.030451,-1554.432478,2451.505594,9326.594869
2366.030773,-296.082377,1915.238745,8586.388927
2366.031094,444.123565,1455.581446,8882.471304
2366.031416,-518.144159,1991.848295,10658.965565
2366.031738,-2220.617826,1915.238745,10881.027347
2366.032060,-1036.288319,1149.143247,9178.553681
2366.032382,-592.164754,1532.190996,8882.471304
2366.032703,-444.123565,2068.457845,9474.636058
2366.033025,-1776.494261,2911.162892,9770.718434
2366.033347,518.144159,2451.505594,8808.450710
2366.033669,1036.288319,2757.943793,9400.615463
2366.033991,-666.185348,2374.896044,8660.409521
2366.034312,-1998.556043,1915.238745,8734.430116
2366.034634,-1110.308913,2145.067394,8290.306550
2366.034956,222.061783,1455.581446,7772.162391
2366.035278,-592.164754,1302.362347,8808.450710
2366.035600,-2294.638420,383.047749,8734.430116
2366.035921,-2368.659014,383.047749,8660.409521
2366.036243,-148.041188,612.876398,7105.977043
2366.036565,148.041188,229.828649,8734.430116
2366.036887,-1036.288319,459.657299,9770.718434
2366.037208,-1628.453072,766.095498,9252.574275
2366.037530,888.247130,536.266849,9844.739029
2366.037852,2146.597232,383.047749,8808.450710
2366.038174,148.041188,153.219100,9548.656652
2366.038496,-222.061783,-383.047749,10510.924376
2366.038817,666.185348,0.000000,10288.862594
2366.039139,1406.391290,-995.924147,8882.471304
2366.039461,0.000000,-689.485948,10436.903782
2366.039783,-2516.700203,-1455.581446,11251.130318
2366.040105,-2072.576638,-2451.505594,10510.924376
2366.040426,-1110.308913,-2451.505594,10066.800811
2366.040748,-1776.494261,-1762.019645,11103.089130
2366.041070,-2812.782580,-2221.676944,10732.986159
2366.041392,-2146.597232,-1991.848295,9030.512492
2366.041714,74.020594,-536.266849,8734.430116
2366.042035,444.123565,-766.095498,8364.327145
2366.042357,-666.185348,-1149.143247,8438.347739
2366.042679,592.164754,-919.314598,9104.533087
2366.043001,1628.453072,0.000000,9178.553681
2366.043323,1628.453072,-229.828649,8734.430116
2366.043644,370.102971,-766.095498,8660.409521
2366.043966,0.000000,-919.314598,7920.203579
2366.044288,1998.556043,0.000000,7994.224174
2366.044610,1776.494261,0.000000,9030.512492
2366.044931,-222.061783,-536.266849,10436.903782
2366.045253,-1184.329507,-612.876398,10362.883188
2366.045575,1406.391290,0.000000,9030.512492
2366.045897,2960.823768,0.000000,9474.636058
2366.046219,0.000000,0.000000,10066.800811
2366.046540,-1554.432478,0.000000,9992.780217
2366.046862,0.000000,842.705048,10584.944971
2366.047184,1406.391290,689.485948,9030.512492
2366.047506,74.020594,689.485948,9474.636058
2366.047828,222.061783,1455.581446,10288.862594
2366.048149,-296.082377,1378.971896,8882.471304
2366.048471,1702.473667,1608.800546,8216.285956
2366.048793,1702.473667,1685.410096,9178.553681
2366.049115,-592.164754,1838.629195,9252.574275
2366.049437,-592.164754,2068.457845,8956.491898
2366.049758,740.205942,1915.238745,8808.450710
2366.050080,0.000000,1685.410096,8882.471304
2366.050402,-518.144159,1838.629195,10140.821405
2366.050724,-962.267725,1455.581446,9104.533087
2366.051046,74.020594,1991.848295,8734.430116
2366.051367,-592.164754,1838.629195,7772.162391
2366.051689,-1554.432478,2528.115143,8660.409521
2366.052011,-1702.473667,2298.286494,8660.409521
2366.052333,-592.164754,2834.553343,8512.368333
2366.052654,0.000000,1378.971896,8216.285956
2366.052976,-444.123565,2451.505594,9474.636058
2366.053298,-1554.432478,2604.724693,10140.821405
2366.053620,518.144159,2145.067394,8956.491898
2366.053942,1628.453072,2068.457845,9030.512492
2366.054264,74.020594,1762.019645,8956.491898
2366.054586,-1184.329507,1532.190996,9178.553681
2366.054907,296.082377,995.924147,9474.636058
2366.055229,1258.350101,1455.581446,9474.636058
2366.055551,0.000000,842.705048,9918.759623
2366.055873,-1110.308913,0.000000,10732.986159
2366.056195,-1924.535449,-919.314598,9844.739029
2366.056517,-296.082377,-612.876398,8734.430116
2366.056839,444.123565,0.000000,9474.636058
2366.057161,-1850.514855,383.047749,10066.800811
2366.057483,-1480.411884,-229.828649,9030.512492
2366.057805,592.164754,0.000000,8216.285956
2366.058126,962.267725,459.657299,8808.450710
2366.058448,-1110.308913,0.000000,9030.512492
2366.058770,-1628.453072,-995.924147,9400.615463
2366.059092,-740.205942,-306.438199,9992.780217
2366.059414,-296.082377,-536.266849,9326.594869
2366.059736,-1258.350101,-1608.800546,9474.636058
2366.060058,-1850.514855,-1302.362347,8660.409521
2366.060380,-1258.350101,-1455.581446,9844.739029
2366.060702,-592.164754,-995.924147,10436.903782
2366.061024,-1554.432478,-1915.238745,10510.924376
2366.061345,-1036.288319,-1608.800546,9844.739029
2366.061667,0.000000,-689.485948,9622.677246
2366.061989,1628.453072,0.000000,9992.780217
2366.062311,666.185348,-306.438199,10066.800811
2366.062633,-444.123565,-459.657299,9252.574275
2366.062955,0.000000,-995.924147,8586.388927
2366.063277,1480.411884,0.000000,7994.224174
2366.063599,74.020594,0.000000,9622.677246
2366.063921,-814.226536,-689.485948,9844.739029
2366.064243,-1850.514855,-995.924147,8364.327145
2366.064564,740.205942,-995.924147,7476.080014
2366.064886,0.000000,-153.219100,9474.636058
2366.065208,-1628.453072,-306.438199,9104.533087
2366.065530,-1332.370696,76.609550,9104.533087
2366.065852,1406.391290,1072.533697,8660.409521
2366.066174,2886.803174,1225.752797,8586.388927
2366.066496,888.247130,1149.143247,9474.636058
2366.066818,-148.041188,1685.410096,10510.924376
2366.067140,1628.453072,1378.971896,10436.903782
2366.067462,1480.411884,995.924147,9326.594869
2366.067783,740.205942,689.485948,8808.450710
2366.068105,-888.247130,1532.190996,11029.068536
2366.068427,-814.226536,1225.752797,10732.986159
2366.068749,592.164754,0.000000,9400.615463
2366.069071,0.000000,766.095498,8290.306550
2366.069393,-666.185348,1915.238745,9030.512492
2366.069715,-888.247130,1838.629195,8882.471304
2366.070037,1406.391290,2298.286494,8290.306550
2366.070359,740.205942,2374.896044,8364.327145
2366.070681,-962.267725,2145.067394,7550.100608
2366.071002,-592.164754,1915.238745,8142.265362
2366.071324,-518.144159,2145.067394,9400.615463
2366.071646,-666.185348,1685.410096,9548.656652
2366.071968,-888.247130,1838.629195,10584.944971
2366.072290,-1480.411884,1455.581446,8142.265362
2366.072612,0.000000,1378.971896,7550.100608
2366.072934,296.082377,2221.676944,8364.327145
2366.073256,-518.144159,1762.019645,9548.656652
2366.073578,-444.123565,1378.971896,8956.491898
2366.073900,1406.391290,2221.676944,8290.306550
2366.074221,2812.782580,2068.457845,9400.615463
2366.074543,148.041188,1302.362347,10584.944971
2366.074865,-1480.411884,766.095498,10955.047942
2366.075187,0.000000,383.047749,10140.821405
2366.075509,1036.288319,689.485948,8438.347739
2366.075831,222.061783,995.924147,9400.615463
2366.076153,-1332.370696,76.609550,9474.636058
2366.076475,-1628.453072,306.438199,9104.533087
2366.076797,-1480.411884,-1532.190996,7254.018232
2366.077119,-814.226536,-306.438199,8364.327145
2366.077440,-3034.844362,-383.047749,9844.739029
2366.077762,-2812.782580,-766.095498,9326.594869
2366.078084,-1110.308913,-1072.533697,7994.224174
2366.078406,-1036.288319,-919.314598,7846.182985
2366.078728,-1554.432478,0.000000,9548.656652
2366.079050,-666.185348,-1072.533697,10140.821405
2366.079372,0.000000,-1302.362347,9844.739029
2366.079694,1036.288319,-1149.143247,9030.512492
2366.080016,-296.082377,-1149.143247,9918.759623
2366.080338,-1110.308913,-689.485948,10955.047942
2366.080659,296.082377,-1532.190996,9622.677246
2366.080981,1036.288319,-766.095498,9622.677246
2366.081303,592.164754,-383.047749,9696.697840
2366.081625,-370.102971,-536.266849,9696.697840
2366.081947,740.205942,0.000000,10140.821405
2366.082269,2368.659014,0.000000,9178.553681
2366.082591,444.123565,-612.876398,9030.512492
2366.082913,-1332.370696,-612.876398,9918.759623
2366.083235,-74.020594,-612.876398,9104.533087
2366.083557,888.247130,-459.657299,8808.450710
2366.083878,0.000000,-995.924147,8808.450710
2366.084200,-1628.453072,-1149.143247,9030.512492
2366.084522,-1628.453072,-536.266849,8660.409521
2366.084844,0.000000,0.000000,8734.430116
2366.085166,740.205942,229.828649,9696.697840
2366.085488,-444.123565,0.000000,9326.594869
2366.085810,-592.164754,612.876398,8586.388927
2366.086132,1258.350101,995.924147,9252.574275
2366.086454,2590.720797,1532.190996,9030.512492
2366.086775,1258.350101,1838.629195,9548.656652
2366.087097,0.000000,1762.019645,10807.006753
2366.087419,1110.308913,1762.019645,9696.697840
2366.087741,1110.308913,1762.019645,9400.615463
2366.088063,1628.453072,2451.505594,9770.718434
2366.088385,-370.102971,1915.238745,9548.656652
2366.088707,-888.247130,1991.848295,9696.697840
2366.089029,-222.061783,1762.019645,9104.533087
2366.089351,-666.185348,1455.581446,8512.368333
2366.089673,-2368.659014,1685.410096,9326.594869
2366.089994,-2220.617826,2757.943793,9622.677246
2366.090316,-962.267725,2528.115143,7846.182985
2366.090638,-592.164754,1991.848295,7772.162391
2366.090960,-1628.453072,2911.162892,7402.059420
2366.091282,-1332.370696,3294.210641,9030.512492
2366.091604,0.000000,2757.943793,8142.265362
2366.091926,-518.144159,2068.457845,7772.162391
2366.092248,-296.082377,1915.238745,7994.224174
2366.092570,-1554.432478,3447.429741,9104.533087
2366.092892,888.247130,1455.581446,7994.224174
2366.093213,814.226536,1532.190996,9474.636058
2366.093535,-888.247130,1915.238745,9252.574275
2366.093857,-1776.494261,1378.971896,10807.006753
2366.094179,0.000000,1149.143247,9992.780217
2366.094501,1554.432478,842.705048,10140.821405
2366.094823,-222.061783,1532.190996,10288.862594
2366.095145,-962.267725,1685.410096,10066.800811
2366.095467,370.102971,536.266849,9326.594869
2366.095789,1776.494261,76.609550,7920.203579
2366.096111,-666.185348,459.657299,9252.574275
2366.096432,-2146.597232,0.000000,9918.759623
2366.096754,-2368.659014,-1149.143247,8956.491898
2366.097076,-222.061783,-1225.752797,8586.388927
2366.097398,-1036.288319,-1302.362347,8512.368333
2366.097720,-666.185348,-689.485948,10140.821405
2366.098042,-1850.514855,-1838.629195,10066.800811
2366.098364,518.144159,-1532.190996,9474.636058
2366.098686,74.020594,-2068.457845,9104.533087
2366.099008,-1332.370696,-1072.533697,9474.636058
2366.099330,-74.020594,-1762.019645,9844.739029
2366.099651,222.061783,-1762.019645,10658.965565
2366.099973,296.082377,-1608.800546,9178.553681
2366.100295,148.041188,-1991.848295,9918.759623
2366.100617,-296.082377,-1072.533697,10436.903782
2366.100939,1184.329507,-1455.581446,9622.677246
2366.101261,1480.411884,-1455.581446,10362.883188
2366.101583,370.102971,-229.828649,9178.553681
2366.101905,-296.082377,-1302.362347,8882.471304
2366.102227,1110.308913,0.000000,9030.512492
2366.102549,2368.659014,-459.657299,9326.594869
2366.102870,518.144159,-689.485948,10140.821405
2366.103192,-888.247130,-689.485948,10881.027347
2366.103514,-740.205942,-383.047749,10881.027347
2366.103836,592.164754,-306.438199,9622.677246
2366.104158,222.061783,-689.485948,9104.533087
2366.104480,-1554.432478,-612.876398,8734.430116
2366.104802,-2072.576638,0.000000,8808.450710
2366.105124,-296.082377,306.438199,7846.182985
2366.105446,296.082377,0.000000,8142.265362
2366.105768,-1110.308913,1072.533697,8586.388927
2366.106089,-1184.329507,1455.581446,9770.718434
2366.106411,-148.041188,2298.286494,9030.512492
2366.106733,1184.329507,1532.190996,7846.182985
2366.107055,222.061783,2221.676944,9030.512492
2366.107377,-740.205942,2681.334243,9548.656652
2366.107699,-74.020594,1915.238745,9474.636058
2366.108021,296.082377,1608.800546,8586.388927
2366.108343,0.000000,2451.505594,10140.821405
2366.108665,74.020594,2451.505594,10881.027347
2366.108987,-1036.288319,2451.505594,10288.862594
2366.109308,-444.123565,2451.505594,9474.636058
2366.109630,222.061783,2911.162892,9918.759623
2366.109952,-1258.350101,3140.991542,8956.491898
2366.110274,518.144159,3140.991542,7698.141797
2366.110596,2146.597232,3294.210641,8586.388927
2366.110918,1406.391290,3677.258390,8290.306550
2366.111240,-1036.288319,3140.991542,9992.780217
2366.111562,-592.164754,2604.724693,9844.739029
2366.111884,148.041188,2145.067394,8956.491898
2366.112206,-148.041188,1685.410096,7994.224174
2366.112527,-1628.453072,1762.019645,8142.265362
2366.112849,-2294.638420,1532.190996,7476.080014
2366.113171,0.000000,1685.410096,7476.080014
2366.113493,666.185348,1685.410096,7402.059420
2366.113815,-1332.370696,689.485948,7920.203579
2366.114137,-1628.453072,689.485948,8956.491898
2366.114459,222.061783,842.705048,9252.574275
2366.114781,2368.659014,612.876398,9622.677246
2366.115103,518.144159,0.000000,9548.656652
2366.115425,-1110.308913,-459.657299,10362.883188
2366.115746,444.123565,0.000000,10140.821405
2366.116068,962.267725,-1149.143247,9252.574275
2366.116390,888.247130,-1378.971896,9696.697840
2366.116712,0.000000,-1072.533697,11325.150913
2366.117034,-518.144159,-1149.143247,10658.965565
2366.117356,1110.308913,-2221.676944,9770.718434
2366.117678,370.102971,-2374.896044,9548.656652
2366.118000,-592.164754,-2221.676944,10066.800811
2366.118322,-370.102971,-1225.752797,9474.636058
2366.118644,888.247130,-1532.190996,9326.594869
2366.118965,592.164754,-1915.238745,9400.615463
2366.119287,-962.267725,-1762.019645,9770.718434
2366.119609,-888.247130,-1838.629195,10140.821405
2366.119931,74.020594,-1991.848295,9474.636058
2366.120253,666.185348,-2145.067394,9696.697840
2366.120575,-592.164754,-1608.800546,9622.677246
2366.120897,-1998.556043,-1838.629195,9474.636058
2366.121219,-148.041188,-1532.190996,8660.409521
2366.121541,370.102971,-1915.238745,8956.491898
2366.121863,-1776.494261,-1608.800546,9844.739029
2366.122184,-2442.679609,-1455.581446,9992.780217
2366.122506,-148.041188,0.000000,8808.450710
2366.122828,2146.597232,0.000000,9104.533087
2366.123150,0.000000,153.219100,8882.471304
2366.123472,-1036.288319,229.828649,9770.718434
2366.123794,-370.102971,306.438199,9770.718434
2366.124116,888.247130,0.000000,7846.182985
2366.124438,222.061783,153.219100,8068.244768
2366.124760,-1554.432478,459.657299,9252.574275
2366.125082,-2220.617826,1378.971896,9474.636058
2366.125403,-296.082377,383.047749,9326.594869
2366.125725,0.000000,1149.143247,8660.409521
2366.126047,-962.267725,1455.581446,8438.347739
2366.126369,-888.247130,1838.629195,9400.615463
2366.126691,1480.411884,2298.286494,9326.594869
2366.127013,1406.391290,2451.505594,9474.636058
2366.127335,962.267725,3064.381992,9770.718434
2366.127657,148.041188,3217.601092,9400.615463
2366.127979,814.226536,2681.334243,9178.553681
2366.128301,1110.308913,2451.505594,9474.636058
2366.128622,-814.226536,2451.505594,9770.718434
2366.128944,-1184.329507,3370.820191,10510.924376
2366.129266,-962.267725,2911.162892,9844.739029
2366.129588,0.000000,1608.800546,8956.491898
2366.129910,-1480.411884,2604.724693,8734.430116
2366.130232,-2738.761985,3064.381992,8290.306550
2366.130554,-1480.411884,3524.039291,9252.574275
2366.130876,296.082377,2911.162892,8142.265362
2366.131198,-666.185348,2451.505594,7550.100608
2366.131520,-1406.391290,2911.162892,7846.182985
2366.131841,-740.205942,3370.820191,8290.306550
2366.132163,1036.288319,2681.334243,8290.306550
2366.132485,1110.308913,1915.238745,7105.977043
2366.132807,74.020594,1838.629195,9326.594869
2366.133129,-1036.288319,1608.800546,8956.491898
2366.133451,740.205942,612.876398,8216.285956
2366.133773,2442.679609,459.657299,8956.491898
2366.134095,666.185348,459.657299,9030.512492
2366.134417,0.000000,842.705048,10214.842000
2366.134739,2072.576638,459.657299,10584.944971
2366.135060,3182.885551,-612.876398,9992.780217
2366.135382,1406.391290,-842.705048,9844.739029
2366.135704,-962.267725,-995.924147,10584.944971
2366.136026,-148.041188,-1302.362347,10955.047942
2366.136348,666.185348,-2145.067394,9622.677246
2366.136670,-1110.308913,-2068.457845,9474.636058
2366.136992,-1924.535449,-1685.410096,10584.944971
2366.137314,-2516.700203,-2145.067394,10140.821405
2366.137636,-1258.350101,-2911.162892,9992.780217
2366.137958,-1776.494261,-2451.505594,10362.883188
2366.138279,-2516.700203,-1608.800546,10658.965565
2366.138601,-1554.432478,-2374.896044,9548.656652
2366.138923,592.164754,-1455.581446,8290.306550
2366.139245,814.226536,-995.924147,8216.285956
2366.139567,0.000000,-1225.752797,9104.533087
2366.139889,-370.102971,-1378.971896,9844.739029
2366.140211,1184.329507,-1378.971896,9622.677246
2366.140533,370.102971,-1532.190996,10214.842000
2366.140855,-222.061783,-1685.410096,9918.759623
2366.141177,-1036.288319,-2145.067394,8660.409521
2366.141498,-296.082377,-1072.533697,9030.512492
2366.141820,-222.061783,-995.924147,9178.553681
2366.142142,-2146.597232,-1685.410096,8882.471304
2366.142464,-2516.700203,-766.095498,9622.677246
2366.142786,-1332.370696,0.000000,9474.636058
2366.143108,888.247130,383.047749,9252.574275
2366.143430,148.041188,229.828649,9770.718434
2366.143752,-1036.288319,612.876398,9474.636058
2366.144074,666.185348,1072.533697,9474.636058
2366.144395,962.267725,1149.143247,8438.347739
2366.144717,666.185348,1149.143247,9474.636058
2366.145039,-296.082377,1149.143247,9918.759623
2366.145361,-666.185348,995.924147,9844.739029
2366.145683,1406.391290,1149.143247,8660.409521
2366.146005,1406.391290,2374.896044,9844.739029
2366.146327,222.061783,2604.724693,9992.780217
2366.146649,-592.164754,2145.067394,9030.512492
2366.146971,1184.329507,2681.334243,9178.553681
2366.147293,1110.308913,2451.505594,8808.450710
2366.147614,-518.144159,2604.724693,8734.430116
2366.147936,-592.164754,3370.820191,9400.615463
2366.148258,814.226536,2757.943793,8586.388927
2366.148580,0.000000,2451.505594,7624.121203
2366.148902,74.020594,3677.258390,7846.182985
2366.149224,-1702.473667,2604.724693,8290.306550
2366.149546,-444.123565,2757.943793,7920.203579
2366.149868,-518.144159,2451.505594,8586.388927
2366.150190,-1702.473667,3140.991542,9326.594869
2366.150512,-1702.473667,2911.162892,9474.636058
2366.150833,0.000000,2834.553343,9030.512492
2366.151155,1480.411884,3140.991542,8364.327145
2366.151477,222.061783,2298.286494,9474.636058
2366.151799,-666.185348,1608.800546,10140.821405
2366.152121,888.247130,1302.362347,9326.594869
2366.152443,2590.720797,1685.410096,9252.574275
2366.152765,1776.494261,1302.362347,9326.594869
2366.153087,74.020594,1149.143247,9992.780217
2366.153409,0.000000,1149.143247,9548.656652
2366.153731,1258.350101,229.828649,7698.141797
2366.154052,1850.514855,0.000000,8364.327145
2366.154374,-296.082377,-459.657299,8956.491898
2366.154696,-962.267725,-842.705048,9474.636058
2366.155018,296.082377,-689.485948,9326.594869
2366.155340,296.082377,-766.095498,9474.636058
2366.155661,-1184.329507,-1378.971896,9474.636058
2366.155983,-2442.679609,-1915.238745,10066.800811
2366.156305,-1480.411884,-1532.190996,9474.636058
2366.156627,-1332.370696,-2221.676944,9178.553681
2366.156949,-1850.514855,-2374.896044,10140.821405
2366.157271,-2368.659014,-1532.190996,10140.821405
2366.157592,-2220.617826,-1991.848295,9622.677246
2366.157914,-1184.329507,-2528.115143,8956.491898
2366.158236,-1406.391290,-3140.991542,8956.491898
2366.158558,-1850.514855,-1915.238745,10584.944971
2366.158880,-2146.597232,-995.924147,11991.336260
2366.159202,-222.061783,-2145.067394,10436.903782
2366.159523,-666.185348,-2987.772442,8882.471304
2366.159845,-1702.473667,-1762.019645,8216.285956
2366.160167,-1702.473667,-536.266849,10362.883188
2366.160489,148.041188,-536.266849,9326.594869
2366.160811,888.247130,-1762.019645,9400.615463
2366.161133,148.041188,-919.314598,8660.409521
2366.161454,-962.267725,-306.438199,8438.347739
2366.161776,296.082377,-306.438199,8068.244768
2366.162098,1776.494261,0.000000,8956.491898
2366.162420,370.102971,0.000000,9844.739029
2366.162742,-592.164754,1225.752797,10658.965565
2366.163064,1406.391290,536.266849,9474.636058
2366.163385,2516.700203,1378.971896,9178.553681
2366.163707,1554.432478,1762.019645,9252.574275
2366.164029,0.000000,1608.800546,10510.924376
2366.164351,444.123565,1302.362347,10436.903782
2366.164673,2146.597232,1378.971896,8808.450710
2366.164995,444.123565,842.705048,8734.430116
2366.165316,-444.123565,1915.238745,9104.533087
2366.165638,-1554.432478,1608.800546,9178.553681
2366.165960,-222.061783,1685.410096,8438.347739
2366.166282,-370.102971,1991.848295,8956.491898
2366.166604,-1110.308913,2374.896044,9252.574275
2366.166926,-444.123565,2604.724693,9104.533087
2366.167247,666.185348,2757.943793,7920.203579
2366.167569,148.041188,2911.162892,8808.450710
2366.167891,0.000000,2834.553343,8290.306550
2366.168213,148.041188,3140.991542,9178.553681
2366.168535,1258.350101,3524.039291,8364.327145
2366.168857,666.185348,2911.162892,8512.368333
2366.169178,0.000000,2987.772442,8808.450710
2366.169500,-1480.411884,1991.848295,9326.594869
2366.169822,74.020594,2987.772442,8734.430116
2366.170144,222.061783,1915.238745,9030.512492
2366.170466,-1332.370696,2145.067394,9252.574275
2366.170788,-1850.514855,1455.581446,8882.471304
2366.171109,-296.082377,2145.067394,9474.636058
2366.171431,2146.597232,2528.115143,9030.512492
2366.171753,296.082377,1532.190996,10066.800811
2366.172075,-2442.679609,1608.800546,11029.068536
2366.172397,-888.247130,612.876398,9030.512492
2366.172719,518.144159,383.047749,8512.368333
2366.173040,666.185348,229.828649,8734.430116
2366.173362,-1406.391290,-153.219100,9474.636058
2366.173684,-888.247130,0.000000,9178.553681
2366.174006,74.020594,-1532.190996,8438.347739
2366.174328,0.000000,-2221.676944,7994.224174
2366.174650,-1258.350101,-2068.457845,9252.574275
2366.174971,-2516.700203,-1685.410096,9992.780217
2366.175293,-444.123565,-1762.019645,9992.780217
2366.175615,296.082377,-2451.505594,9326.594869
2366.175937,-518.144159,-2221.676944,9844.739029
2366.176259,-222.061783,-1608.800546,11103.089130
2366.176580,-148.041188,-1685.410096,10510.924376
2366.176902,1036.288319,-2681.334243,9474.636058
2366.177224,222.061783,-2145.067394,9548.656652
2366.177546,-518.144159,-1378.971896,9474.636058
2366.177868,0.000000,-1532.190996,9992.780217
2366.178190,222.061783,-2221.676944,9030.512492
2366.178511,-444.123565,-1608.800546,11177.109724
2366.178833,-1110.308913,-1302.362347,9918.759623
2366.179155,592.164754,-689.485948,10214.842000
2366.179477,2368.659014,-919.314598,9178.553681
2366.179799,814.226536,-995.924147,10362.883188
2366.180121,-444.123565,-612.876398,10436.903782
2366.180442,-592.164754,-1072.533697,9474.636058
2366.180764,592.164754,-229.828649,8512.368333
2366.181086,740.205942,0.000000,9178.553681
2366.181408,-222.061783,0.000000,9474.636058
2366.181730,-1406.391290,-153.219100,8956.491898
2366.182052,-888.247130,0.000000,7994.224174
2366.182373,666.185348,153.219100,7550.100608
2366.182695,-1702.473667,612.876398,8290.306550
2366.183017,-814.226536,842.705048,8660.409521
2366.183339,0.000000,1072.533697,8956.491898
2366.183661,-222.061783,1072.533697,8734.430116
2366.183983,-444.123565,995.924147,9474.636058
2366.184304,-1480.411884,1149.143247,10436.903782
2366.184626,0.000000,1302.362347,10732.986159
2366.184948,222.061783,1608.800546,8660.409521
2366.185270,370.102971,1685.410096,9400.615463
2366.185592,0.000000,3217.601092,10584.944971
2366.185914,74.020594,2528.115143,9178.553681
2366.186235,1184.329507,2757.943793,8216.285956
2366.186557,814.226536,3064.381992,8068.244768
2366.186879,0.000000,3294.210641,8660.409521
2366.187201,1036.288319,3447.429741,9548.656652
2366.187523,1776.494261,3600.648841,9992.780217
2366.187845,1184.329507,3064.381992,9844.739029
2366.188166,-962.267725,2911.162892,9104.533087
2366.188488,-518.144159,3217.601092,8734.430116
2366.188810,1110.308913,2681.334243,8882.471304
2366.189132,-296.082377,2145.067394,9178.553681
2366.189454,-1628.453072,1762.019645,9770.718434
2366.189776,-2220.617826,612.876398,7254.018232
2366.190097,-1184.329507,2374.896044,8438.347739
2366.190419,-296.082377,1378.971896,8586.388927
2366.190741,-2442.679609,1608.800546,8956.491898
2366.191063,-2368.659014,842.705048,8660.409521
2366.191385,-666.185348,1378.971896,8660.409521
2366.191707,740.205942,1685.410096,9326.594869
2366.192028,0.000000,842.705048,8882.471304
2366.192350,-1480.411884,76.609550,9400.615463
2366.192672,222.061783,383.047749,9030.512492
2366.192994,1258.350101,-306.438199,9474.636058
2366.193316,962.267725,0.000000,9918.759623
2366.193638,740.205942,-459.657299,10214.842000
2366.193959,222.061783,-919.314598,9474.636058
2366.194281,1110.308913,-919.314598,9252.574275
2366.194603,1110.308913,-1072.533697,9474.636058
2366.194925,148.041188,-995.924147,9992.780217
2366.195247,814.226536,-842.705048,9844.739029
2366.195568,1628.453072,-919.314598,9326.594869
2366.195890,1258.350101,-1225.752797,8808.450710
2366.196212,0.000000,-1532.190996,9326.594869
2366.196534,592.164754,-766.095498,10584.944971
2366.196856,518.144159,-1302.362347,9918.759623
2366.197178,370.102971,-2374.896044,8956.491898
2366.197499,-1554.432478,-1762.019645,9844.739029
2366.197821,-2294.638420,-1838.629195,9696.697840
2366.198143,-962.267725,-1838.629195,10362.883188
2366.198465,-962.267725,-2298.286494,9992.780217
2366.198787,-2368.659014,-2221.676944,10214.842000
2366.199109,-2886.803174,-1762.019645,10955.047942
2366.199430,-1554.432478,-1455.581446,9400.615463
2366.199752,222.061783,-612.876398,9474.636058
2366.200074,-1036.288319,-612.876398,8882.471304
2366.200396,-2886.803174,-766.095498,10288.862594
2366.200718,-2146.597232,-612.876398,9548.656652
2366.201040,-74.020594,-919.314598,8068.244768
2366.201361,0.000000,-306.438199,7328.038826
2366.201683,-1480.411884,383.047749,7772.162391
2366.202005,-1702.473667,-536.266849,8808.450710
2366.202327,1036.288319,306.438199,7698.141797
2366.202649,1998.556043,689.485948,8808.450710
2366.202971,1184.329507,1608.800546,8586.388927
2366.203292,444.123565,1991.848295,10288.862594
2366.203614,1628.453072,1685.410096,9400.615463
2366.203936,3256.906145,919.314598,8660.409521
2366.204258,1480.411884,1302.362347,9474.636058
2366.204580,888.247130,3064.381992,11473.192101
2366.204902,740.205942,2145.067394,10584.944971
2366.205223,1776.494261,995.924147,9178.553681
2366.205545,592.164754,1685.410096,9918.759623
2366.205867,-1184.329507,3140.991542,11177.109724
2366.206189,-1480.411884,2451.505594,10584.944971
2366.206511,444.123565,1991.848295,9696.697840
2366.206833,-296.082377,2145.067394,8734.430116
2366.207154,-2368.659014,2911.162892,8660.409521
2366.207476,-1184.329507,3524.039291,9326.594869
2366.207798,148.041188,3217.601092,8438.347739
2366.208120,-148.041188,3140.991542,9178.553681
2366.208442,-2812.782580,2451.505594,8512.368333
2366.208764,-2442.679609,2374.896044,8216.285956
2366.209085,-518.144159,2834.553343,6587.832884
2366.209407,-1480.411884,1838.629195,7402.059420
2366.209729,-2516.700203,2374.896044,9178.553681
2366.210051,-3034.844362,1685.410096,7402.059420
2366.210373,-592.164754,1455.581446,6587.832884
2366.210695,962.267725,2834.553343,8734.430116
2366.211016,0.000000,2298.286494,8586.388927
2366.211338,222.061783,2068.457845,9030.512492
2366.211660,2960.823768,2068.457845,8512.368333
2366.211982,4145.153275,2681.334243,8808.450710
2366.212304,2812.782580,2298.286494,9918.759623
2366.212626,1332.370696,1455.581446,10362.883188
2366.212947,1850.514855,536.266849,10288.862594
2366.213269,2146.597232,76.609550,8956.491898
2366.213591,666.185348,536.266849,10881.027347
2366.213913,-296.082377,-306.438199,11399.171507
2366.214235,-740.205942,-2221.676944,9474.636058
2366.214557,-444.123565,-2451.505594,9104.533087
2366.214878,-1184.329507,-2298.286494,10658.965565
2366.215200,-2516.700203,-2451.505594,11103.089130
2366.215522,-1776.494261,-2374.896044,10436.903782
2366.215844,222.061783,-2068.457845,9844.739029
2366.216166,814.226536,-2298.286494,9326.594869
2366.216487,-2072.576638,-2451.505594,8290.306550
2366.216809,-1554.432478,-2221.676944,9326.594869
2366.217131,222.061783,-2374.896044,9400.615463
2366.217453,0.000000,-2681.334243,9326.594869
2366.217775,-2072.576638,-2528.115143,10288.862594
2366.218097,-2368.659014,-1532.190996,9474.636058
2366.218418,-296.082377,-1915.238745,9030.512492
2366.218740,0.000000,-2298.286494,8216.285956
2366.219062,-2368.659014,-2604.724693,9104.533087
2366.219384,-2442.679609,-1608.800546,9548.656652
2366.219706,-444.123565,-612.876398,11029.068536
2366.220028,1702.473667,-689.485948,9326.594869
2366.220349,444.123565,-229.828649,8586.388927
2366.220671,-1406.391290,383.047749,9030.512492
2366.220993,222.061783,306.438199,8734.430116
2366.221315,1850.514855,536.266849,8808.450710
2366.221637,1702.473667,766.095498,8586.388927
2366.221959,444.123565,459.657299,8882.471304
2366.222280,-1258.350101,1532.190996,9548.656652
2366.222602,370.102971,1149.143247,9474.636058
2366.222924,1258.350101,536.266849,9770.718434
2366.223246,0.000000,1149.143247,9030.512492
2366.223568,-222.061783,2068.457845,9622.677246
2366.223890,1110.308913,2298.286494,10066.800811
2366.224211,1184.329507,1608.800546,9104.533087
2366.224533,-1184.329507,1608.800546,9104.533087
2366.224855,-962.267725,2298.286494,8882.471304
2366.225177,-1406.391290,2681.334243,9104.533087
2366.225499,370.102971,1915.238745,8660.409521
2366.225821,-1628.453072,1762.019645,10288.862594
2366.226142,-2442.679609,3064.381992,9474.636058
2366.226464,-1036.288319,2068.457845,8660.409521
2366.226786,-814.226536,2757.943793,7402.059420
2366.227108,-962.267725,2987.772442,8364.327145
2366.227430,-740.205942,4213.525239,8956.491898
2366.227752,296.082377,4366.744339,9326.594869
2366.228073,2590.720797,3753.867940,9178.553681
2366.228395,1406.391290,3294.210641,8142.265362
2366.228717,518.144159,3907.087040,9918.759623
2366.229039,1332.370696,3677.258390,8956.491898
2366.229361,2664.741391,2451.505594,8216.285956
2366.229683,2442.679609,2604.724693,8290.306550
2366.230004,444.123565,2145.067394,9548.656652
2366.230326,518.144159,2374.896044,9992.780217
2366.230648,1036.288319,689.485948,8512.368333
2366.230970,888.247130,536.266849,8438.347739
2366.231292,74.020594,995.924147,8808.450710
2366.231614,-962.267725,459.657299,10288.862594
2366.231935,222.061783,0.000000,10288.862594
2366.232257,444.123565,-536.266849,9474.636058
2366.232579,-222.061783,-459.657299,9326.594869
2366.232901,-1406.391290,-383.047749,8660.409521
2366.233223,-1110.308913,-1378.971896,10214.842000
2366.233545,0.000000,-1532.190996,9030.512492
2366.233866,-1110.308913,-2221.676944,8512.368333
2366.234188,-1480.411884,-1991.848295,9992.780217
2366.234510,-1628.453072,-2451.505594,9918.759623
2366.234832,-740.205942,-2987.772442,9696.697840
2366.235154,-962.267725,-2374.896044,10140.821405
2366.235476,-1406.391290,-2451.505594,10214.842000
2366.235797,-518.144159,-2221.676944,10658.965565
2366.236119,1258.350101,-1838.629195,10510.924376
2366.236441,814.226536,-2298.286494,9474.636058
2366.236763,-444.123565,-2374.896044,9474.636058
2366.237085,-592.164754,-1915.238745,9252.574275
2366.237406,1998.556043,-1072.533697,9400.615463
2366.237728,1036.288319,-1685.410096,9474.636058
2366.238050,0.000000,-1378.971896,9400.615463
2366.238372,-1480.411884,-1915.238745,9178.553681
2366.238694,-592.164754,-1608.800546,8216.285956
2366.239016,1184.329507,-1302.362347,9252.574275
2366.239337,-1702.473667,-1149.143247,9696.697840
2366.239659,-2886.803174,-2298.286494,11325.150913
2366.239981,-2072.576638,-1608.800546,9474.636058
2366.240303,-370.102971,-1302.362347,8512.368333
2366.240625,-1184.329507,-919.314598,9104.533087
2366.240947,-3108.864956,-536.266849,9992.780217
2366.241268,-2368.659014,0.000000,10807.006753
2366.241590,148.041188,459.657299,8882.471304
2366.241912,-592.164754,306.438199,7920.203579
2366.242234,-814.226536,995.924147,7846.182985
2366.242556,-1554.432478,1608.800546,9030.512492
2366.242878,592.164754,1915.238745,8142.265362
2366.243199,1332.370696,1378.971896,8660.409521
2366.243521,222.061783,2451.505594,8956.491898
2366.243843,518.144159,3217.601092,9252.574275
2366.244165,1480.411884,2757.943793,9622.677246
2366.244487,1776.494261,2987.772442,9474.636058
2366.244809,0.000000,2834.553343,9252.574275
2366.245130,1628.453072,3983.696590,10807.006753
2366.245452,2738.761985,3907.087040,9474.636058
2366.245774,2368.659014,2757.943793,8512.368333
2366.246096,1628.453072,3140.991542,9104.533087
2366.246418,0.000000,3983.696590,9474.636058
2366.246740,814.226536,3907.087040,9548.656652
2366.247061,1332.370696,3217.601092,8956.491898
2366.247383,-518.144159,3140.991542,9474.636058
2366.247705,-1480.411884,3064.381992,8142.265362
2366.248027,-1184.329507,2757.943793,7698.141797
2366.248349,-148.041188,2298.286494,7254.018232
2366.248671,-814.226536,2757.943793,8660.409521
2366.248992,-2664.741391,1838.629195,8512.368333
2366.249314,-2516.700203,1455.581446,7994.224174
2366.249636,-1776.494261,766.095498,7105.977043
2366.249958,-1628.453072,1302.362347,7994.224174
2366.250280,-2146.597232,306.438199,9030.512492
2366.250602,-2368.659014,153.219100,9104.533087
2366.250923,-444.123565,0.000000,8438.347739
2366.251245,740.205942,306.438199,8290.306550
2366.251567,592.164754,306.438199,8734.430116
2366.251889,888.247130,689.485948,9844.739029
2366.252211,3330.926739,1302.362347,10658.965565
2366.252533,4219.173869,766.095498,10066.800811
2366.252854,2886.803174,0.000000,10584.944971
2366.253176,2368.659014,153.219100,11399.171507
2366.253498,1776.494261,-1225.752797,10066.800811
2366.253820,1628.453072,-1838.629195,10214.842000
2366.254142,-1628.453072,-2681.334243,11325.150913
2366.254464,-1998.556043,-3294.210641,10436.903782
2366.254786,-1702.473667,-3140.991542,11621.233289
2366.255108,-2294.638420,-3370.820191,9992.780217
2366.255430,-4367.215058,-3370.820191,10510.924376
2366.255752,-4663.297435,-3370.820191,8438.347739
2366.256074,-2886.803174,-3677.258390,7772.162391
2366.256396,0.000000,-1532.190996,8290.306550
2366.256718,-1702.473667,-1685.410096,8586.388927
2366.257040,-2146.597232,-1532.190996,8808.450710
2366.257362,-1184.329507,-2298.286494,7254.018232
2366.257684,0.000000,-1149.143247,7846.182985
2366.258006,222.061783,-1838.629195,8364.327145
2366.258328,-962.267725,-1838.629195,7920.203579
2366.258650,-888.247130,-2221.676944,8660.409521
2366.258972,-518.144159,-1225.752797,9622.677246
2366.259294,0.000000,-1455.581446,10510.924376
2366.259616,-740.205942,-1838.629195,10362.883188
2366.259938,-1924.535449,-1149.143247,9844.739029
2366.260260,518.144159,306.438199,11399.171507
2366.260582,2368.659014,229.828649,11251.130318
2366.260904,2664.741391,995.924147,10362.883188
2366.261226,1480.411884,1532.190996,9992.780217
2366.261548,2220.617826,2681.334243,9622.677246
2366.261870,2738.761985,2298.286494,8734.430116
2366.262192,1628.453072,1915.238745,7772.162391
2366.262514,962.267725,2757.943793,9400.615463
2366.262836,222.061783,3907.087040,8882.471304
2366.263158,814.226536,2451.505594,8364.327145
2366.263480,222.061783,1378.971896,8660.409521
2366.263802,-1776.494261,2145.067394,8586.388927
2366.264124,-1554.432478,2298.286494,8882.471304
2366.264446,-740.205942,2911.162892,9770.718434
2366.264768,0.000000,1685.410096,9548.656652
2366.265090,-1702.473667,2604.724693,8586.388927
2366.265412,-1480.411884,2834.553343,8512.368333
2366.265734,-148.041188,3907.087040,8068.244768
2366.266056,0.000000,3140.991542,7846.182985
2366.266378,-222.061783,3830.477490,9918.759623
2366.266700,-1258.350101,4519.963438,9474.636058
2366.267022,0.000000,3524.039291,7105.977043
2366.267344,1110.308913,3753.867940,7476.080014
2366.267666,74.020594,4136.915689,8438.347739
2366.267988,-962.267725,3677.258390,9622.677246
2366.268310,296.082377,2834.553343,9252.574275
2366.268632,1776.494261,2528.115143,8512.368333
2366.268954,888.247130,2374.896044,8882.471304
2366.269276,-962.267725,1762.019645,9844.739029
2366.269598,-962.267725,1149.143247,11251.130318
2366.269920,740.205942,919.314598,9178.553681
2366.270242,962.267725,459.657299,9030.512492
2366.270564,0.000000,459.657299,8956.491898
2366.270886,-740.205942,306.438199,8956.491898
2366.271208,222.061783,0.000000,8586.388927
2366.271530,888.247130,-536.266849,8364.327145
2366.271852,-296.082377,-1302.362347,8956.491898
2366.272174,-370.102971,-919.314598,9400.615463
2366.272496,666.185348,-1991.848295,9548.656652
2366.272818,444.123565,-1685.410096,8808.450710
2366.273140,-1480.411884,-2451.505594,9992.780217
2366.273462,-1184.329507,-2298.286494,11325.150913
2366.273784,-296.082377,-2834.553343,10288.862594
2366.274106,518.144159,-3217.601092,9474.636058
2366.274428,-1332.370696,-3217.601092,10881.027347
2366.274750,-2368.659014,-2757.943793,11029.068536
2366.275072,-1998.556043,-3294.210641,10584.944971
2366.275394,-740.205942,-3600.648841,8364.327145
2366.275716,-1110.308913,-2987.772442,9326.594869
2366.276038,-1998.556043,-1991.848295,10658.965565
2366.276360,-1850.514855,-2068.457845,9918.759623
2366.276682,2072.576638,-1685.410096,8660.409521
2366.277004,296.082377,-2911.162892,7624.121203
2366.277326,-1184.329507,-1608.800546,8364.327145
2366.277648,-1406.391290,-1838.629195,8660.409521
2366.277970,592.164754,-1608.800546,8512.368333
2366.278292,1258.350101,-1072.533697,9696.697840
2366.278614,-222.061783,-1072.533697,9696.697840
2366.278936,-1480.411884,-1838.629195,9622.677246
2366.279258,0.000000,-1149.143247,8808.450710
2366.279580,1332.370696,-306.438199,10140.821405
2366.279902,370.102971,229.828649,10362.883188
2366.280224,-1258.350101,459.657299,10658.965565
2366.280546,1628.453072,1302.362347,9992.780217
2366.280868,3256.906145,1455.581446,9178.553681
2366.281190,2738.761985,2681.334243,8660.409521
2366.281512,1776.494261,2757.943793,10214.842000
2366.281834,2220.617826,3140.991542,9918.759623
2366.282156,2146.597232,2298.286494,9326.594869
2366.282477,0.000000,2528.115143,9178.553681
2366.282799,-962.267725,2298.286494,8882.471304
2366.283121,-1036.288319,3370.820191,8882.471304
2366.283443,0.000000,3140.991542,7994.224174
2366.283765,-1184.329507,2221.676944,9400.615463
2366.284087,-2886.803174,2451.505594,9178.553681
2366.284409,-1998.556043,3064.381992,8290.306550
2366.284731,-296.082377,3370.820191,8216.285956
2366.285053,-814.226536,3830.477490,8808.450710
2366.285375,-1850.514855,3830.477490,9178.553681
2366.285697,-592.164754,4060.306139,8290.306550
2366.286019,962.267725,4826.401637,7402.059420
2366.286341,1258.350101,3753.867940,6883.915261
2366.286663,-740.205942,3140.991542,7772.162391
2366.286985,-1332.370696,3294.210641,9104.533087
2366.287307,0.000000,2757.943793,9400.615463
2366.287629,1332.370696,2757.943793,10066.800811
2366.287951,-296.082377,2298.286494,10288.862594
2366.288273,-1702.473667,2604.724693,10436.903782
2366.288595,0.000000,2145.067394,9178.553681
2366.288917,1924.535449,1149.143247,8882.471304
2366.289239,1110.308913,2298.286494,9622.677246
2366.289561,-444.123565,1838.629195,10140.821405
2366.289883,-518.144159,1302.362347,10066.800811
2366.290205,888.247130,306.438199,7920.203579
2366.290527,148.041188,0.000000,7550.100608
2366.290849,-222.061783,459.657299,8438.347739
2366.291171,-962.267725,-383.047749,9622.677246
2366.291493,0.000000,-1302.362347,9104.533087
2366.291815,0.000000,-2068.457845,9400.615463
2366.292137,-1554.432478,-2451.505594,8882.471304
2366.292459,-1480.411884,-2451.505594,9178.553681
2366.292781,1110.308913,-2681.334243,9696.697840
2366.293103,1998.556043,-2145.067394,10214.842000
2366.293425,592.164754,-2298.286494,10288.862594
2366.293747,-444.123565,-2451.505594,9918.759623
2366.294069,74.020594,-2298.286494,9770.718434
2366.294391,-444.123565,-3064.381992,9622.677246
2366.294713,-1406.391290,-2911.162892,11029.068536
2366.295035,-2442.679609,-3140.991542,10214.842000
2366.295357,-1036.288319,-2987.772442,9622.677246
2366.295679,148.041188,-3140.991542,9992.780217
2366.296001,-1184.329507,-3140.991542,9770.718434
2366.296323,-2590.720797,-3140.991542,10807.006753
2366.296645,-1110.308913,-2451.505594,10584.944971
2366.296967,1258.350101,-2145.067394,10140.821405
2366.297289,1628.453072,-1378.971896,10140.821405
2366.297611,-518.144159,-1149.143247,11029.068536
2366.297933,-296.082377,-612.876398,10214.842000
2366.298255,518.144159,-995.924147,9548.656652
2366.298577,1480.411884,-536.266849,7994.224174
2366.298899,740.205942,-383.047749,7846.182985
2366.299221,-1628.453072,229.828649,7624.121203
2366.299543,-444.123565,76.609550,7624.121203
2366.299865,444.123565,536.266849,7846.182985
2366.300187,-296.082377,459.657299,7402.059420
2366.300509,-1776.494261,153.219100,9326.594869
2366.300831,-1850.514855,689.485948,10955.047942
2366.301153,-1110.308913,459.657299,10066.800811
2366.301475,-2146.597232,0.000000,9252.574275
2366.301797,-2516.700203,1225.752797,9918.759623
2366.302119,-1184.329507,1685.410096,9326.594869
2366.302441,370.102971,2298.286494,9252.574275
2366.302763,962.267725,2604.724693,9178.553681
2366.303085,370.102971,3064.381992,9400.615463
2366.303407,1480.411884,4290.134789,10362.883188
2366.303729,1776.494261,4366.744339,8660.409521
2366.304051,1998.556043,4213.525239,9030.512492
2366.304373,1332.370696,4903.011187,9326.594869
2366.304695,2146.597232,5515.887586,9252.574275
2366.305017,3849.070898,5132.839837,9104.533087
2366.305339,2368.659014,4136.915689,8734.430116
2366.305661,296.082377,3370.820191,9326.594869
2366.305983,-962.267725,3370.820191,9844.739029
2366.306305,-1184.329507,3600.648841,9548.656652
2366.306627,-1258.350101,2298.286494,8734.430116
2366.306949,-3478.967927,2221.676944,8290.306550
2366.307271,-4959.379811,2604.724693,8512.368333
2366.307593,-4737.318029,2451.505594,8142.265362
2366.307915,-3034.844362,1762.019645,7698.141797
2366.308237,-2590.720797,2068.457845,7402.059420
2366.308559,-3552.988522,2145.067394,7179.997637
2366.308881,-1776.494261,2834.553343,8068.244768
2366.309203,0.000000,2068.457845,8364.327145
2366.309525,592.164754,2298.286494,8364.327145
2366.309847,370.102971,1532.190996,9474.636058
2366.310169,592.164754,1532.190996,10584.944971
2366.310491,2220.617826,536.266849,10584.944971
2366.310813,1702.473667,-306.438199,9474.636058
2366.311135,1036.288319,0.000000,10732.986159
2366.311457,1998.556043,153.219100,10066.800811
2366.311779,2294.638420,-842.705048,10140.821405
2366.312101,3182.885551,-2145.067394,10066.800811
2366.312423,814.226536,-2068.457845,9474.636058
2366.312745,1332.370696,-1072.533697,9844.739029
2366.313067,2368.659014,-1302.362347,10436.903782
2366.313389,2220.617826,-1991.848295,10510.924376
2366.313711,0.000000,-2298.286494,10066.800811
2366.314033,-740.205942,-2987.772442,8882.471304
2366.314355,-370.102971,-2068.457845,8808.450710
2366.314677,-740.205942,-2834.553343,8882.471304
2366.314999,-2516.700203,-3677.258390,9844.739029
2366.315321,-3627.009116,-4366.744339,9992.780217
2366.315643,-2368.659014,-4290.134789,9030.512492
2366.315965,-1850.514855,-4519.963438,9844.739029
2366.316287,-2960.823768,-4136.915689,11991.336260
2366.316609,-3775.050304,-3294.210641,11103.089130
2366.316931,-1998.556043,-3524.039291,10214.842000
2366.317253,1258.350101,-2681.334243,8660.409521
2366.317575,1702.473667,-1915.238745,9474.636058
2366.317897,222.061783,-689.485948,9622.677246
2366.318219,1036.288319,-153.219100,11399.171507
2366.318541,2294.638420,-383.047749,8734.430116
2366.318863,2368.659014,-766.095498,7402.059420
2366.319185,1406.391290,383.047749,8808.450710
2366.319507,740.205942,842.705048,8216.285956
2366.319829,1258.350101,0.000000,8512.368333
2366.320151,592.164754,229.828649,8512.368333
2366.320473,-592.164754,842.705048,8660.409521
2366.320795,-592.164754,1072.533697,9548.656652
2366.321117,-74.020594,1838.629195,8586.388927
2366.321439,1258.350101,1302.362347,9696.697840
2366.321761,-592.164754,1762.019645,9548.656652
2366.322083,-1628.453072,1762.019645,10436.903782
2366.322405,222.061783,2298.286494,9696.697840
2366.322727,-222.061783,1455.581446,8586.388927
2366.323049,-1036.288319,2298.286494,9178.553681
2366.323371,-1406.391290,4136.915689,10362.883188
2366.323693,-444.123565,3370.820191,10214.842000
2366.324015,1480.411884,2987.772442,9104.533087
2366.324337,370.102971,3217.601092,8364.327145
2366.324659,-1184.329507,3907.087040,8438.347739
2366.324980,-1332.370696,4136.915689,9030.512492
2366.325302,814.226536,3830.477490,9548.656652
2366.325624,1036.288319,3907.087040,9474.636058
2366.325946,-888.247130,3983.696590,9696.697840
2366.326268,-1850.514855,4060.306139,8586.388927
2366.326590,0.000000,3600.648841,7476.080014
2366.326912,74.020594,3600.648841,7402.059420
2366.327234,-814.226536,3217.601092,7772.162391
2366.327556,-2516.700203,2604.724693,8734.430116
2366.327878,-1480.411884,2604.724693,8216.285956
2366.328200,814.226536,2298.286494,7550.100608
2366.328522,370.102971,2528.115143,8438.347739
2366.328844,148.041188,2681.334243,8734.430116
2366.329166,962.267725,2911.162892,9178.553681
2366.329488,3330.926739,2451.505594,8438.347739
2366.329810,2442.679609,1532.190996,8216.285956
2366.330132,814.226536,459.657299,9918.759623
2366.330454,666.185348,919.314598,10658.965565
2366.330776,1702.473667,-766.095498,9474.636058
2366.331098,592.164754,-1838.629195,9622.677246
2366.331420,-740.205942,-1149.143247,10807.006753
2366.331742,-1332.370696,-1608.800546,11103.089130
2366.332064,-1406.391290,-2834.553343,9992.780217
2366.332386,-1776.494261,-3830.477490,9474.636058
2366.332708,-2516.700203,-3600.648841,9622.677246
2366.333030,-1776.494261,-2374.896044,11029.068536
2366.333352,518.144159,-2374.896044,10436.903782
2366.333674,0.000000,-2911.162892,9844.739029
2366.333996,-666.185348,-3447.429741,8734.430116
2366.334318,-1036.288319,-2834.553343,9622.677246
2366.334640,740.205942,-2451.505594,9252.574275
2366.334962,1480.411884,-2298.286494,9770.718434
2366.335284,0.000000,-2451.505594,10362.883188
2366.335606,-1480.411884,-2451.505594,10658.965565
2366.335928,-1924.535449,-3140.991542,9474.636058
2366.336250,-370.102971,-3370.820191,9474.636058
2366.336572,-370.102971,-2987.772442,9030.512492
2366.336894,-1924.535449,-2604.724693,10214.842000
2366.337216,-1258.350101,-1991.848295,11473.192101
2366.337538,-444.123565,-2374.896044,10214.842000
2366.337860,-296.082377,-2374.896044,9030.512492
2366.338182,-1332.370696,-1149.143247,8586.388927
2366.338504,-1332.370696,0.000000,9548.656652
2366.338826,740.205942,-229.828649,8808.450710
2366.339148,1850.514855,0.000000,6883.915261
2366.339470,1998.556043,1302.362347,7624.121203
2366.339792,0.000000,2221.676944,8438.347739
2366.340114,74.020594,1532.190996,8882.471304
2366.340436,1924.535449,1149.143247,8290.306550
2366.340758,1776.494261,842.705048,7254.018232
2366.341080,518.144159,2145.067394,10140.821405
2366.341402,444.123565,1915.238745,11769.274478
2366.341724,-296.082377,1378.971896,11251.130318
2366.342046,-740.205942,995.924147,9918.759623
2366.342368,-2664.741391,766.095498,8438.347739
2366.342690,-1776.494261,2681.334243,10584.944971
2366.343012,-148.041188,2528.115143,10584.944971
2366.343334,-814.226536,2451.505594,10436.903782
2366.343656,-2146.597232,2681.334243,9326.594869
2366.343978,-1628.453072,3907.087040,8216.285956
2366.344300,-592.164754,4903.011187,7994.224174
2366.344622,814.226536,4979.620737,7772.162391
2366.344944,-148.041188,5132.839837,8882.471304
2366.345266,518.144159,5975.544884,8734.430116
2366.345588,1850.514855,6052.154434,8068.244768
2366.345910,2220.617826,4826.401637,7624.121203
2366.346232,1110.308913,4596.572988,7031.956449
2366.346554,1480.411884,4136.915689,7920.203579
2366.346876,1998.556043,4749.792088,8734.430116
2366.347198,1480.411884,4213.525239,9326.594869
2366.347520,1184.329507,3140.991542,9474.636058
2366.347842,-148.041188,2298.286494,7476.080014
2366.348164,0.000000,2528.115143,7031.956449
2366.348486,0.000000,1455.581446,7254.018232
2366.348808,-1258.350101,2528.115143,9474.636058
2366.349130,-592.164754,1532.190996,9474.636058
2366.349452,-814.226536,229.828649,8364.327145
2366.349774,-1480.411884,0.000000,8068.244768
2366.350096,-2738.761985,-766.095498,8068.244768
2366.350418,-2738.761985,-919.314598,9474.636058
2366.350740,-1332.370696,-1149.143247,10732.986159
2366.351062,-1480.411884,-2221.676944,10881.027347
2366.351384,-2146.597232,-2681.334243,9548.656652
2366.351706,-2072.576638,-3677.258390,9770.718434
2366.352028,-370.102971,-3064.381992,10584.944971
2366.352350,222.061783,-2987.772442,11547.212695
2366.352672,222.061783,-3217.601092,12139.377449
2366.352994,370.102971,-3217.601092,11325.150913
2366.353316,2220.617826,-2757.943793,10510.924376
2366.353638,2812.782580,-2221.676944,10807.006753
2366.353960,2146.597232,-2451.505594,10510.924376
2366.354282,740.205942,-2604.724693,11251.130318
2366.354604,148.041188,-2604.724693,10658.965565
2366.354926,444.123565,-2145.067394,10288.862594
2366.355248,814.226536,-2221.676944,9178.553681
2366.355570,-1184.329507,-2604.724693,7624.121203
2366.355892,-2664.741391,-2757.943793,7846.182985
2366.356214,-2220.617826,-2221.676944,8142.265362
2366.356536,-518.144159,-1991.848295,8660.409521
2366.356858,-962.267725,-1608.800546,8734.430116
2366.357180,-2738.761985,-1915.238745,8882.471304
2366.357502,-1924.535449,-995.924147,9548.656652
2366.357824,-518.144159,-842.705048,8142.265362
2366.358146,296.082377,-689.485948,7846.182985
2366.358467,-814.226536,306.438199,8882.471304
2366.358789,0.000000,612.876398,9400.615463
2366.359111,888.247130,0.000000,9474.636058
2366.359433,666.185348,536.266849,8660.409521
2366.359755,148.041188,459.657299,9548.656652
2366.360077,518.144159,1685.410096,10362.883188
2366.360399,1332.370696,1455.581446,8956.491898
2366.360721,1998.556043,1072.533697,9030.512492
2366.361043,0.000000,2604.724693,9474.636058
2366.361365,-370.102971,2757.943793,10658.965565
2366.361687,1110.308913,2681.334243,9400.615463
2366.362009,1628.453072,2374.896044,8660.409521
2366.362331,74.020594,2987.772442,9104.533087
2366.362653,-666.185348,3524.039291,9844.739029
2366.362975,814.226536,3677.258390,10658.965565
2366.363297,1184.329507,3447.429741,8512.368333
2366.363619,-666.185348,3753.867940,9474.636058
2366.363941,-888.247130,4136.915689,9326.594869
2366.364263,-296.082377,3830.477490,7920.203579
2366.364585,1702.473667,3830.477490,7920.203579
2366.364907,962.267725,4519.963438,9252.574275
2366.365229,-1184.329507,3983.696590,9400.615463
2366.365551,-1036.288319,3370.820191,8068.244768
2366.365873,814.226536,3064.381992,7328.038826
2366.366195,518.144159,2987.772442,7920.203579
2366.366517,-1332.370696,2604.724693,8882.471304
2366.366839,-1776.494261,2145.067394,9326.594869
2366.367161,296.082377,1762.019645,8364.327145
2366.367483,-148.041188,1532.190996,8068.244768
2366.367805,-296.082377,919.314598,8364.327145
2366.368127,-1554.432478,1072.533697,8586.388927
2366.368449,-666.185348,842.705048,9622.677246
2366.368771,666.185348,153.219100,9252.574275
2366.369093,-592.164754,0.000000,8660.409521
2366.369415,-1406.391290,0.000000,10510.924376
2366.369737,-740.205942,306.438199,8808.450710
2366.370059,666.185348,-1378.971896,9474.636058
2366.370381,0.000000,-1378.971896,9918.759623
2366.370703,0.000000,-919.314598,11473.192101
2366.371025,1332.370696,-536.266849,12287.418637
2366.371347,2368.659014,-1455.581446,9770.718434
2366.371669,666.185348,-2374.896044,9030.512492
2366.371991,-444.123565,-1915.238745,9474.636058
2366.372313,-592.164754,-1762.019645,9992.780217
2366.372635,888.247130,-2068.457845,9548.656652
2366.372957,-296.082377,-3140.991542,10510.924376
2366.373279,-2294.638420,-2757.943793,10881.027347
2366.373601,-1924.535449,-2451.505594,10807.006753
2366.373923,-74.020594,-2681.334243,9548.656652
2366.374244,148.041188,-2681.334243,9030.512492
2366.374566,-1332.370696,-2757.943793,10214.842000
2366.374888,-1110.308913,-1838.629195,9474.636058
2366.375210,-814.226536,-2374.896044,7846.182985
2366.375532,-518.144159,-1915.238745,8364.327145
2366.375854,-1850.514855,-1685.410096,8660.409521
2366.376176,-3849.070898,-1762.019645,9918.759623
2366.376498,-1480.411884,-1762.019645,9030.512492
2366.376820,0.000000,-1991.848295,8512.368333
2366.377142,-962.267725,-229.828649,9770.718434
2366.377464,-1998.556043,-536.266849,9622.677246
2366.377786,-1480.411884,-383.047749,9104.533087
2366.378108,1554.432478,76.609550,9104.533087
2366.378430,74.020594,766.095498,9326.594869
2366.378752,-814.226536,842.705048,9474.636058
2366.379074,1406.391290,995.924147,10140.821405
2366.379396,1998.556043,1455.581446,9770.718434
2366.379718,2220.617826,1225.752797,10066.800811
2366.380040,962.267725,1532.190996,9104.533087
2366.380362,1850.514855,2528.115143,9770.718434
2366.380684,2516.700203,1915.238745,8290.306550
2366.381006,2072.576638,1915.238745,9474.636058
2366.381328,666.185348,2451.505594,10362.883188
2366.381650,370.102971,2911.162892,9474.636058
2366.381972,1702.473667,3753.867940,10436.903782
2366.382294,1110.308913,2604.724693,8734.430116
2366.382616,-444.123565,2528.115143,8438.347739
2366.382938,-1554.432478,3140.991542,8882.471304
2366.383260,-962.267725,3677.258390,8660.409521
2366.383582,296.082377,3140.991542,8438.347739
2366.383904,-148.041188,2374.896044,8364.327145
2366.384226,-1998.556043,3524.039291,8734.430116
2366.384548,-1702.473667,3370.820191,8216.285956
2366.384870,0.000000,2681.334243,8956.491898
2366.385192,74.020594,3140.991542,8956.491898
2366.385514,-1110.308913,3217.601092,8216.285956
2366.385836,-444.123565,4213.525239,8660.409521
2366.386158,1332.370696,2374.896044,8956.491898
2366.386480,962.267725,2451.505594,8290.306550
2366.386802,0.000000,2604.724693,8438.347739
2366.387124,-740.205942,2451.505594,9474.636058
2366.387446,888.247130,2145.067394,8808.450710
2366.387768,1628.453072,1149.143247,7624.121203
2366.388090,296.082377,995.924147,9178.553681
2366.388412,-1480.411884,995.924147,8956.491898
2366.388734,-1628.453072,-153.219100,8882.471304
2366.389056,-1110.308913,-919.314598,8290.306550
2366.389378,-1998.556043,-766.095498,9474.636058
2366.389700,-1702.473667,-306.438199,10288.862594
2366.390022,-592.164754,-459.657299,10288.862594
2366.390343,222.061783,-1072.533697,9400.615463
2366.390665,-888.247130,-2451.505594,8808.450710
2366.390987,-1850.514855,-1302.362347,8956.491898
2366.391309,0.000000,-1072.533697,11103.089130
2366.391631,1332.370696,-1608.800546,10362.883188
2366.391953,-592.164754,-2451.505594,10288.862594
2366.392275,-888.247130,-2451.505594,10510.924376
2366.392597,0.000000,-2451.505594,10140.821405
2366.392919,1480.411884,-2451.505594,9548.656652
2366.393241,-148.041188,-3140.991542,10658.965565
2366.393563,-888.247130,-2987.772442,9992.780217
2366.393885,-1184.329507,-3064.381992,10214.842000
2366.394207,962.267725,-2757.943793,9844.739029
2366.394529,370.102971,-3294.210641,9326.594869
2366.394851,-1036.288319,-3294.210641,8660.409521
2366.395173,-1554.432478,-2451.505594,10955.047942
2366.395495,-296.082377,-1225.752797,9178.553681
2366.395817,-296.082377,-3447.429741,8586.388927
2366.396139,-592.164754,-2374.896044,7624.121203
2366.396461,-1480.411884,-1991.848295,8512.368333
2366.396783,-222.061783,-2068.457845,9252.574275
2366.397105,1184.329507,-2604.724693,9252.574275
2366.397427,1110.308913,-2221.676944,9696.697840
2366.397749,1036.288319,-459.657299,10658.965565
2366.398071,1628.453072,-1685.410096,9400.615463
2366.398393,3552.988522,-689.485948,11325.150913
2366.398715,3478.967927,0.000000,10214.842000
2366.399037,2368.659014,229.828649,10584.944971
2366.399359,2960.823768,459.657299,10510.924376
2366.399681,4737.318029,76.609550,8364.327145
2366.400003,3552.988522,229.828649,8364.327145
2366.400325,3108.864956,1838.629195,8734.430116
2366.400647,1480.411884,919.314598,8512.368333
2366.400969,3552.988522,383.047749,6809.894666
2366.401291,2738.761985,536.266849,6735.874072
2366.401613,1036.288319,1225.752797,8364.327145
2366.401935,666.185348,1608.800546,9400.615463
2366.402257,2146.597232,459.657299,7179.997637
2366.402579,3182.885551,1225.752797,8734.430116
2366.402901,1480.411884,1378.971896,8142.265362
2366.403223,888.247130,842.705048,9178.553681
2366.403545,1628.453072,689.485948,9548.656652
2366.403867,2368.659014,919.314598,9474.636058
2366.404189,740.205942,76.609550,10288.862594
2366.404511,-296.082377,-459.657299,10732.986159
2366.404833,444.123565,153.219100,9104.533087
2366.405155,1184.329507,0.000000,10066.800811
2366.405477,148.041188,0.000000,10658.965565
2366.405799,-1036.288319,0.000000,11843.295072
2366.406121,370.102971,612.876398,10955.047942
2366.406442,3701.029710,612.876398,7328.038826
2366.406764,3182.885551,306.438199,7254.018232
2366.407086,2072.576638,1838.629195,8364.327145
2366.407408,2294.638420,689.485948,9104.533087
2366.407730,3478.967927,-536.266849,7846.182985
2366.408052,2960.823768,-306.438199,7402.059420
2366.408374,962.267725,-306.438199,8512.368333
2366.408696,74.020594,-612.876398,10066.800811
2366.409018,1554.432478,-1991.848295,8882.471304
2366.409340,2294.638420,-2604.724693,9104.533087
2366.409662,-148.041188,-1608.800546,9696.697840
2366.409984,-222.061783,-1915.238745,9770.718434
2366.410306,2590.720797,-2604.724693,9178.553681
2366.410628,4515.256246,-2068.457845,8512.368333
2366.410950,3330.926739,-2528.115143,8216.285956
2366.411272,1924.535449,-1915.238745,9696.697840
2366.411594,2664.741391,-2451.505594,9844.739029
2366.411916,3478.967927,-4060.306139,8290.306550
2366.412238,1184.329507,-4443.353888,8216.285956
2366.412560,-888.247130,-3524.039291,9696.697840
2366.412882,0.000000,-4443.353888,9400.615463
2366.413204,1776.494261,-4903.011187,9770.718434
2366.413526,814.226536,-4290.134789,11695.253884
2366.413848,148.041188,-4290.134789,10436.903782
2366.414170,1480.411884,-3983.696590,10362.883188
2366.414492,3627.009116,-3677.258390,11029.068536
2366.414814,3849.070898,-4136.915689,9326.594869
2366.415136,4441.235652,-3370.820191,8956.491898
2366.415458,4071.132681,-2911.162892,9622.677246
2366.415780,5107.421000,-3064.381992,9844.739029
2366.416102,4811.338623,-3983.696590,9030.512492
2366.416424,3701.029710,-3907.087040,10214.842000
2366.416746,1554.432478,-3064.381992,11621.233289
2366.417068,1110.308913,-3064.381992,10881.027347
2366.417390,2886.803174,-3140.991542,9696.697840
2366.417712,2516.700203,-2987.772442,8808.450710
2366.418034,74.020594,-2757.943793,9474.636058
2366.418356,-296.082377,-2374.896044,10066.800811
2366.418678,1924.535449,-2221.676944,8660.409521
2366.419000,1406.391290,-2221.676944,7698.141797
2366.419322,-296.082377,-1225.752797,9252.574275
2366.419644,-222.061783,-1149.143247,8512.368333
2366.419966,2294.638420,-1149.143247,7105.977043
2366.420288,2664.741391,-1991.848295,6957.935855
2366.420610,1036.288319,-1532.190996,7994.224174
2366.420932,-666.185348,-1072.533697,9252.574275
2366.421254,444.123565,-1072.533697,8956.491898
2366.421576,1628.453072,-2451.505594,9178.553681
2366.421898,222.061783,-1378.971896,10584.944971
2366.422219,-814.226536,-153.219100,12287.418637
2366.422541,1406.391290,612.876398,11251.130318
2366.422863,2812.782580,383.047749,9030.512492
2366.423185,3330.926739,383.047749,8586.388927
2366.423507,3034.844362,1608.800546,9548.656652
2366.423829,3997.112087,2374.896044,8808.450710
2366.424151,4737.318029,1455.581446,7846.182985
2366.424473,4441.235652,842.705048,8438.347739
2366.424795,2590.720797,1378.971896,9252.574275
2366.425117,2590.720797,1225.752797,9252.574275
2366.425439,3034.844362,1225.752797,10140.821405
2366.425761,1406.391290,0.000000,9696.697840
2366.426083,148.041188,306.438199,10732.986159
2366.426405,296.082377,153.219100,9548.656652
2366.426727,2738.761985,383.047749,8808.450710
2366.427049,3182.885551,0.000000,7920.203579
2366.427371,2368.659014,0.000000,7179.997637
2366.427693,2516.700203,306.438199,8216.285956
2366.428015,3478.967927,995.924147,7105.977043
2366.428337,2738.761985,-689.485948,7328.038826
2366.428659,2220.617826,-1225.752797,7698.141797
2366.428981,444.123565,-1455.581446,8734.430116
2366.429303,1110.308913,-1838.629195,9104.533087
2366.429625,1702.473667,-2451.505594,10214.842000
2366.429947,-296.082377,-2911.162892,10140.821405
2366.430269,-518.144159,-2911.162892,10584.944971
2366.430591,1480.411884,-2374.896044,10807.006753
2366.430913,3108.864956,-2451.505594,9400.615463
2366.431235,2442.679609,-2987.772442,10214.842000
2366.431557,2368.659014,-2757.943793,10732.986159
2366.431879,3182.885551,-3064.381992,10436.903782
2366.432201,3849.070898,-3677.258390,8956.491898
2366.432523,2072.576638,-4060.306139,10288.862594
2366.432845,888.247130,-3907.087040,11547.212695
2366.433167,1036.288319,-3907.087040,11621.233289
2366.433489,2220.617826,-4060.306139,10955.047942
2366.433811,2516.700203,-4060.306139,10362.883188
2366.434133,814.226536,-3524.039291,10436.903782
2366.434455,1480.411884,-3064.381992,9696.697840
2366.434777,3552.988522,-2681.334243,9030.512492
2366.435099,2368.659014,-2681.334243,8808.450710
2366.435421,962.267725,-3064.381992,8290.306550
2366.435743,1036.288319,-2604.724693,7698.141797
2366.436065,2220.617826,-2911.162892,6217.729913
2366.436387,1998.556043,-3447.429741,6513.812290
2366.436709,370.102971,-3753.867940,7179.997637
2366.437031,-222.061783,-3907.087040,8216.285956
2366.437353,1110.308913,-3447.429741,8216.285956
2366.437675,1924.535449,-3447.429741,9474.636058
2366.437997,740.205942,-3447.429741,10881.027347
2366.438318,296.082377,-2834.553343,11843.295072
2366.438640,2368.659014,-1915.238745,11991.336260
2366.438962,4219.173869,-1225.752797,11695.253884
2366.439284,3404.947333,-842.705048,10881.027347
2366.439606,2516.700203,383.047749,10436.903782
2366.439928,3701.029710,766.095498,9770.718434
2366.440250,4811.338623,689.485948,8290.306550
2366.440572,3923.091493,689.485948,7920.203579
2366.440894,2442.679609,995.924147,8364.327145
2366.441216,1924.535449,536.266849,8068.244768
2366.441538,2886.803174,0.000000,7105.977043
2366.441860,2220.617826,-842.705048,7698.141797
2366.442182,-518.144159,-1225.752797,8660.409521
2366.442504,-1554.432478,-919.314598,9178.553681
2366.442826,370.102971,-1149.143247,9770.718434
2366.443148,444.123565,-1225.752797,9770.718434
2366.443470,-592.164754,-459.657299,9770.718434
2366.443792,-592.164754,229.828649,10140.821405
2366.444114,1776.494261,1378.971896,9696.697840
2366.444436,2664.741391,995.924147,8216.285956
2366.444758,3034.844362,1838.629195,8068.244768
2366.445080,2294.638420,1991.848295,8660.409521
2366.445402,3404.947333,1915.238745,7624.121203
2366.445724,4293.194464,1762.019645,8068.244768
2366.446046,2516.700203,842.705048,8882.471304
2366.446368,518.144159,766.095498,9252.574275
2366.446690,814.226536,612.876398,9622.677246
2366.447012,1110.308913,0.000000,9844.739029
2366.447334,-740.205942,-1302.362347,10510.924376
2366.447656,-2072.576638,-1225.752797,10658.965565
2366.447978,-1702.473667,-459.657299,11473.192101
2366.448300,-814.226536,-766.095498,10510.924376
2366.448622,-1184.329507,-1608.800546,8956.491898
2366.448944,-1184.329507,-1685.410096,8364.327145
2366.449266,-1776.494261,-842.705048,7846.182985
2366.449588,296.082377,-842.705048,7698.141797
2366.449910,1184.329507,-1378.971896,8216.285956
2366.450232,814.226536,-919.314598,8216.285956
2366.450554,518.144159,-153.219100,9104.533087
2366.450876,2516.700203,153.219100,9400.615463
2366.451198,3552.988522,-1149.143247,9252.574275
2366.451520,2886.803174,-1532.190996,8882.471304
2366.451842,1480.411884,-1378.971896,10807.006753
2366.452164,2146.597232,-1455.581446,9770.718434
2366.452486,3108.864956,-2834.553343,9030.512492
2366.452808,2072.576638,-2757.943793,9104.533087
2366.453130,962.267725,-2757.943793,9104.533087
2366.453452,2368.659014,-3140.991542,7550.100608
2366.453774,4589.276840,-3294.210641,7772.162391
2366.454095,4219.173869,-3600.648841,8142.265362
2366.454417,3849.070898,-3294.210641,8734.430116
2366.454739,4811.338623,-2757.943793,8734.430116
2366.455061,7179.997637,-3217.601092,9252.574275
2366.455383,7105.977043,-3677.258390,9770.718434
2366.455705,5773.606348,-3830.477490,10140.821405
2366.456027,6069.688724,-3753.867940,10510.924376
2366.456349,6587.832884,-3983.696590,10140.821405
2366.456671,5255.462188,-4519.963438,10658.965565
2366.456993,3108.864956,-4749.792088,11325.150913
2366.457315,1184.329507,-4519.963438,11991.336260
2366.457637,1036.288319,-4749.792088,11029.068536
2366.457959,1554.432478,-4903.011187,10955.047942
2366.458281,296.082377,-4366.744339,10658.965565
2366.458603,0.000000,-3600.648841,9770.718434
2366.458925,1184.329507,-3294.210641,9178.553681
2366.459247,3108.864956,-3600.648841,8438.347739
2366.459569,2368.659014,-3370.820191,7772.162391
2366.459891,1332.370696,-2987.772442,8734.430116
2366.460213,2072.576638,-2757.943793,9474.636058
2366.460535,2664.741391,-2681.334243,9252.574275
2366.460857,2294.638420,-2834.553343,10140.821405
2366.461179,444.123565,-2221.676944,10362.883188
2366.461500,518.144159,-2451.505594,10584.944971
2366.461822,2072.576638,-1532.190996,9918.759623
2366.462144,2442.679609,-1225.752797,9770.718434
2366.462466,740.205942,0.000000,9992.780217
2366.462788,444.123565,1149.143247,9474.636058
2366.463110,2442.679609,1608.800546,8586.388927
2366.463432,2368.659014,1378.971896,7328.038826
2366.463754,740.205942,2145.067394,7179.997637
2366.464076,370.102971,2068.457845,7031.956449
2366.464398,1184.329507,1608.800546,6513.812290
2366.464720,740.205942,689.485948,6069.688724
2366.465042,-1702.473667,-306.438199,7624.121203
2366.465364,-3849.070898,76.609550,7994.224174
2366.465686,-2960.823768,-995.924147,9474.636058
2366.466008,-1628.453072,-1225.752797,9548.656652
2366.466330,-2738.761985,-1378.971896,11177.109724
2366.466652,-3478.967927,-766.095498,11843.295072
2366.466974,-1850.514855,76.609550,11843.295072
2366.467296,1776.494261,995.924147,11103.089130
2366.467617,2812.782580,1532.190996,9918.759623
2366.467939,3108.864956,2145.067394,8216.285956
2366.468261,5699.585753,3753.867940,7698.141797
2366.468583,8512.368333,2987.772442,6883.915261
2366.468905,7846.182985,2757.943793,6365.771101
2366.469227,6883.915261,2298.286494,7031.956449
2366.469549,5477.523971,995.924147,7328.038826
2366.469871,4959.379811,0.000000,8364.327145
2366.470193,4145.153275,-1072.533697,10140.821405
2366.470515,370.102971,-2068.457845,11251.130318
2366.470837,-1332.370696,-2834.553343,10658.965565
2366.471159,222.061783,-3294.210641,11251.130318
2366.471481,1258.350101,-3064.381992,10732.986159
2366.471803,370.102971,-2987.772442,10658.965565
2366.472125,962.267725,-2451.505594,10214.842000
2366.472447,4589.276840,-1455.581446,9622.677246
2366.472769,6587.832884,-1378.971896,8216.285956
2366.473091,6809.894666,-1225.752797,7920.203579
2366.473413,5255.462188,-1302.362347,9474.636058
2366.473734,5847.626942,-1762.019645,8882.471304
2366.474056,6735.874072,-2298.286494,9178.553681
2366.474378,5773.606348,-3524.039291,9918.759623
2366.474700,2590.720797,-4060.306139,10807.006753
2366.475022,1998.556043,-4290.134789,10807.006753
2366.475344,3330.926739,-5822.325785,10362.883188
2366.475666,1480.411884,-6435.202183,10658.965565
2366.475988,-1554.432478,-5898.935335,12213.398043
2366.476310,-2442.679609,-5286.058936,11473.192101
2366.476632,148.041188,-5362.668486,8512.368333
2366.476954,1110.308913,-5669.106685,8734.430116
2366.477276,0.000000,-3753.867940,9030.512492
2366.477598,-518.144159,-2911.162892,7920.203579
2366.477920,2590.720797,-3370.820191,6661.853478
2366.478242,2590.720797,-3600.648841,7846.182985
2366.478564,518.144159,-2757.943793,9770.718434
2366.478886,-222.061783,-2374.896044,9992.780217
2366.479208,2368.659014,-2145.067394,10066.800811
2366.479530,3404.947333,-2604.724693,11399.171507
2366.479852,814.226536,-2451.505594,10732.986159
2366.480173,592.164754,-2451.505594,11029.068536
2366.480495,1110.308913,-2145.067394,9622.677246
2366.480817,222.061783,-3064.381992,9326.594869
2366.481139,-1406.391290,-2374.896044,10214.842000
2366.481461,-1258.350101,-1685.410096,9770.718434
2366.481783,-1036.288319,-1915.238745,9178.553681
2366.482105,-296.082377,-1149.143247,7772.162391
2366.482427,370.102971,-1302.362347,7402.059420
2366.482749,-814.226536,-459.657299,7698.141797
2366.483071,-740.205942,689.485948,8586.388927
2366.483393,1406.391290,1225.752797,9030.512492
2366.483715,3256.906145,1072.533697,7920.203579
2366.484037,2442.679609,1378.971896,8290.306550
2366.484359,2368.659014,1838.629195,7846.182985
2366.484681,4367.215058,2451.505594,8438.347739
2366.485003,4441.235652,1378.971896,7550.100608
2366.485325,2738.761985,1072.533697,7846.182985
2366.485647,2146.597232,842.705048,9104.533087
2366.485969,1924.535449,153.219100,10140.821405
2366.486290,3108.864956,-995.924147,10584.944971
2366.486612,2590.720797,-1685.410096,9770.718434
2366.486934,1036.288319,-612.876398,10584.944971
2366.487256,2368.659014,-306.438199,12139.377449
2366.487578,4589.276840,-383.047749,11621.233289
2366.487900,4737.318029,-689.485948,9622.677246
2366.488222,3182.885551,-306.438199,8290.306550
2366.488544,3627.009116,229.828649,8882.471304
2366.488866,5847.626942,229.828649,9030.512492
2366.489188,4589.276840,459.657299,7105.977043
2366.489510,3701.029710,0.000000,8734.430116
2366.489832,2220.617826,-1149.143247,8290.306550
2366.490154,2220.617826,-1838.629195,8290.306550
2366.490476,2590.720797,-2068.457845,9770.718434
2366.490798,1554.432478,-2068.457845,9770.718434
2366.491120,666.185348,-2374.896044,10955.047942
2366.491442,3182.885551,-1838.629195,11177.109724
2366.491764,4071.132681,-2145.067394,9548.656652
2366.492086,2368.659014,-2221.676944,11103.089130
2366.492407,1110.308913,-1302.362347,11991.336260
2366.492729,2294.638420,-1991.848295,11177.109724
2366.493051,2368.659014,-2221.676944,9178.553681
2366.493373,1998.556043,-2221.676944,8290.306550
2366.493695,1184.329507,-2681.334243,7179.997637
2366.494017,-1480.411884,-1378.971896,9400.615463
2366.494339,0.000000,-1685.410096,9252.574275
2366.494661,-2368.659014,-3677.258390,8956.491898
2366.494983,-2886.803174,-2451.505594,9104.533087
2366.495305,-4219.173869,-2834.553343,9474.636058
2366.495627,-3182.885551,-1838.629195,9400.615463
2366.495949,-2738.761985,-2451.505594,10140.821405
2366.496271,-3256.906145,-2681.334243,7254.018232
2366.496593,-2738.761985,-1838.629195,9178.553681
2366.496915,-1850.514855,-842.705048,8734.430116
2366.497237,-1332.370696,-1302.362347,8586.388927
2366.497559,0.000000,-1378.971896,9030.512492
2366.497881,-518.144159,612.876398,9474.636058
2366.498203,1110.308913,612.876398,10214.842000
2366.498524,1628.453072,1072.533697,9548.656652
2366.498846,1258.350101,1149.143247,9696.697840
2366.499168,888.247130,1455.581446,9030.512492
2366.499490,1480.411884,1915.238745,10066.800811
2366.499812,2442.679609,1455.581446,9178.553681
2366.500134,1406.391290,1455.581446,10140.821405
2366.500456,-370.102971,1762.019645,10066.800811
2366.500778,-518.144159,1378.971896,10140.821405
