#time,accel_x,accel_y,accel_z
2269.787171,666.185348,5209.449386,7698.141797
2269.787493,814.226536,4749.792088,7550.100608
2269.787815,1480.411884,4519.963438,7772.162391
2269.788137,296.082377,3294.210641,8364.327145
2269.788459,-1406.391290,2298.286494,9400.615463
2269.788781,-3404.947333,1838.629195,9474.636058
2269.789103,-2072.576638,1149.143247,9844.739029
2269.789424,-1628.453072,1302.362347,10436.903782
2269.789746,-2738.761985,1072.533697,10066.800811
2269.790068,-2812.782580,1072.533697,10436.903782
2269.790390,-1554.432478,1915.238745,9696.697840
2269.790712,222.061783,2221.676944,9770.718434
2269.791034,-148.041188,919.314598,8586.388927
2269.791356,-1480.411884,1762.019645,8438.347739
2269.791678,-370.102971,2604.724693,9030.512492
2269.792000,444.123565,1685.410096,9252.574275
2269.792322,-518.144159,1378.971896,9030.512492
2269.792644,-1480.411884,1225.752797,9548.656652
2269.792965,-2516.700203,1225.752797,9770.718434
2269.793287,-1406.391290,1302.362347,9696.697840
2269.793609,-1628.453072,-76.609550,11177.109724
2269.793931,-3108.864956,1608.800546,11621.233289
2269.794253,-3849.070898,1378.971896,11621.233289
2269.794575,-2886.803174,1915.238745,10658.965565
2269.794897,-2220.617826,2604.724693,10510.924376
2269.795219,-3923.091493,2911.162892,9696.697840
2269.795541,-4589.276840,3294.210641,9178.553681
2269.795863,-3330.926739,3294.210641,9030.512492
2269.796184,-3478.967927,3064.381992,7994.224174
2269.796506,-4071.132681,3217.601092,8438.347739
2269.796828,-5329.482782,3524.039291,7994.224174
2269.797150,-5477.523971,3064.381992,7772.162391
2269.797472,-4737.318029,2987.772442,7476.080014
2269.797794,-5033.400406,3370.820191,7994.224174
2269.798116,-6439.791695,3524.039291,8290.306550
2269.798438,-6143.709319,3600.648841,8216.285956
2269.798760,-4811.338623,3140.991542,8586.388927
2269.799082,-4811.338623,3370.820191,9178.553681
2269.799404,-6217.729913,4060.306139,9326.594869
2269.799725,-5329.482782,4366.744339,9252.574275
2269.800047,-4293.194464,4979.620737,8660.409521
2269.800369,-3552.988522,5439.278036,8142.265362
2269.800691,-3034.844362,6128.763984,8438.347739
2269.801013,-2590.720797,6741.640382,7254.018232
2269.801335,-518.144159,6588.421283,7254.018232
2269.801657,222.061783,6281.983084,7254.018232
2269.801979,-592.164754,5822.325785,8512.368333
2269.802301,-1258.350101,4903.011187,9252.574275
2269.802623,-1258.350101,4136.915689,9622.677246
2269.802945,-1110.308913,2681.334243,11177.109724
2269.803266,-3108.864956,2451.505594,10881.027347
2269.803588,-4219.173869,1915.238745,11621.233289
2269.803910,-2664.741391,1915.238745,11399.171507
2269.804232,-2220.617826,1762.019645,10362.883188
2269.804554,-1480.411884,1915.238745,10288.862594
2269.804876,-1924.535449,2298.286494,10436.903782
2269.805198,-1628.453072,2451.505594,9992.780217
2269.805520,-148.041188,2681.334243,9400.615463
2269.805842,370.102971,3064.381992,8586.388927
2269.806164,222.061783,3064.381992,8216.285956
2269.806485,148.041188,3140.991542,7846.182985
2269.806807,1924.535449,3294.210641,7994.224174
2269.807129,1776.494261,2911.162892,8956.491898
2269.807451,-592.164754,1991.848295,9400.615463
2269.807773,-740.205942,1072.533697,9696.697840
2269.808095,814.226536,766.095498,8956.491898
2269.808417,888.247130,153.219100,8364.327145
2269.808739,-296.082377,0.000000,9104.533087
2269.809061,-2516.700203,-766.095498,9326.594869
2269.809383,-1998.556043,-842.705048,9844.739029
2269.809704,-1332.370696,-1149.143247,9992.780217
2269.810026,-3701.029710,0.000000,10510.924376
2269.810348,-3552.988522,-229.828649,10732.986159
2269.810670,-2738.761985,383.047749,10436.903782
2269.810991,-814.226536,766.095498,10510.924376
2269.811313,-962.267725,1455.581446,9918.759623
2269.811635,-1850.514855,1838.629195,9326.594869
2269.811957,296.082377,1762.019645,8290.306550
2269.812278,814.226536,1608.800546,7624.121203
2269.812600,-962.267725,1149.143247,8512.368333
2269.812922,-2812.782580,306.438199,9474.636058
2269.813244,-4885.359217,-842.705048,9326.594869
2269.813565,-3775.050304,-1225.752797,9252.574275
2269.813887,-5477.523971,-1915.238745,9400.615463
2269.814209,-7698.141797,-1072.533697,10140.821405
2269.814530,-8142.265362,0.000000,10732.986159
2269.814852,-5477.523971,383.047749,10214.842000
2269.815174,-1998.556043,1455.581446,9696.697840
2269.815496,-2146.597232,2451.505594,8290.306550
2269.815817,-1110.308913,3524.039291,8142.265362
2269.816139,888.247130,4519.963438,7846.182985
2269.816461,2664.741391,4979.620737,7698.141797
2269.816783,1702.473667,4903.011187,8068.244768
2269.817104,666.185348,4366.744339,7846.182985
2269.817426,0.000000,3064.381992,7105.977043
2269.817748,740.205942,2451.505594,8364.327145
2269.818070,-444.123565,2221.676944,10362.883188
2269.818391,-1776.494261,1149.143247,10732.986159
2269.818713,-2368.659014,919.314598,9844.739029
2269.819035,-296.082377,383.047749,9030.512492
2269.819357,-1184.329507,919.314598,9992.780217
2269.819678,-2368.659014,1225.752797,9696.697840
2269.820000,-1184.329507,1685.410096,10510.924376
2269.820322,0.000000,2451.505594,8956.491898
2269.820644,888.247130,2451.505594,7994.224174
2269.820965,1776.494261,2757.943793,7994.224174
2269.821287,2368.659014,3600.648841,6735.874072
2269.821609,3330.926739,2987.772442,7402.059420
2269.821930,3404.947333,2298.286494,8808.450710
2269.822252,1850.514855,1838.629195,9548.656652
2269.822574,1776.494261,842.705048,10066.800811
2269.822896,1998.556043,536.266849,10066.800811
2269.823217,2072.576638,306.438199,11177.109724
2269.823539,222.061783,-995.924147,11547.212695
2269.823861,-962.267725,-842.705048,11695.253884
2269.824183,1406.391290,0.000000,11103.089130
2269.824504,1628.453072,459.657299,9326.594869
2269.824826,814.226536,229.828649,8956.491898
2269.825148,148.041188,383.047749,9326.594869
2269.825470,666.185348,689.485948,9104.533087
2269.825791,1702.473667,766.095498,7550.100608
2269.826113,962.267725,459.657299,7105.977043
2269.826435,-518.144159,536.266849,7624.121203
2269.826757,-444.123565,229.828649,7846.182985
2269.827078,1258.350101,-459.657299,8512.368333
2269.827400,962.267725,-919.314598,9252.574275
2269.827722,-1258.350101,-1532.190996,9770.718434
2269.828044,-2590.720797,-2681.334243,10510.924376
2269.828365,-1850.514855,-2528.115143,10436.903782
2269.828687,-2590.720797,-3447.429741,9770.718434
2269.829009,-3627.009116,-3524.039291,10436.903782
2269.829331,-4885.359217,-2834.553343,10362.883188
2269.829652,-3701.029710,-2451.505594,9622.677246
2269.829974,-1480.411884,-1838.629195,9474.636058
2269.830296,-962.267725,-1072.533697,8660.409521
2269.830617,0.000000,153.219100,8882.471304
2269.830939,740.205942,1149.143247,9770.718434
2269.831261,3108.864956,536.266849,9400.615463
2269.831583,2442.679609,229.828649,9474.636058
2269.831904,1036.288319,383.047749,9474.636058
2269.832226,444.123565,0.000000,9474.636058
2269.832548,222.061783,-842.705048,9548.656652
2269.832870,296.082377,-1072.533697,9622.677246
2269.833191,-740.205942,-1378.971896,10510.924376
2269.833513,-1702.473667,-1149.143247,9474.636058
2269.833835,-1036.288319,-1455.581446,8882.471304
2269.834157,-1258.350101,-1149.143247,9252.574275
2269.834478,-2146.597232,-612.876398,9622.677246
2269.834800,-1924.535449,536.266849,9622.677246
2269.835122,-592.164754,995.924147,8660.409521
2269.835444,1110.308913,2145.067394,8586.388927
2269.835765,296.082377,2451.505594,7920.203579
2269.836087,370.102971,2298.286494,8586.388927
2269.836409,2294.638420,2911.162892,9474.636058
2269.836731,2516.700203,3064.381992,9252.574275
2269.837052,1850.514855,2298.286494,9696.697840
2269.837374,444.123565,1762.019645,9252.574275
2269.837696,1110.308913,1455.581446,9030.512492
2269.838018,1406.391290,2298.286494,8956.491898
2269.838339,-444.123565,1762.019645,8734.430116
2269.838661,-740.205942,1378.971896,9474.636058
2269.838983,0.000000,1608.800546,9104.533087
2269.839304,1628.453072,1838.629195,8364.327145
2269.839626,1406.391290,2221.676944,9030.512492
2269.839948,-444.123565,1991.848295,8882.471304
2269.840270,148.041188,1225.752797,9474.636058
2269.840591,1036.288319,1685.410096,8734.430116
2269.840913,222.061783,1915.238745,8142.265362
2269.841235,-1110.308913,1915.238745,8364.327145
2269.841557,-2294.638420,1149.143247,8364.327145
2269.841878,-296.082377,1302.362347,8808.450710
2269.842200,740.205942,1149.143247,8586.388927
2269.842522,-962.267725,919.314598,9030.512492
2269.842844,-2294.638420,153.219100,9474.636058
2269.843165,-1406.391290,-153.219100,10066.800811
2269.843487,74.020594,-459.657299,10066.800811
2269.843809,-1480.411884,-459.657299,9992.780217
2269.844131,-2664.741391,-536.266849,9696.697840
2269.844452,-1184.329507,-306.438199,9622.677246
2269.844774,222.061783,-383.047749,8808.450710
2269.845096,592.164754,-536.266849,9474.636058
2269.845418,-592.164754,-153.219100,9622.677246
2269.845739,-518.144159,-306.438199,9252.574275
2269.846061,888.247130,-536.266849,9104.533087
2269.846383,1258.350101,-842.705048,8808.450710
2269.846704,0.000000,-383.047749,9474.636058
2269.847026,-814.226536,0.000000,8364.327145
2269.847348,-74.020594,-612.876398,8734.430116
2269.847670,592.164754,-536.266849,9178.553681
2269.847991,-592.164754,-995.924147,10066.800811
2269.848313,-740.205942,-1302.362347,9548.656652
2269.848635,-518.144159,-1072.533697,9104.533087
2269.848957,0.000000,-1608.800546,9622.677246
2269.849278,0.000000,-2145.067394,10362.883188
2269.849600,-1332.370696,-1915.238745,9622.677246
2269.849922,-740.205942,-1608.800546,8956.491898
2269.850244,-370.102971,-919.314598,9326.594869
2269.850565,-518.144159,-1149.143247,9992.780217
2269.850887,-222.061783,-1149.143247,10881.027347
2269.851209,666.185348,-306.438199,9696.697840
2269.851531,2220.617826,229.828649,9326.594869
2269.851852,1110.308913,-153.219100,9548.656652
2269.852174,-222.061783,0.000000,9548.656652
2269.852496,518.144159,0.000000,10288.862594
2269.852818,1036.288319,612.876398,9104.533087
2269.853139,0.000000,766.095498,9104.533087
2269.853461,-740.205942,842.705048,9548.656652
2269.853783,-666.185348,919.314598,9104.533087
2269.854105,962.267725,1225.752797,8512.368333
2269.854426,148.041188,1532.190996,7698.141797
2269.854748,-1406.391290,2068.457845,8660.409521
2269.855070,-2072.576638,1532.190996,9030.512492
2269.855391,0.000000,1838.629195,8216.285956
2269.855713,592.164754,2145.067394,8364.327145
2269.856035,-1702.473667,2528.115143,8438.347739
2269.856357,-2738.761985,1608.800546,9918.759623
2269.856678,-962.267725,1991.848295,9400.615463
2269.857000,518.144159,1838.629195,8660.409521
2269.857322,0.000000,2068.457845,8734.430116
2269.857644,-1776.494261,2145.067394,9400.615463
2269.857965,-1702.473667,1532.190996,9696.697840
2269.858287,296.082377,1455.581446,9178.553681
2269.858609,-962.267725,1762.019645,9548.656652
2269.858931,-2516.700203,1762.019645,9252.574275
2269.859252,-2220.617826,2604.724693,9030.512492
2269.859574,296.082377,1838.629195,9400.615463
2269.859896,888.247130,1991.848295,9326.594869
2269.860218,-888.247130,2451.505594,9178.553681
2269.860539,-1110.308913,2221.676944,8808.450710
2269.860861,-592.164754,1991.848295,8364.327145
2269.861183,444.123565,1149.143247,8364.327145
2269.861505,-1110.308913,766.095498,9622.677246
2269.861826,-2812.782580,1072.533697,9252.574275
2269.862148,-1702.473667,766.095498,8882.471304
2269.862470,-666.185348,0.000000,9252.574275
2269.862791,-740.205942,383.047749,9474.636058
2269.863113,-814.226536,1149.143247,9400.615463
2269.863435,444.123565,1225.752797,9104.533087
2269.863757,2590.720797,1685.410096,9326.594869
2269.864078,2146.597232,919.314598,9844.739029
2269.864400,592.164754,153.219100,10066.800811
2269.864722,1036.288319,459.657299,9992.780217
2269.865044,1332.370696,536.266849,9104.533087
2269.865365,814.226536,919.314598,10214.842000
2269.865687,0.000000,-383.047749,9844.739029
2269.866009,592.164754,-229.828649,9178.553681
2269.866331,1702.473667,0.000000,8142.265362
2269.866652,296.082377,-306.438199,8364.327145
2269.866974,-592.164754,-995.924147,9252.574275
2269.867296,-666.185348,-1149.143247,9400.615463
2269.867618,74.020594,-306.438199,9400.615463
2269.867939,148.041188,-689.485948,9474.636058
2269.868261,-1554.432478,-919.314598,9696.697840
2269.868583,-1332.370696,-1532.190996,9548.656652
2269.868905,518.144159,-1149.143247,9770.718434
2269.869226,1110.308913,-766.095498,9400.615463
2269.869548,0.000000,-995.924147,10066.800811
2269.869870,-962.267725,-1225.752797,9548.656652
2269.870192,962.267725,0.000000,10288.862594
2269.870513,1628.453072,383.047749,10362.883188
2269.870835,-148.041188,689.485948,10288.862594
2269.871157,-814.226536,0.000000,10436.903782
2269.871478,444.123565,383.047749,9770.718434
2269.871800,3034.844362,842.705048,9252.574275
2269.872122,1924.535449,1302.362347,8882.471304
2269.872444,-296.082377,1455.581446,8956.491898
2269.872765,-148.041188,229.828649,9178.553681
2269.873087,666.185348,459.657299,8586.388927
2269.873409,-296.082377,459.657299,8882.471304
2269.873731,-1998.556043,383.047749,8512.368333
2269.874052,-3627.009116,536.266849,8216.285956
2269.874374,-2442.679609,76.609550,8586.388927
2269.874696,-1406.391290,383.047749,8956.491898
2269.875018,-2368.659014,995.924147,8956.491898
2269.875339,-3330.926739,1378.971896,8586.388927
2269.875661,-1332.370696,1302.362347,8512.368333
2269.875983,592.164754,1225.752797,9696.697840
2269.876305,0.000000,1072.533697,9992.780217
2269.876626,-1036.288319,1455.581446,9992.780217
2269.876948,-296.082377,2528.115143,10066.800811
2269.877270,1036.288319,1915.238745,9622.677246
2269.877592,1332.370696,1455.581446,10436.903782
2269.877913,0.000000,1608.800546,9622.677246
2269.878235,296.082377,2221.676944,8660.409521
2269.878557,1110.308913,2221.676944,8808.450710
2269.878879,592.164754,1532.190996,8956.491898
2269.879200,-518.144159,2298.286494,9770.718434
2269.879522,-592.164754,1532.190996,8142.265362
2269.879844,592.164754,2221.676944,7179.997637
2269.880165,592.164754,2298.286494,8216.285956
2269.880487,-370.102971,1302.362347,8882.471304
2269.880809,518.144159,1149.143247,9178.553681
2269.881131,1480.411884,1455.581446,8216.285956
2269.881452,888.247130,1302.362347,8068.244768
2269.881774,444.123565,383.047749,9400.615463
2269.882096,-814.226536,306.438199,9474.636058
2269.882418,1184.329507,919.314598,9474.636058
2269.882739,962.267725,459.657299,9400.615463
2269.883061,-592.164754,536.266849,9992.780217
2269.883383,-296.082377,306.438199,10732.986159
2269.883705,1184.329507,0.000000,10436.903782
2269.884026,3034.844362,612.876398,9770.718434
2269.884348,1184.329507,383.047749,9252.574275
2269.884670,-666.185348,-612.876398,10066.800811
2269.884992,222.061783,-459.657299,10066.800811
2269.885313,1184.329507,-919.314598,9252.574275
2269.885635,-148.041188,-766.095498,8882.471304
2269.885957,-2368.659014,-995.924147,9400.615463
2269.886279,-2220.617826,-1455.581446,9252.574275
2269.886600,0.000000,-1532.190996,8142.265362
2269.886922,370.102971,-1685.410096,8586.388927
2269.887244,-1406.391290,-1072.533697,8586.388927
2269.887565,-1480.411884,-1149.143247,9326.594869
2269.887887,1332.370696,-1378.971896,9030.512492
2269.888209,1850.514855,-766.095498,10140.821405
2269.888531,0.000000,-766.095498,10066.800811
2269.888852,-888.247130,-383.047749,10140.821405
2269.889174,592.164754,153.219100,9770.718434
2269.889496,1776.494261,-459.657299,9770.718434
2269.889818,1406.391290,-153.219100,10732.986159
2269.890139,-1036.288319,0.000000,9992.780217
2269.890461,-1184.329507,-536.266849,9326.594869
2269.890783,0.000000,-689.485948,9474.636058
2269.891105,-370.102971,-919.314598,10288.862594
2269.891426,-2368.659014,-459.657299,9770.718434
2269.891748,-2886.803174,76.609550,8734.430116
2269.892070,-888.247130,0.000000,8216.285956
2269.892392,-592.164754,-536.266849,9252.574275
2269.892713,-1628.453072,0.000000,8882.471304
2269.893035,-1332.370696,153.219100,8734.430116
2269.893357,0.000000,306.438199,7846.182985
2269.893679,-518.144159,612.876398,8734.430116
2269.894000,-592.164754,383.047749,9548.656652
2269.894322,-1628.453072,459.657299,8808.450710
2269.894644,-296.082377,1608.800546,8734.430116
2269.894966,-296.082377,1532.190996,8734.430116
2269.895287,0.000000,1915.238745,9770.718434
2269.895609,0.000000,1685.410096,9696.697840
2269.895931,1480.411884,2834.553343,8660.409521
2269.896252,1998.556043,2987.772442,9252.574275
2269.896574,0.000000,2068.457845,9178.553681
2269.896896,-370.102971,1455.581446,10288.862594
2269.897218,148.041188,1532.190996,9474.636058
2269.897539,-296.082377,1378.971896,8512.368333
2269.897861,-1628.453072,1532.190996,9178.553681
2269.898183,-2368.659014,1072.533697,9400.615463
2269.898505,-1628.453072,536.266849,9474.636058
2269.898826,814.226536,459.657299,9104.533087
2269.899148,-370.102971,1225.752797,8512.368333
2269.899470,-1406.391290,1302.362347,8882.471304
2269.899792,-592.164754,1149.143247,9400.615463
2269.900113,1332.370696,919.314598,9548.656652
2269.900435,1036.288319,1762.019645,8512.368333
2269.900757,-296.082377,1149.143247,8882.471304
2269.901079,0.000000,1685.410096,9548.656652
2269.901400,1702.473667,1532.190996,9400.615463
2269.901722,1998.556043,1608.800546,9400.615463
2269.902044,814.226536,1378.971896,9400.615463
2269.902366,-1184.329507,766.095498,8586.388927
2269.902687,148.041188,306.438199,8808.450710
2269.903009,1406.391290,-229.828649,10140.821405
2269.903331,-1258.350101,229.828649,9696.697840
2269.903652,-2368.659014,-153.219100,10140.821405
2269.903974,-1702.473667,-306.438199,9030.512492
2269.904296,444.123565,-306.438199,9622.677246
2269.904618,370.102971,-536.266849,9326.594869
2269.904939,-1554.432478,-306.438199,9400.615463
2269.905261,-592.164754,-689.485948,8734.430116
2269.905583,740.205942,-612.876398,9326.594869
2269.905905,222.061783,-1149.143247,9474.636058
2269.906226,-962.267725,-1072.533697,10140.821405
2269.906548,-1702.473667,-766.095498,9474.636058
2269.906870,-518.144159,-689.485948,9104.533087
2269.907192,444.123565,-1072.533697,9696.697840
2269.907513,518.144159,-1072.533697,9326.594869
2269.907835,0.000000,-689.485948,9770.718434
2269.908157,222.061783,-306.438199,8438.347739
2269.908479,1406.391290,-689.485948,9844.739029
2269.908800,-148.041188,-995.924147,10436.903782
2269.909122,-1036.288319,-995.924147,10658.965565
2269.909444,-370.102971,-1149.143247,9844.739029
2269.909766,-814.226536,-536.266849,8660.409521
2269.910088,-814.226536,-459.657299,9548.656652
2269.910409,-1702.473667,-612.876398,9770.718434
2269.910731,-592.164754,-383.047749,8882.471304
2269.911053,222.061783,153.219100,8142.265362
2269.911375,-962.267725,306.438199,8956.491898
2269.911697,-1332.370696,229.828649,9622.677246
2269.912018,-518.144159,383.047749,8808.450710
2269.912340,1036.288319,1455.581446,8882.471304
2269.912662,-444.123565,1685.410096,8956.491898
2269.912984,-1554.432478,1149.143247,9178.553681
2269.913305,0.000000,689.485948,9252.574275
2269.913627,1406.391290,1685.410096,9104.533087
2269.913949,888.247130,1762.019645,8660.409521
2269.914271,-296.082377,1378.971896,9252.574275
2269.914593,-1332.370696,1608.800546,8882.471304
2269.914914,148.041188,1378.971896,9326.594869
2269.915236,-444.123565,2068.457845,9178.553681
2269.915558,-2146.597232,2145.067394,9622.677246
2269.915880,-2368.659014,1762.019645,9622.677246
2269.916202,-592.164754,1838.629195,9178.553681
2269.916523,1110.308913,1915.238745,9770.718434
2269.916845,592.164754,2451.505594,8734.430116
2269.917167,-666.185348,2528.115143,9178.553681
2269.917489,222.061783,2681.334243,9178.553681
2269.917811,888.247130,1762.019645,9474.636058
2269.918132,148.041188,1608.800546,9326.594869
2269.918454,-962.267725,2145.067394,9252.574275
2269.918776,-1480.411884,2145.067394,9252.574275
2269.919098,1110.308913,1762.019645,8660.409521
2269.919419,1554.432478,1838.629195,8586.388927
2269.919741,592.164754,2145.067394,9252.574275
2269.920063,-148.041188,1685.410096,8364.327145
2269.920385,1702.473667,1685.410096,8586.388927
2269.920707,2368.659014,1149.143247,9030.512492
2269.921028,592.164754,612.876398,9178.553681
2269.921350,148.041188,842.705048,9696.697840
2269.921672,0.000000,459.657299,9104.533087
2269.921994,74.020594,-229.828649,9474.636058
2269.922316,148.041188,-1225.752797,10140.821405
2269.922637,-814.226536,-766.095498,9770.718434
2269.922959,-370.102971,-536.266849,9030.512492
2269.923281,-148.041188,-842.705048,9252.574275
2269.923603,-962.267725,-1378.971896,9622.677246
2269.923925,-1480.411884,-1455.581446,10807.006753
2269.924246,-1480.411884,-459.657299,9622.677246
2269.924568,296.082377,-536.266849,9548.656652
2269.924890,222.061783,-536.266849,9474.636058
2269.925212,0.000000,-842.705048,10362.883188
2269.925534,1110.308913,-383.047749,10066.800811
2269.925855,1480.411884,0.000000,7994.224174
2269.926177,518.144159,0.000000,8290.306550
2269.926499,-370.102971,-689.485948,9400.615463
2269.926821,-888.247130,-1149.143247,9474.636058
2269.927142,370.102971,-459.657299,9030.512492
2269.927464,-814.226536,-919.314598,8586.388927
2269.927786,-2368.659014,-995.924147,9326.594869
2269.928108,-1554.432478,-1302.362347,9548.656652
2269.928430,222.061783,-1225.752797,9178.553681
2269.928751,888.247130,0.000000,9178.553681
2269.929073,-740.205942,76.609550,9104.533087
2269.929395,-1702.473667,-689.485948,10214.842000
2269.929717,74.020594,-306.438199,9844.739029
2269.930039,444.123565,0.000000,9474.636058
2269.930360,-592.164754,536.266849,10140.821405
2269.930682,-2072.576638,995.924147,9622.677246
2269.931004,-1406.391290,1225.752797,9622.677246
2269.931326,1406.391290,919.314598,9252.574275
2269.931648,592.164754,919.314598,8734.430116
2269.931969,-740.205942,1302.362347,9030.512492
2269.932291,-370.102971,1455.581446,9178.553681
2269.932613,1850.514855,1225.752797,9252.574275
2269.932935,1036.288319,1455.581446,9622.677246
2269.933257,-1258.350101,1378.971896,9030.512492
2269.933578,-1554.432478,1378.971896,9400.615463
2269.933900,-814.226536,919.314598,8660.409521
2269.934222,666.185348,1072.533697,9030.512492
2269.934544,0.000000,1149.143247,8956.491898
2269.934865,-1776.494261,1685.410096,8290.306550
2269.935187,-518.144159,1455.581446,8364.327145
2269.935509,222.061783,1378.971896,8290.306550
2269.935831,-592.164754,1608.800546,9400.615463
2269.936153,-962.267725,2451.505594,9400.615463
2269.936474,-740.205942,2374.896044,8808.450710
2269.936796,1036.288319,2068.457845,9178.553681
2269.937118,1184.329507,1838.629195,9474.636058
2269.937440,370.102971,2374.896044,9474.636058
2269.937762,1036.288319,2681.334243,8734.430116
2269.938083,1480.411884,2528.115143,8438.347739
2269.938405,1406.391290,1838.629195,9030.512492
2269.938727,518.144159,1225.752797,9474.636058
2269.939049,222.061783,1149.143247,9400.615463
2269.939371,370.102971,1302.362347,8808.450710
2269.939692,-222.061783,153.219100,8882.471304
2269.940014,-444.123565,76.609550,10066.800811
2269.940336,0.000000,536.266849,9548.656652
2269.940658,1406.391290,536.266849,8364.327145
2269.940979,888.247130,536.266849,8808.450710
2269.941301,-666.185348,-306.438199,9326.594869
2269.941623,-888.247130,-383.047749,10140.821405
2269.941945,-370.102971,-689.485948,9622.677246
2269.942267,-888.247130,-919.314598,9104.533087
2269.942588,-1332.370696,-919.314598,10288.862594
2269.942910,-2294.638420,-1378.971896,9770.718434
2269.943232,-740.205942,-1149.143247,9696.697840
2269.943554,518.144159,-766.095498,9474.636058
2269.943876,-592.164754,-153.219100,9326.594869
2269.944197,-1702.473667,-459.657299,9474.636058
2269.944519,-666.185348,-689.485948,9030.512492
2269.944841,1036.288319,-383.047749,9104.533087
2269.945163,0.000000,-383.047749,9252.574275
2269.945485,-2294.638420,-689.485948,8882.471304
2269.945806,-1406.391290,-919.314598,9030.512492
2269.946128,444.123565,-1149.143247,9030.512492
2269.946450,444.123565,-842.705048,9474.636058
2269.946772,-444.123565,-612.876398,9474.636058
2269.947094,-666.185348,-842.705048,9474.636058
2269.947415,592.164754,-995.924147,9474.636058
2269.947737,1184.329507,-536.266849,9918.759623
2269.948059,-518.144159,0.000000,10140.821405
2269.948381,-1184.329507,76.609550,9770.718434
2269.948702,0.000000,536.266849,9992.780217
2269.949024,1850.514855,689.485948,10066.800811
2269.949346,962.267725,459.657299,9474.636058
2269.949668,0.000000,1378.971896,9252.574275
2269.949990,-370.102971,842.705048,8586.388927
2269.950311,0.000000,229.828649,8808.450710
2269.950633,-370.102971,459.657299,9474.636058
2269.950955,-2220.617826,612.876398,8882.471304
2269.951277,-2664.741391,612.876398,8290.306550
2269.951599,-1554.432478,612.876398,8290.306550
2269.951920,-888.247130,0.000000,8734.430116
2269.952242,-1110.308913,842.705048,9030.512492
2269.952564,-592.164754,1455.581446,8068.244768
2269.952886,592.164754,1532.190996,7624.121203
2269.953208,1332.370696,1532.190996,8216.285956
2269.953529,0.000000,1072.533697,9252.574275
2269.953851,592.164754,1991.848295,9770.718434
2269.954173,1184.329507,2451.505594,9030.512492
2269.954495,1110.308913,2374.896044,9252.574275
2269.954817,666.185348,1302.362347,9844.739029
2269.955138,74.020594,1991.848295,9548.656652
2269.955460,1258.350101,2145.067394,9474.636058
2269.955782,1258.350101,1762.019645,9030.512492
2269.956104,148.041188,1685.410096,9400.615463
2269.956425,-370.102971,842.705048,9400.615463
2269.956747,592.164754,766.095498,9474.636058
2269.957069,962.267725,1685.410096,9178.553681
2269.957391,-592.164754,1225.752797,9622.677246
2269.957713,-2368.659014,459.657299,9104.533087
2269.958034,-296.082377,306.438199,9548.656652
2269.958356,888.247130,306.438199,8956.491898
2269.958678,444.123565,689.485948,8142.265362
2269.959000,-814.226536,0.000000,9030.512492
2269.959322,-2072.576638,0.000000,9030.512492
2269.959643,-148.041188,-383.047749,9178.553681
2269.959965,-148.041188,-306.438199,8882.471304
2269.960287,-1924.535449,153.219100,9252.574275
2269.960609,-1850.514855,0.000000,9474.636058
2269.960931,518.144159,0.000000,9474.636058
2269.961252,1554.432478,-306.438199,9770.718434
2269.961574,-222.061783,229.828649,9178.553681
2269.961896,-1332.370696,-459.657299,9474.636058
2269.962218,-370.102971,-689.485948,9622.677246
2269.962539,0.000000,-1302.362347,9770.718434
2269.962861,-1110.308913,-1608.800546,10436.903782
2269.963183,-2368.659014,-1455.581446,9400.615463
2269.963505,-1406.391290,-995.924147,9252.574275
2269.963827,296.082377,-995.924147,9918.759623
2269.964148,296.082377,-766.095498,10288.862594
2269.964470,0.000000,-383.047749,10140.821405
2269.964792,370.102971,76.609550,8882.471304
2269.965114,2220.617826,0.000000,8956.491898
2269.965436,2220.617826,0.000000,9844.739029
2269.965757,148.041188,-383.047749,9400.615463
2269.966079,296.082377,153.219100,9252.574275
2269.966401,0.000000,0.000000,8438.347739
2269.966723,-370.102971,-153.219100,9178.553681
2269.967045,-370.102971,-459.657299,9696.697840
2269.967366,-1480.411884,0.000000,8734.430116
2269.967688,-1110.308913,76.609550,7994.224174
2269.968010,-1554.432478,76.609550,8734.430116
2269.968332,-1628.453072,-229.828649,9400.615463
2269.968654,-1628.453072,153.219100,9252.574275
2269.968975,-1924.535449,766.095498,8586.388927
2269.969297,-740.205942,995.924147,8956.491898
2269.969619,-1110.308913,689.485948,9400.615463
2269.969941,-740.205942,536.266849,9474.636058
2269.970262,740.205942,1762.019645,9548.656652
2269.970584,814.226536,2068.457845,8586.388927
2269.970906,444.123565,1455.581446,8882.471304
2269.971228,-296.082377,995.924147,9622.677246
2269.971550,444.123565,1149.143247,10066.800811
2269.971871,1332.370696,1608.800546,9474.636058
2269.972193,444.123565,1915.238745,9104.533087
2269.972515,-296.082377,1915.238745,9770.718434
2269.972837,666.185348,2068.457845,9178.553681
2269.973159,2368.659014,2451.505594,8956.491898
2269.973480,2368.659014,2451.505594,8068.244768
2269.973802,296.082377,2221.676944,8808.450710
2269.974124,74.020594,1915.238745,9252.574275
2269.974446,1184.329507,1685.410096,9252.574275
2269.974768,666.185348,995.924147,8586.388927
2269.975089,-1110.308913,1072.533697,8956.491898
2269.975411,-2738.761985,153.219100,8660.409521
2269.975733,-1184.329507,76.609550,9104.533087
2269.976055,0.000000,459.657299,9104.533087
2269.976377,-962.267725,536.266849,9178.553681
2269.976698,-1776.494261,612.876398,9474.636058
2269.977020,-592.164754,689.485948,9548.656652
2269.977342,1480.411884,0.000000,9844.739029
2269.977664,592.164754,842.705048,9548.656652
2269.977985,-888.247130,766.095498,9474.636058
2269.978307,-296.082377,919.314598,9918.759623
2269.978629,444.123565,76.609550,9474.636058
2269.978951,1110.308913,0.000000,9474.636058
2269.979273,222.061783,229.828649,9104.533087
2269.979594,-1406.391290,-229.828649,8364.327145
2269.979916,222.061783,0.000000,8586.388927
2269.980238,222.061783,-76.609550,8808.450710
2269.980560,-148.041188,-306.438199,9548.656652
2269.980882,-1406.391290,-153.219100,9252.574275
2269.981203,-740.205942,0.000000,8808.450710
2269.981525,296.082377,0.000000,9252.574275
2269.981847,0.000000,-383.047749,9474.636058
2269.982169,-444.123565,-383.047749,10066.800811
2269.982491,0.000000,229.828649,9104.533087
2269.982812,222.061783,0.000000,8956.491898
2269.983134,0.000000,-459.657299,10140.821405
2269.983456,-1776.494261,-919.314598,9992.780217
2269.983778,-1480.411884,-612.876398,9474.636058
2269.984099,-962.267725,76.609550,9252.574275
2269.984421,-1406.391290,-383.047749,9844.739029
2269.984743,-962.267725,-306.438199,10584.944971
2269.985065,-148.041188,76.609550,9474.636058
2269.985387,1110.308913,459.657299,8586.388927
2269.985708,444.123565,383.047749,8956.491898
2269.986030,-1036.288319,0.000000,9178.553681
2269.986352,148.041188,0.000000,9770.718434
2269.986674,962.267725,842.705048,9474.636058
2269.986996,-1036.288319,459.657299,8586.388927
2269.987317,-1480.411884,459.657299,8956.491898
2269.987639,-1924.535449,76.609550,8956.491898
2269.987961,74.020594,76.609550,8660.409521
2269.988283,1184.329507,689.485948,9030.512492
2269.988605,-592.164754,1378.971896,9400.615463
2269.988926,-962.267725,612.876398,9474.636058
2269.989248,740.205942,995.924147,8882.471304
2269.989570,1628.453072,2068.457845,9622.677246
2269.989892,0.000000,1838.629195,9400.615463
2269.990214,-740.205942,1685.410096,10140.821405
2269.990535,222.061783,1225.752797,9696.697840
2269.990857,1850.514855,1302.362347,9252.574275
2269.991179,962.267725,2145.067394,9400.615463
2269.991501,0.000000,1149.143247,8364.327145
2269.991822,-444.123565,1532.190996,8808.450710
2269.992144,1776.494261,766.095498,8364.327145
2269.992466,962.267725,1378.971896,8586.388927
2269.992788,-518.144159,1149.143247,8808.450710
2269.993110,-1258.350101,1302.362347,8512.368333
2269.993431,444.123565,1149.143247,8882.471304
2269.993753,1258.350101,919.314598,8808.450710
2269.994075,1110.308913,1072.533697,9252.574275
2269.994397,0.000000,229.828649,9548.656652
2269.994719,74.020594,766.095498,8956.491898
2269.995040,518.144159,76.609550,9252.574275
2269.995362,0.000000,0.000000,11029.068536
2269.995684,-1702.473667,0.000000,10140.821405
2269.996006,-740.205942,0.000000,9400.615463
2269.996328,0.000000,0.000000,9474.636058
2269.996649,-888.247130,-306.438199,9770.718434
2269.996971,-222.061783,459.657299,10140.821405
2269.997293,-222.061783,919.314598,8586.388927
2269.997615,1776.494261,689.485948,8586.388927
2269.997937,1110.308913,76.609550,9326.594869
2269.998258,-444.123565,-536.266849,9474.636058
2269.998580,0.000000,-383.047749,9696.697840
2269.998902,-296.082377,0.000000,8290.306550
2269.999224,-518.144159,-995.924147,8364.327145
2269.999545,-1406.391290,-1532.190996,9326.594869
2269.999867,-1184.329507,-919.314598,9178.553681
2270.000189,296.082377,-766.095498,9252.574275
2270.000511,-296.082377,-995.924147,8660.409521
2270.000833,-1702.473667,-766.095498,9400.615463
2270.001154,-1184.329507,-1302.362347,10066.800811
2270.001476,0.000000,-536.266849,9474.636058
2270.001798,148.041188,76.609550,8956.491898
2270.002120,-1702.473667,0.000000,10066.800811
2270.002442,-1998.556043,-153.219100,10881.027347
2270.002763,-370.102971,-229.828649,10510.924376
2270.003085,296.082377,-229.828649,9474.636058
2270.003407,-1110.308913,229.828649,9400.615463
2270.003729,-2442.679609,-306.438199,10066.800811
2270.004051,-1702.473667,-766.095498,9770.718434
2270.004372,-296.082377,-229.828649,9548.656652
2270.004694,-1924.535449,76.609550,9030.512492
2270.005016,-2812.782580,383.047749,9178.553681
2270.005338,-2146.597232,536.266849,8512.368333
2270.005659,814.226536,919.314598,8660.409521
2270.005981,1702.473667,1915.238745,8882.471304
2270.006303,0.000000,1532.190996,7846.182985
2270.006625,-296.082377,1455.581446,7994.224174
2270.006947,888.247130,1378.971896,8142.265362
2270.007268,666.185348,1149.143247,9030.512492
2270.007590,0.000000,1302.362347,9474.636058
2270.007912,-1332.370696,2145.067394,8808.450710
2270.008234,-370.102971,2145.067394,7994.224174
2270.008556,740.205942,1378.971896,9474.636058
2270.008877,0.000000,1455.581446,9252.574275
2270.009199,-518.144159,1378.971896,9178.553681
2270.009521,0.000000,1762.019645,8956.491898
2270.009843,1628.453072,1455.581446,9326.594869
2270.010165,814.226536,995.924147,9918.759623
2270.010486,-740.205942,1532.190996,9844.739029
2270.010808,-370.102971,1532.190996,10214.842000
2270.011130,0.000000,766.095498,8882.471304
2270.011452,148.041188,383.047749,9400.615463
2270.011774,0.000000,612.876398,10140.821405
2270.012095,-296.082377,612.876398,9474.636058
2270.012417,1258.350101,459.657299,8216.285956
2270.012739,740.205942,536.266849,9030.512492
2270.013061,-296.082377,383.047749,9400.615463
2270.013383,0.000000,0.000000,9548.656652
2270.013705,1406.391290,1072.533697,9030.512492
2270.014027,1110.308913,995.924147,8956.491898
2270.014348,-518.144159,306.438199,9326.594869
2270.014670,222.061783,536.266849,9918.759623
2270.014992,1332.370696,612.876398,8586.388927
2270.015314,814.226536,153.219100,7846.182985
2270.015636,-592.164754,76.609550,8956.491898
2270.015958,-1628.453072,0.000000,9696.697840
2270.016280,-962.267725,-689.485948,9474.636058
2270.016602,-962.267725,-689.485948,9030.512492
2270.016923,-2368.659014,-689.485948,9474.636058
2270.017245,-2368.659014,-766.095498,9844.739029
2270.017567,-370.102971,-612.876398,9326.594869
2270.017889,1332.370696,-689.485948,10066.800811
2270.018211,1406.391290,0.000000,9030.512492
2270.018533,-740.205942,-229.828649,9400.615463
2270.018855,148.041188,-459.657299,10214.842000
2270.019176,1406.391290,-383.047749,9992.780217
2270.019498,296.082377,153.219100,9548.656652
2270.019820,-814.226536,76.609550,9178.553681
2270.020142,-2294.638420,76.609550,9030.512492
2270.020464,444.123565,-689.485948,9252.574275
2270.020786,370.102971,0.000000,9326.594869
2270.021108,-1258.350101,0.000000,8734.430116
2270.021429,-2442.679609,76.609550,8586.388927
2270.021751,-1110.308913,-306.438199,8734.430116
2270.022073,74.020594,0.000000,9474.636058
2270.022395,-1332.370696,0.000000,9252.574275
2270.022717,-2590.720797,459.657299,8956.491898
2270.023039,-2072.576638,612.876398,9400.615463
2270.023361,-222.061783,229.828649,8956.491898
2270.023683,296.082377,229.828649,9696.697840
2270.024004,-592.164754,689.485948,9326.594869
2270.024326,-666.185348,1455.581446,8956.491898
2270.024648,1258.350101,1378.971896,8734.430116
2270.024970,666.185348,842.705048,9252.574275
2270.025292,518.144159,919.314598,10288.862594
2270.025614,74.020594,1915.238745,9474.636058
2270.025936,1110.308913,2145.067394,8586.388927
2270.026257,1480.411884,1685.410096,8956.491898
2270.026579,666.185348,1225.752797,9474.636058
2270.026901,814.226536,2068.457845,9104.533087
2270.027223,1110.308913,1991.848295,8512.368333
2270.027545,296.082377,1225.752797,8512.368333
2270.027867,-296.082377,383.047749,9474.636058
2270.028189,-1702.473667,689.485948,9622.677246
2270.028510,-666.185348,689.485948,8660.409521
2270.028832,-740.205942,383.047749,8734.430116
2270.029154,-962.267725,1149.143247,8734.430116
2270.029476,-222.061783,612.876398,9844.739029
2270.029798,518.144159,1302.362347,8956.491898
2270.030120,2368.659014,1072.533697,9104.533087
2270.030442,1480.411884,1149.143247,8956.491898
2270.030764,296.082377,919.314598,9992.780217
2270.031085,1110.308913,1608.800546,10510.924376
2270.031407,2220.617826,919.314598,9622.677246
2270.031729,518.144159,1149.143247,9326.594869
2270.032051,-740.205942,76.609550,9400.615463
2270.032373,-370.102971,-229.828649,9252.574275
2270.032695,1554.432478,536.266849,8956.491898
2270.033017,888.247130,153.219100,8808.450710
2270.033338,-740.205942,-153.219100,8808.450710
2270.033660,-1184.329507,-383.047749,9030.512492
2270.033982,518.144159,0.000000,9104.533087
2270.034304,-444.123565,-536.266849,9178.553681
2270.034626,-2294.638420,-995.924147,9104.533087
2270.034948,-2368.659014,-612.876398,9474.636058
2270.035270,-592.164754,-842.705048,9400.615463
2270.035591,592.164754,-1072.533697,9548.656652
2270.035913,0.000000,0.000000,10362.883188
2270.036235,-1184.329507,-229.828649,10288.862594
2270.036557,-518.144159,-842.705048,9474.636058
2270.036879,518.144159,-995.924147,9770.718434
2270.037201,-296.082377,-383.047749,10881.027347
2270.037523,-1480.411884,0.000000,10436.903782
2270.037845,-1554.432478,0.000000,9474.636058
2270.038166,740.205942,0.000000,9474.636058
2270.038488,1258.350101,766.095498,9918.759623
2270.038810,-518.144159,995.924147,9844.739029
2270.039132,0.000000,383.047749,8586.388927
2270.039454,148.041188,459.657299,7772.162391
2270.039776,222.061783,383.047749,8438.347739
2270.040098,-1110.308913,0.000000,9104.533087
2270.040419,-3034.844362,-229.828649,8438.347739
2270.040741,-2220.617826,76.609550,8216.285956
2270.041063,-2368.659014,306.438199,8216.285956
2270.041385,-1702.473667,306.438199,9252.574275
2270.041707,-1998.556043,612.876398,9474.636058
2270.042029,-370.102971,995.924147,8512.368333
2270.042351,1332.370696,1378.971896,9104.533087
2270.042672,222.061783,919.314598,9548.656652
2270.042994,148.041188,1378.971896,10510.924376
2270.043316,1036.288319,1455.581446,10436.903782
2270.043638,962.267725,1455.581446,9992.780217
2270.043960,370.102971,1532.190996,10214.842000
2270.044282,0.000000,1149.143247,10584.944971
2270.044604,518.144159,1302.362347,9696.697840
2270.044926,1702.473667,1915.238745,8290.306550
2270.045247,592.164754,1915.238745,8068.244768
2270.045569,-962.267725,1302.362347,8438.347739
2270.045891,-592.164754,2145.067394,8216.285956
2270.046213,370.102971,1685.410096,8956.491898
2270.046535,222.061783,1685.410096,8438.347739
2270.046857,-1480.411884,995.924147,8808.450710
2270.047179,-740.205942,919.314598,8956.491898
2270.047500,1110.308913,689.485948,8808.450710
2270.047822,592.164754,1225.752797,8142.265362
2270.048144,-222.061783,1378.971896,8808.450710
2270.048466,-1480.411884,1072.533697,8808.450710
2270.048788,0.000000,306.438199,8882.471304
2270.049110,1258.350101,306.438199,9696.697840
2270.049432,-444.123565,1149.143247,9844.739029
2270.049753,-1406.391290,1455.581446,10732.986159
2270.050075,370.102971,459.657299,9992.780217
2270.050397,2738.761985,1685.410096,9696.697840
2270.050719,1776.494261,1455.581446,9178.553681
2270.051041,-592.164754,1225.752797,9252.574275
2270.051363,-444.123565,306.438199,9474.636058
2270.051685,148.041188,-689.485948,8956.491898
2270.052007,0.000000,-536.266849,9400.615463
2270.052328,-1924.535449,-689.485948,9696.697840
2270.052650,-3330.926739,0.000000,8808.450710
2270.052972,-1554.432478,-1302.362347,8438.347739
2270.053294,-740.205942,-1302.362347,9104.533087
2270.053616,-888.247130,-1072.533697,9400.615463
2270.053938,-1924.535449,-842.705048,9252.574275
2270.054260,-444.123565,-766.095498,8808.450710
2270.054581,1036.288319,-612.876398,9622.677246
2270.054903,-148.041188,-1072.533697,9918.759623
2270.055225,-1332.370696,-919.314598,10807.006753
2270.055547,-518.144159,0.000000,9326.594869
2270.055869,296.082377,76.609550,9030.512492
2270.056191,740.205942,0.000000,9918.759623
2270.056513,-888.247130,76.609550,10066.800811
2270.056834,0.000000,153.219100,8882.471304
2270.057156,1036.288319,459.657299,8586.388927
2270.057478,74.020594,153.219100,9178.553681
2270.057800,-888.247130,-536.266849,10362.883188
2270.058122,-1406.391290,229.828649,9400.615463
2270.058444,-370.102971,76.609550,8808.450710
2270.058766,-148.041188,383.047749,9104.533087
2270.059088,-1554.432478,-306.438199,8956.491898
2270.059409,-370.102971,995.924147,9622.677246
2270.059731,888.247130,1149.143247,8660.409521
2270.060053,814.226536,306.438199,7994.224174
2270.060375,-592.164754,536.266849,9474.636058
2270.060697,-1554.432478,306.438199,9252.574275
2270.061019,74.020594,536.266849,9030.512492
2270.061341,444.123565,1072.533697,8956.491898
2270.061662,-1406.391290,1915.238745,9992.780217
2270.061984,-1110.308913,919.314598,9918.759623
2270.062306,814.226536,2068.457845,9474.636058
2270.062628,2442.679609,1915.238745,8882.471304
2270.062950,888.247130,2068.457845,8734.430116
2270.063272,-962.267725,2068.457845,9844.739029
2270.063594,444.123565,1608.800546,9548.656652
2270.063915,2072.576638,1302.362347,8956.491898
2270.064237,-518.144159,1532.190996,9622.677246
2270.064559,-1702.473667,1072.533697,9622.677246
2270.064881,-1850.514855,383.047749,8734.430116
2270.065203,1036.288319,842.705048,8216.285956
2270.065525,222.061783,1149.143247,8438.347739
2270.065847,-518.144159,1532.190996,8808.450710
2270.066169,-888.247130,1378.971896,8216.285956
2270.066490,1480.411884,995.924147,8438.347739
2270.066812,1554.432478,1149.143247,9474.636058
2270.067134,74.020594,1378.971896,9770.718434
2270.067456,-296.082377,1378.971896,10140.821405
2270.067778,444.123565,919.314598,8660.409521
2270.068100,1184.329507,153.219100,9770.718434
2270.068422,444.123565,229.828649,10658.965565
2270.068743,-962.267725,0.000000,9178.553681
2270.069065,0.000000,-229.828649,9104.533087
2270.069387,370.102971,-459.657299,9844.739029
2270.069709,-444.123565,-383.047749,9992.780217
2270.070031,-1406.391290,-306.438199,10658.965565
2270.070353,-1554.432478,-383.047749,9474.636058
2270.070675,222.061783,-153.219100,9326.594869
2270.070996,0.000000,-306.438199,9326.594869
2270.071318,-1258.350101,-229.828649,9400.615463
2270.071640,0.000000,-1072.533697,9252.574275
2270.071962,666.185348,-459.657299,8290.306550
2270.072284,814.226536,-689.485948,9104.533087
2270.072606,-518.144159,-919.314598,9844.739029
2270.072928,-1406.391290,-1149.143247,9548.656652
2270.073250,0.000000,-995.924147,8734.430116
2270.073571,-814.226536,-306.438199,8364.327145
2270.073893,-1628.453072,-612.876398,10214.842000
2270.074215,-1332.370696,-612.876398,9622.677246
2270.074537,962.267725,-153.219100,8512.368333
2270.074859,1924.535449,459.657299,8882.471304
2270.075181,-370.102971,153.219100,9474.636058
2270.075503,-888.247130,0.000000,10362.883188
2270.075824,296.082377,0.000000,9992.780217
2270.076146,444.123565,0.000000,9326.594869
2270.076468,-1110.308913,-459.657299,8956.491898
2270.076790,-2294.638420,-383.047749,9696.697840
2270.077112,-592.164754,76.609550,9474.636058
2270.077434,592.164754,153.219100,9178.553681
2270.077756,-444.123565,766.095498,8734.430116
2270.078077,-1258.350101,459.657299,9326.594869
2270.078399,-444.123565,459.657299,8956.491898
2270.078721,1998.556043,1149.143247,9030.512492
2270.079043,592.164754,1225.752797,9696.697840
2270.079365,-1480.411884,995.924147,9178.553681
2270.079687,-1332.370696,1378.971896,9770.718434
2270.080009,74.020594,1608.800546,8660.409521
2270.080331,666.185348,1072.533697,8808.450710
2270.080652,0.000000,1455.581446,9400.615463
2270.080974,-1628.453072,1608.800546,8734.430116
2270.081296,-296.082377,1149.143247,9178.553681
2270.081618,74.020594,995.924147,9252.574275
2270.081940,-666.185348,1608.800546,9178.553681
2270.082262,-2368.659014,1915.238745,9178.553681
2270.082584,-962.267725,2374.896044,9400.615463
2270.082905,962.267725,1685.410096,8882.471304
2270.083227,1110.308913,1455.581446,9030.512492
2270.083549,-740.205942,1838.629195,9474.636058
2270.083871,0.000000,1685.410096,9400.615463
2270.084193,518.144159,1072.533697,8956.491898
2270.084515,444.123565,766.095498,9326.594869
2270.084837,-1036.288319,1225.752797,9918.759623
2270.085158,-1258.350101,842.705048,9992.780217
2270.085480,0.000000,689.485948,8512.368333
2270.085802,74.020594,919.314598,9030.512492
2270.086124,0.000000,842.705048,9696.697840
2270.086446,0.000000,1072.533697,9252.574275
2270.086768,1998.556043,1455.581446,8364.327145
2270.087090,1998.556043,1762.019645,8290.306550
2270.087412,0.000000,1149.143247,8660.409521
2270.087733,0.000000,306.438199,9474.636058
2270.088055,0.000000,153.219100,8808.450710
2270.088377,0.000000,76.609550,8882.471304
2270.088699,-1332.370696,-306.438199,9400.615463
2270.089021,-1998.556043,-1072.533697,9770.718434
2270.089343,-888.247130,-689.485948,9474.636058
2270.089665,0.000000,-536.266849,8882.471304
2270.089986,-370.102971,-995.924147,9548.656652
2270.090308,-1332.370696,-766.095498,9992.780217
2270.090630,-296.082377,-689.485948,10288.862594
2270.090952,1850.514855,0.000000,10140.821405
2270.091274,740.205942,0.000000,10140.821405
2270.091596,-370.102971,153.219100,10436.903782
2270.091918,888.247130,459.657299,9696.697840
2270.092239,2220.617826,306.438199,9030.512492
2270.092561,1924.535449,842.705048,8438.347739
2270.092883,0.000000,76.609550,8808.450710
2270.093205,-1184.329507,-383.047749,8956.491898
2270.093527,0.000000,-229.828649,8808.450710
2270.093849,-518.144159,-1608.800546,8660.409521
2270.094171,-2368.659014,-766.095498,8808.450710
2270.094493,-2960.823768,-1838.629195,9178.553681
2270.094814,-1258.350101,-842.705048,8734.430116
2270.095136,0.000000,-459.657299,9474.636058
2270.095458,-814.226536,-153.219100,8956.491898
2270.095780,-1406.391290,306.438199,8882.471304
2270.096102,-222.061783,536.266849,8882.471304
2270.096424,962.267725,536.266849,9400.615463
2270.096746,370.102971,689.485948,10436.903782
2270.097067,-1258.350101,919.314598,10066.800811
2270.097389,-962.267725,919.314598,9844.739029
2270.097711,0.000000,1072.533697,8956.491898
2270.098033,962.267725,1072.533697,9770.718434
2270.098355,444.123565,1608.800546,9696.697840
2270.098677,-296.082377,1532.190996,8512.368333
2270.098999,1554.432478,1685.410096,8734.430116
2270.099320,1850.514855,1455.581446,8660.409521
2270.099642,-518.144159,612.876398,8808.450710
2270.099964,-814.226536,1072.533697,9474.636058
2270.100286,-592.164754,1608.800546,9252.574275
2270.100608,-296.082377,919.314598,8734.430116
2270.100930,-444.123565,383.047749,8808.450710
2270.101252,-666.185348,919.314598,8290.306550
2270.101574,296.082377,1762.019645,8438.347739
2270.101895,592.164754,229.828649,8586.388927
2270.102217,-370.102971,995.924147,9178.553681
2270.102539,-888.247130,1072.533697,9992.780217
2270.102861,-444.123565,1532.190996,9622.677246
2270.103183,666.185348,1532.190996,9252.574275
2270.103505,-296.082377,1378.971896,9400.615463
2270.103827,-666.185348,1302.362347,10140.821405
2270.104148,1184.329507,1455.581446,9622.677246
2270.104470,1998.556043,1532.190996,8882.471304
2270.104792,444.123565,1532.190996,8438.347739
2270.105114,-888.247130,919.314598,9474.636058
2270.105436,-962.267725,459.657299,9696.697840
2270.105758,444.123565,689.485948,8364.327145
2270.106080,0.000000,76.609550,7846.182985
2270.106401,-2146.597232,1072.533697,9326.594869
2270.106723,-1480.411884,0.000000,9104.533087
2270.107045,962.267725,153.219100,8586.388927
2270.107367,1258.350101,153.219100,8216.285956
2270.107689,0.000000,689.485948,9030.512492
2270.108011,-592.164754,536.266849,9770.718434
2270.108333,962.267725,-306.438199,9104.533087
2270.108655,1184.329507,-689.485948,9252.574275
2270.108976,-370.102971,0.000000,9474.636058
2270.109298,-2368.659014,0.000000,10436.903782
2270.109620,-444.123565,-612.876398,9696.697840
2270.109942,1184.329507,-919.314598,10436.903782
2270.110264,592.164754,306.438199,9474.636058
2270.110586,-888.247130,229.828649,9696.697840
2270.110908,-370.102971,-766.095498,8734.430116
2270.111229,1036.288319,-689.485948,9474.636058
2270.111551,666.185348,-919.314598,9992.780217
2270.111873,-1480.411884,-612.876398,9696.697840
2270.112195,-1406.391290,-689.485948,9548.656652
2270.112517,-962.267725,-1838.629195,8956.491898
2270.112839,148.041188,-1302.362347,9548.656652
2270.113160,-814.226536,-1838.629195,9622.677246
2270.113482,-1924.535449,-1072.533697,8586.388927
2270.113804,0.000000,-306.438199,7994.224174
2270.114126,0.000000,-842.705048,8882.471304
2270.114448,-1110.308913,-536.266849,9770.718434
2270.114770,-1776.494261,-612.876398,9548.656652
2270.115091,-1258.350101,0.000000,8956.491898
2270.115413,222.061783,842.705048,9474.636058
2270.115735,-740.205942,536.266849,9252.574275
2270.116057,-370.102971,306.438199,9918.759623
2270.116379,370.102971,1225.752797,9252.574275
2270.116701,592.164754,1072.533697,8364.327145
2270.117022,222.061783,689.485948,9918.759623
2270.117344,-962.267725,306.438199,10214.842000
2270.117666,-888.247130,536.266849,9400.615463
2270.117988,-222.061783,1072.533697,8882.471304
2270.118310,-518.144159,842.705048,8512.368333
2270.118632,-1554.432478,612.876398,9178.553681
2270.118953,-592.164754,1532.190996,9178.553681
2270.119275,1628.453072,2145.067394,8660.409521
2270.119597,962.267725,1762.019645,8290.306550
2270.119919,-1110.308913,1532.190996,8142.265362
2270.120241,-740.205942,766.095498,9474.636058
2270.120563,518.144159,2068.457845,9030.512492
2270.120884,0.000000,1455.581446,9030.512492
2270.121206,-1036.288319,1685.410096,9474.636058
2270.121528,-1998.556043,1608.800546,9252.574275
2270.121850,74.020594,1685.410096,9030.512492
2270.122172,1184.329507,1838.629195,9030.512492
2270.122494,-370.102971,2221.676944,8660.409521
2270.122815,-740.205942,2221.676944,9622.677246
2270.123137,444.123565,1915.238745,9474.636058
2270.123459,1924.535449,1685.410096,9548.656652
2270.123781,74.020594,1378.971896,9178.553681
2270.124103,-1850.514855,1302.362347,9178.553681
2270.124425,-444.123565,1378.971896,9474.636058
2270.124746,962.267725,383.047749,8956.491898
2270.125068,1628.453072,383.047749,9844.739029
2270.125390,-296.082377,536.266849,9030.512492
2270.125712,-888.247130,536.266849,7994.224174
2270.126034,518.144159,76.609550,8216.285956
2270.126356,962.267725,-459.657299,8956.491898
2270.126677,-296.082377,153.219100,9622.677246
2270.126999,-592.164754,612.876398,9104.533087
2270.127321,444.123565,766.095498,8660.409521
2270.127643,2368.659014,612.876398,9474.636058
2270.127965,1184.329507,306.438199,9326.594869
2270.128287,518.144159,306.438199,9770.718434
2270.128608,814.226536,0.000000,9178.553681
2270.128930,740.205942,-766.095498,9400.615463
2270.129252,444.123565,-1838.629195,10732.986159
2270.129574,-2368.659014,-1225.752797,10584.944971
2270.129896,-1628.453072,-2298.286494,9178.553681
2270.130217,-1332.370696,-1685.410096,9326.594869
2270.130539,-1258.350101,-1608.800546,10066.800811
2270.130861,-1332.370696,-1455.581446,10807.006753
2270.131183,-1110.308913,-995.924147,9770.718434
2270.131505,444.123565,-842.705048,8660.409521
2270.131827,740.205942,-842.705048,9474.636058
2270.132148,-1332.370696,-536.266849,9326.594869
2270.132470,148.041188,-842.705048,10658.965565
2270.132792,222.061783,-153.219100,8734.430116
2270.133114,-444.123565,306.438199,8364.327145
2270.133436,-962.267725,0.000000,9326.594869
2270.133758,-740.205942,-229.828649,9104.533087
2270.134079,-222.061783,306.438199,8364.327145
2270.134401,222.061783,-153.219100,8216.285956
2270.134723,-1110.308913,919.314598,8660.409521
2270.135045,-740.205942,0.000000,9474.636058
2270.135367,-222.061783,919.314598,9326.594869
2270.135689,740.205942,1149.143247,9400.615463
2270.136010,-1184.329507,1149.143247,9104.533087
2270.136332,-1998.556043,1378.971896,9474.636058
2270.136654,0.000000,1608.800546,9992.780217
2270.136976,592.164754,1149.143247,8808.450710
2270.137298,0.000000,1378.971896,9474.636058
2270.137620,-1702.473667,1225.752797,9548.656652
2270.137941,-1184.329507,919.314598,9252.574275
2270.138263,518.144159,919.314598,9252.574275
2270.138585,0.000000,1991.848295,8512.368333
2270.138907,-1776.494261,1915.238745,9992.780217
2270.139229,-1036.288319,2451.505594,9178.553681
2270.139551,1776.494261,1838.629195,9326.594869
2270.139872,2072.576638,2298.286494,8586.388927
2270.140194,370.102971,2451.505594,8586.388927
2270.140516,148.041188,2451.505594,9030.512492
2270.140838,1702.473667,1685.410096,8956.491898
2270.141160,1480.411884,1378.971896,8364.327145
2270.141482,740.205942,1378.971896,9104.533087
2270.141803,-1702.473667,842.705048,8734.430116
2270.142125,-814.226536,1455.581446,8586.388927
2270.142447,1036.288319,1072.533697,9104.533087
2270.142769,518.144159,919.314598,9400.615463
2270.143091,74.020594,1685.410096,9326.594869
2270.143413,518.144159,1532.190996,8068.244768
2270.143734,1924.535449,612.876398,8882.471304
2270.144056,1480.411884,689.485948,10288.862594
2270.144378,-222.061783,536.266849,10658.965565
2270.144700,148.041188,689.485948,10214.842000
2270.145022,814.226536,536.266849,9178.553681
2270.145344,592.164754,229.828649,9252.574275
2270.145665,0.000000,-153.219100,9770.718434
2270.145987,-1110.308913,0.000000,9400.615463
2270.146309,370.102971,-459.657299,8734.430116
2270.146631,0.000000,-612.876398,8808.450710
2270.146953,-888.247130,-1072.533697,9474.636058
2270.147275,-1036.288319,-995.924147,9326.594869
2270.147596,-148.041188,-689.485948,8586.388927
2270.147918,74.020594,-459.657299,9326.594869
2270.148240,-1258.350101,-1532.190996,9992.780217
2270.148562,-1110.308913,-1608.800546,10066.800811
2270.148884,148.041188,-1378.971896,9992.780217
2270.149206,222.061783,-1149.143247,9030.512492
2270.149527,-962.267725,-1378.971896,9770.718434
2270.149849,-1850.514855,-1532.190996,10436.903782
2270.150171,-814.226536,-1302.362347,10066.800811
2270.150493,0.000000,-1072.533697,9326.594869
2270.150815,-1924.535449,-459.657299,9326.594869
2270.151137,-2664.741391,-153.219100,9918.759623
2270.151458,-1258.350101,0.000000,9178.553681
2270.151780,1184.329507,306.438199,8512.368333
2270.152102,1036.288319,1149.143247,8438.347739
2270.152424,-888.247130,1072.533697,8142.265362
2270.152746,-518.144159,459.657299,8512.368333
2270.153068,0.000000,76.609550,8438.347739
2270.153389,-740.205942,-383.047749,9326.594869
2270.153711,-1776.494261,0.000000,9400.615463
2270.154033,-3034.844362,153.219100,9104.533087
2270.154355,-962.267725,0.000000,9548.656652
2270.154677,666.185348,0.000000,10214.842000
2270.154999,-666.185348,689.485948,9696.697840
2270.155320,-1258.350101,536.266849,8512.368333
2270.155642,444.123565,689.485948,9548.656652
2270.155964,1628.453072,1302.362347,10436.903782
2270.156286,740.205942,1225.752797,10288.862594
2270.156608,-666.185348,1838.629195,9918.759623
2270.156930,222.061783,2068.457845,10066.800811
2270.157251,1406.391290,1455.581446,9326.594869
2270.157573,1110.308913,1685.410096,8956.491898
2270.157895,222.061783,2145.067394,9030.512492
2270.158217,-148.041188,2145.067394,8364.327145
2270.158539,148.041188,1762.019645,7920.203579
2270.158861,74.020594,1455.581446,8142.265362
2270.159182,-444.123565,1225.752797,9104.533087
2270.159504,-1110.308913,2451.505594,8364.327145
2270.159826,-296.082377,919.314598,8068.244768
2270.160148,740.205942,1378.971896,8364.327145
2270.160470,-296.082377,1225.752797,8808.450710
2270.160792,370.102971,1532.190996,9622.677246
2270.161113,1332.370696,1685.410096,9030.512492
2270.161435,1332.370696,1225.752797,9474.636058
2270.161757,444.123565,1072.533697,9770.718434
2270.162079,-814.226536,1072.533697,9992.780217
2270.162401,0.000000,1302.362347,9474.636058
2270.162722,-370.102971,766.095498,9696.697840
2270.163044,-1850.514855,536.266849,10436.903782
2270.163366,-1628.453072,383.047749,10584.944971
2270.163688,-222.061783,383.047749,9548.656652
2270.164010,1036.288319,536.266849,9104.533087
2270.164332,-296.082377,536.266849,9178.553681
2270.164653,-1628.453072,0.000000,9474.636058
2270.164975,0.000000,-612.876398,10066.800811
2270.165297,0.000000,-689.485948,8660.409521
2270.165619,-962.267725,-306.438199,8734.430116
2270.165941,-1998.556043,-306.438199,9104.533087
2270.166263,-1332.370696,-919.314598,9030.512492
2270.166584,444.123565,-766.095498,8586.388927
2270.166906,444.123565,0.000000,8808.450710
2270.167228,-296.082377,-536.266849,8882.471304
2270.167550,-518.144159,-153.219100,9400.615463
2270.167872,1554.432478,-689.485948,9770.718434
2270.168194,1850.514855,76.609550,10066.800811
2270.168515,0.000000,0.000000,10140.821405
2270.168837,-1480.411884,-229.828649,9844.739029
2270.169159,-592.164754,-536.266849,9326.594869
2270.169481,0.000000,-536.266849,9474.636058
2270.169803,-592.164754,-766.095498,9622.677246
2270.170125,-2664.741391,-842.705048,9622.677246
2270.170446,-1998.556043,-919.314598,9030.512492
2270.170768,-740.205942,-689.485948,9474.636058
2270.171090,-1480.411884,-1149.143247,9770.718434
2270.171412,-2368.659014,0.000000,9844.739029
2270.171734,-2072.576638,153.219100,9252.574275
2270.172056,-148.041188,383.047749,8734.430116
2270.172377,444.123565,229.828649,9030.512492
2270.172699,0.000000,536.266849,8660.409521
2270.173021,518.144159,1302.362347,8956.491898
2270.173343,1776.494261,1149.143247,8142.265362
2270.173665,1850.514855,1072.533697,9622.677246
2270.173987,888.247130,612.876398,10214.842000
2270.174308,-518.144159,1838.629195,9474.636058
2270.174630,592.164754,1532.190996,9252.574275
2270.174952,222.061783,1072.533697,8660.409521
2270.175274,0.000000,1302.362347,9252.574275
2270.175596,-148.041188,1762.019645,9844.739029
2270.175918,592.164754,2374.896044,9030.512492
2270.176239,1332.370696,1532.190996,8586.388927
2270.176561,0.000000,1762.019645,8660.409521
2270.176883,-1036.288319,842.705048,9474.636058
2270.177205,-518.144159,1685.410096,9770.718434
2270.177527,-370.102971,1149.143247,8660.409521
2270.177849,-1332.370696,1378.971896,9178.553681
2270.178170,-1850.514855,842.705048,8734.430116
2270.178492,-962.267725,459.657299,8956.491898
2270.178814,740.205942,1532.190996,7254.018232
2270.179136,888.247130,1532.190996,8068.244768
2270.179458,-666.185348,842.705048,9252.574275
2270.179780,0.000000,766.095498,9696.697840
2270.180101,1702.473667,995.924147,9178.553681
2270.180423,1776.494261,1378.971896,9326.594869
2270.180745,0.000000,1302.362347,9992.780217
2270.181067,-444.123565,612.876398,9548.656652
2270.181389,1554.432478,459.657299,10288.862594
2270.181711,1480.411884,766.095498,9252.574275
2270.182032,296.082377,536.266849,9400.615463
2270.182354,-1332.370696,76.609550,9178.553681
2270.182676,-296.082377,-306.438199,9030.512492
2270.182998,222.061783,-766.095498,9030.512492
2270.183320,-1258.350101,-229.828649,9252.574275
2270.183642,-2516.700203,-383.047749,9178.553681
2270.183963,-1554.432478,-536.266849,9104.533087
2270.184285,1036.288319,-459.657299,9178.553681
2270.184607,1184.329507,-612.876398,9326.594869
2270.184929,-222.061783,0.000000,9178.553681
2270.185251,0.000000,-153.219100,9474.636058
2270.185573,962.267725,0.000000,9770.718434
2270.185894,814.226536,-995.924147,10066.800811
2270.186216,-444.123565,-842.705048,10362.883188
2270.186538,-1850.514855,-612.876398,9252.574275
2270.186860,-592.164754,-536.266849,9178.553681
2270.187182,74.020594,-766.095498,9400.615463
2270.187504,-222.061783,-76.609550,9474.636058
2270.187825,-962.267725,-76.609550,8882.471304
2270.188147,-740.205942,76.609550,8142.265362
2270.188469,740.205942,-612.876398,10066.800811
2270.188791,-814.226536,-536.266849,9548.656652
2270.189113,-1406.391290,-229.828649,10288.862594
2270.189435,-1406.391290,459.657299,9918.759623
2270.189756,-1332.370696,459.657299,8734.430116
2270.190078,-814.226536,-1072.533697,9400.615463
2270.190400,-1036.288319,766.095498,9474.636058
2270.190722,-740.205942,383.047749,9030.512492
2270.191044,-370.102971,153.219100,8660.409521
2270.191366,-592.164754,383.047749,9400.615463
2270.191687,-962.267725,459.657299,10140.821405
2270.192009,0.000000,995.924147,9326.594869
2270.192331,962.267725,1072.533697,9474.636058
2270.192653,592.164754,2374.896044,9030.512492
2270.192975,0.000000,1608.800546,9474.636058
2270.193297,740.205942,1608.800546,9030.512492
2270.193618,1628.453072,1991.848295,8660.409521
2270.193940,814.226536,2068.457845,8290.306550
2270.194262,-148.041188,1685.410096,8956.491898
2270.194584,-1110.308913,1072.533697,8586.388927
2270.194906,0.000000,689.485948,8956.491898
2270.195227,-370.102971,766.095498,8956.491898
2270.195549,-2220.617826,1072.533697,9696.697840
2270.195871,-1850.514855,919.314598,9696.697840
2270.196193,74.020594,612.876398,9474.636058
2270.196515,1554.432478,1302.362347,9696.697840
2270.196837,962.267725,1455.581446,8882.471304
2270.197158,148.041188,1149.143247,9400.615463
2270.197480,1332.370696,612.876398,10066.800811
2270.197802,1628.453072,1072.533697,9400.615463
2270.198124,740.205942,1225.752797,9918.759623
2270.198446,-592.164754,1378.971896,9992.780217
2270.198768,-740.205942,1072.533697,9400.615463
2270.199089,1776.494261,1072.533697,8586.388927
2270.199411,1332.370696,1302.362347,8882.471304
2270.199733,370.102971,1072.533697,8364.327145
2270.200055,-1110.308913,842.705048,8586.388927
2270.200377,814.226536,229.828649,8364.327145
2270.200699,888.247130,153.219100,8586.388927
2270.201020,-962.267725,76.609550,9252.574275
2270.201342,-1850.514855,0.000000,9326.594869
2270.201664,-740.205942,-153.219100,8808.450710
2270.201986,370.102971,-383.047749,9178.553681
2270.202308,-296.082377,-459.657299,9770.718434
2270.202630,-1628.453072,-306.438199,9696.697840
2270.202951,-296.082377,-536.266849,9252.574275
2270.203273,222.061783,-612.876398,9474.636058
2270.203595,0.000000,-459.657299,10732.986159
2270.203917,-740.205942,-153.219100,11251.130318
2270.204239,-370.102971,459.657299,9474.636058
2270.204561,1036.288319,306.438199,9844.739029
2270.204882,74.020594,0.000000,9474.636058
2270.205204,-666.185348,-153.219100,9474.636058
2270.205526,296.082377,306.438199,9622.677246
2270.205848,148.041188,0.000000,8364.327145
2270.206170,-222.061783,0.000000,8808.450710
2270.206492,-1702.473667,76.609550,9104.533087
2270.206813,-2294.638420,-1225.752797,8586.388927
2270.207135,-1258.350101,-306.438199,8364.327145
2270.207457,-1776.494261,-459.657299,8364.327145
2270.207779,-2368.659014,-306.438199,9104.533087
2270.208101,-1628.453072,0.000000,9770.718434
2270.208423,666.185348,153.219100,9104.533087
2270.208744,1776.494261,1378.971896,8734.430116
2270.209066,444.123565,1149.143247,8808.450710
2270.209388,0.000000,689.485948,9992.780217
2270.209710,814.226536,383.047749,9548.656652
2270.210032,1110.308913,612.876398,9918.759623
2270.210354,-148.041188,919.314598,10140.821405
2270.210675,-1554.432478,842.705048,10436.903782
2270.210997,-518.144159,536.266849,10288.862594
2270.211319,1036.288319,995.924147,9400.615463
2270.211641,74.020594,459.657299,9252.574275
2270.211963,-1184.329507,1378.971896,9178.553681
2270.212284,-518.144159,689.485948,8660.409521
2270.212606,1110.308913,842.705048,8216.285956
2270.212928,740.205942,1149.143247,9326.594869
2270.213250,-1480.411884,1378.971896,8734.430116
2270.213571,-1036.288319,1762.019645,8882.471304
2270.213893,148.041188,1532.190996,8364.327145
2270.214215,1036.288319,306.438199,8808.450710
2270.214537,592.164754,383.047749,9474.636058
2270.214859,-888.247130,842.705048,8438.347739
2270.215180,74.020594,766.095498,8808.450710
2270.215502,1110.308913,995.924147,9474.636058
2270.215824,0.000000,1302.362347,9474.636058
2270.216146,-888.247130,1455.581446,9844.739029
2270.216467,-74.020594,1838.629195,9474.636058
2270.216789,1036.288319,1149.143247,9696.697840
2270.217111,1332.370696,842.705048,9474.636058
2270.217433,0.000000,1225.752797,9844.739029
2270.217755,0.000000,1455.581446,9696.697840
2270.218076,296.082377,766.095498,8808.450710
2270.218398,444.123565,536.266849,8808.450710
2270.218720,-666.185348,306.438199,9548.656652
2270.219042,-1850.514855,383.047749,9104.533087
2270.219364,-518.144159,612.876398,8364.327145
2270.219685,74.020594,0.000000,8364.327145
2270.220007,-518.144159,0.000000,8956.491898
2270.220329,-1110.308913,153.219100,8882.471304
2270.220651,592.164754,0.000000,8438.347739
2270.220972,1406.391290,0.000000,8734.430116
2270.221294,-222.061783,-536.266849,9770.718434
2270.221616,-814.226536,-766.095498,10732.986159
2270.221938,0.000000,-153.219100,10140.821405
2270.222260,0.000000,-536.266849,9474.636058
2270.222581,-962.267725,-459.657299,10584.944971
2270.222903,-1332.370696,-842.705048,10362.883188
2270.223225,444.123565,-766.095498,9992.780217
2270.223547,1036.288319,76.609550,9770.718434
2270.223868,-444.123565,-383.047749,9030.512492
2270.224190,-1184.329507,-612.876398,9696.697840
2270.224512,-740.205942,0.000000,9474.636058
2270.224834,666.185348,0.000000,9326.594869
2270.225156,74.020594,0.000000,9252.574275
2270.225477,-2516.700203,-766.095498,8956.491898
2270.225799,-1036.288319,153.219100,9474.636058
2270.226121,740.205942,-229.828649,8808.450710
2270.226443,148.041188,-229.828649,8512.368333
2270.226764,-666.185348,0.000000,8660.409521
2270.227086,-1258.350101,-383.047749,8586.388927
2270.227408,0.000000,-306.438199,9178.553681
2270.227730,0.000000,-229.828649,9030.512492
2270.228052,-1776.494261,383.047749,9474.636058
2270.228373,-2516.700203,842.705048,9548.656652
2270.228695,-518.144159,612.876398,9474.636058
2270.229017,1628.453072,1072.533697,9104.533087
2270.229339,444.123565,1225.752797,9252.574275
2270.229660,-888.247130,1685.410096,8956.491898
2270.229982,74.020594,842.705048,9474.636058
2270.230304,962.267725,383.047749,8956.491898
2270.230626,814.226536,536.266849,9992.780217
2270.230948,-1776.494261,1302.362347,10140.821405
2270.231269,-1998.556043,919.314598,9400.615463
2270.231591,74.020594,306.438199,8882.471304
2270.231913,444.123565,306.438199,8956.491898
2270.232235,74.020594,1149.143247,10140.821405
2270.232556,222.061783,1455.581446,9474.636058
2270.232878,1702.473667,1608.800546,8364.327145
2270.233200,1480.411884,1225.752797,8586.388927
2270.233522,-518.144159,1072.533697,9326.594869
2270.233844,-518.144159,1302.362347,9844.739029
2270.234165,222.061783,1685.410096,8956.491898
2270.234487,148.041188,995.924147,9030.512492
2270.234809,0.000000,383.047749,9696.697840
2270.235131,-1332.370696,1302.362347,9030.512492
2270.235452,370.102971,842.705048,8364.327145
2270.235774,444.123565,1149.143247,8438.347739
2270.236096,-370.102971,1149.143247,9400.615463
2270.236418,-148.041188,1149.143247,9918.759623
2270.236740,74.020594,1225.752797,9400.615463
2270.237061,1036.288319,1302.362347,8734.430116
2270.237383,0.000000,459.657299,9400.615463
2270.237705,-1036.288319,995.924147,9326.594869
2270.238027,1110.308913,842.705048,9696.697840
2270.238348,1776.494261,536.266849,8882.471304
2270.238670,296.082377,383.047749,8364.327145
2270.238992,-1036.288319,76.609550,9104.533087
2270.239314,-518.144159,-536.266849,9400.615463
2270.239636,592.164754,0.000000,8956.491898
2270.239957,74.020594,-383.047749,9252.574275
2270.240279,-1776.494261,0.000000,9844.739029
2270.240601,-1628.453072,-229.828649,9992.780217
2270.240923,1036.288319,-229.828649,9770.718434
2270.241244,1480.411884,76.609550,9178.553681
2270.241566,0.000000,-229.828649,8808.450710
2270.241888,-814.226536,-229.828649,9992.780217
2270.242210,592.164754,-229.828649,10140.821405
2270.242532,444.123565,-1455.581446,9770.718434
2270.242853,-1110.308913,-612.876398,9918.759623
2270.243175,-2368.659014,-536.266849,10066.800811
2270.243497,-1184.329507,-766.095498,9326.594869
2270.243819,740.205942,-1149.143247,9178.553681
2270.244140,222.061783,-229.828649,9548.656652
2270.244462,-1332.370696,306.438199,9622.677246
2270.244784,-740.205942,-306.438199,8808.450710
2270.245106,1554.432478,-229.828649,9178.553681
2270.245428,814.226536,76.609550,9030.512492
2270.245749,-888.247130,536.266849,9252.574275
2270.246071,-666.185348,1072.533697,9474.636058
2270.246393,0.000000,612.876398,8808.450710
2270.246715,592.164754,229.828649,8364.327145
2270.247036,0.000000,612.876398,8882.471304
2270.247358,-1258.350101,1378.971896,8956.491898
2270.247680,-962.267725,459.657299,7994.224174
2270.248002,-370.102971,229.828649,9104.533087
2270.248324,-1110.308913,459.657299,9030.512492
2270.248645,-1776.494261,459.657299,9400.615463
2270.248967,-1480.411884,459.657299,8956.491898
2270.249289,370.102971,919.314598,9326.594869
2270.249611,-296.082377,1455.581446,9770.718434
2270.249933,-370.102971,612.876398,10436.903782
2270.250254,444.123565,1302.362347,9548.656652
2270.250576,1110.308913,1225.752797,8734.430116
2270.250898,370.102971,995.924147,9548.656652
2270.251220,-740.205942,766.095498,10214.842000
2270.251541,-1036.288319,842.705048,10140.821405
2270.251863,296.082377,1072.533697,8808.450710
2270.252185,-444.123565,1378.971896,8882.471304
2270.252507,-814.226536,1532.190996,9548.656652
2270.252829,0.000000,1685.410096,8956.491898
2270.253150,1924.535449,1838.629195,8512.368333
2270.253472,2368.659014,1762.019645,7698.141797
2270.253794,370.102971,1072.533697,8586.388927
2270.254116,444.123565,1455.581446,8512.368333
2270.254437,1406.391290,1225.752797,9104.533087
2270.254759,740.205942,842.705048,8660.409521
2270.255081,-592.164754,689.485948,9104.533087
2270.255403,-1554.432478,229.828649,9326.594869
2270.255725,148.041188,0.000000,9400.615463
2270.256046,814.226536,76.609550,9474.636058
2270.256368,-592.164754,306.438199,8956.491898
2270.256690,-592.164754,0.000000,9844.739029
2270.257012,74.020594,0.000000,9696.697840
2270.257333,1406.391290,-153.219100,9992.780217
2270.257655,296.082377,536.266849,10436.903782
2270.257977,-1480.411884,153.219100,10214.842000
2270.258299,-444.123565,-153.219100,9844.739029
2270.258621,740.205942,0.000000,8216.285956
2270.258942,1110.308913,76.609550,9030.512492
2270.259264,0.000000,0.000000,9474.636058
2270.259586,-1702.473667,-383.047749,8808.450710
2270.259908,-370.102971,-612.876398,8586.388927
2270.260229,222.061783,-995.924147,8586.388927
2270.260551,-1332.370696,-1149.143247,9474.636058
2270.260873,-2590.720797,-153.219100,9178.553681
2270.261195,-740.205942,-459.657299,9252.574275
2270.261517,222.061783,0.000000,8956.491898
2270.261838,0.000000,-306.438199,9474.636058
2270.262160,-444.123565,76.609550,9770.718434
2270.262482,296.082377,612.876398,8882.471304
2270.262804,518.144159,229.828649,9030.512492
2270.263125,296.082377,306.438199,10066.800811
2270.263447,-1702.473667,-306.438199,10214.842000
2270.263769,-1554.432478,383.047749,9622.677246
2270.264091,-1184.329507,229.828649,9474.636058
2270.264413,-1702.473667,-383.047749,9696.697840
2270.264734,-1628.453072,-76.609550,9918.759623
2270.265056,-1258.350101,995.924147,8882.471304
2270.265378,296.082377,689.485948,7846.182985
2270.265700,-296.082377,-383.047749,8734.430116
2270.266021,-1702.473667,76.609550,9400.615463
2270.266343,-1258.350101,153.219100,9548.656652
2270.266665,-814.226536,766.095498,8956.491898
2270.266987,-1036.288319,459.657299,8956.491898
2270.267309,-1332.370696,766.095498,9474.636058
2270.267630,-1332.370696,459.657299,8438.347739
2270.267952,666.185348,1378.971896,8660.409521
2270.268274,1480.411884,766.095498,8660.409521
2270.268596,370.102971,1608.800546,9400.615463
2270.268917,222.061783,1225.752797,9622.677246
2270.269239,1332.370696,1455.581446,9696.697840
2270.269561,2516.700203,1838.629195,10066.800811
2270.269883,1406.391290,1991.848295,9992.780217
2270.270205,-370.102971,2145.067394,9474.636058
2270.270526,1258.350101,1685.410096,9474.636058
2270.270848,1776.494261,1302.362347,8438.347739
2270.271170,666.185348,1915.238745,8956.491898
2270.271492,-1110.308913,1225.752797,9252.574275
2270.271813,-1332.370696,383.047749,8882.471304
2270.272135,222.061783,689.485948,8142.265362
2270.272457,-222.061783,1072.533697,8142.265362
2270.272779,-1776.494261,1455.581446,9326.594869
2270.273101,-1998.556043,1149.143247,8882.471304
2270.273422,666.185348,1072.533697,8290.306550
2270.273744,1554.432478,1072.533697,8438.347739
2270.274066,0.000000,1072.533697,8808.450710
2270.274388,222.061783,1149.143247,9696.697840
2270.274709,888.247130,536.266849,9030.512492
2270.275031,1110.308913,76.609550,9400.615463
2270.275353,444.123565,306.438199,10140.821405
2270.275675,-1628.453072,229.828649,10288.862594
2270.275997,-740.205942,306.438199,9548.656652
2270.276318,518.144159,0.000000,10140.821405
2270.276640,74.020594,766.095498,10214.842000
2270.276962,-814.226536,766.095498,9844.739029
2270.277284,222.061783,766.095498,8956.491898
2270.277606,1480.411884,153.219100,8808.450710
2270.277927,592.164754,76.609550,8956.491898
2270.278249,-666.185348,0.000000,9474.636058
2270.278571,-740.205942,229.828649,9474.636058
2270.278893,-962.267725,0.000000,8808.450710
2270.279214,-888.247130,-612.876398,8956.491898
2270.279536,-1406.391290,-459.657299,8808.450710
2270.279858,-1776.494261,-919.314598,8808.450710
2270.280180,-444.123565,-689.485948,8438.347739
2270.280502,-296.082377,-766.095498,9030.512492
2270.280823,-1258.350101,-612.876398,9992.780217
2270.281145,-1406.391290,-689.485948,10288.862594
2270.281467,0.000000,-459.657299,9104.533087
2270.281789,74.020594,536.266849,10288.862594
2270.282110,-666.185348,-76.609550,10214.842000
2270.282432,-1258.350101,-459.657299,10881.027347
2270.282754,814.226536,0.000000,10140.821405
2270.283076,1036.288319,229.828649,9104.533087
2270.283398,0.000000,153.219100,9400.615463
2270.283719,-1332.370696,0.000000,9622.677246
2270.284041,-740.205942,0.000000,9696.697840
2270.284363,296.082377,0.000000,8734.430116
2270.284685,-592.164754,766.095498,9030.512492
2270.285006,-2812.782580,383.047749,9178.553681
2270.285328,-1480.411884,459.657299,9104.533087
2270.285650,1332.370696,306.438199,8586.388927
2270.285972,1628.453072,995.924147,8364.327145
2270.286294,-222.061783,1455.581446,7920.203579
2270.286615,148.041188,766.095498,8808.450710
2270.286937,1332.370696,612.876398,7920.203579
2270.287259,1480.411884,1225.752797,7920.203579
2270.287581,0.000000,1608.800546,9474.636058
2270.287902,-1406.391290,1991.848295,9178.553681
2270.288224,148.041188,1685.410096,9252.574275
2270.288546,1480.411884,1608.800546,8956.491898
2270.288868,444.123565,2298.286494,9104.533087
2270.289190,-888.247130,1991.848295,9474.636058
2270.289511,0.000000,1991.848295,9474.636058
2270.289833,1554.432478,1225.752797,9696.697840
2270.290155,518.144159,842.705048,10066.800811
2270.290477,-1406.391290,1149.143247,9770.718434
2270.290798,-666.185348,1378.971896,9844.739029
2270.291120,0.000000,995.924147,8956.491898
2270.291442,962.267725,459.657299,9400.615463
2270.291764,-296.082377,919.314598,9474.636058
2270.292086,-370.102971,995.924147,8290.306550
2270.292407,666.185348,1072.533697,7920.203579
2270.292729,814.226536,689.485948,8142.265362
2270.293051,0.000000,842.705048,9770.718434
2270.293373,-666.185348,1072.533697,8660.409521
2270.293694,518.144159,1302.362347,8660.409521
2270.294016,1258.350101,1225.752797,8216.285956
2270.294338,0.000000,536.266849,8660.409521
2270.294660,148.041188,612.876398,9622.677246
2270.294982,296.082377,536.266849,9104.533087
2270.295303,74.020594,0.000000,8438.347739
2270.295625,-444.123565,0.000000,9104.533087
2270.295947,-1332.370696,-1915.238745,9178.553681
2270.296269,-1702.473667,-1149.143247,10066.800811
2270.296590,-1258.350101,-1225.752797,9770.718434
2270.296912,-2294.638420,-1302.362347,9992.780217
2270.297234,-1924.535449,-1149.143247,10658.965565
2270.297556,-148.041188,-612.876398,10214.842000
2270.297878,1554.432478,-995.924147,9474.636058
2270.298199,888.247130,-153.219100,9030.512492
2270.298521,-814.226536,-383.047749,8956.491898
2270.298843,0.000000,-995.924147,10288.862594
2270.299165,1036.288319,-459.657299,9844.739029
2270.299486,0.000000,-229.828649,9696.697840
2270.299808,-1480.411884,-612.876398,9474.636058
2270.300130,-2368.659014,-919.314598,9474.636058
2270.300452,518.144159,-842.705048,9104.533087
2270.300774,518.144159,-383.047749,8512.368333
2270.301095,-1480.411884,229.828649,8438.347739
2270.301417,-1998.556043,-229.828649,9178.553681
2270.301739,74.020594,229.828649,9030.512492
2270.302061,1036.288319,153.219100,9104.533087
2270.302382,-1258.350101,153.219100,9104.533087
2270.302704,-2664.741391,536.266849,9992.780217
2270.303026,-962.267725,76.609550,9548.656652
2270.303348,1110.308913,-229.828649,9030.512492
2270.303670,0.000000,76.609550,8882.471304
2270.303991,-1628.453072,842.705048,8808.450710
2270.304313,-1332.370696,919.314598,8660.409521
2270.304635,296.082377,842.705048,9104.533087
2270.304957,74.020594,459.657299,9326.594869
2270.305278,-888.247130,1378.971896,9474.636058
2270.305600,-1184.329507,1991.848295,9400.615463
2270.305922,666.185348,1838.629195,9474.636058
2270.306244,1554.432478,1532.190996,9770.718434
2270.306566,296.082377,1455.581446,9030.512492
2270.306887,666.185348,2068.457845,9178.553681
2270.307209,888.247130,2374.896044,8734.430116
2270.307531,1036.288319,1225.752797,8364.327145
2270.307853,296.082377,995.924147,9474.636058
2270.308175,-666.185348,1225.752797,9400.615463
2270.308496,-148.041188,1532.190996,9326.594869
2270.308818,518.144159,1378.971896,9474.636058
2270.309140,222.061783,1608.800546,9474.636058
2270.309462,0.000000,1915.238745,10288.862594
2270.309783,888.247130,1762.019645,9400.615463
2270.310105,1998.556043,2528.115143,8734.430116
2270.310427,1406.391290,1455.581446,8956.491898
2270.310749,-296.082377,1072.533697,9474.636058
2270.311071,444.123565,1225.752797,9474.636058
2270.311392,814.226536,1302.362347,8660.409521
2270.311714,-814.226536,689.485948,8512.368333
2270.312036,-1554.432478,0.000000,9474.636058
2270.312358,-1554.432478,383.047749,9030.512492
2270.312680,444.123565,76.609550,8142.265362
2270.313002,-296.082377,153.219100,7772.162391
2270.313324,-1702.473667,153.219100,9252.574275
2270.313645,-1998.556043,-306.438199,9474.636058
2270.313967,296.082377,-76.609550,9252.574275
2270.314289,370.102971,-383.047749,8808.450710
2270.314611,-1332.370696,0.000000,9622.677246
2270.314933,-1406.391290,-306.438199,10510.924376
2270.315255,740.205942,0.000000,10066.800811
2270.315576,1332.370696,-766.095498,9548.656652
2270.315898,370.102971,0.000000,10140.821405
2270.316220,-1480.411884,-306.438199,10214.842000
2270.316542,-370.102971,-766.095498,9474.636058
2270.316864,740.205942,-612.876398,10140.821405
2270.317186,-370.102971,-383.047749,9918.759623
2270.317508,-1776.494261,-459.657299,10436.903782
2270.317829,-1110.308913,0.000000,9400.615463
2270.318151,1332.370696,0.000000,9252.574275
2270.318473,962.267725,0.000000,9178.553681
2270.318795,-740.205942,842.705048,8734.430116
2270.319117,-518.144159,1072.533697,8882.471304
2270.319439,222.061783,383.047749,7920.203579
2270.319760,296.082377,-383.047749,8142.265362
2270.320082,-1184.329507,-306.438199,8956.491898
2270.320404,-3034.844362,-229.828649,8290.306550
2270.320726,-1406.391290,-306.438199,8142.265362
2270.321048,-518.144159,-306.438199,8734.430116
2270.321370,-444.123565,229.828649,9548.656652
2270.321692,-962.267725,612.876398,9992.780217
2270.322013,370.102971,153.219100,8956.491898
2270.322335,1776.494261,612.876398,9400.615463
2270.322657,370.102971,383.047749,10510.924376
2270.322979,-962.267725,306.438199,11325.150913
2270.323301,0.000000,766.095498,10510.924376
2270.323623,0.000000,919.314598,9918.759623
2270.323944,-148.041188,1302.362347,10584.944971
2270.324266,-962.267725,842.705048,10214.842000
2270.324588,74.020594,689.485948,9400.615463
2270.324910,1258.350101,1225.752797,8142.265362
2270.325232,296.082377,1455.581446,8586.388927
2270.325554,-518.144159,1302.362347,9474.636058
2270.325876,0.000000,1072.533697,8956.491898
2270.326197,1776.494261,1991.848295,7624.121203
2270.326519,740.205942,1838.629195,8290.306550
2270.326841,-666.185348,1455.581446,8512.368333
2270.327163,592.164754,1225.752797,8808.450710
2270.327485,2072.576638,1685.410096,8438.347739
2270.327807,1850.514855,1915.238745,8216.285956
2270.328128,888.247130,1991.848295,8882.471304
2270.328450,-814.226536,1072.533697,9178.553681
2270.328772,518.144159,1915.238745,9252.574275
2270.329094,888.247130,1149.143247,9474.636058
2270.329416,-1332.370696,612.876398,9400.615463
2270.329738,-2442.679609,1149.143247,9696.697840
2270.330060,-592.164754,919.314598,9770.718434
2270.330381,1110.308913,612.876398,8956.491898
2270.330703,-370.102971,995.924147,8882.471304
2270.331025,-2072.576638,459.657299,9474.636058
2270.331347,-1036.288319,612.876398,9770.718434
2270.331669,444.123565,-459.657299,9252.574275
2270.331991,-444.123565,-306.438199,9030.512492
2270.332312,-2146.597232,0.000000,9696.697840
2270.332634,-2590.720797,-153.219100,9252.574275
2270.332956,0.000000,-919.314598,8660.409521
2270.333278,1406.391290,-995.924147,8956.491898
2270.333600,74.020594,306.438199,9548.656652
2270.333922,-370.102971,0.000000,8512.368333
2270.334244,1184.329507,-306.438199,8660.409521
2270.334565,1998.556043,-229.828649,9400.615463
2270.334887,222.061783,0.000000,10807.006753
2270.335209,-814.226536,0.000000,10955.047942
2270.335531,0.000000,-153.219100,10214.842000
2270.335853,444.123565,-306.438199,9474.636058
2270.336175,0.000000,-459.657299,10436.903782
2270.336496,-1702.473667,-612.876398,9918.759623
2270.336818,-1332.370696,-842.705048,8808.450710
2270.337140,-888.247130,-689.485948,8364.327145
2270.337462,-1480.411884,-1072.533697,9030.512492
2270.337784,-2368.659014,-1378.971896,10214.842000
2270.338106,-2812.782580,-766.095498,9178.553681
2270.338428,-740.205942,-229.828649,9252.574275
2270.338749,-518.144159,-153.219100,8660.409521
2270.339071,-962.267725,-229.828649,9252.574275
2270.339393,296.082377,0.000000,9252.574275
2270.339715,1702.473667,766.095498,7994.224174
2270.340037,1776.494261,995.924147,9030.512492
2270.340359,370.102971,306.438199,9548.656652
2270.340680,-148.041188,459.657299,9548.656652
2270.341002,1258.350101,612.876398,9474.636058
2270.341324,814.226536,1302.362347,9326.594869
2270.341646,-888.247130,1225.752797,9474.636058
2270.341968,-740.205942,995.924147,9992.780217
2270.342290,1110.308913,1608.800546,9474.636058
2270.342612,1776.494261,2145.067394,8882.471304
2270.342933,0.000000,1302.362347,8364.327145
2270.343255,-1850.514855,1455.581446,9178.553681
2270.343577,-740.205942,1149.143247,9622.677246
2270.343899,-222.061783,1149.143247,9474.636058
2270.344221,-1480.411884,766.095498,9252.574275
2270.344543,-2812.782580,842.705048,8956.491898
2270.344865,-1406.391290,1149.143247,8882.471304
2270.345186,518.144159,1455.581446,8586.388927
2270.345508,518.144159,995.924147,9030.512492
2270.345830,-888.247130,1838.629195,9104.533087
2270.346152,-370.102971,1532.190996,9030.512492
2270.346474,1998.556043,1302.362347,9104.533087
2270.346796,2072.576638,1302.362347,9622.677246
2270.347117,0.000000,1685.410096,9548.656652
2270.347439,-518.144159,1149.143247,9770.718434
2270.347761,666.185348,1149.143247,9104.533087
2270.348083,1850.514855,1225.752797,8956.491898
2270.348405,814.226536,1225.752797,9770.718434
2270.348727,-962.267725,1302.362347,9030.512492
2270.349049,0.000000,766.095498,8586.388927
2270.349370,740.205942,-306.438199,8660.409521
2270.349692,0.000000,306.438199,9252.574275
2270.350014,-1480.411884,0.000000,10140.821405
2270.350336,-1332.370696,383.047749,9104.533087
2270.350658,296.082377,0.000000,9622.677246
2270.350980,0.000000,0.000000,9622.677246
2270.351301,-740.205942,-229.828649,9548.656652
2270.351623,0.000000,-229.828649,9474.636058
2270.351945,666.185348,-229.828649,8216.285956
2270.352267,666.185348,-766.095498,9474.636058
2270.352589,-370.102971,-842.705048,10288.862594
2270.352911,-1406.391290,-689.485948,9992.780217
2270.353233,-444.123565,-612.876398,9030.512492
2270.353554,-888.247130,-383.047749,9178.553681
2270.353876,-1110.308913,-306.438199,9252.574275
2270.354198,-1036.288319,536.266849,9178.553681
2270.354520,814.226536,459.657299,8290.306550
2270.354842,740.205942,766.095498,8438.347739
2270.355164,-740.205942,-383.047749,9622.677246
2270.355485,-1184.329507,0.000000,10288.862594
2270.355807,-148.041188,76.609550,9770.718434
2270.356129,-222.061783,0.000000,9252.574275
2270.356451,-1258.350101,383.047749,9474.636058
2270.356773,-1702.473667,153.219100,9548.656652
2270.357095,0.000000,0.000000,9770.718434
2270.357417,1184.329507,153.219100,9104.533087
2270.357738,-296.082377,229.828649,8734.430116
2270.358060,-962.267725,919.314598,9474.636058
2270.358382,0.000000,919.314598,9548.656652
2270.358704,1480.411884,1225.752797,8956.491898
2270.359026,518.144159,383.047749,9252.574275
2270.359348,-1998.556043,1532.190996,8734.430116
2270.359669,-888.247130,1225.752797,9400.615463
2270.359991,370.102971,689.485948,8734.430116
2270.360313,296.082377,1072.533697,8438.347739
2270.360635,-888.247130,1455.581446,8364.327145
2270.360957,-2368.659014,766.095498,8586.388927
2270.361279,0.000000,229.828649,8882.471304
2270.361601,148.041188,459.657299,9252.574275
2270.361922,-962.267725,766.095498,9474.636058
2270.362244,-2146.597232,1225.752797,10140.821405
2270.362566,-148.041188,1149.143247,9252.574275
2270.362888,2368.659014,1455.581446,9844.739029
2270.363210,1554.432478,1455.581446,9548.656652
2270.363532,518.144159,1532.190996,10066.800811
2270.363853,1184.329507,1991.848295,9770.718434
2270.364175,1998.556043,1149.143247,9178.553681
2270.364497,1258.350101,1149.143247,9918.759623
2270.364819,-444.123565,1149.143247,9918.759623
2270.365141,-888.247130,1072.533697,9326.594869
2270.365463,370.102971,1149.143247,8364.327145
2270.365785,518.144159,153.219100,8512.368333
2270.366106,0.000000,995.924147,9030.512492
2270.366428,-296.082377,1685.410096,8734.430116
2270.366750,888.247130,1072.533697,7476.080014
2270.367072,1258.350101,689.485948,8290.306550
2270.367394,-518.144159,-153.219100,8808.450710
2270.367716,-666.185348,0.000000,9992.780217
2270.368037,0.000000,306.438199,8586.388927
2270.368359,74.020594,-1149.143247,9326.594869
2270.368681,-1036.288319,-842.705048,9252.574275
2270.369003,-1332.370696,-919.314598,9696.697840
2270.369325,222.061783,-536.266849,9474.636058
2270.369647,1184.329507,-459.657299,9326.594869
2270.369969,-296.082377,0.000000,10214.842000
2270.370290,-592.164754,-919.314598,10881.027347
2270.370612,74.020594,-766.095498,9992.780217
2270.370934,1554.432478,-536.266849,10140.821405
2270.371256,-370.102971,-153.219100,9844.739029
2270.371578,-2072.576638,-536.266849,10140.821405
2270.371900,0.000000,-766.095498,10436.903782
2270.372221,1036.288319,-306.438199,9178.553681
2270.372543,0.000000,0.000000,8512.368333
2270.372865,-1258.350101,0.000000,8586.388927
2270.373187,-1776.494261,-766.095498,8956.491898
2270.373509,296.082377,-383.047749,8364.327145
2270.373831,-518.144159,-229.828649,8364.327145
2270.374153,-2294.638420,229.828649,8586.388927
2270.374474,-2442.679609,0.000000,8660.409521
2270.374796,0.000000,0.000000,8734.430116
2270.375118,888.247130,229.828649,8882.471304
2270.375440,-666.185348,306.438199,8734.430116
2270.375762,-1036.288319,459.657299,9252.574275
2270.376084,0.000000,153.219100,9770.718434
2270.376405,518.144159,-153.219100,10140.821405
2270.376727,-592.164754,76.609550,10584.944971
2270.377049,-2738.761985,536.266849,10510.924376
2270.377371,-1776.494261,842.705048,9548.656652
2270.377693,74.020594,536.266849,9548.656652
2270.378015,370.102971,689.485948,9252.574275
2270.378337,-592.164754,1762.019645,10140.821405
2270.378658,-1110.308913,2068.457845,8882.471304
2270.378980,1184.329507,689.485948,8068.244768
2270.379302,814.226536,842.705048,8438.347739
2270.379624,-518.144159,1302.362347,9104.533087
2270.379946,-666.185348,2068.457845,9400.615463
2270.380268,444.123565,612.876398,8068.244768
2270.380590,1702.473667,1072.533697,8364.327145
2270.380911,148.041188,995.924147,9622.677246
2270.381233,-296.082377,1532.190996,8808.450710
2270.381555,666.185348,1225.752797,8586.388927
2270.381877,1332.370696,1072.533697,9178.553681
2270.382199,74.020594,766.095498,9474.636058
2270.382521,0.000000,1149.143247,9844.739029
2270.382842,296.082377,1915.238745,9030.512492
2270.383164,1184.329507,1762.019645,9178.553681
2270.383486,148.041188,1608.800546,10362.883188
2270.383808,-592.164754,1685.410096,9992.780217
2270.384130,814.226536,1302.362347,9622.677246
2270.384452,1406.391290,1455.581446,7846.182985
2270.384774,0.000000,689.485948,8364.327145
2270.385095,-1850.514855,689.485948,8808.450710
2270.385417,-1332.370696,0.000000,9400.615463
2270.385739,-592.164754,153.219100,8438.347739
2270.386061,-1554.432478,153.219100,9104.533087
2270.386383,-2294.638420,229.828649,9252.574275
2270.386705,-1332.370696,0.000000,9178.553681
2270.387026,1554.432478,-306.438199,8216.285956
2270.387348,962.267725,612.876398,7994.224174
2270.387670,518.144159,0.000000,9030.512492
2270.387992,0.000000,76.609550,10140.821405
2270.388314,1332.370696,0.000000,9622.677246
2270.388636,888.247130,-689.485948,9770.718434
2270.388958,-592.164754,0.000000,10436.903782
2270.389279,-1850.514855,0.000000,10436.903782
2270.389601,-296.082377,-1072.533697,9474.636058
2270.389923,1036.288319,-306.438199,9326.594869
2270.390245,-296.082377,0.000000,8956.491898
2270.390567,-1628.453072,0.000000,9252.574275
2270.390889,-1110.308913,0.000000,9548.656652
2270.391210,740.205942,-229.828649,9622.677246
2270.391532,-296.082377,-689.485948,10362.883188
2270.391854,-2368.659014,0.000000,9474.636058
2270.392176,-1702.473667,-766.095498,9548.656652
2270.392498,-222.061783,-536.266849,8956.491898
2270.392820,222.061783,-689.485948,9030.512492
2270.393142,-814.226536,-459.657299,9252.574275
2270.393463,-1406.391290,0.000000,8512.368333
2270.393785,-296.082377,76.609550,8290.306550
2270.394107,962.267725,-229.828649,9178.553681
2270.394429,0.000000,0.000000,9844.739029
2270.394751,-1184.329507,919.314598,9474.636058
2270.395073,296.082377,1455.581446,9400.615463
2270.395394,1702.473667,1072.533697,9326.594869
2270.395716,592.164754,842.705048,9400.615463
2270.396038,-592.164754,1838.629195,10140.821405
2270.396360,74.020594,1302.362347,8808.450710
2270.396682,148.041188,536.266849,8068.244768
2270.397004,0.000000,536.266849,9622.677246
2270.397326,-1850.514855,612.876398,9918.759623
2270.397647,-1406.391290,842.705048,9252.574275
2270.397969,-1036.288319,995.924147,8734.430116
2270.398291,-1036.288319,1302.362347,8882.471304
2270.398613,-814.226536,919.314598,9918.759623
2270.398935,0.000000,1762.019645,8660.409521
2270.399257,2294.638420,1915.238745,8364.327145
2270.399578,1628.453072,1915.238745,7846.182985
2270.399900,74.020594,1455.581446,8660.409521
2270.400222,592.164754,1608.800546,9770.718434
2270.400544,1036.288319,1608.800546,8882.471304
2270.400866,666.185348,995.924147,8734.430116
2270.401188,-592.164754,1532.190996,9474.636058
2270.401510,-1036.288319,1149.143247,9770.718434
2270.401831,814.226536,689.485948,8808.450710
2270.402153,962.267725,1072.533697,9326.594869
2270.402475,-666.185348,1378.971896,9030.512492
2270.402797,-740.205942,689.485948,9326.594869
2270.403119,592.164754,842.705048,9548.656652
2270.403441,1332.370696,766.095498,9400.615463
2270.403762,0.000000,919.314598,9844.739029
2270.404084,-1850.514855,842.705048,9474.636058
2270.404406,-296.082377,459.657299,9696.697840
2270.404728,1628.453072,0.000000,8734.430116
2270.405050,666.185348,0.000000,9548.656652
2270.405372,-444.123565,0.000000,9178.553681
2270.405694,-518.144159,-689.485948,9252.574275
2270.406015,444.123565,76.609550,8512.368333
2270.406337,0.000000,-766.095498,9252.574275
2270.406659,-1258.350101,0.000000,9770.718434
2270.406981,-1554.432478,-459.657299,9104.533087
2270.407303,370.102971,-383.047749,9178.553681
2270.407625,1184.329507,0.000000,8068.244768
2270.407946,-666.185348,229.828649,8956.491898
2270.408268,-296.082377,76.609550,9030.512492
2270.408590,-370.102971,-689.485948,8808.450710
2270.408912,0.000000,-842.705048,8882.471304
2270.409234,-222.061783,-995.924147,10436.903782
2270.409556,-1924.535449,-995.924147,10066.800811
2270.409878,-1184.329507,-1072.533697,9474.636058
2270.410199,0.000000,-1378.971896,9844.739029
2270.410521,74.020594,-766.095498,9918.759623
2270.410843,-444.123565,-459.657299,10807.006753
2270.411165,148.041188,-76.609550,9844.739029
2270.411487,1776.494261,0.000000,9548.656652
2270.411808,1258.350101,0.000000,9474.636058
2270.412130,-296.082377,0.000000,10066.800811
2270.412452,0.000000,76.609550,10288.862594
2270.412774,-74.020594,-229.828649,8734.430116
2270.413095,-518.144159,459.657299,8660.409521
2270.413417,-1628.453072,0.000000,8216.285956
2270.413739,-1776.494261,0.000000,8586.388927
2270.414061,-296.082377,919.314598,8660.409521
2270.414382,-814.226536,229.828649,7476.080014
2270.414704,-2146.597232,612.876398,8734.430116
2270.415026,-2368.659014,919.314598,8956.491898
2270.415348,-1184.329507,383.047749,8660.409521
2270.415669,0.000000,842.705048,8660.409521
2270.415991,-1850.514855,1378.971896,9030.512492
2270.416313,-1924.535449,766.095498,9992.780217
2270.416635,-296.082377,1225.752797,9918.759623
2270.416956,1184.329507,1072.533697,9030.512492
2270.417278,296.082377,1302.362347,9400.615463
2270.417600,-370.102971,1608.800546,9844.739029
2270.417922,148.041188,1532.190996,10140.821405
2270.418243,2294.638420,1608.800546,9622.677246
2270.418565,1184.329507,1991.848295,10066.800811
2270.418887,-740.205942,2298.286494,10214.842000
2270.419209,296.082377,2451.505594,9622.677246
2270.419531,2664.741391,2298.286494,9104.533087
2270.419852,2442.679609,2298.286494,8364.327145
2270.420174,518.144159,2911.162892,8660.409521
2270.420496,0.000000,2451.505594,9104.533087
2270.420818,1036.288319,1149.143247,8142.265362
2270.421139,962.267725,919.314598,7846.182985
2270.421461,-814.226536,1455.581446,8734.430116
2270.421783,-2960.823768,1302.362347,8734.430116
2270.422105,-1258.350101,766.095498,8290.306550
2270.422426,0.000000,-153.219100,8438.347739
2270.422748,-888.247130,919.314598,8216.285956
2270.423070,-1776.494261,612.876398,9104.533087
2270.423392,-444.123565,536.266849,8956.491898
2270.423713,1258.350101,306.438199,9474.636058
2270.424035,370.102971,0.000000,9844.739029
2270.424357,-1332.370696,306.438199,10584.944971
2270.424679,-740.205942,-612.876398,10214.842000
2270.425000,444.123565,-229.828649,9400.615463
2270.425322,592.164754,-1225.752797,10362.883188
2270.425644,-444.123565,-383.047749,10584.944971
2270.425966,74.020594,0.000000,9844.739029
2270.426287,1258.350101,0.000000,9030.512492
2270.426609,148.041188,-536.266849,9104.533087
2270.426931,-296.082377,-689.485948,9252.574275
2270.427253,0.000000,0.000000,9622.677246
2270.427574,518.144159,306.438199,8290.306550
2270.427896,0.000000,-153.219100,9252.574275
2270.428218,-1036.288319,-229.828649,8808.450710
2270.428540,-740.205942,-766.095498,9400.615463
2270.428862,-222.061783,-766.095498,8364.327145
2270.429183,-444.123565,-229.828649,8586.388927
2270.429505,-1554.432478,-383.047749,9326.594869
2270.429827,-2590.720797,-1685.410096,9400.615463
2270.430149,-1554.432478,-1225.752797,9400.615463
2270.430470,-1332.370696,-536.266849,9770.718434
2270.430792,-2812.782580,0.000000,9770.718434
2270.431114,-2664.741391,0.000000,10288.862594
2270.431436,-1036.288319,459.657299,8956.491898
2270.431757,1406.391290,536.266849,8512.368333
2270.432079,74.020594,1225.752797,8512.368333
2270.432401,-1036.288319,919.314598,9178.553681
2270.432723,222.061783,766.095498,9696.697840
2270.433044,1184.329507,612.876398,9030.512492
2270.433366,740.205942,842.705048,8660.409521
2270.433688,-592.164754,1225.752797,9104.533087
2270.434010,-2072.576638,689.485948,8882.471304
2270.434331,888.247130,153.219100,8586.388927
2270.434653,1184.329507,459.657299,8882.471304
2270.434975,0.000000,1608.800546,9104.533087
2270.435297,-148.041188,1608.800546,9326.594869
2270.435618,1850.514855,1532.190996,9104.533087
2270.435940,2146.597232,1378.971896,8660.409521
2270.436262,1480.411884,2374.896044,9104.533087
2270.436584,-444.123565,2374.896044,10362.883188
2270.436906,74.020594,1532.190996,9696.697840
2270.437227,1406.391290,1072.533697,9326.594869
2270.437549,1036.288319,1532.190996,9622.677246
2270.437871,-1184.329507,1762.019645,9548.656652
2270.438193,-740.205942,1608.800546,8216.285956
2270.438514,444.123565,1149.143247,8512.368333
2270.438836,0.000000,0.000000,8438.347739
2270.439158,-1554.432478,766.095498,9030.512492
2270.439480,-2442.679609,766.095498,9178.553681
2270.439801,0.000000,842.705048,8660.409521
2270.440123,296.082377,229.828649,9474.636058
2270.440445,-592.164754,306.438199,9622.677246
2270.440767,518.144159,689.485948,9992.780217
2270.441088,2072.576638,1149.143247,7476.080014
2270.441410,2146.597232,766.095498,8734.430116
2270.441732,962.267725,766.095498,9918.759623
2270.442054,0.000000,306.438199,9844.739029
2270.442375,1332.370696,536.266849,9474.636058
2270.442697,814.226536,229.828649,9252.574275
2270.443019,148.041188,306.438199,9844.739029
2270.443341,-1036.288319,-536.266849,10288.862594
2270.443662,814.226536,0.000000,9696.697840
2270.443984,1258.350101,76.609550,9326.594869
2270.444306,-1036.288319,-459.657299,9252.574275
2270.444628,-2368.659014,-1225.752797,9992.780217
2270.444949,-1776.494261,-1072.533697,9770.718434
2270.445271,-1110.308913,-995.924147,8882.471304
2270.445593,-2442.679609,-995.924147,8808.450710
2270.445915,-3552.988522,-919.314598,9104.533087
2270.446237,-1924.535449,-1225.752797,8660.409521
2270.446558,-888.247130,-995.924147,8586.388927
2270.446880,-888.247130,-689.485948,8586.388927
2270.447202,-1702.473667,-306.438199,9030.512492
2270.447524,-592.164754,-919.314598,9178.553681
2270.447845,1850.514855,-306.438199,8882.471304
2270.448167,1776.494261,689.485948,9474.636058
2270.448489,222.061783,1072.533697,10807.006753
2270.448811,-296.082377,842.705048,10807.006753
2270.449132,1332.370696,0.000000,10066.800811
2270.449454,1628.453072,306.438199,9696.697840
2270.449776,444.123565,1225.752797,10214.842000
2270.450098,-1480.411884,766.095498,9104.533087
2270.450419,-1036.288319,689.485948,9622.677246
2270.450741,-666.185348,0.000000,9474.636058
2270.451063,-2220.617826,0.000000,9252.574275
2270.451385,-3552.988522,536.266849,8660.409521
2270.451706,-3182.885551,842.705048,8808.450710
2270.452028,-666.185348,689.485948,8512.368333
2270.452350,296.082377,612.876398,8808.450710
2270.452672,-1332.370696,919.314598,8734.430116
2270.452993,-296.082377,1762.019645,8660.409521
2270.453315,740.205942,995.924147,8216.285956
2270.453637,1332.370696,1302.362347,8512.368333
2270.453959,518.144159,1608.800546,9844.739029
2270.454281,-592.164754,1838.629195,9622.677246
2270.454602,962.267725,1915.238745,8512.368333
2270.454924,888.247130,1378.971896,8364.327145
2270.455246,962.267725,1838.629195,9400.615463
2270.455568,296.082377,2451.505594,9474.636058
2270.455889,1480.411884,2451.505594,8882.471304
2270.456211,2072.576638,2068.457845,8882.471304
2270.456533,814.226536,1302.362347,9030.512492
2270.456855,-592.164754,1225.752797,10214.842000
2270.457176,0.000000,1455.581446,9474.636058
2270.457498,0.000000,1455.581446,8290.306550
2270.457820,-592.164754,1149.143247,9696.697840
2270.458142,-1776.494261,536.266849,9770.718434
2270.458463,-444.123565,153.219100,9622.677246
2270.458785,814.226536,0.000000,8512.368333
2270.459107,-148.041188,459.657299,8956.491898
2270.459429,-962.267725,0.000000,9770.718434
2270.459750,-444.123565,76.609550,9844.739029
2270.460072,2072.576638,-383.047749,9622.677246
2270.460394,592.164754,0.000000,8882.471304
2270.460716,-1406.391290,459.657299,9474.636058
2270.461037,-370.102971,-306.438199,9770.718434
2270.461359,1406.391290,-612.876398,8956.491898
2270.461681,1110.308913,229.828649,8956.491898
2270.462003,-370.102971,459.657299,9474.636058
2270.462324,-1924.535449,0.000000,8586.388927
2270.462646,222.061783,-612.876398,8438.347739
2270.462968,148.041188,-1149.143247,8734.430116
2270.463290,-1628.453072,-76.609550,9474.636058
2270.463612,-2294.638420,-383.047749,10288.862594
2270.463933,-222.061783,-459.657299,9918.759623
2270.464255,1480.411884,-229.828649,9918.759623
2270.464577,592.164754,-612.876398,9474.636058
2270.464899,-666.185348,-229.828649,9400.615463
2270.465220,-74.020594,-459.657299,9474.636058
2270.465542,1036.288319,-689.485948,9252.574275
2270.465864,296.082377,-689.485948,10362.883188
2270.466186,-1628.453072,-689.485948,10510.924376
2270.466507,-2146.597232,-306.438199,9770.718434
2270.466829,-888.247130,-459.657299,9400.615463
2270.467151,296.082377,-612.876398,9548.656652
2270.467473,-592.164754,76.609550,9326.594869
2270.467794,-962.267725,689.485948,8364.327145
2270.468116,444.123565,689.485948,7772.162391
2270.468438,1036.288319,919.314598,8734.430116
2270.468760,-296.082377,306.438199,9400.615463
2270.469081,-814.226536,612.876398,9104.533087
2270.469403,-592.164754,1225.752797,8660.409521
2270.469725,296.082377,766.095498,8660.409521
2270.470047,148.041188,306.438199,9548.656652
2270.470368,-962.267725,689.485948,9770.718434
2270.470690,-370.102971,1072.533697,9252.574275
2270.471012,296.082377,689.485948,9030.512492
2270.471334,0.000000,995.924147,9474.636058
2270.471655,-592.164754,995.924147,10214.842000
2270.471977,0.000000,1762.019645,9696.697840
2270.472299,1258.350101,2145.067394,9622.677246
2270.472621,222.061783,1838.629195,9474.636058
2270.472943,-1036.288319,1838.629195,9474.636058
2270.473264,296.082377,1838.629195,9252.574275
2270.473586,1036.288319,1838.629195,7994.224174
2270.473908,296.082377,2068.457845,8142.265362
2270.474230,-370.102971,1991.848295,8660.409521
2270.474551,-1406.391290,612.876398,8586.388927
2270.474873,-296.082377,919.314598,8438.347739
2270.475195,-666.185348,1072.533697,8660.409521
2270.475517,-2072.576638,1378.971896,9548.656652
2270.475838,-1554.432478,536.266849,9992.780217
2270.476160,1480.411884,1455.581446,9178.553681
2270.476482,2220.617826,1991.848295,8438.347739
2270.476804,962.267725,1532.190996,8438.347739
2270.477125,444.123565,995.924147,9918.759623
2270.477447,1480.411884,1225.752797,9992.780217
2270.477769,2220.617826,536.266849,9474.636058
2270.478091,1184.329507,612.876398,9992.780217
2270.478412,-1332.370696,1302.362347,10732.986159
2270.478734,0.000000,0.000000,9770.718434
2270.479056,1554.432478,0.000000,8734.430116
2270.479378,962.267725,229.828649,8586.388927
2270.479699,-1110.308913,383.047749,9252.574275
2270.480021,-1480.411884,153.219100,8956.491898
2270.480343,814.226536,-1149.143247,8290.306550
2270.480665,148.041188,-1072.533697,9104.533087
2270.480987,-1924.535449,-766.095498,9548.656652
2270.481308,-2368.659014,-689.485948,9844.739029
2270.481630,-1258.350101,-1072.533697,9030.512492
2270.481952,0.000000,-1532.190996,9474.636058
2270.482274,-296.082377,-1225.752797,9770.718434
2270.482595,-1110.308913,-842.705048,8882.471304
2270.482917,444.123565,-766.095498,8290.306550
2270.483239,1036.288319,-689.485948,8808.450710
2270.483561,74.020594,-383.047749,10584.944971
2270.483882,-666.185348,-306.438199,11177.109724
2270.484204,-370.102971,153.219100,10436.903782
2270.484526,888.247130,0.000000,9844.739029
2270.484848,370.102971,-306.438199,10658.965565
2270.485169,-666.185348,-229.828649,9918.759623
2270.485491,592.164754,76.609550,9474.636058
2270.485813,0.000000,306.438199,8808.450710
2270.486135,-814.226536,-459.657299,8512.368333
2270.486456,-1924.535449,-459.657299,9474.636058
2270.486778,-2516.700203,-689.485948,8660.409521
2270.487100,-1776.494261,-229.828649,8216.285956
2270.487422,-2368.659014,0.000000,8882.471304
2270.487743,-2294.638420,-153.219100,9178.553681
2270.488065,-1554.432478,306.438199,9622.677246
2270.488387,0.000000,459.657299,8512.368333
2270.488709,592.164754,842.705048,7994.224174
2270.489030,-518.144159,1149.143247,9474.636058
2270.489352,-592.164754,766.095498,10510.924376
2270.489674,814.226536,1072.533697,9696.697840
2270.489996,370.102971,1608.800546,9030.512492
2270.490318,-518.144159,1532.190996,9548.656652
2270.490639,-2220.617826,1378.971896,10362.883188
2270.490961,518.144159,1149.143247,10066.800811
2270.491283,1702.473667,1685.410096,9326.594869
2270.491605,74.020594,2374.896044,8586.388927
2270.491926,-666.185348,2298.286494,9030.512492
2270.492248,518.144159,1455.581446,8290.306550
2270.492570,2294.638420,2298.286494,8586.388927
2270.492892,962.267725,1685.410096,8438.347739
2270.493213,-1258.350101,2221.676944,8734.430116
2270.493535,-296.082377,1991.848295,9474.636058
2270.493857,1628.453072,1455.581446,8068.244768
2270.494179,1628.453072,1302.362347,8290.306550
2270.494500,222.061783,1378.971896,8734.430116
2270.494822,-888.247130,1608.800546,8808.450710
2270.495144,74.020594,536.266849,8364.327145
2270.495466,592.164754,-153.219100,9252.574275
2270.495787,-962.267725,766.095498,9918.759623
2270.496109,-2368.659014,1072.533697,10362.883188
2270.496431,-592.164754,1685.410096,10214.842000
2270.496753,1702.473667,229.828649,10288.862594
2270.497074,888.247130,1072.533697,9400.615463
2270.497396,-296.082377,1149.143247,9474.636058
2270.497718,370.102971,919.314598,9400.615463
2270.498040,592.164754,229.828649,9252.574275
2270.498362,370.102971,-536.266849,9252.574275
2270.498683,-1776.494261,0.000000,9548.656652
2270.499005,-1924.535449,0.000000,9252.574275
2270.499327,-1036.288319,-153.219100,8512.368333
2270.499649,-296.082377,-1302.362347,8882.471304
2270.499970,-592.164754,-1225.752797,9844.739029
2270.500292,-444.123565,-689.485948,9622.677246
2270.500614,592.164754,-689.485948,8586.388927
2270.500936,814.226536,-995.924147,9252.574275
2270.501257,-518.144159,-1072.533697,9844.739029
2270.501579,0.000000,-689.485948,10140.821405
2270.501901,444.123565,-612.876398,8882.471304
2270.502223,0.000000,-229.828649,8734.430116
2270.502544,-370.102971,-459.657299,9992.780217
2270.502866,-888.247130,-536.266849,9770.718434
2270.503188,148.041188,-612.876398,8660.409521
2270.503510,666.185348,-306.438199,8586.388927
2270.503831,-1110.308913,-383.047749,9326.594869
2270.504153,-1332.370696,-612.876398,10140.821405
2270.504475,-370.102971,-306.438199,9548.656652
2270.504797,666.185348,-229.828649,9030.512492
2270.505118,-1184.329507,0.000000,9770.718434
2270.505440,-2220.617826,-536.266849,9844.739029
2270.505762,-444.123565,-995.924147,10510.924376
2270.506084,888.247130,-459.657299,9252.574275
2270.506405,74.020594,459.657299,8808.450710
2270.506727,-1480.411884,536.266849,9474.636058
2270.507049,-592.164754,0.000000,8882.471304
2270.507371,1110.308913,459.657299,8808.450710
2270.507693,666.185348,1072.533697,8660.409521
2270.508014,-1628.453072,1762.019645,9622.677246
2270.508336,-1480.411884,2298.286494,9326.594869
2270.508658,740.205942,1762.019645,8364.327145
2270.508980,1776.494261,2451.505594,8808.450710
2270.509301,296.082377,2451.505594,8364.327145
2270.509623,-370.102971,2451.505594,9030.512492
2270.509945,518.144159,2145.067394,9326.594869
2270.510267,1110.308913,1149.143247,8660.409521
2270.510588,-296.082377,1225.752797,9400.615463
2270.510910,-1924.535449,2451.505594,9400.615463
2270.511232,-592.164754,1838.629195,9548.656652
2270.511554,814.226536,1685.410096,9326.594869
2270.511875,814.226536,1378.971896,9474.636058
2270.512197,-518.144159,2221.676944,9326.594869
2270.512519,-296.082377,2221.676944,8438.347739
2270.512841,1480.411884,2068.457845,9252.574275
2270.513162,1332.370696,1378.971896,9178.553681
2270.513484,-148.041188,1455.581446,9474.636058
2270.513806,-518.144159,2068.457845,9104.533087
2270.514128,296.082377,1149.143247,8808.450710
2270.514450,74.020594,766.095498,8956.491898
2270.514771,-222.061783,306.438199,9622.677246
2270.515093,-1332.370696,306.438199,9030.512492
2270.515415,-296.082377,995.924147,8142.265362
2270.515737,0.000000,-383.047749,8586.388927
2270.516058,-666.185348,-153.219100,9844.739029
2270.516380,-518.144159,229.828649,10288.862594
2270.516702,-296.082377,459.657299,9030.512492
2270.517024,962.267725,383.047749,9030.512492
2270.517346,222.061783,0.000000,9992.780217
2270.517667,0.000000,0.000000,10362.883188
2270.517989,1480.411884,306.438199,10510.924376
2270.518311,2516.700203,76.609550,8882.471304
2270.518633,1036.288319,-383.047749,8512.368333
2270.518954,-518.144159,-842.705048,9178.553681
2270.519276,148.041188,-919.314598,10288.862594
2270.519598,962.267725,-1072.533697,9030.512492
2270.519920,-444.123565,-995.924147,9696.697840
2270.520242,-2072.576638,-459.657299,9992.780217
2270.520563,-814.226536,-1532.190996,9844.739029
2270.520885,814.226536,-842.705048,8586.388927
2270.521207,962.267725,-689.485948,8586.388927
2270.521529,-1332.370696,-612.876398,9474.636058
2270.521850,-1184.329507,-919.314598,9844.739029
2270.522172,222.061783,-1455.581446,8956.491898
2270.522494,-74.020594,-995.924147,9030.512492
2270.522816,-1776.494261,-536.266849,9252.574275
2270.523138,-3034.844362,-919.314598,9770.718434
2270.523459,-1110.308913,-1762.019645,9400.615463
2270.523781,148.041188,-1532.190996,9622.677246
2270.524103,-444.123565,-459.657299,10362.883188
2270.524425,-1850.514855,76.609550,9770.718434
2270.524746,-296.082377,-383.047749,9178.553681
2270.525068,1628.453072,0.000000,9770.718434
2270.525390,518.144159,383.047749,9992.780217
2270.525712,-1110.308913,1072.533697,9844.739029
2270.526034,-370.102971,1072.533697,9696.697840
2270.526355,814.226536,1072.533697,9252.574275
2270.526677,666.185348,1302.362347,9252.574275
2270.526999,-592.164754,1378.971896,9770.718434
2270.527321,-1480.411884,1762.019645,8512.368333
2270.527643,-296.082377,2681.334243,7476.080014
2270.527964,-370.102971,1302.362347,7624.121203
2270.528286,-1406.391290,1302.362347,8364.327145
2270.528608,-2072.576638,2145.067394,8660.409521
2270.528930,-1258.350101,2068.457845,8882.471304
2270.529251,-370.102971,1072.533697,8734.430116
2270.529573,-518.144159,766.095498,9252.574275
2270.529895,-962.267725,1532.190996,9770.718434
2270.530217,0.000000,2298.286494,9104.533087
2270.530539,518.144159,2298.286494,8734.430116
2270.530860,518.144159,1532.190996,9252.574275
2270.531182,-370.102971,1991.848295,10214.842000
2270.531504,296.082377,2298.286494,9844.739029
2270.531826,1110.308913,2068.457845,9474.636058
2270.532147,1184.329507,2681.334243,9400.615463
2270.532469,0.000000,2757.943793,10436.903782
2270.532791,1628.453072,2145.067394,9844.739029
2270.533113,2664.741391,2145.067394,9030.512492
2270.533435,1776.494261,2451.505594,8512.368333
2270.533756,-296.082377,1915.238745,8364.327145
2270.534078,0.000000,1532.190996,8734.430116
2270.534400,666.185348,995.924147,8808.450710
2270.534722,-666.185348,1378.971896,7994.224174
2270.535043,-2664.741391,229.828649,8512.368333
2270.535365,-2886.803174,-612.876398,8882.471304
2270.535687,-1184.329507,-995.924147,8290.306550
2270.536009,74.020594,-842.705048,8882.471304
2270.536331,-1036.288319,0.000000,8586.388927
2270.536652,-1702.473667,-306.438199,9474.636058
2270.536974,518.144159,-766.095498,9844.739029
2270.537296,1554.432478,-306.438199,9918.759623
2270.537618,740.205942,-229.828649,9770.718434
2270.537939,-518.144159,0.000000,10955.047942
2270.538261,962.267725,-153.219100,11029.068536
2270.538583,2368.659014,-919.314598,9770.718434
2270.538905,1998.556043,-306.438199,9844.739029
2270.539227,296.082377,-383.047749,9770.718434
2270.539548,-666.185348,-1072.533697,9400.615463
2270.539870,296.082377,-1838.629195,9030.512492
2270.540192,74.020594,-2145.067394,9918.759623
2270.540514,-1554.432478,-1455.581446,10288.862594
2270.540835,-2960.823768,-1225.752797,9474.636058
2270.541157,-592.164754,-1455.581446,8956.491898
2270.541479,296.082377,-1302.362347,8438.347739
2270.541801,-592.164754,-1378.971896,9104.533087
2270.542123,-1406.391290,-1225.752797,9104.533087
2270.542444,-666.185348,-459.657299,8216.285956
2270.542766,0.000000,-842.705048,8586.388927
2270.543088,-814.226536,-919.314598,9770.718434
2270.543410,-1998.556043,-689.485948,9252.574275
2270.543732,-1406.391290,766.095498,9400.615463
2270.544053,-444.123565,229.828649,9992.780217
2270.544375,-370.102971,612.876398,10436.903782
2270.544697,0.000000,689.485948,10436.903782
2270.545019,222.061783,1378.971896,9474.636058
2270.545340,1406.391290,1838.629195,9178.553681
2270.545662,888.247130,1455.581446,9474.636058
2270.545984,-296.082377,995.924147,9326.594869
2270.546306,222.061783,1915.238745,9400.615463
2270.546628,666.185348,1378.971896,8660.409521
2270.546949,-296.082377,1915.238745,8438.347739
2270.547271,-1332.370696,1378.971896,8956.491898
2270.547593,-740.205942,1225.752797,8586.388927
2270.547915,296.082377,2221.676944,7920.203579
2270.548236,0.000000,2451.505594,8216.285956
2270.548558,-740.205942,2145.067394,8142.265362
2270.548880,-740.205942,1762.019645,8956.491898
2270.549202,296.082377,2221.676944,8882.471304
2270.549524,592.164754,2528.115143,9030.512492
2270.549845,-592.164754,2528.115143,9178.553681
2270.550167,-592.164754,2451.505594,9844.739029
2270.550489,1554.432478,2604.724693,9474.636058
2270.550811,1924.535449,2451.505594,8734.430116
2270.551132,1110.308913,2681.334243,9548.656652
2270.551454,-296.082377,2451.505594,9474.636058
2270.551776,296.082377,1302.362347,9030.512492
2270.552098,1258.350101,1302.362347,9178.553681
2270.552420,148.041188,1302.362347,9844.739029
2270.552741,-1036.288319,919.314598,9844.739029
2270.553063,-1110.308913,1225.752797,9400.615463
2270.553385,1850.514855,229.828649,9252.574275
2270.553707,1406.391290,0.000000,9252.574275
2270.554028,0.000000,229.828649,9030.512492
2270.554350,0.000000,76.609550,9474.636058
2270.554672,666.185348,0.000000,9400.615463
2270.554994,592.164754,-1072.533697,8660.409521
2270.555316,-296.082377,-1455.581446,8882.471304
2270.555637,-2442.679609,-766.095498,8734.430116
2270.555959,-1480.411884,-536.266849,9178.553681
2270.556281,-518.144159,-1455.581446,10214.842000
2270.556603,-1036.288319,-1532.190996,9622.677246
2270.556925,-1628.453072,-1149.143247,9326.594869
2270.557246,-370.102971,-995.924147,8438.347739
2270.557568,666.185348,-1455.581446,9474.636058
2270.557890,888.247130,-1532.190996,10362.883188
2270.558212,-1258.350101,-1225.752797,11029.068536
2270.558533,-1332.370696,-1225.752797,9918.759623
2270.558855,-296.082377,-1455.581446,9030.512492
2270.559177,222.061783,-1378.971896,9030.512492
2270.559499,-592.164754,-1378.971896,9622.677246
2270.559821,222.061783,-536.266849,9548.656652
2270.560142,1258.350101,0.000000,8808.450710
2270.560464,592.164754,-842.705048,9178.553681
2270.560786,-518.144159,-1149.143247,10214.842000
2270.561108,-814.226536,-689.485948,9696.697840
2270.561429,0.000000,0.000000,9252.574275
2270.561751,74.020594,459.657299,9918.759623
2270.562073,-1110.308913,229.828649,9104.533087
2270.562395,-962.267725,612.876398,8586.388927
2270.562717,-74.020594,0.000000,8512.368333
2270.563038,-592.164754,306.438199,8216.285956
2270.563360,-1776.494261,-306.438199,9326.594869
2270.563682,-2664.741391,76.609550,9474.636058
2270.564004,-1110.308913,306.438199,9474.636058
2270.564325,-1036.288319,383.047749,9252.574275
2270.564647,-2442.679609,1149.143247,9178.553681
2270.564969,-2442.679609,1072.533697,9474.636058
2270.565291,-962.267725,1225.752797,9178.553681
2270.565613,740.205942,1762.019645,9622.677246
2270.565934,888.247130,1915.238745,9030.512492
2270.566256,-222.061783,2528.115143,9178.553681
2270.566578,1258.350101,2374.896044,9252.574275
2270.566900,1924.535449,1915.238745,8660.409521
2270.567221,1850.514855,2374.896044,8364.327145
2270.567543,296.082377,3064.381992,8956.491898
2270.567865,-666.185348,2451.505594,8586.388927
2270.568187,1480.411884,1991.848295,8216.285956
2270.568509,1776.494261,1838.629195,7846.182985
2270.568830,370.102971,2757.943793,8882.471304
2270.569152,-666.185348,2757.943793,8956.491898
2270.569474,518.144159,2068.457845,9178.553681
2270.569796,1480.411884,689.485948,9178.553681
2270.570117,74.020594,1762.019645,9474.636058
2270.570439,-1850.514855,1608.800546,9770.718434
2270.570761,-1110.308913,1225.752797,9622.677246
2270.571083,888.247130,689.485948,9474.636058
2270.571405,740.205942,459.657299,9770.718434
2270.571726,-296.082377,1302.362347,9844.739029
2270.572048,296.082377,1455.581446,9252.574275
2270.572370,1776.494261,1149.143247,9844.739029
2270.572692,962.267725,536.266849,9474.636058
2270.573014,-222.061783,919.314598,10362.883188
2270.573335,0.000000,919.314598,9252.574275
2270.573657,1554.432478,766.095498,8586.388927
2270.573979,962.267725,689.485948,9844.739029
2270.574301,-444.123565,0.000000,9474.636058
2270.574622,-296.082377,153.219100,9770.718434
2270.574944,-148.041188,-383.047749,7994.224174
2270.575266,-592.164754,-919.314598,8068.244768
2270.575588,-1924.535449,-919.314598,9252.574275
2270.575910,-3182.885551,-1302.362347,8734.430116
2270.576231,-1850.514855,-1455.581446,8438.347739
2270.576553,-2590.720797,-689.485948,8734.430116
2270.576875,-3256.906145,-1455.581446,9326.594869
2270.577197,-2516.700203,-1149.143247,10362.883188
2270.577518,-444.123565,-459.657299,9918.759623
2270.577840,1258.350101,-383.047749,9252.574275
2270.578162,370.102971,-306.438199,9252.574275
2270.578484,-592.164754,-689.485948,10436.903782
2270.578806,592.164754,-995.924147,10436.903782
2270.579127,1850.514855,-612.876398,10140.821405
2270.579449,296.082377,-459.657299,9844.739029
2270.579771,-518.144159,153.219100,10362.883188
2270.580093,0.000000,-229.828649,10288.862594
2270.580414,1924.535449,-229.828649,9178.553681
2270.580736,740.205942,459.657299,8586.388927
2270.581058,-1184.329507,689.485948,8660.409521
2270.581380,-1480.411884,76.609550,8512.368333
2270.581702,74.020594,-536.266849,8364.327145
2270.582023,518.144159,229.828649,8586.388927
2270.582345,-1184.329507,536.266849,8734.430116
2270.582667,-2442.679609,766.095498,9770.718434
2270.582989,-1110.308913,0.000000,9178.553681
2270.583310,370.102971,-306.438199,8068.244768
2270.583632,-148.041188,919.314598,8956.491898
2270.583954,-2146.597232,995.924147,9104.533087
2270.584276,-962.267725,689.485948,9326.594869
2270.584598,1110.308913,689.485948,9622.677246
2270.584919,592.164754,919.314598,9844.739029
2270.585241,-370.102971,1762.019645,9918.759623
2270.585563,-296.082377,2604.724693,9104.533087
2270.585885,2368.659014,2374.896044,9474.636058
2270.586206,2960.823768,2145.067394,9474.636058
2270.586528,1184.329507,2145.067394,9252.574275
2270.586850,1554.432478,2911.162892,9030.512492
2270.587172,1776.494261,2145.067394,8734.430116
2270.587494,2072.576638,1608.800546,8216.285956
2270.587815,1036.288319,1762.019645,9178.553681
2270.588137,0.000000,2221.676944,8734.430116
2270.588459,-370.102971,1915.238745,8290.306550
2270.588781,444.123565,1149.143247,7772.162391
2270.589103,-444.123565,995.924147,8660.409521
2270.589424,-592.164754,1991.848295,9252.574275
2270.589746,444.123565,1455.581446,8882.471304
2270.590068,1110.308913,1378.971896,8882.471304
2270.590390,-666.185348,383.047749,9030.512492
2270.590711,-1702.473667,306.438199,10288.862594
2270.591033,-1184.329507,76.609550,9844.739029
2270.591355,-1258.350101,306.438199,9474.636058
2270.591677,-1924.535449,0.000000,9918.759623
2270.591999,-2590.720797,-153.219100,10362.883188
2270.592320,-1702.473667,-383.047749,9474.636058
2270.592642,518.144159,0.000000,8660.409521
2270.592964,-888.247130,-229.828649,8808.450710
2270.593286,-1110.308913,-766.095498,9844.739029
2270.593607,-740.205942,-383.047749,9622.677246
2270.593929,1184.329507,-306.438199,8956.491898
2270.594251,518.144159,229.828649,9104.533087
2270.594573,-1110.308913,-153.219100,9252.574275
2270.594895,-370.102971,-766.095498,9548.656652
2270.595216,888.247130,-689.485948,9622.677246
2270.595538,1258.350101,-689.485948,8882.471304
2270.595860,0.000000,-766.095498,9252.574275
2270.596182,-1554.432478,-1072.533697,9548.656652
2270.596503,0.000000,-1302.362347,9474.636058
2270.596825,888.247130,-1072.533697,9992.780217
2270.597147,-666.185348,-383.047749,10140.821405
2270.597469,-1628.453072,-306.438199,9770.718434
2270.597791,148.041188,153.219100,9622.677246
2270.598112,1480.411884,-306.438199,9326.594869
2270.598434,740.205942,0.000000,9474.636058
2270.598756,-1332.370696,459.657299,9474.636058
2270.599078,-740.205942,306.438199,9770.718434
2270.599399,222.061783,-459.657299,9030.512492
2270.599721,-370.102971,-459.657299,8660.409521
2270.600043,-2368.659014,-229.828649,9030.512492
2270.600365,-3108.864956,76.609550,9252.574275
2270.600687,-1332.370696,-306.438199,9104.533087
2270.601008,-518.144159,-842.705048,8808.450710
2270.601330,-888.247130,229.828649,9622.677246
2270.601652,-888.247130,1225.752797,9474.636058
2270.601974,814.226536,919.314598,8734.430116
2270.602296,1702.473667,1378.971896,8216.285956
