#time,accel_x,accel_y,accel_z
5467.242703,888.247130,1072.533697,9030.512492
5467.243026,148.041188,766.095498,8586.388927
5467.243349,0.000000,459.657299,9844.739029
5467.243673,0.000000,229.828649,9622.677246
5467.243996,148.041188,766.095498,9104.533087
5467.244319,148.041188,536.266849,8808.450710
5467.244642,-1036.288319,153.219100,9104.533087
5467.244965,-888.247130,0.000000,9696.697840
5467.245288,-518.144159,306.438199,9474.636058
5467.245611,-888.247130,766.095498,8512.368333
5467.245934,-814.226536,766.095498,8734.430116
5467.246257,-592.164754,306.438199,10214.842000
5467.246581,444.123565,766.095498,9252.574275
5467.246904,74.020594,1225.752797,8216.285956
5467.247227,0.000000,766.095498,9104.533087
5467.247550,0.000000,306.438199,9844.739029
5467.247873,0.000000,459.657299,9548.656652
5467.248196,888.247130,1302.362347,8882.471304
5467.248519,-222.061783,766.095498,8660.409521
5467.248842,-1184.329507,689.485948,9770.718434
5467.249166,0.000000,459.657299,10214.842000
5467.249489,592.164754,766.095498,9548.656652
5467.249812,0.000000,995.924147,8512.368333
5467.250135,-740.205942,1302.362347,9696.697840
5467.250458,888.247130,612.876398,9770.718434
5467.250781,1628.453072,1302.362347,8808.450710
5467.251104,888.247130,1762.019645,8290.306550
5467.251427,370.102971,995.924147,9400.615463
5467.251751,222.061783,919.314598,10288.862594
5467.252074,1110.308913,1455.581446,9622.677246
5467.252397,1480.411884,1685.410096,8808.450710
5467.252720,518.144159,1302.362347,10214.842000
5467.253043,296.082377,1302.362347,10510.924376
5467.253366,1332.370696,1762.019645,10436.903782
5467.253689,1702.473667,2221.676944,9622.677246
5467.254012,1258.350101,2374.896044,9622.677246
5467.254336,740.205942,1532.190996,10362.883188
5467.254659,2516.700203,2298.286494,10362.883188
5467.254982,3034.844362,3140.991542,9030.512492
5467.255305,3182.885551,3753.867940,8068.244768
5467.255628,3256.906145,2528.115143,9622.677246
5467.255951,2738.761985,3217.601092,9844.739029
5467.256274,3849.070898,3907.087040,9178.553681
5467.256597,4293.194464,3983.696590,8512.368333
5467.256920,2886.803174,3524.039291,9178.553681
5467.257244,2664.741391,3524.039291,9918.759623
5467.257567,3108.864956,4136.915689,8586.388927
5467.257890,3256.906145,4749.792088,8586.388927
5467.258213,2738.761985,4596.572988,8364.327145
5467.258536,2146.597232,3907.087040,9030.512492
5467.258859,2738.761985,4060.306139,8586.388927
5467.259182,3404.947333,4749.792088,7179.997637
5467.259505,2220.617826,4903.011187,6957.935855
5467.259829,2220.617826,4366.744339,8438.347739
5467.260152,1776.494261,3677.258390,8438.347739
5467.260475,2294.638420,4596.572988,7846.182985
5467.260798,1776.494261,3983.696590,8068.244768
5467.261121,370.102971,3370.820191,9252.574275
5467.261444,296.082377,2987.772442,10214.842000
5467.261767,740.205942,3064.381992,9770.718434
5467.262090,592.164754,2451.505594,8956.491898
5467.262414,-592.164754,2145.067394,9844.739029
5467.262737,0.000000,1532.190996,10140.821405
5467.263060,1406.391290,1915.238745,9844.739029
5467.263383,1702.473667,2604.724693,8364.327145
5467.263706,2368.659014,2911.162892,9326.594869
5467.264029,2590.720797,3294.210641,10362.883188
5467.264352,4071.132681,3524.039291,9326.594869
5467.264675,5329.482782,4673.182538,8438.347739
5467.264999,4293.194464,3677.258390,9400.615463
5467.265322,2664.741391,2834.553343,10658.965565
5467.265645,2590.720797,2145.067394,10510.924376
5467.265968,2146.597232,1838.629195,9992.780217
5467.266291,1258.350101,1455.581446,9252.574275
5467.266614,370.102971,1149.143247,9918.759623
5467.266937,962.267725,1378.971896,10510.924376
5467.267260,1924.535449,1838.629195,9252.574275
5467.267583,592.164754,1532.190996,7772.162391
5467.267907,74.020594,459.657299,8882.471304
5467.268230,-296.082377,153.219100,9252.574275
5467.268553,-370.102971,766.095498,8808.450710
5467.268876,296.082377,1991.848295,8438.347739
5467.269199,-962.267725,1149.143247,9474.636058
5467.269522,-222.061783,229.828649,10066.800811
5467.269845,0.000000,919.314598,9548.656652
5467.270168,1110.308913,1608.800546,8586.388927
5467.270492,1628.453072,1685.410096,8586.388927
5467.270815,2368.659014,2451.505594,9474.636058
5467.271138,4737.318029,2834.553343,9622.677246
5467.271461,5477.523971,3907.087040,9104.533087
5467.271784,4589.276840,3677.258390,8512.368333
5467.272107,3627.009116,2681.334243,10140.821405
5467.272430,2738.761985,2451.505594,10807.006753
5467.272753,2664.741391,2145.067394,11029.068536
5467.273077,2220.617826,2145.067394,10584.944971
5467.273400,-518.144159,1915.238745,10732.986159
5467.273723,-1184.329507,689.485948,10436.903782
5467.274046,-74.020594,1685.410096,8956.491898
5467.274369,1332.370696,3217.601092,7402.059420
5467.274692,2294.638420,4290.134789,7920.203579
5467.275015,3775.050304,5209.449386,9030.512492
5467.275338,5403.503377,5898.935335,7846.182985
5467.275662,5699.585753,6205.373534,6439.791695
5467.275985,4219.173869,5592.497135,7550.100608
5467.276308,2812.782580,4673.182538,9770.718434
5467.276631,1184.329507,3217.601092,11843.295072
5467.276954,518.144159,2757.943793,11103.089130
5467.277277,0.000000,2298.286494,9622.677246
5467.277600,-666.185348,1608.800546,10066.800811
5467.277923,-814.226536,2221.676944,9474.636058
5467.278246,0.000000,3447.429741,8364.327145
5467.278570,1554.432478,3600.648841,6587.832884
5467.278893,2220.617826,4060.306139,6809.894666
5467.279216,2590.720797,4290.134789,7772.162391
5467.279539,2812.782580,5209.449386,8290.306550
5467.279862,2960.823768,5439.278036,7772.162391
5467.280185,3478.967927,5056.230287,8808.450710
5467.280508,3478.967927,4903.011187,10362.883188
5467.280831,2368.659014,3983.696590,11325.150913
5467.281155,3256.906145,3600.648841,9770.718434
5467.281478,1776.494261,2681.334243,10436.903782
5467.281801,962.267725,1915.238745,10510.924376
5467.282124,962.267725,1149.143247,10362.883188
5467.282447,1406.391290,1455.581446,8512.368333
5467.282770,2368.659014,2911.162892,7550.100608
5467.283093,1776.494261,3217.601092,8882.471304
5467.283416,2960.823768,3370.820191,9178.553681
5467.283740,4515.256246,4366.744339,8586.388927
5467.284063,3108.864956,3983.696590,8142.265362
5467.284386,1702.473667,3140.991542,9844.739029
5467.284709,2072.576638,2528.115143,10881.027347
5467.285032,3108.864956,3140.991542,10362.883188
5467.285355,1628.453072,2911.162892,10066.800811
5467.285678,-888.247130,995.924147,10658.965565
5467.286001,-592.164754,306.438199,10732.986159
5467.286324,-148.041188,612.876398,9548.656652
5467.286648,0.000000,1072.533697,8216.285956
5467.286971,666.185348,919.314598,7624.121203
5467.287294,1184.329507,1378.971896,7624.121203
5467.287617,3034.844362,2528.115143,8512.368333
5467.287940,4071.132681,3294.210641,8068.244768
5467.288263,3256.906145,3830.477490,8586.388927
5467.288586,2072.576638,2757.943793,10436.903782
5467.288909,2368.659014,2298.286494,11103.089130
5467.289233,2664.741391,2757.943793,10584.944971
5467.289556,1850.514855,2834.553343,9918.759623
5467.289879,-148.041188,1608.800546,10362.883188
5467.290202,-962.267725,459.657299,9474.636058
5467.290525,-666.185348,76.609550,8142.265362
5467.290848,888.247130,919.314598,6661.853478
5467.291171,888.247130,2068.457845,7179.997637
5467.291494,1332.370696,2221.676944,9178.553681
5467.291818,3775.050304,2757.943793,9696.697840
5467.292141,3627.009116,3753.867940,8882.471304
5467.292464,2664.741391,3600.648841,8512.368333
5467.292787,2960.823768,2604.724693,11843.295072
5467.293110,1406.391290,3217.601092,12065.356855
5467.293433,1554.432478,2374.896044,11621.233289
5467.293756,518.144159,1302.362347,10584.944971
5467.294079,-1628.453072,536.266849,10658.965565
5467.294403,-1702.473667,995.924147,9844.739029
5467.294726,-518.144159,536.266849,8586.388927
5467.295049,222.061783,2145.067394,6661.853478
5467.295372,1776.494261,2298.286494,6587.832884
5467.295695,2812.782580,2604.724693,8068.244768
5467.296018,3108.864956,3447.429741,7624.121203
5467.296341,3997.112087,3983.696590,7402.059420
5467.296664,3775.050304,4366.744339,9178.553681
5467.296987,3256.906145,3830.477490,11843.295072
5467.297311,2664.741391,3447.429741,12213.398043
5467.297634,2516.700203,2911.162892,11325.150913
5467.297957,2516.700203,2681.334243,10881.027347
5467.298280,1998.556043,1838.629195,11029.068536
5467.298603,1406.391290,2221.676944,10510.924376
5467.298926,1850.514855,2528.115143,9326.594869
5467.299249,2368.659014,2987.772442,6587.832884
5467.299572,4959.379811,2987.772442,5699.585753
5467.299894,5181.441594,4903.011187,6883.915261
5467.300217,4737.318029,4826.401637,7179.997637
5467.300540,3997.112087,4903.011187,8438.347739
5467.300863,3404.947333,4826.401637,8068.244768
5467.301186,3552.988522,4519.963438,10658.965565
5467.301509,3404.947333,3907.087040,10362.883188
5467.301832,1110.308913,3677.258390,11251.130318
5467.302155,518.144159,3524.039291,10732.986159
5467.302478,148.041188,2374.896044,10288.862594
5467.302800,1036.288319,3064.381992,9474.636058
5467.303123,592.164754,3140.991542,8512.368333
5467.303446,-592.164754,2681.334243,7920.203579
5467.303769,74.020594,3600.648841,7550.100608
5467.304092,3034.844362,3983.696590,7402.059420
5467.304415,3182.885551,4749.792088,6661.853478
5467.304738,1998.556043,4903.011187,7698.141797
5467.305061,1036.288319,3830.477490,10140.821405
5467.305384,1554.432478,3907.087040,9918.759623
5467.305706,2812.782580,4213.525239,10510.924376
5467.306029,1702.473667,3217.601092,9844.739029
5467.306352,-666.185348,842.705048,10362.883188
5467.306675,-296.082377,153.219100,9992.780217
5467.306998,-148.041188,1915.238745,9770.718434
5467.307321,592.164754,2451.505594,8734.430116
5467.307644,-814.226536,1608.800546,9104.533087
5467.307967,-370.102971,1455.581446,8882.471304
5467.308289,2146.597232,1685.410096,7920.203579
5467.308612,888.247130,3447.429741,7328.038826
5467.308935,592.164754,2451.505594,9622.677246
5467.309258,1258.350101,1838.629195,9770.718434
5467.309581,1184.329507,1302.362347,11251.130318
5467.309904,1480.411884,2451.505594,9844.739029
5467.310227,296.082377,842.705048,10066.800811
5467.310550,666.185348,383.047749,9400.615463
5467.310873,888.247130,919.314598,9400.615463
5467.311195,2368.659014,229.828649,8290.306550
5467.311518,814.226536,842.705048,7920.203579
5467.311841,2368.659014,1149.143247,7698.141797
5467.312164,4589.276840,1072.533697,7476.080014
5467.312487,3997.112087,2451.505594,9252.574275
5467.312810,4589.276840,2911.162892,7772.162391
5467.313133,4515.256246,1991.848295,9400.615463
5467.313456,4811.338623,1762.019645,10510.924376
5467.313779,4589.276840,1455.581446,11621.233289
5467.314101,2516.700203,-229.828649,10510.924376
5467.314424,962.267725,-459.657299,10807.006753
5467.314747,0.000000,-536.266849,12065.356855
5467.315070,-888.247130,-1762.019645,11621.233289
5467.315393,-296.082377,-766.095498,9696.697840
5467.315716,0.000000,1378.971896,8882.471304
5467.316039,-2368.659014,-383.047749,9474.636058
5467.316362,-1036.288319,-536.266849,9548.656652
5467.316685,962.267725,689.485948,8142.265362
5467.317007,1184.329507,2145.067394,7550.100608
5467.317330,0.000000,1532.190996,9252.574275
5467.317653,-370.102971,1838.629195,11177.109724
5467.317976,2294.638420,2451.505594,9030.512492
5467.318299,2590.720797,2987.772442,8734.430116
5467.318622,222.061783,1838.629195,10140.821405
5467.318945,-518.144159,2068.457845,11177.109724
5467.319268,1702.473667,2374.896044,9474.636058
5467.319591,2516.700203,3370.820191,9030.512492
5467.319913,1628.453072,3447.429741,8808.450710
5467.320236,370.102971,2987.772442,9992.780217
5467.320559,3627.009116,4213.525239,8142.265362
5467.320882,1924.535449,3830.477490,9104.533087
5467.321205,518.144159,3524.039291,7994.224174
5467.321528,370.102971,2987.772442,9252.574275
5467.321851,-1332.370696,2757.943793,9030.512492
5467.322174,-2146.597232,2834.553343,8512.368333
5467.322497,-3627.009116,1838.629195,8216.285956
5467.322819,-4219.173869,1149.143247,6957.935855
5467.323142,-4145.153275,1915.238745,6809.894666
5467.323465,-4737.318029,995.924147,6883.915261
5467.323788,-3034.844362,1838.629195,5699.585753
5467.324111,-3034.844362,1685.410096,5847.626942
5467.324434,-3775.050304,995.924147,8660.409521
5467.324757,-1998.556043,689.485948,8512.368333
5467.325080,-222.061783,1149.143247,7846.182985
5467.325403,518.144159,2221.676944,9696.697840
5467.325725,222.061783,1532.190996,11325.150913
5467.326048,1332.370696,0.000000,12139.377449
5467.326371,4367.215058,1455.581446,10066.800811
5467.326694,3775.050304,1302.362347,11103.089130
5467.327017,3034.844362,0.000000,10732.986159
5467.327340,3404.947333,536.266849,12065.356855
5467.327663,4589.276840,612.876398,9622.677246
5467.327986,3923.091493,459.657299,9844.739029
5467.328309,1998.556043,-1149.143247,10214.842000
5467.328631,1480.411884,-1532.190996,11251.130318
5467.328954,1036.288319,-1762.019645,10436.903782
5467.329277,-296.082377,-1455.581446,9474.636058
5467.329600,-888.247130,-2604.724693,9326.594869
5467.329923,-1554.432478,-3217.601092,11547.212695
5467.330246,-2368.659014,-3217.601092,10955.047942
5467.330569,-2072.576638,-3294.210641,9252.574275
5467.330892,-2812.782580,-3447.429741,9400.615463
5467.331215,-2812.782580,-2221.676944,10288.862594
5467.331537,-2368.659014,-2451.505594,10658.965565
5467.331860,-1628.453072,-1915.238745,9326.594869
5467.332183,-1406.391290,-229.828649,9178.553681
5467.332506,-962.267725,-1302.362347,8660.409521
5467.332829,-296.082377,-1225.752797,9548.656652
5467.333152,2368.659014,-153.219100,7328.038826
5467.333475,2590.720797,842.705048,8586.388927
5467.333798,1258.350101,1225.752797,8808.450710
5467.334121,1628.453072,1455.581446,9622.677246
5467.334443,1628.453072,1225.752797,7254.018232
5467.334766,2220.617826,2681.334243,7698.141797
5467.335089,2590.720797,2451.505594,9252.574275
5467.335412,814.226536,2068.457845,11473.192101
5467.335735,666.185348,1991.848295,11325.150913
5467.336058,-1702.473667,1225.752797,10362.883188
5467.336381,-4145.153275,536.266849,9252.574275
5467.336704,-5181.441594,0.000000,10066.800811
5467.337027,-3627.009116,1378.971896,8290.306550
5467.337349,-2738.761985,995.924147,9918.759623
5467.337672,-2886.803174,1608.800546,6217.729913
5467.337995,-4515.256246,1072.533697,8068.244768
5467.338318,-4959.379811,1225.752797,6735.874072
5467.338641,-3997.112087,2068.457845,6365.771101
5467.338964,-1332.370696,2911.162892,6365.771101
5467.339287,-2368.659014,2298.286494,9548.656652
5467.339610,-1110.308913,2681.334243,9030.512492
5467.339932,-148.041188,1838.629195,9992.780217
5467.340255,148.041188,2604.724693,8364.327145
5467.340578,-444.123565,1838.629195,10510.924376
5467.340901,1036.288319,1378.971896,10658.965565
5467.341224,3997.112087,3294.210641,11251.130318
5467.341547,4145.153275,3294.210641,10066.800811
5467.341870,2960.823768,1915.238745,9992.780217
5467.342193,3256.906145,1532.190996,9770.718434
5467.342516,3701.029710,1225.752797,8808.450710
5467.342838,4663.297435,2604.724693,8660.409521
5467.343161,4145.153275,2911.162892,9326.594869
5467.343484,2738.761985,1838.629195,10584.944971
5467.343807,1332.370696,-306.438199,9918.759623
5467.344130,148.041188,153.219100,8290.306550
5467.344453,-222.061783,153.219100,7402.059420
5467.344776,-740.205942,153.219100,8808.450710
5467.345099,-666.185348,-842.705048,9622.677246
5467.345422,-444.123565,-383.047749,9474.636058
5467.345744,-222.061783,-459.657299,7624.121203
5467.346067,-592.164754,-919.314598,9548.656652
5467.346390,-1850.514855,-1378.971896,9548.656652
5467.346713,814.226536,-689.485948,9474.636058
5467.347036,1850.514855,1072.533697,9992.780217
5467.347359,0.000000,689.485948,10362.883188
5467.347682,-2072.576638,-1378.971896,11621.233289
5467.348005,-1776.494261,-1302.362347,10066.800811
5467.348328,-1184.329507,-306.438199,10288.862594
5467.348650,-518.144159,0.000000,9030.512492
5467.348973,-1332.370696,-459.657299,11103.089130
5467.349296,518.144159,459.657299,10140.821405
5467.349619,1924.535449,919.314598,9918.759623
5467.349942,0.000000,689.485948,7994.224174
5467.350265,518.144159,919.314598,8734.430116
5467.350588,0.000000,842.705048,9400.615463
5467.350911,-1332.370696,612.876398,9030.512492
5467.351234,-962.267725,536.266849,8882.471304
5467.351556,-3404.947333,-459.657299,7920.203579
5467.351879,-3701.029710,-383.047749,10140.821405
5467.352202,-3997.112087,-459.657299,9622.677246
5467.352525,-3108.864956,-536.266849,8216.285956
5467.352848,-2590.720797,459.657299,7254.018232
5467.353171,-3701.029710,0.000000,10066.800811
5467.353494,-2886.803174,-459.657299,8808.450710
5467.353817,-2812.782580,229.828649,7698.141797
5467.354140,-2368.659014,919.314598,6883.915261
5467.354462,-1036.288319,766.095498,8216.285956
5467.354785,-296.082377,153.219100,8586.388927
5467.355108,1924.535449,383.047749,7476.080014
5467.355431,814.226536,919.314598,9178.553681
5467.355754,518.144159,-153.219100,9252.574275
5467.356077,1998.556043,689.485948,11251.130318
5467.356400,2664.741391,229.828649,10362.883188
5467.356723,3552.988522,842.705048,10436.903782
5467.357046,3701.029710,689.485948,10436.903782
5467.357368,3256.906145,766.095498,12435.459826
5467.357691,3034.844362,-306.438199,13101.645173
5467.358014,2072.576638,-459.657299,10214.842000
5467.358337,1998.556043,-766.095498,10288.862594
5467.358660,0.000000,-919.314598,10807.006753
5467.358983,-1184.329507,-1455.581446,10584.944971
5467.359306,0.000000,-842.705048,8956.491898
5467.359629,-2590.720797,-1378.971896,9474.636058
5467.359952,-3182.885551,-1225.752797,9030.512492
5467.360274,-2146.597232,-1378.971896,7624.121203
5467.360597,-888.247130,0.000000,8142.265362
5467.360920,-1924.535449,306.438199,7994.224174
5467.361243,-2368.659014,-536.266849,9400.615463
5467.361566,222.061783,306.438199,8734.430116
5467.361889,2590.720797,1378.971896,8586.388927
5467.362212,1406.391290,2451.505594,8882.471304
5467.362535,1554.432478,2528.115143,9918.759623
5467.362858,2886.803174,2221.676944,10510.924376
5467.363180,3849.070898,2298.286494,10807.006753
5467.363503,2368.659014,2374.896044,9252.574275
5467.363826,2368.659014,1685.410096,9918.759623
5467.364149,1110.308913,1072.533697,10288.862594
5467.364472,148.041188,1455.581446,10214.842000
5467.364795,0.000000,1991.848295,8290.306550
5467.365118,222.061783,2987.772442,7179.997637
5467.365441,-1332.370696,3294.210641,8290.306550
5467.365764,-1184.329507,2528.115143,7772.162391
5467.366086,-296.082377,2987.772442,6291.750507
5467.366409,-1480.411884,3524.039291,4885.359217
5467.366732,-4219.173869,2221.676944,7179.997637
5467.367055,-5255.462188,1455.581446,8290.306550
5467.367378,-4589.276840,1608.800546,8364.327145
5467.367701,-3478.967927,1608.800546,7550.100608
5467.368024,-5033.400406,0.000000,9252.574275
5467.368347,-4441.235652,-689.485948,8882.471304
5467.368669,-1998.556043,229.828649,9844.739029
5467.368992,-962.267725,1608.800546,8142.265362
5467.369315,-222.061783,919.314598,9770.718434
5467.369638,962.267725,1608.800546,10658.965565
5467.369961,3849.070898,2221.676944,11473.192101
5467.370284,4441.235652,2374.896044,9770.718434
5467.370607,4367.215058,1915.238745,9770.718434
5467.370930,3701.029710,1455.581446,11843.295072
5467.371253,2368.659014,76.609550,11843.295072
5467.371575,1480.411884,76.609550,11177.109724
5467.371898,3108.864956,-689.485948,8364.327145
5467.372221,814.226536,-2068.457845,9622.677246
5467.372544,-1628.453072,-2834.553343,9252.574275
5467.372867,-1702.473667,-2834.553343,9548.656652
5467.373190,-1110.308913,-2145.067394,8290.306550
5467.373513,-2220.617826,-2374.896044,10288.862594
5467.373836,-2442.679609,-2681.334243,10214.842000
5467.374159,-2294.638420,-2374.896044,10214.842000
5467.374481,-592.164754,-1685.410096,8808.450710
5467.374804,-1480.411884,-1838.629195,9622.677246
5467.375127,-1036.288319,-1915.238745,10510.924376
5467.375450,370.102971,-689.485948,10584.944971
5467.375773,1480.411884,383.047749,9474.636058
5467.376096,1110.308913,-306.438199,7550.100608
5467.376419,1998.556043,-1378.971896,7772.162391
5467.376742,444.123565,-1225.752797,10288.862594
5467.377065,1776.494261,0.000000,8660.409521
5467.377387,2072.576638,306.438199,9992.780217
5467.377710,2220.617826,1838.629195,8364.327145
5467.378033,1628.453072,1225.752797,11843.295072
5467.378356,1554.432478,1532.190996,9400.615463
5467.378679,1184.329507,1762.019645,9474.636058
5467.379002,1110.308913,2068.457845,10584.944971
5467.379325,-2368.659014,1762.019645,12657.521608
5467.379648,-2738.761985,536.266849,10066.800811
5467.379971,-2368.659014,1302.362347,7476.080014
5467.380293,-3627.009116,2298.286494,6143.709319
5467.380616,-5329.482782,-995.924147,8068.244768
5467.380939,-5033.400406,612.876398,7254.018232
5467.381262,-2368.659014,1838.629195,6957.935855
5467.381585,-2590.720797,2374.896044,5995.668130
5467.381908,-3701.029710,1991.848295,7846.182985
5467.382231,-888.247130,3064.381992,9104.533087
5467.382554,222.061783,3217.601092,8512.368333
5467.382877,74.020594,2604.724693,8882.471304
5467.383199,666.185348,2451.505594,10288.862594
5467.383522,1258.350101,1762.019645,11177.109724
5467.383845,3775.050304,3370.820191,10066.800811
5467.384168,2294.638420,2681.334243,10066.800811
5467.384491,888.247130,1838.629195,9474.636058
5467.384814,1628.453072,1762.019645,9770.718434
5467.385137,1776.494261,1991.848295,8808.450710
5467.385460,1702.473667,2528.115143,8586.388927
5467.385783,2220.617826,1149.143247,8512.368333
5467.386105,370.102971,842.705048,9548.656652
5467.386428,814.226536,842.705048,8660.409521
5467.386751,222.061783,1072.533697,9548.656652
5467.387074,-2294.638420,689.485948,9548.656652
5467.387397,-2812.782580,-1225.752797,10066.800811
5467.387720,-1332.370696,-1685.410096,8364.327145
5467.388043,-740.205942,-689.485948,8660.409521
5467.388366,-1258.350101,-1149.143247,8586.388927
5467.388689,-3256.906145,-2451.505594,11029.068536
5467.389011,-1924.535449,-2145.067394,10881.027347
5467.389334,-666.185348,-1915.238745,11547.212695
5467.389657,-148.041188,-383.047749,9918.759623
5467.389980,1998.556043,-306.438199,9474.636058
5467.390303,4589.276840,1072.533697,11029.068536
5467.390626,5847.626942,2451.505594,10732.986159
5467.390949,4663.297435,2374.896044,10362.883188
5467.391272,4737.318029,1991.848295,9474.636058
5467.391595,2960.823768,1532.190996,11991.336260
5467.391917,2886.803174,1072.533697,9030.512492
5467.392240,2146.597232,0.000000,9770.718434
5467.392563,1036.288319,1685.410096,9178.553681
5467.392886,-1850.514855,-229.828649,9474.636058
5467.393209,-3034.844362,-1378.971896,8734.430116
5467.393532,-2072.576638,-612.876398,6735.874072
5467.393855,-3404.947333,-1149.143247,6809.894666
5467.394178,-4145.153275,-612.876398,7105.977043
5467.394501,-5403.503377,-766.095498,8734.430116
5467.394823,-2294.638420,306.438199,8216.285956
5467.395146,-3034.844362,919.314598,8142.265362
5467.395469,-5921.647536,0.000000,8734.430116
5467.395792,-3256.906145,306.438199,11029.068536
5467.396115,-2516.700203,1302.362347,9992.780217
5467.396438,-1702.473667,383.047749,7624.121203
5467.396761,-2368.659014,383.047749,8364.327145
5467.397084,-2294.638420,153.219100,7994.224174
5467.397406,-1184.329507,383.047749,9696.697840
5467.397729,-740.205942,1302.362347,8956.491898
5467.398052,1406.391290,1762.019645,8956.491898
5467.398375,1184.329507,612.876398,9474.636058
5467.398698,1406.391290,1225.752797,11177.109724
5467.399021,3627.009116,2221.676944,9844.739029
5467.399344,3627.009116,2374.896044,9326.594869
5467.399667,1998.556043,1991.848295,11695.253884
5467.399989,1332.370696,1072.533697,10881.027347
5467.400312,2368.659014,842.705048,10436.903782
5467.400635,2812.782580,2528.115143,8808.450710
5467.400958,444.123565,995.924147,9918.759623
5467.401281,-444.123565,-459.657299,9474.636058
5467.401604,1110.308913,1225.752797,9400.615463
5467.401926,-592.164754,1072.533697,9326.594869
5467.402249,-2590.720797,0.000000,8512.368333
5467.402572,-1628.453072,-1378.971896,7624.121203
5467.402895,-1258.350101,-766.095498,9474.636058
5467.403218,-2220.617826,-459.657299,8808.450710
5467.403541,-2590.720797,-766.095498,8808.450710
5467.403863,-444.123565,-383.047749,8956.491898
5467.404186,-296.082377,0.000000,11177.109724
5467.404509,444.123565,383.047749,9918.759623
5467.404832,1702.473667,1302.362347,9178.553681
5467.405155,2368.659014,2145.067394,10066.800811
5467.405478,2368.659014,1225.752797,9992.780217
5467.405800,2294.638420,306.438199,9400.615463
5467.406123,3552.988522,2374.896044,7698.141797
5467.406446,1480.411884,2528.115143,9622.677246
5467.406769,814.226536,2604.724693,9400.615463
5467.407092,2442.679609,1532.190996,9992.780217
5467.407415,1998.556043,2068.457845,7772.162391
5467.407737,888.247130,1762.019645,8808.450710
5467.408060,-2516.700203,1455.581446,11103.089130
5467.408383,-1628.453072,1225.752797,8660.409521
5467.408706,-1480.411884,1149.143247,9326.594869
5467.409029,-2294.638420,1455.581446,5995.668130
5467.409352,-4737.318029,0.000000,9918.759623
5467.409674,-2738.761985,383.047749,7328.038826
5467.409997,-2442.679609,919.314598,9326.594869
5467.410320,-3404.947333,1072.533697,6735.874072
5467.410643,-3108.864956,306.438199,9178.553681
5467.410966,-2664.741391,1302.362347,8808.450710
5467.411289,-1480.411884,612.876398,9474.636058
5467.411611,-1924.535449,0.000000,7105.977043
5467.411934,-370.102971,536.266849,8956.491898
5467.412257,-740.205942,766.095498,11103.089130
5467.412580,-962.267725,306.438199,11177.109724
5467.412903,1554.432478,-229.828649,10066.800811
5467.413226,1332.370696,306.438199,9252.574275
5467.413548,1110.308913,536.266849,10658.965565
5467.413871,1184.329507,229.828649,11103.089130
5467.414194,2368.659014,229.828649,11251.130318
5467.414517,2220.617826,536.266849,9548.656652
5467.414840,296.082377,-612.876398,10807.006753
5467.415163,1480.411884,-1302.362347,9918.759623
5467.415485,1480.411884,-383.047749,10214.842000
5467.415808,-444.123565,-383.047749,8586.388927
5467.416131,-592.164754,-2604.724693,10362.883188
5467.416454,-1480.411884,-2374.896044,9474.636058
5467.416777,-740.205942,-995.924147,8142.265362
5467.417100,-592.164754,-995.924147,9474.636058
5467.417422,-1554.432478,-1608.800546,9178.553681
5467.417745,-518.144159,-2757.943793,9918.759623
5467.418068,-740.205942,-1762.019645,9178.553681
5467.418391,-666.185348,-1532.190996,10140.821405
5467.418714,814.226536,-459.657299,11029.068536
5467.419037,-962.267725,76.609550,11991.336260
5467.419360,1924.535449,306.438199,10066.800811
5467.419682,3478.967927,306.438199,8438.347739
5467.420005,3330.926739,1608.800546,6883.915261
5467.420328,3478.967927,1685.410096,9474.636058
5467.420651,3256.906145,1149.143247,9622.677246
5467.420974,4589.276840,2681.334243,9326.594869
5467.421297,2960.823768,2451.505594,7550.100608
5467.421619,-444.123565,766.095498,8956.491898
5467.421942,-222.061783,766.095498,9844.739029
5467.422265,444.123565,1762.019645,9622.677246
5467.422588,-814.226536,2528.115143,10214.842000
5467.422911,-3997.112087,2145.067394,9548.656652
5467.423234,-4441.235652,689.485948,9474.636058
5467.423556,-2294.638420,1608.800546,8068.244768
5467.423879,-3108.864956,2834.553343,6661.853478
5467.424202,-3552.988522,2068.457845,6883.915261
5467.424525,-2590.720797,1225.752797,8068.244768
5467.424848,-2072.576638,1685.410096,6439.791695
5467.425171,-2294.638420,2068.457845,7179.997637
5467.425493,-2442.679609,2298.286494,6069.688724
5467.425816,-2516.700203,1532.190996,9992.780217
5467.426139,-1554.432478,1608.800546,9548.656652
5467.426462,-962.267725,2068.457845,10584.944971
5467.426785,2664.741391,2451.505594,8364.327145
5467.427108,1480.411884,2221.676944,10584.944971
5467.427430,222.061783,995.924147,10881.027347
5467.427753,2220.617826,229.828649,10807.006753
5467.428076,2812.782580,2068.457845,8734.430116
5467.428399,3849.070898,2911.162892,9918.759623
5467.428722,1702.473667,1072.533697,11325.150913
5467.429045,740.205942,459.657299,10288.862594
5467.429367,3256.906145,229.828649,9696.697840
5467.429690,-444.123565,-1225.752797,8364.327145
5467.430013,-2664.741391,-1991.848295,10362.883188
5467.430336,-1554.432478,-1838.629195,11251.130318
5467.430659,-2368.659014,-1608.800546,9992.780217
5467.430982,-2220.617826,-2221.676944,9400.615463
5467.431304,-2072.576638,-2374.896044,8586.388927
5467.431627,-1184.329507,-1532.190996,10881.027347
5467.431950,666.185348,-1225.752797,8068.244768
5467.432273,592.164754,153.219100,8512.368333
5467.432596,2220.617826,0.000000,8882.471304
5467.432919,1110.308913,0.000000,10807.006753
5467.433241,962.267725,-612.876398,10140.821405
5467.433564,1554.432478,-536.266849,8290.306550
5467.433887,1628.453072,-612.876398,9992.780217
5467.434210,740.205942,536.266849,11177.109724
5467.434533,1628.453072,-383.047749,11103.089130
5467.434856,2294.638420,0.000000,9696.697840
5467.435178,1776.494261,306.438199,8586.388927
5467.435501,-592.164754,-383.047749,9992.780217
5467.435824,296.082377,76.609550,9770.718434
5467.436147,1480.411884,1455.581446,8882.471304
5467.436470,0.000000,1532.190996,8068.244768
5467.436793,-1554.432478,1532.190996,8364.327145
5467.437116,-1480.411884,766.095498,8438.347739
5467.437438,-1480.411884,995.924147,7698.141797
5467.437761,-3108.864956,1149.143247,8364.327145
5467.438084,-4219.173869,229.828649,8438.347739
5467.438407,-3330.926739,153.219100,8808.450710
5467.438730,-4071.132681,766.095498,9622.677246
5467.439053,-4589.276840,612.876398,7846.182985
5467.439375,-4071.132681,0.000000,7994.224174
5467.439698,-3182.885551,536.266849,8882.471304
5467.440021,-1110.308913,1915.238745,9622.677246
5467.440344,1258.350101,2221.676944,8512.368333
5467.440667,1628.453072,2528.115143,8586.388927
5467.440990,1258.350101,3064.381992,9696.697840
5467.441312,2368.659014,2834.553343,10584.944971
5467.441635,3256.906145,2987.772442,9548.656652
5467.441958,2294.638420,3140.991542,8586.388927
5467.442281,2516.700203,2374.896044,9326.594869
5467.442604,2886.803174,1608.800546,10584.944971
5467.442927,2072.576638,2298.286494,11177.109724
5467.443249,0.000000,1225.752797,10510.924376
5467.443572,-1702.473667,-919.314598,9918.759623
5467.443895,-1702.473667,-689.485948,10140.821405
5467.444218,-370.102971,0.000000,9474.636058
5467.444541,-2664.741391,-383.047749,7994.224174
5467.444864,-1998.556043,-1149.143247,8364.327145
5467.445186,-1850.514855,-766.095498,8808.450710
5467.445509,-1036.288319,0.000000,8808.450710
5467.445832,1332.370696,306.438199,7105.977043
5467.446155,-666.185348,0.000000,9178.553681
5467.446478,0.000000,229.828649,9918.759623
5467.446801,0.000000,306.438199,11325.150913
5467.447123,1184.329507,153.219100,9400.615463
5467.447446,2220.617826,0.000000,9696.697840
5467.447769,666.185348,-842.705048,9918.759623
5467.448092,1406.391290,-766.095498,10732.986159
5467.448415,3034.844362,766.095498,9622.677246
5467.448738,2590.720797,459.657299,9474.636058
5467.449060,3108.864956,306.438199,9844.739029
5467.449383,1332.370696,76.609550,10584.944971
5467.449706,2960.823768,1685.410096,8882.471304
5467.450029,3182.885551,2451.505594,9178.553681
5467.450352,0.000000,1762.019645,8290.306550
5467.450675,-1628.453072,229.828649,9622.677246
5467.450997,-2220.617826,-536.266849,8956.491898
5467.451320,-3552.988522,383.047749,8586.388927
5467.451643,-3330.926739,229.828649,7698.141797
5467.451966,-4589.276840,-995.924147,9696.697840
5467.452289,-3404.947333,0.000000,9696.697840
5467.452612,-3775.050304,0.000000,8068.244768
5467.452934,-4071.132681,0.000000,7254.018232
5467.453257,-3849.070898,0.000000,8586.388927
5467.453580,-3404.947333,229.828649,8290.306550
5467.453903,-1628.453072,842.705048,8364.327145
5467.454226,1258.350101,1991.848295,6587.832884
5467.454549,-370.102971,1455.581446,8956.491898
5467.454871,-222.061783,1455.581446,9696.697840
5467.455194,1110.308913,1455.581446,10658.965565
5467.455517,2368.659014,2987.772442,9030.512492
5467.455840,2664.741391,2374.896044,9844.739029
5467.456163,2590.720797,1455.581446,11621.233289
5467.456486,4811.338623,2221.676944,9696.697840
5467.456809,3404.947333,2068.457845,9992.780217
5467.457131,740.205942,766.095498,9326.594869
5467.457454,148.041188,-995.924147,10658.965565
5467.457777,-1036.288319,-1072.533697,9178.553681
5467.458100,-1998.556043,-459.657299,9326.594869
5467.458423,-2886.803174,-1762.019645,8956.491898
5467.458746,-3923.091493,-2528.115143,9844.739029
5467.459068,-3849.070898,-2681.334243,9400.615463
5467.459391,-3701.029710,-2298.286494,9252.574275
5467.459714,-3552.988522,-1149.143247,8290.306550
5467.460037,-2960.823768,-536.266849,10288.862594
5467.460360,-1998.556043,-842.705048,10658.965565
5467.460683,-444.123565,-689.485948,10066.800811
5467.461005,148.041188,-919.314598,8068.244768
5467.461328,592.164754,-612.876398,9104.533087
5467.461651,666.185348,-842.705048,10288.862594
5467.461974,1850.514855,-153.219100,9622.677246
5467.462297,4071.132681,842.705048,9992.780217
5467.462620,2220.617826,689.485948,10066.800811
5467.462942,1332.370696,76.609550,10658.965565
5467.463265,3627.009116,229.828649,9770.718434
5467.463588,3849.070898,1685.410096,9178.553681
5467.463911,2664.741391,2528.115143,9844.739029
5467.464234,1110.308913,2068.457845,10807.006753
5467.464557,3627.009116,2374.896044,9104.533087
5467.464879,2368.659014,3370.820191,8364.327145
5467.465202,296.082377,2604.724693,7254.018232
5467.465525,-1628.453072,1608.800546,9326.594869
5467.465848,-2368.659014,1608.800546,9326.594869
5467.466171,-2368.659014,1685.410096,8660.409521
5467.466494,-2516.700203,1149.143247,6143.709319
5467.466816,-4589.276840,612.876398,7550.100608
5467.467139,-5329.482782,459.657299,7476.080014
5467.467462,-4293.194464,689.485948,8660.409521
5467.467785,-1628.453072,1378.971896,6735.874072
5467.468108,-1776.494261,2298.286494,7550.100608
5467.468431,-1850.514855,2374.896044,8882.471304
5467.468753,-888.247130,2528.115143,10288.862594
5467.469076,2072.576638,3677.258390,9104.533087
5467.469399,1702.473667,2757.943793,8586.388927
5467.469722,666.185348,1225.752797,10510.924376
5467.470045,888.247130,995.924147,10066.800811
5467.470368,1850.514855,1838.629195,9918.759623
5467.470690,2738.761985,2068.457845,8956.491898
5467.471013,1702.473667,1378.971896,9400.615463
5467.471336,1406.391290,1225.752797,10066.800811
5467.471659,1702.473667,1225.752797,9844.739029
5467.471982,1480.411884,689.485948,8216.285956
5467.472305,1628.453072,459.657299,7476.080014
5467.472627,370.102971,-459.657299,10658.965565
5467.472950,-518.144159,0.000000,11103.089130
5467.473273,-2294.638420,-766.095498,11251.130318
5467.473596,-1998.556043,-1915.238745,9474.636058
5467.473919,-4071.132681,-2145.067394,12065.356855
5467.474242,-4737.318029,-3753.867940,10362.883188
5467.474564,-3256.906145,-3600.648841,9770.718434
5467.474887,-2516.700203,-2604.724693,8438.347739
5467.475210,-2664.741391,-2451.505594,9622.677246
5467.475533,-2368.659014,-2834.553343,9178.553681
5467.475856,0.000000,-1762.019645,9030.512492
5467.476179,444.123565,0.000000,8438.347739
5467.476502,814.226536,536.266849,9474.636058
5467.476824,2886.803174,0.000000,11399.171507
5467.477147,5329.482782,919.314598,10214.842000
5467.477470,4293.194464,1915.238745,10732.986159
5467.477793,1776.494261,766.095498,10436.903782
5467.478116,1702.473667,153.219100,11769.274478
5467.478439,2590.720797,536.266849,9548.656652
5467.478761,592.164754,76.609550,7994.224174
5467.479084,-222.061783,-689.485948,7994.224174
5467.479407,-2590.720797,-383.047749,9918.759623
5467.479730,-2146.597232,0.000000,8512.368333
5467.480053,-1406.391290,459.657299,6661.853478
5467.480376,-2664.741391,1072.533697,6365.771101
5467.480698,-2294.638420,1838.629195,7179.997637
5467.481021,-1998.556043,2374.896044,8142.265362
5467.481344,-518.144159,2681.334243,6587.832884
5467.481667,-148.041188,3294.210641,7476.080014
5467.481990,-1628.453072,1915.238745,8660.409521
5467.482313,-3108.864956,689.485948,9770.718434
5467.482635,-1850.514855,919.314598,8882.471304
5467.482958,-666.185348,1608.800546,9326.594869
5467.483281,-1702.473667,766.095498,9474.636058
5467.483604,-1702.473667,-459.657299,10140.821405
5467.483927,222.061783,995.924147,9104.533087
5467.484250,2146.597232,2068.457845,8734.430116
5467.484572,2368.659014,2757.943793,8882.471304
5467.484895,3182.885551,3370.820191,11177.109724
5467.485218,4663.297435,3677.258390,10955.047942
5467.485541,4367.215058,3677.258390,10214.842000
5467.485864,2590.720797,2987.772442,9474.636058
5467.486187,2368.659014,1991.848295,11251.130318
5467.486509,1702.473667,1149.143247,11547.212695
5467.486832,-222.061783,536.266849,10955.047942
5467.487155,74.020594,0.000000,9622.677246
5467.487478,-2738.761985,-1532.190996,9622.677246
5467.487801,-4367.215058,-2298.286494,8956.491898
5467.488124,-3627.009116,-2604.724693,7328.038826
5467.488446,-2738.761985,-766.095498,6735.874072
5467.488769,-3108.864956,0.000000,8586.388927
5467.489092,-3256.906145,0.000000,10066.800811
5467.489415,-296.082377,0.000000,8734.430116
5467.489738,888.247130,766.095498,7254.018232
5467.490061,-370.102971,612.876398,9326.594869
5467.490383,-592.164754,459.657299,10732.986159
5467.490706,1850.514855,1455.581446,10881.027347
5467.491029,1998.556043,1455.581446,9622.677246
5467.491352,1110.308913,229.828649,8734.430116
5467.491675,296.082377,-1378.971896,9252.574275
5467.491998,962.267725,0.000000,9178.553681
5467.492320,888.247130,306.438199,9622.677246
5467.492643,148.041188,0.000000,8660.409521
5467.492966,0.000000,229.828649,9844.739029
5467.493289,-740.205942,306.438199,9252.574275
5467.493612,-296.082377,76.609550,8734.430116
5467.493935,-740.205942,1225.752797,8364.327145
5467.494258,-1332.370696,2221.676944,9252.574275
5467.494580,-1406.391290,1838.629195,10510.924376
5467.494903,-1036.288319,1149.143247,9474.636058
5467.495226,444.123565,1072.533697,7846.182985
5467.495549,-1332.370696,612.876398,8364.327145
5467.495872,-3997.112087,229.828649,9992.780217
5467.496195,-3034.844362,-459.657299,10362.883188
5467.496517,-518.144159,76.609550,8512.368333
5467.496840,-740.205942,-76.609550,7550.100608
5467.497163,-2960.823768,0.000000,8882.471304
5467.497486,-1258.350101,0.000000,9104.533087
5467.497809,1924.535449,1532.190996,7846.182985
5467.498132,1702.473667,1072.533697,6809.894666
5467.498454,1480.411884,1302.362347,9474.636058
5467.498774,1628.453072,2068.457845,10955.047942
5467.499097,1702.473667,2451.505594,10510.924376
5467.499420,2590.720797,2298.286494,8660.409521
5467.499743,1924.535449,995.924147,9548.656652
5467.500066,-222.061783,766.095498,10807.006753
5467.500388,1332.370696,383.047749,10510.924376
5467.500711,1110.308913,76.609550,10658.965565
5467.501034,518.144159,0.000000,8438.347739
5467.501357,-2368.659014,-1149.143247,11621.233289
5467.501680,-666.185348,-766.095498,8882.471304
5467.502003,370.102971,-766.095498,9030.512492
5467.502326,0.000000,-1225.752797,8290.306550
5467.502649,-1628.453072,-1302.362347,9844.739029
5467.502972,-1480.411884,-1302.362347,9844.739029
5467.503294,0.000000,766.095498,9918.759623
5467.503617,74.020594,842.705048,9474.636058
5467.503940,-1924.535449,-612.876398,10584.944971
5467.504263,148.041188,306.438199,8808.450710
5467.504586,1776.494261,1685.410096,9696.697840
5467.504909,518.144159,1149.143247,8586.388927
5467.505232,-666.185348,1072.533697,10732.986159
5467.505555,222.061783,383.047749,9400.615463
5467.505877,-740.205942,0.000000,10066.800811
5467.506200,-1406.391290,689.485948,8660.409521
5467.506523,-814.226536,459.657299,9400.615463
5467.506846,-1628.453072,0.000000,9104.533087
5467.507169,-2146.597232,-919.314598,9030.512492
5467.507492,-1554.432478,689.485948,8364.327145
5467.507815,-666.185348,1685.410096,8364.327145
5467.508138,-1554.432478,1915.238745,8290.306550
5467.508461,-1184.329507,1608.800546,7772.162391
5467.508783,0.000000,1072.533697,7179.997637
5467.509106,1480.411884,3677.258390,6513.812290
5467.509429,1110.308913,3294.210641,8734.430116
5467.509752,-296.082377,2987.772442,9918.759623
5467.510075,370.102971,2604.724693,9696.697840
5467.510398,370.102971,2604.724693,7772.162391
5467.510721,0.000000,1762.019645,8290.306550
5467.511044,-1110.308913,0.000000,9474.636058
5467.511366,-1036.288319,76.609550,8882.471304
5467.511689,0.000000,306.438199,8438.347739
5467.512012,-1850.514855,383.047749,7846.182985
5467.512335,-1554.432478,0.000000,8808.450710
5467.512658,0.000000,919.314598,9400.615463
5467.512981,1110.308913,1762.019645,8586.388927
5467.513304,2072.576638,1685.410096,8512.368333
5467.513627,3404.947333,2528.115143,9992.780217
5467.513950,3404.947333,2298.286494,11917.315666
5467.514272,2146.597232,1532.190996,11399.171507
5467.514595,1554.432478,612.876398,10066.800811
5467.514918,814.226536,0.000000,9622.677246
5467.515241,-666.185348,-1762.019645,11769.274478
5467.515564,-592.164754,-1378.971896,9770.718434
5467.515887,1036.288319,-1532.190996,9548.656652
5467.516210,-1036.288319,-1991.848295,9474.636058
5467.516533,-2220.617826,-2451.505594,9400.615463
5467.516855,-2368.659014,-3677.258390,9474.636058
5467.517178,-2812.782580,-2221.676944,9030.512492
5467.517501,-2664.741391,-1072.533697,10436.903782
5467.517824,-1406.391290,-1915.238745,10288.862594
5467.518147,1480.411884,-306.438199,11399.171507
5467.518470,888.247130,689.485948,9622.677246
5467.518793,-222.061783,0.000000,9474.636058
5467.519116,0.000000,-306.438199,9918.759623
5467.519439,2146.597232,536.266849,9770.718434
5467.519761,370.102971,229.828649,9400.615463
5467.520084,444.123565,-1225.752797,8364.327145
5467.520407,0.000000,-76.609550,9474.636058
5467.520730,444.123565,0.000000,7994.224174
5467.521053,-962.267725,-459.657299,9474.636058
5467.521376,-666.185348,-306.438199,7402.059420
5467.521699,-962.267725,536.266849,9548.656652
5467.522022,0.000000,1378.971896,8956.491898
5467.522345,370.102971,2145.067394,9400.615463
5467.522667,1628.453072,2834.553343,7402.059420
5467.522990,370.102971,2757.943793,7994.224174
5467.523313,-592.164754,2451.505594,8956.491898
5467.523636,-740.205942,2298.286494,9770.718434
5467.523959,0.000000,3140.991542,8512.368333
5467.524282,-1036.288319,2068.457845,8734.430116
5467.524605,-4367.215058,612.876398,8364.327145
5467.524928,-3478.967927,612.876398,8216.285956
5467.525250,-2368.659014,766.095498,8216.285956
5467.525573,-2738.761985,766.095498,7105.977043
5467.525896,-3552.988522,536.266849,8216.285956
5467.526219,-2294.638420,229.828649,9474.636058
5467.526542,592.164754,2451.505594,8882.471304
5467.526865,296.082377,2911.162892,8808.450710
5467.527188,-296.082377,1991.848295,8956.491898
5467.527511,1554.432478,842.705048,11547.212695
5467.527834,2442.679609,3370.820191,10066.800811
5467.528156,3627.009116,3907.087040,10881.027347
5467.528479,3627.009116,2757.943793,10955.047942
5467.528802,2220.617826,995.924147,10436.903782
5467.529125,1258.350101,0.000000,9992.780217
5467.529448,2220.617826,0.000000,8808.450710
5467.529771,1258.350101,-995.924147,8438.347739
5467.530094,-370.102971,-1225.752797,9992.780217
5467.530417,-592.164754,-2221.676944,11473.192101
5467.530739,-444.123565,-1455.581446,8364.327145
5467.531062,-1776.494261,-919.314598,8216.285956
5467.531385,-2886.803174,-1225.752797,10066.800811
5467.531708,-1554.432478,-1608.800546,11251.130318
5467.532031,-444.123565,-919.314598,9252.574275
5467.532354,-888.247130,459.657299,9622.677246
5467.532677,-1924.535449,-842.705048,10436.903782
5467.533000,-2886.803174,-1762.019645,10436.903782
5467.533323,-2516.700203,-2298.286494,9178.553681
5467.533645,-1702.473667,-1915.238745,7698.141797
5467.533968,-518.144159,-1838.629195,8216.285956
5467.534291,296.082377,-766.095498,10140.821405
5467.534614,2516.700203,-459.657299,9178.553681
5467.534937,2516.700203,153.219100,8512.368333
5467.535260,2368.659014,842.705048,7402.059420
5467.535583,2960.823768,536.266849,9030.512492
5467.535906,2886.803174,919.314598,10066.800811
5467.536228,3923.091493,2298.286494,10881.027347
5467.536551,3478.967927,2298.286494,9992.780217
5467.536874,518.144159,1225.752797,11769.274478
5467.537197,-1480.411884,842.705048,11843.295072
5467.537520,-1850.514855,0.000000,10436.903782
5467.537843,-2442.679609,0.000000,8290.306550
5467.538166,-3552.988522,-229.828649,8438.347739
5467.538489,-4145.153275,-995.924147,7624.121203
5467.538812,-2516.700203,-306.438199,7105.977043
5467.539134,-2368.659014,536.266849,5625.565159
5467.539457,-2886.803174,1072.533697,6587.832884
5467.539780,-2220.617826,1072.533697,7994.224174
5467.540103,-1998.556043,2221.676944,8808.450710
5467.540426,2590.720797,2987.772442,8142.265362
5467.540749,444.123565,2221.676944,10214.842000
5467.541072,592.164754,1762.019645,9918.759623
5467.541395,148.041188,2068.457845,12139.377449
5467.541718,0.000000,2221.676944,10362.883188
5467.542040,1628.453072,1915.238745,9992.780217
5467.542363,1332.370696,2298.286494,8956.491898
5467.542686,1258.350101,1378.971896,9844.739029
5467.543009,2738.761985,1532.190996,9104.533087
5467.543332,2072.576638,1149.143247,7328.038826
5467.543655,1628.453072,1378.971896,8216.285956
5467.543978,-296.082377,-76.609550,10436.903782
5467.544301,-1702.473667,842.705048,10881.027347
5467.544623,-148.041188,383.047749,8882.471304
5467.544946,-888.247130,153.219100,9474.636058
5467.545269,-2516.700203,0.000000,10658.965565
5467.545592,-1998.556043,-229.828649,9992.780217
5467.545915,-1924.535449,0.000000,10214.842000
5467.546238,-2072.576638,-306.438199,8512.368333
5467.546561,-1702.473667,-306.438199,8956.491898
5467.546884,-1110.308913,-383.047749,9918.759623
5467.547207,-962.267725,842.705048,9474.636058
5467.547529,518.144159,229.828649,8068.244768
5467.547852,1480.411884,-459.657299,8882.471304
5467.548175,2072.576638,1378.971896,8290.306550
5467.548498,1702.473667,383.047749,9548.656652
5467.548821,1332.370696,229.828649,10066.800811
5467.549144,814.226536,0.000000,9252.574275
5467.549467,2442.679609,0.000000,9474.636058
5467.549790,1998.556043,306.438199,10436.903782
5467.550112,1110.308913,1455.581446,9992.780217
5467.550435,1184.329507,995.924147,10436.903782
5467.550758,370.102971,1608.800546,9844.739029
5467.551081,0.000000,306.438199,9770.718434
5467.551404,-592.164754,689.485948,8068.244768
5467.551727,-2146.597232,153.219100,8438.347739
5467.552050,-2738.761985,-689.485948,8364.327145
5467.552373,-3404.947333,-919.314598,7772.162391
5467.552696,-2664.741391,-536.266849,7105.977043
5467.553018,-4663.297435,-612.876398,7105.977043
5467.553341,-5477.523971,-1455.581446,8660.409521
5467.553664,-3701.029710,-1302.362347,9104.533087
5467.553987,-2738.761985,-306.438199,8660.409521
5467.554310,-1702.473667,995.924147,9548.656652
5467.554633,-666.185348,459.657299,9474.636058
5467.554956,592.164754,842.705048,10807.006753
5467.555279,2886.803174,1991.848295,10436.903782
5467.555602,4663.297435,2681.334243,9622.677246
5467.555924,4811.338623,2374.896044,9844.739029
5467.556247,4071.132681,1378.971896,10732.986159
5467.556570,4885.359217,1378.971896,10436.903782
5467.556893,3997.112087,2374.896044,10510.924376
5467.557216,2368.659014,2298.286494,10436.903782
5467.557539,-370.102971,-612.876398,11325.150913
5467.557862,-1628.453072,-2681.334243,10881.027347
5467.558185,-1554.432478,-1608.800546,8808.450710
5467.558507,-1554.432478,-1072.533697,8512.368333
5467.558830,-3627.009116,-919.314598,9844.739029
5467.559153,-3330.926739,-1608.800546,10436.903782
5467.559476,-1406.391290,-229.828649,7254.018232
5467.559799,-2442.679609,459.657299,6587.832884
5467.560122,-1850.514855,766.095498,8068.244768
5467.560445,-740.205942,0.000000,10066.800811
5467.560768,-814.226536,459.657299,10288.862594
5467.561091,0.000000,612.876398,8660.409521
5467.561413,-666.185348,0.000000,8808.450710
5467.561736,-370.102971,153.219100,9992.780217
5467.562059,-666.185348,153.219100,10214.842000
5467.562382,518.144159,-689.485948,8660.409521
5467.562705,1850.514855,536.266849,8068.244768
5467.563028,1480.411884,766.095498,10066.800811
5467.563351,2886.803174,995.924147,10214.842000
5467.563674,2590.720797,1532.190996,9622.677246
5467.563996,2368.659014,2451.505594,7994.224174
5467.564319,1998.556043,3217.601092,10288.862594
5467.564642,1554.432478,3140.991542,10584.944971
5467.564965,2146.597232,2911.162892,10732.986159
5467.565288,1480.411884,2911.162892,8364.327145
5467.565611,-1332.370696,1762.019645,9030.512492
5467.565934,-2812.782580,689.485948,8808.450710
5467.566257,-2664.741391,919.314598,8364.327145
5467.566580,-3108.864956,995.924147,7920.203579
5467.566902,-3923.091493,153.219100,7254.018232
5467.567225,-3552.988522,229.828649,7550.100608
5467.567548,-1998.556043,1149.143247,7994.224174
5467.567871,-2442.679609,1915.238745,8142.265362
5467.568194,-2738.761985,1838.629195,8586.388927
5467.568517,-1406.391290,1762.019645,9474.636058
5467.568840,-370.102971,2451.505594,10214.842000
5467.569163,296.082377,2987.772442,9622.677246
5467.569485,1702.473667,2911.162892,9918.759623
5467.569808,296.082377,1302.362347,9326.594869
5467.570131,-148.041188,1149.143247,9400.615463
5467.570454,444.123565,1378.971896,9178.553681
5467.570777,1776.494261,995.924147,8142.265362
5467.571100,296.082377,919.314598,9474.636058
5467.571423,666.185348,383.047749,9474.636058
5467.571746,3034.844362,-536.266849,8438.347739
5467.572069,2368.659014,459.657299,8660.409521
5467.572391,888.247130,383.047749,9548.656652
5467.572714,-296.082377,-1225.752797,11473.192101
5467.573037,0.000000,-459.657299,11325.150913
5467.573360,1406.391290,-153.219100,10288.862594
5467.573683,-740.205942,-766.095498,10214.842000
5467.574006,-1628.453072,-2451.505594,9992.780217
5467.574329,-518.144159,-1608.800546,10807.006753
5467.574652,-592.164754,-1302.362347,8956.491898
5467.574975,-222.061783,-1532.190996,9030.512492
5467.575297,-370.102971,-1532.190996,9252.574275
5467.575620,-666.185348,-2145.067394,10955.047942
5467.575943,0.000000,-1532.190996,9918.759623
5467.576266,0.000000,-536.266849,8438.347739
5467.576589,0.000000,-1378.971896,9474.636058
5467.576912,74.020594,-1685.410096,9030.512492
5467.577235,-444.123565,-1302.362347,10807.006753
5467.577558,666.185348,76.609550,9844.739029
5467.577880,666.185348,383.047749,10510.924376
5467.578203,740.205942,306.438199,9844.739029
5467.578526,518.144159,229.828649,10584.944971
5467.578849,444.123565,1455.581446,8808.450710
5467.579172,-518.144159,1072.533697,7994.224174
5467.579495,-1110.308913,842.705048,9844.739029
5467.579818,222.061783,766.095498,8808.450710
5467.580141,-296.082377,842.705048,8660.409521
5467.580464,-1628.453072,1072.533697,6439.791695
5467.580786,-1258.350101,689.485948,7402.059420
5467.581109,-1258.350101,459.657299,7402.059420
5467.581432,-1776.494261,1532.190996,8438.347739
5467.581755,-1850.514855,1762.019645,8956.491898
5467.582078,-1628.453072,1378.971896,8956.491898
5467.582401,-296.082377,1838.629195,9992.780217
5467.582724,-296.082377,2987.772442,9252.574275
5467.583047,-1628.453072,1455.581446,9030.512492
5467.583369,-296.082377,2451.505594,8068.244768
5467.583692,222.061783,2911.162892,10955.047942
5467.584015,1258.350101,2834.553343,9400.615463
5467.584338,2368.659014,2451.505594,10066.800811
5467.584661,1258.350101,2145.067394,7994.224174
5467.584984,1258.350101,1532.190996,9992.780217
5467.585307,1480.411884,1532.190996,8734.430116
5467.585630,1628.453072,1608.800546,8808.450710
5467.585953,1184.329507,842.705048,9252.574275
5467.586275,-1480.411884,689.485948,9474.636058
5467.586598,-740.205942,0.000000,9770.718434
5467.586921,296.082377,842.705048,8956.491898
5467.587244,-740.205942,689.485948,8734.430116
5467.587567,-814.226536,383.047749,9770.718434
5467.587890,-1184.329507,76.609550,10807.006753
5467.588213,0.000000,1302.362347,10140.821405
5467.588536,0.000000,0.000000,7920.203579
5467.588859,-296.082377,-995.924147,7698.141797
5467.589181,0.000000,0.000000,8956.491898
5467.589504,0.000000,0.000000,9992.780217
5467.589827,1036.288319,306.438199,9400.615463
5467.590150,1628.453072,306.438199,8808.450710
5467.590473,518.144159,-919.314598,8660.409521
5467.590796,592.164754,-766.095498,11251.130318
5467.591119,962.267725,383.047749,10214.842000
5467.591442,2072.576638,459.657299,10288.862594
5467.591764,1406.391290,229.828649,9844.739029
5467.592087,518.144159,76.609550,10881.027347
5467.592410,1480.411884,459.657299,9622.677246
5467.592733,148.041188,1149.143247,9770.718434
5467.593056,-1110.308913,-76.609550,9178.553681
5467.593379,-666.185348,-1532.190996,8808.450710
5467.593702,-592.164754,-153.219100,8734.430116
5467.594025,-962.267725,842.705048,8586.388927
5467.594348,-3256.906145,-76.609550,9326.594869
5467.594670,-3627.009116,-306.438199,9844.739029
5467.594993,-2368.659014,-306.438199,9104.533087
5467.595316,-2368.659014,0.000000,8068.244768
5467.595639,-2886.803174,536.266849,8808.450710
5467.595962,-3330.926739,383.047749,10732.986159
5467.596285,-1850.514855,306.438199,9252.574275
5467.596608,-1776.494261,153.219100,7772.162391
5467.596931,-2072.576638,0.000000,6883.915261
5467.597253,-1184.329507,306.438199,8512.368333
5467.597576,-1036.288319,689.485948,9400.615463
5467.597899,-222.061783,689.485948,8586.388927
5467.598222,2146.597232,2145.067394,7402.059420
5467.598545,1850.514855,1455.581446,8512.368333
5467.598868,1480.411884,1685.410096,8882.471304
5467.599191,2294.638420,2068.457845,10807.006753
5467.599513,4737.318029,3524.039291,8660.409521
5467.599836,4441.235652,3370.820191,10214.842000
5467.600159,1998.556043,1991.848295,11177.109724
5467.600482,3256.906145,1225.752797,10881.027347
5467.600805,1406.391290,995.924147,10881.027347
5467.601127,222.061783,0.000000,9030.512492
5467.601450,-296.082377,-2451.505594,9992.780217
5467.601773,-1924.535449,-1225.752797,10066.800811
5467.602096,-2220.617826,0.000000,9992.780217
5467.602419,-2442.679609,-1685.410096,8068.244768
5467.602742,-2812.782580,-1532.190996,8438.347739
5467.603064,-1850.514855,-612.876398,9474.636058
5467.603387,-1332.370696,-306.438199,9474.636058
5467.603710,-370.102971,919.314598,10658.965565
5467.604033,74.020594,1455.581446,10288.862594
5467.604356,-518.144159,0.000000,11473.192101
5467.604678,444.123565,306.438199,10362.883188
5467.605001,888.247130,919.314598,9104.533087
5467.605324,1036.288319,1149.143247,9326.594869
5467.605647,1702.473667,306.438199,9844.739029
5467.605970,2442.679609,76.609550,9030.512492
5467.606292,2368.659014,1455.581446,8364.327145
5467.606615,814.226536,1608.800546,8364.327145
5467.606938,-1110.308913,536.266849,9474.636058
5467.607261,666.185348,76.609550,7994.224174
5467.607584,1850.514855,1455.581446,8068.244768
5467.607906,-814.226536,2374.896044,8808.450710
5467.608229,-2516.700203,1838.629195,9104.533087
5467.608552,-1702.473667,766.095498,9622.677246
5467.608875,222.061783,1838.629195,6365.771101
5467.609198,-1184.329507,2451.505594,7254.018232
5467.609520,-1628.453072,2068.457845,7772.162391
5467.609843,-1184.329507,1532.190996,9400.615463
5467.610166,-1702.473667,1072.533697,7994.224174
5467.610489,-1258.350101,1378.971896,6809.894666
5467.610812,-2738.761985,689.485948,6883.915261
5467.611135,-3108.864956,919.314598,9770.718434
5467.611457,-2294.638420,459.657299,11251.130318
5467.611780,-1036.288319,0.000000,10807.006753
5467.612103,-370.102971,842.705048,9918.759623
5467.612426,-1406.391290,612.876398,11251.130318
5467.612749,518.144159,229.828649,11177.109724
5467.613071,1924.535449,1455.581446,9844.739029
5467.613394,2368.659014,2681.334243,8068.244768
5467.613717,3478.967927,2528.115143,9104.533087
5467.614040,3330.926739,1762.019645,8512.368333
5467.614363,3627.009116,1532.190996,8956.491898
5467.614685,1924.535449,1762.019645,8068.244768
5467.615008,1184.329507,383.047749,9918.759623
5467.615331,1110.308913,76.609550,11029.068536
5467.615654,-1406.391290,76.609550,11029.068536
5467.615977,-1924.535449,-1608.800546,11399.171507
5467.616299,-1776.494261,-2528.115143,8660.409521
5467.616622,-2368.659014,-2298.286494,10140.821405
5467.616945,-1628.453072,-1838.629195,8438.347739
5467.617268,-1480.411884,-1532.190996,9696.697840
5467.617591,-1184.329507,-383.047749,7698.141797
5467.617913,-740.205942,-459.657299,9030.512492
5467.618236,740.205942,-1149.143247,8364.327145
5467.618559,0.000000,-229.828649,8660.409521
5467.618882,1628.453072,842.705048,9548.656652
5467.619205,518.144159,459.657299,10288.862594
5467.619528,592.164754,0.000000,10658.965565
5467.619850,1850.514855,-229.828649,9844.739029
5467.620173,1332.370696,306.438199,8734.430116
5467.620496,370.102971,-76.609550,10584.944971
5467.620819,592.164754,-612.876398,9474.636058
5467.621142,2294.638420,-689.485948,11251.130318
5467.621464,1702.473667,919.314598,8364.327145
5467.621787,-1776.494261,229.828649,10362.883188
5467.622110,-1924.535449,0.000000,9548.656652
5467.622433,-1924.535449,536.266849,10436.903782
5467.622756,-1554.432478,1225.752797,8586.388927
5467.623078,-2146.597232,1072.533697,8068.244768
5467.623401,-3701.029710,612.876398,9474.636058
5467.623724,-3701.029710,842.705048,8438.347739
5467.624047,-3701.029710,1378.971896,8216.285956
5467.624370,-3330.926739,1762.019645,6809.894666
5467.624692,-3701.029710,2068.457845,8512.368333
5467.625015,-3478.967927,153.219100,9030.512492
5467.625338,-2590.720797,1072.533697,8216.285956
5467.625661,-2368.659014,1378.971896,7179.997637
5467.625984,-1184.329507,1991.848295,8068.244768
5467.626306,-1628.453072,1225.752797,9770.718434
5467.626629,-518.144159,1378.971896,9770.718434
5467.626952,1554.432478,2145.067394,9030.512492
5467.627275,2072.576638,2757.943793,7550.100608
5467.627598,1406.391290,2451.505594,9400.615463
5467.627921,3478.967927,2757.943793,9474.636058
5467.628243,3775.050304,3370.820191,10140.821405
5467.628566,3775.050304,3140.991542,8364.327145
5467.628889,3849.070898,1991.848295,10658.965565
5467.629212,3034.844362,1455.581446,10510.924376
5467.629535,1554.432478,995.924147,10510.924376
5467.629857,0.000000,-536.266849,8364.327145
5467.630180,-592.164754,-842.705048,9548.656652
5467.630503,-2072.576638,-1378.971896,10955.047942
5467.630826,-1258.350101,-1532.190996,8882.471304
5467.631149,0.000000,-1532.190996,8364.327145
5467.631471,-962.267725,-1302.362347,8364.327145
5467.631794,-1998.556043,-919.314598,10510.924376
5467.632117,-1184.329507,-1532.190996,10807.006753
5467.632440,740.205942,612.876398,9918.759623
5467.632763,1110.308913,459.657299,10140.821405
5467.633085,148.041188,0.000000,12065.356855
5467.633408,1702.473667,383.047749,11547.212695
5467.633731,2368.659014,536.266849,9622.677246
5467.634054,2072.576638,229.828649,8882.471304
5467.634377,444.123565,-766.095498,10732.986159
5467.634699,666.185348,-459.657299,8586.388927
5467.635022,1332.370696,459.657299,9326.594869
5467.635345,740.205942,536.266849,8216.285956
5467.635668,-592.164754,0.000000,9400.615463
5467.635991,74.020594,0.000000,9178.553681
5467.636314,-1110.308913,1072.533697,9326.594869
5467.636636,-1924.535449,1685.410096,8808.450710
5467.636959,-2146.597232,536.266849,8882.471304
5467.637282,-1628.453072,1225.752797,9178.553681
5467.637605,-2220.617826,1532.190996,9030.512492
5467.637928,-2664.741391,1302.362347,8290.306550
5467.638250,-3108.864956,1072.533697,8216.285956
5467.638573,-2368.659014,76.609550,7179.997637
5467.638896,-2590.720797,-536.266849,7624.121203
5467.639219,-2886.803174,0.000000,7994.224174
5467.639542,-2516.700203,612.876398,7698.141797
5467.639864,-2442.679609,612.876398,7698.141797
5467.640187,-1998.556043,919.314598,10288.862594
5467.640510,0.000000,1072.533697,7994.224174
5467.640833,-1036.288319,612.876398,8364.327145
5467.641156,-1110.308913,1378.971896,9622.677246
5467.641478,296.082377,0.000000,11103.089130
5467.641801,2220.617826,1608.800546,9844.739029
5467.642124,1554.432478,1685.410096,9622.677246
5467.642447,1924.535449,1455.581446,9326.594869
5467.642770,2368.659014,1149.143247,11251.130318
5467.643092,2368.659014,1685.410096,9474.636058
5467.643415,3108.864956,1302.362347,10140.821405
5467.643738,444.123565,-153.219100,9474.636058
5467.644061,-518.144159,-689.485948,11473.192101
5467.644384,74.020594,-1072.533697,10807.006753
5467.644707,-370.102971,-689.485948,9548.656652
5467.645029,0.000000,-766.095498,9326.594869
5467.645352,-1998.556043,-1455.581446,9844.739029
5467.645675,-592.164754,-1149.143247,11325.150913
5467.645998,888.247130,0.000000,8660.409521
5467.646321,0.000000,229.828649,9104.533087
5467.646643,-148.041188,-919.314598,8512.368333
5467.646966,-1036.288319,-919.314598,10955.047942
5467.647289,296.082377,842.705048,9252.574275
5467.647612,1406.391290,689.485948,8808.450710
5467.647935,-444.123565,-536.266849,9326.594869
5467.648257,296.082377,306.438199,9622.677246
5467.648580,1036.288319,229.828649,9178.553681
5467.648903,2368.659014,995.924147,8142.265362
5467.649226,1480.411884,1762.019645,9400.615463
5467.649549,1110.308913,383.047749,9992.780217
5467.649871,1702.473667,1532.190996,10288.862594
5467.650194,1554.432478,2221.676944,9474.636058
5467.650517,370.102971,1072.533697,8216.285956
5467.650840,0.000000,459.657299,10140.821405
5467.651163,-1258.350101,919.314598,9400.615463
5467.651485,-1110.308913,1608.800546,9474.636058
5467.651808,-1258.350101,2145.067394,7698.141797
5467.652131,-2886.803174,1532.190996,8956.491898
5467.652454,-3552.988522,842.705048,7994.224174
5467.652777,-2812.782580,0.000000,7105.977043
5467.653100,-2368.659014,1149.143247,6513.812290
5467.653422,-3108.864956,1838.629195,7328.038826
5467.653745,-3404.947333,1149.143247,9622.677246
5467.654068,-1110.308913,766.095498,8734.430116
5467.654391,-1628.453072,1532.190996,8290.306550
5467.654714,-962.267725,1762.019645,7698.141797
5467.655036,1184.329507,1149.143247,9400.615463
5467.655359,518.144159,1532.190996,9992.780217
5467.655682,2664.741391,1532.190996,9252.574275
5467.656005,1628.453072,995.924147,8660.409521
5467.656328,1406.391290,383.047749,9400.615463
5467.656650,2220.617826,766.095498,10732.986159
5467.656973,370.102971,919.314598,11103.089130
5467.657296,888.247130,306.438199,9844.739029
5467.657619,1628.453072,-153.219100,10436.903782
5467.657942,444.123565,-1072.533697,9622.677246
5467.658264,-1110.308913,-1149.143247,10214.842000
5467.658587,-1480.411884,-2221.676944,8512.368333
5467.658910,-2516.700203,-1991.848295,10214.842000
5467.659233,-1776.494261,-1685.410096,10288.862594
5467.659556,-1406.391290,-1378.971896,11769.274478
5467.659878,0.000000,-842.705048,10436.903782
5467.660201,888.247130,0.000000,10140.821405
5467.660524,-148.041188,-1532.190996,10881.027347
5467.660847,1628.453072,-229.828649,11029.068536
5467.661170,2072.576638,766.095498,11251.130318
5467.661493,1332.370696,383.047749,9696.697840
5467.661815,-222.061783,-229.828649,11695.253884
5467.662138,2368.659014,-689.485948,8808.450710
5467.662461,2960.823768,689.485948,8216.285956
5467.662784,2368.659014,1072.533697,8142.265362
5467.663107,-222.061783,0.000000,10658.965565
5467.663429,-1036.288319,0.000000,9770.718434
5467.663752,-1110.308913,536.266849,7846.182985
5467.664075,-1628.453072,612.876398,7402.059420
5467.664398,-3775.050304,76.609550,7550.100608
5467.664721,-3256.906145,383.047749,8512.368333
5467.665043,-1480.411884,1302.362347,7328.038826
5467.665366,-1110.308913,1915.238745,7105.977043
5467.665689,-962.267725,2374.896044,7179.997637
5467.666012,-3404.947333,1838.629195,7994.224174
5467.666335,-1554.432478,2911.162892,8882.471304
5467.666657,1332.370696,3600.648841,7328.038826
5467.666980,1036.288319,2374.896044,8068.244768
5467.667303,-666.185348,1838.629195,10140.821405
5467.667626,-1554.432478,1302.362347,10140.821405
5467.667949,666.185348,1838.629195,8956.491898
5467.668271,1332.370696,2451.505594,8364.327145
5467.668594,-518.144159,2451.505594,9326.594869
5467.668917,1406.391290,2298.286494,9844.739029
5467.669240,2368.659014,2374.896044,9622.677246
5467.669563,2738.761985,2757.943793,7476.080014
5467.669886,1776.494261,2681.334243,8882.471304
5467.670208,888.247130,2145.067394,11103.089130
5467.670531,1184.329507,2451.505594,10807.006753
5467.670854,74.020594,1762.019645,8660.409521
5467.671177,888.247130,1302.362347,9030.512492
5467.671500,0.000000,0.000000,10436.903782
5467.671822,-2960.823768,-1225.752797,10436.903782
5467.672145,-2220.617826,-1225.752797,9252.574275
5467.672468,-2442.679609,-1532.190996,8882.471304
5467.672791,-2664.741391,-2221.676944,9770.718434
5467.673114,-2960.823768,-2145.067394,10584.944971
5467.673436,-2368.659014,-1762.019645,9918.759623
5467.673759,-592.164754,-612.876398,10288.862594
5467.674082,-666.185348,0.000000,9844.739029
5467.674405,666.185348,-766.095498,11621.233289
5467.674728,2368.659014,229.828649,9104.533087
5467.675050,1480.411884,0.000000,9326.594869
5467.675373,148.041188,-383.047749,8142.265362
5467.675696,444.123565,-1302.362347,9474.636058
5467.676019,1480.411884,-229.828649,8734.430116
5467.676342,1628.453072,-306.438199,7179.997637
5467.676664,0.000000,-1915.238745,8290.306550
5467.676987,370.102971,-2068.457845,7994.224174
5467.677310,518.144159,-1072.533697,10288.862594
5467.677633,-370.102971,-229.828649,9030.512492
5467.677956,-296.082377,-766.095498,10214.842000
5467.678279,222.061783,-995.924147,9548.656652
5467.678601,740.205942,229.828649,10214.842000
5467.678924,740.205942,0.000000,9104.533087
5467.679247,962.267725,689.485948,8438.347739
5467.679570,-370.102971,229.828649,9770.718434
5467.679893,-1850.514855,76.609550,10584.944971
5467.680215,-1258.350101,153.219100,9474.636058
5467.680538,74.020594,1225.752797,8660.409521
5467.680861,0.000000,1302.362347,9992.780217
5467.681184,-740.205942,1991.848295,11399.171507
5467.681507,592.164754,2374.896044,11843.295072
5467.681829,1258.350101,3294.210641,11843.295072
5467.682152,-222.061783,3370.820191,11325.150913
5467.682475,-1036.288319,2374.896044,11769.274478
5467.682798,1258.350101,2604.724693,10584.944971
5467.683121,666.185348,4136.915689,9992.780217
5467.683443,-1184.329507,3447.429741,7698.141797
5467.683766,-1258.350101,2221.676944,8290.306550
5467.684089,-1628.453072,1991.848295,6957.935855
5467.684412,-2590.720797,2145.067394,5329.482782
5467.684735,-2294.638420,1838.629195,5033.400406
5467.685057,-2590.720797,2068.457845,5107.421000
5467.685380,-2812.782580,2451.505594,6513.812290
5467.685703,-2664.741391,2604.724693,5625.565159
5467.686026,-2072.576638,1838.629195,5329.482782
5467.686349,-1036.288319,1991.848295,4811.338623
5467.686672,-1110.308913,1762.019645,7550.100608
5467.686994,1258.350101,2145.067394,8586.388927
5467.687317,4589.276840,3370.820191,7179.997637
5467.687640,4959.379811,2451.505594,8290.306550
5467.687963,5107.421000,2145.067394,9696.697840
5467.688286,4367.215058,1532.190996,10807.006753
5467.688608,5551.544565,2221.676944,10362.883188
5467.688931,4663.297435,1302.362347,11547.212695
5467.689254,3552.988522,-229.828649,13027.624579
5467.689577,3997.112087,-689.485948,13397.727550
5467.689900,3034.844362,0.000000,13249.686362
5467.690222,814.226536,-919.314598,12805.562797
5467.690545,-1184.329507,-1838.629195,12953.603985
5467.690868,-1628.453072,-1685.410096,13767.830521
5467.691191,-888.247130,-1302.362347,11769.274478
5467.691514,-2590.720797,-1915.238745,10584.944971
5467.691836,-3404.947333,-2221.676944,9918.759623
5467.692159,-4145.153275,-2068.457845,11029.068536
5467.692482,-5773.606348,-2834.553343,9844.739029
5467.692805,-4515.256246,-2221.676944,7254.018232
5467.693128,-5995.668130,-2834.553343,7476.080014
5467.693450,-7105.977043,-3753.867940,8586.388927
5467.693773,-6883.915261,-3524.039291,9104.533087
5467.694096,-3701.029710,-2451.505594,6883.915261
5467.694419,-2886.803174,-1302.362347,7179.997637
5467.694742,-2738.761985,-1378.971896,7550.100608
5467.695065,-444.123565,-612.876398,7105.977043
5467.695387,2812.782580,1915.238745,6365.771101
5467.695710,4293.194464,3217.601092,6365.771101
5467.696033,4071.132681,1991.848295,9030.512492
5467.696356,3256.906145,1762.019645,9252.574275
5467.696679,3256.906145,2374.896044,9696.697840
5467.697001,2368.659014,1455.581446,7328.038826
5467.697324,0.000000,306.438199,9104.533087
5467.697647,-1258.350101,-689.485948,9178.553681
5467.697970,-814.226536,-1762.019645,9178.553681
5467.698293,-2294.638420,-1378.971896,7846.182985
5467.698615,-1924.535449,-1455.581446,6735.874072
5467.698938,-2960.823768,-1991.848295,8956.491898
5467.699261,-1628.453072,-766.095498,8216.285956
5467.699584,-888.247130,-995.924147,10288.862594
5467.699906,-888.247130,1225.752797,11103.089130
5467.700229,-592.164754,766.095498,13545.768739
5467.700552,-518.144159,0.000000,13693.809927
5467.700875,1110.308913,689.485948,12953.603985
5467.701197,2072.576638,1762.019645,12657.521608
5467.701520,1702.473667,612.876398,12953.603985
5467.701843,1628.453072,153.219100,13545.768739
5467.702166,2960.823768,1915.238745,11843.295072
5467.702488,2738.761985,1072.533697,11917.315666
5467.702811,1776.494261,1838.629195,10288.862594
5467.703134,2590.720797,1838.629195,12213.398043
5467.703457,4367.215058,2757.943793,9844.739029
5467.703780,3034.844362,4136.915689,10584.944971
5467.704102,2220.617826,4290.134789,8364.327145
5467.704425,1110.308913,3524.039291,9400.615463
5467.704748,-222.061783,4979.620737,7328.038826
5467.705071,-1110.308913,3907.087040,5921.647536
5467.705393,-1036.288319,3524.039291,3627.009116
5467.705716,-2368.659014,3217.601092,4515.256246
5467.706039,-2590.720797,2068.457845,4441.235652
5467.706362,-4293.194464,1838.629195,5033.400406
5467.706684,-3997.112087,2834.553343,4441.235652
5467.707007,-3552.988522,2374.896044,4589.276840
5467.707330,-4219.173869,1685.410096,5255.462188
5467.707653,-1184.329507,2298.286494,5699.585753
5467.707975,0.000000,3447.429741,5255.462188
5467.708298,-148.041188,3524.039291,7031.956449
5467.708621,1184.329507,3217.601092,8956.491898
5467.708944,3478.967927,3524.039291,8512.368333
5467.709266,3923.091493,4596.572988,10214.842000
5467.709589,3997.112087,2681.334243,9030.512492
5467.709912,2590.720797,1378.971896,12435.459826
5467.710235,2442.679609,2451.505594,13249.686362
5467.710557,2220.617826,1149.143247,13249.686362
5467.710880,1184.329507,0.000000,11769.274478
5467.711203,-1480.411884,-1302.362347,12361.439231
5467.711526,-666.185348,-2221.676944,11917.315666
5467.711848,-1998.556043,-3677.258390,10214.842000
5467.712171,-3997.112087,-3370.820191,9770.718434
5467.712494,-4959.379811,-3600.648841,11695.253884
5467.712817,-4811.338623,-3983.696590,11843.295072
5467.713139,-5329.482782,-3600.648841,11251.130318
5467.713462,-3034.844362,-3140.991542,9252.574275
5467.713785,-4071.132681,-3677.258390,10658.965565
5467.714108,-4293.194464,-3753.867940,10584.944971
5467.714431,-3627.009116,-4060.306139,11399.171507
5467.714753,-1480.411884,-2911.162892,9696.697840
5467.715076,-888.247130,-3140.991542,9474.636058
5467.715399,296.082377,-3370.820191,8734.430116
5467.715722,1110.308913,-2374.896044,9030.512492
5467.716044,3923.091493,-995.924147,8216.285956
5467.716367,3478.967927,-1149.143247,8956.491898
5467.716690,4293.194464,-1072.533697,9474.636058
5467.717013,3701.029710,-919.314598,10066.800811
5467.717335,3478.967927,153.219100,9252.574275
5467.717658,3108.864956,0.000000,8882.471304
5467.717981,2886.803174,1072.533697,9622.677246
5467.718304,888.247130,383.047749,10362.883188
5467.718626,740.205942,536.266849,9474.636058
5467.718949,-1184.329507,0.000000,8438.347739
5467.719272,-1480.411884,229.828649,7550.100608
5467.719595,-2294.638420,0.000000,7772.162391
5467.719917,-1850.514855,-383.047749,8956.491898
5467.720240,-1110.308913,383.047749,7105.977043
5467.720563,-1258.350101,1532.190996,9030.512492
5467.720886,-2072.576638,1762.019645,9622.677246
5467.721208,-2590.720797,919.314598,11769.274478
5467.721531,-1110.308913,2145.067394,9844.739029
5467.721854,-592.164754,2834.553343,9844.739029
5467.722177,-1332.370696,2757.943793,9474.636058
5467.722499,-222.061783,3600.648841,10955.047942
5467.722822,592.164754,4136.915689,9252.574275
5467.723145,444.123565,4519.963438,8364.327145
5467.723468,-1850.514855,3064.381992,8438.347739
5467.723790,-1702.473667,3140.991542,9030.512492
5467.724113,296.082377,4060.306139,8216.285956
5467.724436,222.061783,4519.963438,8142.265362
5467.724759,-296.082377,4443.353888,7698.141797
5467.725082,-888.247130,2757.943793,8586.388927
5467.725404,-1036.288319,3677.258390,7698.141797
5467.725727,-1110.308913,4673.182538,6735.874072
5467.726050,-296.082377,3677.258390,5625.565159
5467.726373,-814.226536,3140.991542,7476.080014
5467.726695,-592.164754,3217.601092,8142.265362
5467.727018,592.164754,2528.115143,6439.791695
5467.727341,1702.473667,1915.238745,5847.626942
5467.727664,1036.288319,1915.238745,7624.121203
5467.727986,1184.329507,153.219100,9474.636058
5467.728309,2368.659014,689.485948,9104.533087
5467.728632,2072.576638,1532.190996,10732.986159
5467.728955,2220.617826,689.485948,11621.233289
5467.729277,2960.823768,-383.047749,12953.603985
5467.729600,2886.803174,306.438199,12509.480420
5467.729923,2368.659014,995.924147,11399.171507
5467.730246,1406.391290,-1225.752797,11843.295072
5467.730568,-444.123565,-1532.190996,12361.439231
5467.730891,-370.102971,-1532.190996,12435.459826
5467.731214,-2294.638420,-2451.505594,10288.862594
5467.731537,-3404.947333,-3064.381992,9770.718434
5467.731859,-3182.885551,-3600.648841,9696.697840
5467.732182,-2590.720797,-3983.696590,9252.574275
5467.732505,-1776.494261,-2681.334243,7994.224174
5467.732828,-2886.803174,-2681.334243,8142.265362
5467.733150,-2516.700203,-2298.286494,10436.903782
5467.733473,-740.205942,-2068.457845,9770.718434
5467.733796,962.267725,-1762.019645,8586.388927
5467.734119,1998.556043,0.000000,8660.409521
5467.734442,1628.453072,229.828649,10881.027347
5467.734764,2294.638420,-612.876398,10955.047942
5467.735087,2590.720797,-536.266849,8586.388927
5467.735410,1998.556043,-306.438199,9030.512492
5467.735733,888.247130,-229.828649,7846.182985
5467.736055,0.000000,-766.095498,10436.903782
5467.736378,518.144159,76.609550,9400.615463
5467.736701,370.102971,0.000000,7179.997637
5467.737024,-1332.370696,-1225.752797,5995.668130
5467.737346,-3034.844362,-689.485948,8290.306550
5467.737669,-4515.256246,153.219100,10955.047942
5467.737992,-3256.906145,689.485948,9030.512492
5467.738315,-3404.947333,459.657299,8660.409521
5467.738637,-4737.318029,-306.438199,7476.080014
5467.738960,-4885.359217,0.000000,10362.883188
5467.739283,-4293.194464,536.266849,9326.594869
5467.739606,-3923.091493,995.924147,9844.739029
5467.739928,-3108.864956,919.314598,9770.718434
5467.740251,-2368.659014,612.876398,9400.615463
5467.740574,0.000000,995.924147,8956.491898
5467.740897,1184.329507,2451.505594,6217.729913
5467.741219,3182.885551,1915.238745,7550.100608
5467.741542,3552.988522,1685.410096,8068.244768
5467.741865,2960.823768,2681.334243,10288.862594
5467.742188,4885.359217,3830.477490,10288.862594
5467.742510,5033.400406,3830.477490,10658.965565
5467.742833,4219.173869,2374.896044,11399.171507
5467.743156,4663.297435,1608.800546,10807.006753
5467.743479,3775.050304,1225.752797,10658.965565
5467.743801,2146.597232,1378.971896,10140.821405
5467.744124,0.000000,689.485948,10362.883188
5467.744447,-962.267725,0.000000,10066.800811
5467.744770,-296.082377,306.438199,7476.080014
5467.745093,-1554.432478,0.000000,7179.997637
5467.745415,-2294.638420,-612.876398,7624.121203
5467.745738,-3034.844362,-995.924147,9252.574275
5467.746061,-3404.947333,-1378.971896,9548.656652
5467.746384,-2590.720797,-383.047749,9400.615463
5467.746706,-3478.967927,153.219100,10288.862594
5467.747029,-2442.679609,459.657299,11547.212695
5467.747352,-962.267725,1302.362347,11991.336260
5467.747675,518.144159,1455.581446,8956.491898
5467.747997,1776.494261,1991.848295,8882.471304
5467.748320,2146.597232,1991.848295,9770.718434
5467.748643,2368.659014,1762.019645,8512.368333
5467.748966,4219.173869,2528.115143,7105.977043
5467.749288,3701.029710,3524.039291,8068.244768
5467.749611,4737.318029,3370.820191,8882.471304
5467.749934,4145.153275,3294.210641,10066.800811
5467.750257,4367.215058,3753.867940,9030.512492
5467.750579,2812.782580,4060.306139,9622.677246
5467.750902,296.082377,2911.162892,8808.450710
5467.751225,-962.267725,1532.190996,10288.862594
5467.751548,-1480.411884,1838.629195,8808.450710
5467.751870,-2368.659014,1685.410096,8734.430116
5467.752193,-4441.235652,1455.581446,7476.080014
5467.752516,-6069.688724,689.485948,8364.327145
5467.752839,-5033.400406,-612.876398,7402.059420
5467.753161,-5477.523971,-229.828649,5329.482782
5467.753484,-6291.750507,-153.219100,6143.709319
5467.753807,-6217.729913,-1225.752797,7920.203579
5467.754130,-6365.771101,-1225.752797,8956.491898
5467.754452,-4515.256246,-1072.533697,8142.265362
5467.754775,-3923.091493,-153.219100,8660.409521
5467.755098,-4515.256246,-995.924147,10436.903782
5467.755421,-2442.679609,-1302.362347,10436.903782
5467.755744,-222.061783,-536.266849,9474.636058
5467.756066,1702.473667,153.219100,9326.594869
5467.756389,1628.453072,-306.438199,9474.636058
5467.756712,2664.741391,-612.876398,10214.842000
5467.757035,4145.153275,-153.219100,10584.944971
5467.757357,3478.967927,-536.266849,10436.903782
5467.757680,1998.556043,-2604.724693,10881.027347
5467.758003,444.123565,-4213.525239,11991.336260
5467.758326,518.144159,-3907.087040,12139.377449
5467.758648,0.000000,-4443.353888,11621.233289
5467.758971,-2886.803174,-5669.106685,10436.903782
5467.759294,-3627.009116,-6588.421283,10140.821405
5467.759617,-4293.194464,-5132.839837,10066.800811
5467.759939,-3478.967927,-4903.011187,9696.697840
5467.760262,-5255.462188,-4749.792088,10362.883188
5467.760585,-3923.091493,-5362.668486,9918.759623
5467.760908,-3478.967927,-5822.325785,11399.171507
5467.761230,-4145.153275,-4673.182538,9696.697840
5467.761553,-5773.606348,-4443.353888,11103.089130
5467.761876,-5033.400406,-4596.572988,11399.171507
5467.762199,-4885.359217,-5209.449386,10807.006753
5467.762521,-4367.215058,-5362.668486,8882.471304
5467.762844,-518.144159,-4060.306139,5699.585753
5467.763167,-592.164754,-2451.505594,8216.285956
5467.763490,148.041188,-1915.238745,8512.368333
5467.763812,814.226536,-1838.629195,9770.718434
5467.764135,1332.370696,153.219100,7328.038826
5467.764458,3182.885551,1762.019645,7698.141797
5467.764781,3034.844362,1915.238745,9770.718434
5467.765103,2886.803174,2757.943793,10807.006753
5467.765426,3478.967927,2221.676944,10214.842000
5467.765749,2294.638420,1532.190996,7698.141797
5467.766072,296.082377,1532.190996,8290.306550
5467.766395,-2442.679609,842.705048,9326.594869
5467.766717,-3256.906145,229.828649,7846.182985
5467.767040,-3330.926739,0.000000,5403.503377
5467.767363,-4663.297435,-306.438199,5329.482782
5467.767686,-6365.771101,-306.438199,7698.141797
5467.768008,-7105.977043,0.000000,9622.677246
5467.768331,-7994.224174,306.438199,8808.450710
5467.768654,-7994.224174,306.438199,8956.491898
5467.768977,-7105.977043,612.876398,9844.739029
5467.769299,-5699.585753,1149.143247,10214.842000
5467.769622,-4811.338623,1532.190996,8364.327145
5467.769945,-4441.235652,842.705048,7031.956449
5467.770268,-3923.091493,995.924147,9030.512492
5467.770590,-3404.947333,1455.581446,9474.636058
5467.770913,-2738.761985,995.924147,10140.821405
5467.771236,-1924.535449,306.438199,7476.080014
5467.771559,-962.267725,-919.314598,8586.388927
5467.771881,-592.164754,-995.924147,8734.430116
5467.772204,296.082377,689.485948,10807.006753
5467.772527,-370.102971,459.657299,11399.171507
5467.772850,0.000000,-536.266849,9844.739029
5467.773172,1850.514855,-1072.533697,10658.965565
5467.773495,3404.947333,229.828649,9770.718434
5467.773818,1184.329507,0.000000,10955.047942
5467.774141,-296.082377,-995.924147,10362.883188
5467.774463,296.082377,-1685.410096,10288.862594
5467.774786,296.082377,-2451.505594,8734.430116
5467.775109,-888.247130,-2987.772442,8216.285956
5467.775432,-4071.132681,-4213.525239,9178.553681
5467.775754,-5847.626942,-5898.935335,9696.697840
5467.776077,-4811.338623,-5592.497135,9252.574275
5467.776400,-3627.009116,-6511.811733,8734.430116
5467.776723,-5477.523971,-5745.716235,9474.636058
5467.777046,-6587.832884,-5592.497135,11399.171507
5467.777368,-5107.421000,-5975.544884,10140.821405
5467.777691,-2368.659014,-4979.620737,8660.409521
5467.778014,-1924.535449,-3600.648841,8216.285956
5467.778337,-2368.659014,-3600.648841,10881.027347
5467.778659,-1776.494261,-2681.334243,11769.274478
5467.778982,-1998.556043,-2451.505594,10732.986159
5467.779305,0.000000,-1991.848295,8660.409521
5467.779628,-962.267725,-2681.334243,9548.656652
5467.779950,-1184.329507,-2911.162892,9696.697840
5467.780273,-296.082377,-2451.505594,11177.109724
5467.780596,74.020594,-2221.676944,8512.368333
5467.780919,0.000000,-2374.896044,7846.182985
5467.781241,-2072.576638,-1532.190996,9030.512492
5467.781564,-444.123565,-1378.971896,9400.615463
5467.781887,740.205942,-383.047749,9104.533087
5467.782210,0.000000,612.876398,7846.182985
5467.782532,0.000000,0.000000,9474.636058
5467.782855,-1924.535449,-919.314598,9770.718434
5467.783178,-3108.864956,0.000000,9770.718434
5467.783501,-1776.494261,1072.533697,9104.533087
5467.783823,-4071.132681,-153.219100,9474.636058
5467.784146,-4885.359217,-1149.143247,9474.636058
5467.784469,-4885.359217,-1915.238745,9252.574275
5467.784792,-6217.729913,-1685.410096,8438.347739
5467.785114,-6365.771101,-1532.190996,7624.121203
5467.785437,-6439.791695,-2068.457845,9030.512492
5467.785760,-5625.565159,-1302.362347,9178.553681
5467.786083,-4737.318029,-995.924147,9104.533087
5467.786406,-4811.338623,-842.705048,8882.471304
5467.786728,-5255.462188,-766.095498,10066.800811
5467.787051,-5107.421000,-1302.362347,10807.006753
5467.787374,-3182.885551,-1072.533697,9844.739029
5467.787697,-3108.864956,-536.266849,8586.388927
5467.788019,-3404.947333,-919.314598,9474.636058
5467.788342,-2368.659014,-1608.800546,9252.574275
5467.788665,-1850.514855,-1455.581446,8512.368333
5467.788988,-1258.350101,-1225.752797,7698.141797
5467.789310,-592.164754,-1608.800546,7476.080014
5467.789633,666.185348,-1455.581446,8290.306550
5467.789956,2886.803174,0.000000,8216.285956
5467.790279,2220.617826,842.705048,8512.368333
5467.790601,1998.556043,-459.657299,10140.821405
5467.790924,1554.432478,-995.924147,11029.068536
5467.791247,1110.308913,-1455.581446,10584.944971
5467.791570,888.247130,-1532.190996,10658.965565
5467.791892,-1332.370696,-1915.238745,9918.759623
5467.792215,-2960.823768,-2451.505594,10140.821405
5467.792538,-2368.659014,-3907.087040,9548.656652
5467.792861,-3627.009116,-3983.696590,7772.162391
5467.793183,-4219.173869,-3753.867940,7328.038826
5467.793506,-4441.235652,-3524.039291,8364.327145
5467.793829,-4367.215058,-3370.820191,9178.553681
5467.794152,-3997.112087,-3447.429741,9252.574275
5467.794474,-3775.050304,-3217.601092,8290.306550
5467.794797,-3552.988522,-3064.381992,10214.842000
5467.795120,-3256.906145,-2604.724693,10732.986159
5467.795443,-2590.720797,-2374.896044,11917.315666
5467.795765,-1332.370696,-1991.848295,10658.965565
5467.796088,-1184.329507,-2221.676944,10362.883188
5467.796411,-1776.494261,-2757.943793,10140.821405
5467.796734,-1332.370696,-2911.162892,9918.759623
5467.797057,-1110.308913,-2374.896044,8734.430116
5467.797379,-740.205942,-2068.457845,7920.203579
5467.797702,444.123565,-1302.362347,9104.533087
5467.798025,370.102971,-995.924147,9696.697840
5467.798348,1184.329507,-459.657299,8956.491898
5467.798670,-148.041188,-153.219100,8364.327145
5467.798993,0.000000,-612.876398,8586.388927
5467.799316,-814.226536,-766.095498,10510.924376
5467.799639,-1332.370696,-459.657299,9770.718434
5467.799961,-2590.720797,-1225.752797,9030.512492
5467.800284,-5255.462188,-2221.676944,9252.574275
5467.800607,-6439.791695,-2987.772442,9326.594869
5467.800930,-4737.318029,-2757.943793,8364.327145
5467.801252,-4219.173869,-2145.067394,9030.512492
5467.801575,-4737.318029,-2145.067394,8364.327145
5467.801898,-4737.318029,-2068.457845,9696.697840
5467.802221,-3034.844362,-2451.505594,9548.656652
5467.802543,-2072.576638,-1149.143247,9400.615463
5467.802866,-2442.679609,-766.095498,10288.862594
5467.803189,-3108.864956,-1149.143247,11917.315666
5467.803512,-1998.556043,-842.705048,12139.377449
5467.803834,-1702.473667,-459.657299,10510.924376
5467.804157,-1776.494261,-919.314598,8660.409521
5467.804480,-2886.803174,-1685.410096,9548.656652
5467.804802,-2368.659014,-1225.752797,9474.636058
5467.805125,-370.102971,-153.219100,8216.285956
5467.805448,740.205942,1149.143247,7031.956449
5467.805771,-74.020594,1378.971896,8438.347739
5467.806093,-666.185348,1302.362347,9030.512492
5467.806416,-222.061783,0.000000,9326.594869
5467.806739,0.000000,1149.143247,8068.244768
5467.807062,-1110.308913,536.266849,8956.491898
5467.807384,-1776.494261,-459.657299,9844.739029
5467.807707,-2590.720797,-1149.143247,9326.594869
5467.808030,-2368.659014,-536.266849,7254.018232
5467.808353,-2368.659014,-766.095498,5699.585753
5467.808675,-2886.803174,-1378.971896,6291.750507
5467.808998,-2146.597232,-1225.752797,7254.018232
5467.809321,-1258.350101,229.828649,7846.182985
5467.809643,-1110.308913,536.266849,7550.100608
5467.809966,-1628.453072,612.876398,9326.594869
5467.810289,-2072.576638,153.219100,10732.986159
5467.810612,-1332.370696,612.876398,11399.171507
5467.810934,-1924.535449,-459.657299,10658.965565
5467.811257,-2442.679609,-995.924147,10732.986159
5467.811580,-3256.906145,-2604.724693,11103.089130
5467.811903,-4737.318029,-3370.820191,10436.903782
5467.812225,-4663.297435,-4136.915689,8808.450710
5467.812548,-5181.441594,-4519.963438,8142.265362
5467.812871,-4811.338623,-4366.744339,8068.244768
5467.813194,-2812.782580,-3830.477490,8586.388927
5467.813516,-1036.288319,-2298.286494,9474.636058
5467.813839,-370.102971,-1149.143247,9474.636058
5467.814162,370.102971,-612.876398,11547.212695
5467.814484,1480.411884,-229.828649,12509.480420
5467.814807,1998.556043,612.876398,12435.459826
5467.815130,1110.308913,153.219100,11991.336260
5467.815453,0.000000,-842.705048,11843.295072
5467.815775,-1406.391290,-2451.505594,11029.068536
5467.816098,-2294.638420,-3677.258390,9030.512492
5467.816421,-3256.906145,-4213.525239,7031.956449
5467.816744,-5403.503377,-4903.011187,7031.956449
5467.817066,-5995.668130,-5592.497135,7476.080014
5467.817389,-5255.462188,-5362.668486,7031.956449
5467.817712,-5625.565159,-3983.696590,6883.915261
5467.818035,-5255.462188,-2298.286494,8512.368333
5467.818357,-4219.173869,-2528.115143,10362.883188
5467.818680,-2664.741391,-1378.971896,11029.068536
5467.819003,-1628.453072,-536.266849,10288.862594
5467.819325,-2368.659014,-995.924147,10881.027347
5467.819648,-2664.741391,-1455.581446,11029.068536
5467.819971,-2590.720797,-2221.676944,10288.862594
5467.820294,-1480.411884,-1838.629195,8142.265362
5467.820616,-2146.597232,-2221.676944,7402.059420
5467.820939,-3256.906145,-2911.162892,7624.121203
5467.821262,-2220.617826,-3064.381992,7994.224174
5467.821585,-814.226536,-2374.896044,7179.997637
5467.821907,444.123565,-995.924147,7105.977043
5467.822230,1110.308913,536.266849,8438.347739
5467.822553,1258.350101,689.485948,10510.924376
5467.822876,2812.782580,2451.505594,11399.171507
5467.823198,2886.803174,2604.724693,11177.109724
5467.823521,1406.391290,2298.286494,12509.480420
5467.823844,444.123565,1915.238745,13323.706956
5467.824166,370.102971,1532.190996,12065.356855
5467.824489,222.061783,1149.143247,10066.800811
5467.824812,-740.205942,919.314598,8734.430116
5467.825135,-2516.700203,76.609550,8068.244768
5467.825457,-3256.906145,-919.314598,6883.915261
5467.825780,-2738.761985,76.609550,6069.688724
5467.826103,-2590.720797,1072.533697,5921.647536
5467.826426,-3182.885551,1225.752797,6587.832884
5467.826748,-3108.864956,1762.019645,8364.327145
5467.827071,-1702.473667,2374.896044,9104.533087
5467.827394,-1850.514855,3447.429741,8660.409521
5467.827717,-2516.700203,2528.115143,9622.677246
5467.828039,-3330.926739,1685.410096,10658.965565
5467.828362,-3256.906145,1532.190996,10066.800811
5467.828685,-3108.864956,1149.143247,8216.285956
5467.829007,-3775.050304,229.828649,7105.977043
5467.829330,-5033.400406,-995.924147,7105.977043
5467.829653,-5551.544565,-1532.190996,7031.956449
5467.829976,-3849.070898,-1302.362347,5995.668130
5467.830298,-3701.029710,-1532.190996,5995.668130
5467.830621,-4811.338623,-1915.238745,7624.121203
5467.830944,-3775.050304,-1991.848295,9252.574275
5467.831267,-2664.741391,-2145.067394,8808.450710
5467.831589,-2664.741391,-1838.629195,8586.388927
5467.831912,-2368.659014,-2528.115143,10066.800811
5467.832235,-3182.885551,-3447.429741,11917.315666
5467.832558,-3923.091493,-3294.210641,11177.109724
5467.832880,-2664.741391,-4060.306139,10140.821405
5467.833203,-3923.091493,-5898.935335,9696.697840
5467.833526,-4959.379811,-7277.907231,10362.883188
5467.833848,-4885.359217,-7814.174080,10584.944971
5467.834171,-4959.379811,-7967.393179,9696.697840
5467.834494,-5329.482782,-8044.002729,10214.842000
5467.834817,-4589.276840,-8580.269578,10807.006753
5467.835139,-2738.761985,-7890.783629,11547.212695
5467.835462,-1184.329507,-6358.592633,11325.150913
5467.835785,-962.267725,-5286.058936,11843.295072
5467.836108,-222.061783,-5515.887586,13619.789333
5467.836430,-814.226536,-5669.106685,13323.706956
5467.836753,74.020594,-5439.278036,12213.398043
5467.837076,-740.205942,-5286.058936,11029.068536
5467.837399,-2220.617826,-5898.935335,10807.006753
5467.837721,-1998.556043,-6052.154434,10510.924376
5467.838044,-1184.329507,-5669.106685,8808.450710
5467.838367,-444.123565,-4826.401637,7402.059420
5467.838689,-1036.288319,-4596.572988,7105.977043
5467.839012,-740.205942,-3524.039291,8216.285956
5467.839335,740.205942,-2068.457845,8512.368333
5467.839658,2516.700203,-689.485948,8438.347739
5467.839980,2812.782580,842.705048,9178.553681
5467.840303,2368.659014,1072.533697,10955.047942
5467.840626,1036.288319,1532.190996,11177.109724
5467.840949,814.226536,1991.848295,10955.047942
5467.841271,-370.102971,1149.143247,9474.636058
5467.841594,-3034.844362,0.000000,8734.430116
5467.841917,-4071.132681,-689.485948,7846.182985
5467.842240,-4367.215058,-766.095498,7105.977043
5467.842562,-4885.359217,-76.609550,5699.585753
5467.842885,-5625.565159,0.000000,5847.626942
5467.843208,-5551.544565,459.657299,6883.915261
5467.843530,-3034.844362,1991.848295,7254.018232
5467.843853,-1184.329507,4673.182538,7179.997637
5467.844176,-962.267725,5669.106685,9252.574275
5467.844499,-1850.514855,5132.839837,11843.295072
5467.844821,-2368.659014,4903.011187,12139.377449
5467.845144,-2146.597232,4519.963438,11103.089130
5467.845467,-3478.967927,3140.991542,9918.759623
5467.845790,-5625.565159,1225.752797,9400.615463
5467.846112,-6439.791695,153.219100,8586.388927
5467.846435,-6069.688724,-536.266849,6587.832884
5467.846758,-5551.544565,-1072.533697,4441.235652
5467.847081,-5107.421000,-459.657299,4737.318029
5467.847403,-3256.906145,76.609550,6217.729913
5467.847726,-888.247130,1225.752797,7105.977043
5467.848049,0.000000,2757.943793,7920.203579
5467.848371,1036.288319,2681.334243,9696.697840
5467.848694,1258.350101,2374.896044,12287.418637
5467.849017,666.185348,2145.067394,12583.501014
5467.849340,222.061783,1225.752797,12065.356855
5467.849662,-1110.308913,0.000000,11029.068536
5467.849985,-1332.370696,-1762.019645,9844.739029
5467.850308,-1776.494261,-3064.381992,8142.265362
5467.850631,-2516.700203,-4749.792088,7031.956449
5467.850953,-3923.091493,-4979.620737,6365.771101
5467.851276,-4367.215058,-5669.106685,7105.977043
5467.851599,-3404.947333,-6128.763984,8068.244768
5467.851922,-2664.741391,-5745.716235,8660.409521
5467.852244,-2812.782580,-4903.011187,9474.636058
5467.852567,-1628.453072,-4366.744339,11843.295072
5467.852890,-1110.308913,-4519.963438,13693.809927
5467.853212,0.000000,-3524.039291,13027.624579
5467.853535,296.082377,-3370.820191,11843.295072
5467.853858,-518.144159,-3983.696590,12139.377449
5467.854181,-1184.329507,-4290.134789,11843.295072
5467.854503,-370.102971,-4903.011187,10214.842000
5467.854826,0.000000,-4903.011187,8216.285956
5467.855149,-148.041188,-4826.401637,7698.141797
5467.855472,-2368.659014,-5439.278036,8882.471304
5467.855794,-1406.391290,-5362.668486,8290.306550
5467.856117,-962.267725,-5132.839837,8142.265362
5467.856440,-2368.659014,-4596.572988,8882.471304
5467.856763,-3404.947333,-4903.011187,11103.089130
5467.857085,-3108.864956,-4213.525239,11695.253884
5467.857408,-2220.617826,-2681.334243,11547.212695
5467.857731,-2368.659014,-2145.067394,11029.068536
5467.858054,-4515.256246,-2834.553343,10881.027347
5467.858376,-3997.112087,-2834.553343,10362.883188
5467.858699,-3849.070898,-2528.115143,9474.636058
5467.859022,-3701.029710,-2221.676944,7624.121203
5467.859344,-3849.070898,-2145.067394,7254.018232
5467.859667,-4219.173869,-2145.067394,8438.347739
5467.859990,-2664.741391,-1685.410096,7254.018232
5467.860313,-3108.864956,-1685.410096,6883.915261
5467.860635,-4811.338623,-1532.190996,9400.615463
5467.860958,-3701.029710,-1762.019645,9400.615463
5467.861281,-4293.194464,-1608.800546,11029.068536
5467.861604,-3552.988522,-153.219100,10362.883188
5467.861926,-3330.926739,229.828649,10658.965565
5467.862249,-3849.070898,-459.657299,9474.636058
5467.862572,-2812.782580,-459.657299,9104.533087
5467.862895,-1998.556043,842.705048,9474.636058
5467.863217,-1628.453072,1685.410096,7698.141797
5467.863540,-1850.514855,2068.457845,9104.533087
5467.863863,-1184.329507,1762.019645,8216.285956
5467.864185,-444.123565,1762.019645,6809.894666
5467.864508,-740.205942,1685.410096,6513.812290
5467.864831,-814.226536,1608.800546,8068.244768
5467.865154,-2072.576638,842.705048,10436.903782
5467.865476,-2590.720797,383.047749,9992.780217
5467.865799,-2368.659014,536.266849,9178.553681
5467.866122,-3552.988522,-766.095498,8586.388927
5467.866445,-2960.823768,-689.485948,8660.409521
5467.866767,-1776.494261,0.000000,9918.759623
5467.867090,-1332.370696,995.924147,7994.224174
5467.867413,-2220.617826,919.314598,8068.244768
5467.867736,-1776.494261,842.705048,8216.285956
5467.868058,-592.164754,1302.362347,8512.368333
5467.868381,666.185348,1455.581446,7476.080014
5467.868704,74.020594,995.924147,8142.265362
5467.869026,148.041188,153.219100,9844.739029
5467.869349,888.247130,229.828649,9992.780217
5467.869672,0.000000,-383.047749,10288.862594
5467.869995,-740.205942,-306.438199,9992.780217
5467.870317,-2516.700203,-1302.362347,10362.883188
5467.870640,-2072.576638,-2451.505594,9770.718434
5467.870963,-962.267725,-1762.019645,8808.450710
5467.871286,-370.102971,-995.924147,8142.265362
5467.871608,-1480.411884,-1378.971896,8882.471304
5467.871931,-2664.741391,-2221.676944,10436.903782
5467.872254,-1036.288319,-1915.238745,10214.842000
5467.872577,-296.082377,-1378.971896,9252.574275
5467.872899,-370.102971,-995.924147,10214.842000
5467.873222,-1776.494261,-1762.019645,12065.356855
5467.873545,-2516.700203,-2298.286494,11251.130318
5467.873867,-1258.350101,-2451.505594,8956.491898
5467.874190,-962.267725,-2911.162892,7031.956449
5467.874513,-3552.988522,-4213.525239,9030.512492
5467.874836,-5773.606348,-4519.963438,10955.047942
5467.875158,-4885.359217,-4979.620737,9326.594869
5467.875481,-3701.029710,-4903.011187,7698.141797
5467.875804,-4219.173869,-4903.011187,7476.080014
5467.876127,-5551.544565,-5132.839837,10584.944971
5467.876449,-4071.132681,-4136.915689,10807.006753
5467.876772,-2886.803174,-3753.867940,9918.759623
5467.877095,-3256.906145,-3753.867940,8216.285956
5467.877418,-2738.761985,-3830.477490,9474.636058
5467.877740,-3849.070898,-3983.696590,11177.109724
5467.878063,-2738.761985,-3753.867940,9178.553681
5467.878386,-1258.350101,-2221.676944,8364.327145
5467.878708,-4145.153275,-3217.601092,8734.430116
5467.879031,-3182.885551,-4673.182538,8734.430116
5467.879354,-4293.194464,-4213.525239,9992.780217
5467.879677,-3552.988522,-3217.601092,8216.285956
5467.879999,-3034.844362,-3447.429741,10140.821405
5467.880322,-3404.947333,-3370.820191,10807.006753
5467.880645,-2146.597232,-2451.505594,11843.295072
5467.880968,-2294.638420,-2374.896044,9474.636058
5467.881290,-2590.720797,-2374.896044,10955.047942
5467.881613,-2590.720797,-1608.800546,11325.150913
5467.881936,-2442.679609,-1915.238745,10807.006753
5467.882259,-814.226536,-459.657299,10140.821405
5467.882581,-1110.308913,306.438199,9992.780217
5467.882904,-2664.741391,-689.485948,9770.718434
5467.883227,-1332.370696,-995.924147,9474.636058
5467.883549,-444.123565,383.047749,7624.121203
5467.883872,-2146.597232,306.438199,8364.327145
5467.884195,-2812.782580,536.266849,8956.491898
5467.884518,-1554.432478,536.266849,9326.594869
5467.884840,0.000000,1608.800546,7994.224174
5467.885163,-1332.370696,1991.848295,8290.306550
5467.885486,-3552.988522,1072.533697,8956.491898
5467.885809,-1850.514855,689.485948,8438.347739
5467.886131,-296.082377,2068.457845,7179.997637
5467.886454,2072.576638,3370.820191,5773.606348
5467.886777,222.061783,3677.258390,8882.471304
5467.887100,222.061783,3524.039291,7772.162391
5467.887422,1406.391290,2911.162892,9252.574275
5467.887745,1110.308913,3140.991542,5847.626942
5467.888068,444.123565,2911.162892,8882.471304
5467.888390,-222.061783,3217.601092,8364.327145
5467.888713,296.082377,2221.676944,11029.068536
5467.889036,0.000000,1455.581446,8364.327145
5467.889359,-1258.350101,842.705048,7179.997637
5467.889681,-1110.308913,0.000000,7254.018232
5467.890004,-1258.350101,-229.828649,8586.388927
5467.890327,-1110.308913,1072.533697,9474.636058
5467.890650,1554.432478,1302.362347,9178.553681
5467.890972,1850.514855,1685.410096,9030.512492
5467.891295,1776.494261,766.095498,9548.656652
5467.891618,-1036.288319,229.828649,12805.562797
5467.891941,-592.164754,1225.752797,10214.842000
5467.892263,296.082377,1378.971896,11843.295072
5467.892586,962.267725,919.314598,9622.677246
5467.892909,1480.411884,1072.533697,11621.233289
5467.893231,1332.370696,-153.219100,8364.327145
5467.893554,0.000000,-995.924147,8586.388927
5467.893877,444.123565,-1608.800546,7624.121203
5467.894200,-2220.617826,-1532.190996,11251.130318
5467.894522,-814.226536,0.000000,9252.574275
5467.894845,-1258.350101,-1532.190996,10584.944971
5467.895168,-2072.576638,-2145.067394,7920.203579
5467.895491,-1332.370696,-1378.971896,9770.718434
5467.895813,-666.185348,-1302.362347,9252.574275
5467.896136,-3108.864956,-1378.971896,9696.697840
5467.896459,-2960.823768,-1378.971896,10881.027347
5467.896782,-2812.782580,-1915.238745,9474.636058
5467.897104,-518.144159,-1455.581446,7846.182985
5467.897427,-740.205942,-1608.800546,7402.059420
5467.897750,-962.267725,-995.924147,8882.471304
5467.898072,-888.247130,-1838.629195,11029.068536
5467.898395,0.000000,-1378.971896,8734.430116
5467.898718,740.205942,-1072.533697,9696.697840
5467.899041,-666.185348,-1225.752797,9474.636058
5467.899363,-2960.823768,-2987.772442,11029.068536
5467.899686,-1036.288319,-1225.752797,9992.780217
5467.900009,296.082377,-995.924147,9178.553681
5467.900332,0.000000,0.000000,9178.553681
5467.900654,-2072.576638,0.000000,9400.615463
5467.900977,-1554.432478,-842.705048,10140.821405
5467.901300,888.247130,536.266849,9400.615463
5467.901623,-444.123565,306.438199,7846.182985
5467.901945,-814.226536,-306.438199,8660.409521
5467.902268,-296.082377,0.000000,10066.800811
5467.902591,-444.123565,612.876398,11177.109724
5467.902914,222.061783,919.314598,8586.388927
5467.903237,222.061783,0.000000,9326.594869
5467.903560,0.000000,153.219100,9918.759623
5467.903882,0.000000,536.266849,10807.006753
5467.904205,1850.514855,842.705048,9474.636058
5467.904528,2960.823768,2681.334243,8364.327145
5467.904851,2516.700203,2604.724693,9696.697840
5467.905174,2368.659014,1762.019645,10066.800811
5467.905497,2738.761985,1915.238745,9104.533087
5467.905820,2738.761985,2451.505594,7772.162391
5467.906143,2220.617826,2528.115143,9104.533087
5467.906465,2590.720797,1149.143247,9178.553681
5467.906788,1776.494261,1991.848295,8512.368333
5467.907111,1332.370696,3064.381992,8438.347739
5467.907434,-74.020594,1991.848295,7772.162391
5467.907757,1406.391290,1685.410096,7550.100608
5467.908080,1406.391290,2451.505594,8512.368333
5467.908403,0.000000,2911.162892,8956.491898
5467.908726,-1850.514855,2145.067394,9326.594869
5467.909048,0.000000,1915.238745,8660.409521
5467.909371,518.144159,2451.505594,9252.574275
5467.909694,0.000000,2451.505594,8586.388927
5467.910017,-1924.535449,2451.505594,10881.027347
5467.910340,-1258.350101,2451.505594,10362.883188
5467.910663,-1702.473667,153.219100,9770.718434
5467.910986,-370.102971,0.000000,5107.421000
5467.911308,-888.247130,1072.533697,7179.997637
5467.911631,-2442.679609,1608.800546,9326.594869
5467.911954,-3923.091493,1991.848295,12287.418637
5467.912277,-2146.597232,1225.752797,9178.553681
5467.912600,-1702.473667,995.924147,8660.409521
5467.912923,-2960.823768,919.314598,9400.615463
5467.913246,-4293.194464,153.219100,11473.192101
5467.913569,-2368.659014,1378.971896,10584.944971
5467.913891,-1702.473667,1072.533697,9030.512492
5467.914214,-3923.091493,-306.438199,9474.636058
5467.914537,-5107.421000,-1915.238745,8808.450710
5467.914860,-2738.761985,-842.705048,7402.059420
5467.915183,-814.226536,0.000000,7254.018232
5467.915506,666.185348,0.000000,8068.244768
5467.915829,0.000000,-689.485948,9918.759623
5467.916151,1036.288319,612.876398,9844.739029
5467.916474,1776.494261,766.095498,10066.800811
5467.916797,2072.576638,153.219100,8734.430116
5467.917120,3034.844362,306.438199,9252.574275
5467.917443,3404.947333,1225.752797,12139.377449
5467.917766,3997.112087,995.924147,11695.253884
5467.918089,3404.947333,-536.266849,8882.471304
5467.918412,3627.009116,-919.314598,7994.224174
5467.918734,1480.411884,-1685.410096,9770.718434
5467.919057,-296.082377,-1762.019645,9844.739029
5467.919380,1406.391290,-1991.848295,11029.068536
5467.919703,-1036.288319,-2451.505594,10658.965565
5467.920026,-1776.494261,-3983.696590,9474.636058
5467.920349,-296.082377,-2451.505594,9178.553681
5467.920672,814.226536,0.000000,9030.512492
5467.920995,444.123565,536.266849,9474.636058
5467.921317,1110.308913,-306.438199,9104.533087
5467.921640,3034.844362,459.657299,9178.553681
5467.921963,3923.091493,2757.943793,8956.491898
5467.922286,888.247130,1302.362347,9400.615463
5467.922609,2072.576638,842.705048,9918.759623
5467.922932,1258.350101,229.828649,10807.006753
5467.923255,2368.659014,612.876398,9696.697840
5467.923577,888.247130,76.609550,10732.986159
5467.923900,-1850.514855,-306.438199,11029.068536
5467.924223,-1406.391290,-459.657299,11695.253884
5467.924546,-814.226536,-306.438199,9104.533087
5467.924869,-222.061783,842.705048,7624.121203
5467.925192,-1036.288319,2145.067394,8882.471304
5467.925515,-2220.617826,2221.676944,9918.759623
5467.925838,-814.226536,2145.067394,9770.718434
5467.926160,-592.164754,3600.648841,6957.935855
5467.926483,-2146.597232,3907.087040,8216.285956
5467.926806,-2664.741391,2604.724693,8364.327145
5467.927129,-3330.926739,2298.286494,9696.697840
5467.927452,-740.205942,3217.601092,6809.894666
5467.927775,-740.205942,2374.896044,7328.038826
5467.928098,-6439.791695,689.485948,10140.821405
5467.928421,-5033.400406,689.485948,8882.471304
5467.928743,-4293.194464,0.000000,8290.306550
5467.929066,-2664.741391,1378.971896,5181.441594
5467.929389,-3182.885551,1838.629195,8438.347739
5467.929712,-2738.761985,1915.238745,9104.533087
5467.930035,-1702.473667,2681.334243,10658.965565
5467.930358,370.102971,3370.820191,6883.915261
5467.930681,888.247130,2451.505594,7624.121203
5467.931003,1924.535449,3217.601092,9844.739029
5467.931326,592.164754,3447.429741,11843.295072
5467.931649,1850.514855,2451.505594,9548.656652
5467.931972,3923.091493,1685.410096,8438.347739
5467.932295,2664.741391,1608.800546,7994.224174
5467.932618,74.020594,-842.705048,9474.636058
5467.932941,1480.411884,-229.828649,8808.450710
5467.933264,2146.597232,383.047749,9178.553681
5467.933586,1998.556043,0.000000,8438.347739
5467.933909,962.267725,-1685.410096,11029.068536
5467.934232,2220.617826,-229.828649,10436.903782
5467.934555,1554.432478,995.924147,10510.924376
5467.934878,2072.576638,229.828649,10214.842000
5467.935201,3182.885551,-383.047749,9844.739029
5467.935524,3108.864956,0.000000,10732.986159
5467.935846,2220.617826,306.438199,9104.533087
5467.936169,148.041188,-459.657299,9844.739029
5467.936492,1480.411884,-1149.143247,7254.018232
5467.936815,1554.432478,-766.095498,10807.006753
5467.937138,1036.288319,-76.609550,8586.388927
5467.937461,296.082377,-842.705048,10362.883188
5467.937784,-296.082377,-1302.362347,9770.718434
5467.938107,-444.123565,-1302.362347,11029.068536
5467.938429,444.123565,-1762.019645,9326.594869
5467.938752,-666.185348,-919.314598,9474.636058
5467.939075,-1332.370696,-766.095498,11473.192101
5467.939398,-3701.029710,-1455.581446,12583.501014
5467.939721,-3330.926739,-1302.362347,9252.574275
5467.940044,-1776.494261,-842.705048,9104.533087
5467.940367,-3478.967927,153.219100,8660.409521
5467.940690,-4367.215058,76.609550,10288.862594
5467.941012,-2368.659014,-612.876398,7920.203579
5467.941335,-296.082377,1149.143247,6661.853478
5467.941658,-2368.659014,76.609550,7105.977043
5467.941981,-3849.070898,306.438199,9844.739029
5467.942304,-2368.659014,995.924147,10510.924376
5467.942627,-1628.453072,1302.362347,7698.141797
5467.942950,-1480.411884,306.438199,7179.997637
5467.943272,-1702.473667,0.000000,8216.285956
5467.943595,-2590.720797,76.609550,9548.656652
5467.943918,-2516.700203,536.266849,9104.533087
5467.944241,-2294.638420,919.314598,7402.059420
5467.944564,-3256.906145,306.438199,7550.100608
5467.944887,-1628.453072,1225.752797,8956.491898
5467.945210,-2368.659014,1149.143247,9844.739029
5467.945533,-1036.288319,1685.410096,8956.491898
5467.945855,740.205942,2374.896044,9474.636058
5467.946178,740.205942,1685.410096,9992.780217
5467.946501,1406.391290,689.485948,11251.130318
5467.946824,888.247130,1915.238745,10732.986159
5467.947147,2368.659014,2068.457845,10214.842000
5467.947470,1628.453072,306.438199,9326.594869
5467.947793,1998.556043,459.657299,8364.327145
5467.948116,4441.235652,1838.629195,9104.533087
5467.948438,3108.864956,2145.067394,8068.244768
5467.948761,1258.350101,919.314598,9030.512492
5467.949084,1850.514855,536.266849,7994.224174
5467.949407,2220.617826,842.705048,9770.718434
5467.949730,1702.473667,1991.848295,8956.491898
5467.950053,1332.370696,1378.971896,11029.068536
5467.950376,3701.029710,383.047749,9474.636058
5467.950698,4145.153275,1991.848295,9918.759623
5467.951021,2368.659014,1532.190996,8438.347739
5467.951344,1924.535449,1455.581446,9400.615463
5467.951667,1480.411884,1072.533697,11177.109724
5467.951990,1480.411884,1072.533697,9326.594869
5467.952313,2664.741391,766.095498,8956.491898
5467.952636,518.144159,919.314598,8808.450710
5467.952959,-1998.556043,842.705048,11029.068536
5467.953281,-2442.679609,-766.095498,9622.677246
5467.953604,-888.247130,-1072.533697,7698.141797
5467.953927,-2368.659014,0.000000,8068.244768
5467.954250,-3478.967927,0.000000,9104.533087
5467.954573,-3330.926739,-689.485948,10362.883188
5467.954896,-1110.308913,536.266849,8956.491898
5467.955219,-1776.494261,766.095498,8512.368333
5467.955541,-3330.926739,0.000000,9030.512492
5467.955864,-3701.029710,-153.219100,11177.109724
5467.956187,-2738.761985,536.266849,10436.903782
5467.956510,-2368.659014,76.609550,9696.697840
5467.956833,-3478.967927,-612.876398,8438.347739
5467.957156,-3997.112087,-459.657299,8956.491898
5467.957479,-2886.803174,-536.266849,8586.388927
5467.957802,-1924.535449,76.609550,8068.244768
5467.958124,-814.226536,459.657299,7476.080014
5467.958447,-1406.391290,229.828649,9844.739029
5467.958770,-1258.350101,0.000000,8956.491898
5467.959093,-518.144159,919.314598,10584.944971
5467.959416,-1110.308913,1762.019645,7994.224174
5467.959739,222.061783,612.876398,10362.883188
5467.960062,-1036.288319,-536.266849,9844.739029
5467.960385,-962.267725,306.438199,10510.924376
5467.960707,518.144159,0.000000,9622.677246
5467.961030,-592.164754,-612.876398,9474.636058
5467.961353,-1332.370696,-536.266849,9844.739029
5467.961676,148.041188,-536.266849,9770.718434
5467.961999,1184.329507,-306.438199,7105.977043
5467.962322,2294.638420,76.609550,6439.791695
5467.962645,888.247130,-1302.362347,8438.347739
5467.962967,3034.844362,459.657299,9918.759623
5467.963290,2590.720797,1455.581446,10066.800811
5467.963613,2368.659014,306.438199,8808.450710
5467.963936,4145.153275,0.000000,9400.615463
5467.964259,4737.318029,689.485948,9400.615463
5467.964582,3627.009116,1302.362347,10732.986159
5467.964905,2146.597232,1072.533697,10436.903782
5467.965228,1258.350101,-612.876398,10288.862594
5467.965550,1998.556043,-459.657299,9030.512492
5467.965873,1554.432478,-383.047749,8956.491898
5467.966196,1480.411884,76.609550,8290.306550
5467.966519,222.061783,229.828649,9918.759623
5467.966842,518.144159,-153.219100,9474.636058
5467.967165,1998.556043,0.000000,10436.903782
5467.967488,814.226536,1302.362347,9104.533087
5467.967811,-518.144159,1149.143247,11103.089130
5467.968133,-740.205942,459.657299,11843.295072
5467.968456,-444.123565,1302.362347,11251.130318
5467.968779,518.144159,2451.505594,11103.089130
5467.969102,-148.041188,2068.457845,9696.697840
5467.969425,-3627.009116,612.876398,11547.212695
5467.969748,-3701.029710,1072.533697,9326.594869
5467.970071,-3627.009116,459.657299,8734.430116
5467.970393,-3330.926739,766.095498,6513.812290
5467.970716,-4737.318029,1072.533697,8216.285956
5467.971039,-4589.276840,612.876398,8586.388927
5467.971362,-2294.638420,1915.238745,7994.224174
5467.971685,-3108.864956,2374.896044,6735.874072
5467.972008,-1924.535449,2757.943793,7031.956449
5467.972331,-2368.659014,1532.190996,8882.471304
5467.972654,-1702.473667,2451.505594,9178.553681
5467.972976,0.000000,3830.477490,8438.347739
5467.973299,-74.020594,3370.820191,8586.388927
5467.973622,-1850.514855,2374.896044,9474.636058
5467.973945,-1480.411884,1762.019645,9178.553681
5467.974268,-962.267725,1762.019645,7402.059420
5467.974591,-666.185348,1762.019645,7254.018232
5467.974914,-2072.576638,1455.581446,8734.430116
5467.975237,-222.061783,0.000000,8882.471304
5467.975559,1850.514855,0.000000,7328.038826
5467.975882,1184.329507,842.705048,7328.038826
5467.976205,962.267725,0.000000,9104.533087
5467.976528,0.000000,0.000000,10214.842000
5467.976851,1924.535449,1378.971896,11473.192101
5467.977174,3256.906145,1225.752797,10510.924376
5467.977497,4515.256246,842.705048,9104.533087
5467.977819,3552.988522,153.219100,10881.027347
5467.978142,4145.153275,1302.362347,10362.883188
5467.978465,2960.823768,0.000000,10584.944971
5467.978788,3404.947333,76.609550,8216.285956
5467.979111,2294.638420,-689.485948,11177.109724
5467.979434,1628.453072,-1225.752797,9252.574275
5467.979757,2294.638420,-1608.800546,9770.718434
5467.980080,2072.576638,-1225.752797,8216.285956
5467.980402,1258.350101,-1532.190996,10732.986159
5467.980725,-592.164754,-1608.800546,12213.398043
5467.981048,-1036.288319,-766.095498,11473.192101
5467.981371,-222.061783,-995.924147,10436.903782
5467.981694,-1628.453072,-2374.896044,9252.574275
5467.982017,-2294.638420,-1915.238745,11251.130318
5467.982340,-1554.432478,-689.485948,11177.109724
5467.982662,-2368.659014,153.219100,10658.965565
5467.982985,-1480.411884,-383.047749,8808.450710
5467.983308,-1258.350101,-306.438199,9252.574275
5467.983631,0.000000,536.266849,7476.080014
5467.983954,-296.082377,153.219100,7624.121203
5467.984277,-1924.535449,306.438199,8290.306550
5467.984600,-1702.473667,383.047749,10288.862594
5467.984923,-2368.659014,0.000000,9622.677246
5467.985245,-2664.741391,536.266849,10066.800811
5467.985568,-2516.700203,1149.143247,9252.574275
5467.985891,-4219.173869,229.828649,9400.615463
5467.986214,-3256.906145,229.828649,8512.368333
5467.986537,-2590.720797,1378.971896,7994.224174
5467.986860,-2664.741391,1991.848295,7179.997637
5467.987183,-2886.803174,2298.286494,7179.997637
5467.987506,-2294.638420,1991.848295,7179.997637
5467.987828,222.061783,2987.772442,6661.853478
5467.988151,1036.288319,3677.258390,7402.059420
5467.988474,518.144159,2451.505594,7105.977043
5467.988797,-148.041188,1762.019645,10140.821405
5467.989120,148.041188,2374.896044,9548.656652
5467.989443,666.185348,2221.676944,9326.594869
5467.989766,296.082377,1072.533697,8512.368333
5467.990088,-666.185348,842.705048,9992.780217
5467.990411,1628.453072,842.705048,8734.430116
5467.990734,1924.535449,1608.800546,9178.553681
5467.991057,2368.659014,2145.067394,8438.347739
5467.991380,2886.803174,1302.362347,8882.471304
5467.991703,1332.370696,995.924147,10658.965565
5467.992026,2294.638420,2451.505594,10288.862594
5467.992349,1998.556043,1378.971896,9326.594869
5467.992671,2368.659014,383.047749,9252.574275
5467.992994,2220.617826,689.485948,10955.047942
5467.993317,2590.720797,995.924147,9696.697840
5467.993640,3627.009116,766.095498,9030.512492
5467.993963,1924.535449,842.705048,9252.574275
5467.994286,518.144159,0.000000,10140.821405
5467.994609,1480.411884,153.219100,10658.965565
5467.994932,2442.679609,1149.143247,9696.697840
5467.995254,1480.411884,1455.581446,10214.842000
5467.995577,-666.185348,0.000000,10881.027347
5467.995900,592.164754,76.609550,11177.109724
5467.996223,-74.020594,766.095498,9918.759623
5467.996546,-2368.659014,0.000000,9178.553681
5467.996869,-2886.803174,-1838.629195,9252.574275
5467.997192,-2220.617826,-1455.581446,8512.368333
5467.997514,-1998.556043,-689.485948,8068.244768
5467.997837,-2664.741391,-612.876398,8512.368333
5467.998160,-3034.844362,-995.924147,8512.368333
5467.998483,-2812.782580,-689.485948,9178.553681
5467.998806,-2442.679609,-229.828649,8808.450710
5467.999129,-962.267725,995.924147,8512.368333
5467.999452,-1184.329507,1149.143247,8882.471304
5467.999775,-2146.597232,153.219100,10140.821405
5468.000097,-592.164754,383.047749,11103.089130
5468.000420,-592.164754,995.924147,8882.471304
5468.000743,-1184.329507,689.485948,9474.636058
5468.001066,-2368.659014,-383.047749,10214.842000
5468.001389,-3108.864956,-766.095498,9474.636058
5468.001712,-2516.700203,-459.657299,9030.512492
5468.002035,-3108.864956,-766.095498,8290.306550
5468.002358,-6217.729913,-2221.676944,10658.965565
5468.002680,-4515.256246,-1838.629195,7994.224174
5468.003003,-1184.329507,-919.314598,7254.018232
5468.003326,-1258.350101,1608.800546,8956.491898
5468.003649,-1332.370696,1915.238745,10066.800811
5468.003972,592.164754,1149.143247,10066.800811
5468.004295,2590.720797,3064.381992,9474.636058
5468.004618,3404.947333,3907.087040,7846.182985
5468.004941,2664.741391,2374.896044,9770.718434
5468.005264,2442.679609,1991.848295,9474.636058
5468.005587,2886.803174,1072.533697,9844.739029
5468.005910,3701.029710,536.266849,7105.977043
5468.006233,2960.823768,0.000000,9400.615463
5468.006556,1258.350101,0.000000,8438.347739
5468.006879,0.000000,-689.485948,9770.718434
5468.007201,2812.782580,0.000000,8364.327145
5468.007524,4071.132681,1762.019645,8586.388927
5468.007847,1850.514855,2068.457845,10066.800811
5468.008170,1776.494261,1762.019645,11621.233289
5468.008493,4071.132681,2145.067394,8512.368333
5468.008816,3923.091493,2911.162892,7179.997637
5468.009139,1924.535449,3294.210641,8956.491898
5468.009462,74.020594,1685.410096,10807.006753
5468.009785,-666.185348,995.924147,11325.150913
5468.010108,-592.164754,-306.438199,7994.224174
5468.010431,-2368.659014,-1915.238745,8364.327145
5468.010754,-3775.050304,-2298.286494,7772.162391
5468.011077,-2960.823768,-1225.752797,10881.027347
5468.011400,-3108.864956,-689.485948,9992.780217
5468.011723,-2516.700203,-689.485948,9474.636058
5468.012045,-962.267725,-689.485948,8660.409521
5468.012368,-1184.329507,689.485948,11695.253884
5468.012691,0.000000,1762.019645,10658.965565
5468.013014,592.164754,1915.238745,9474.636058
5468.013337,1332.370696,2451.505594,10214.842000
5468.013660,0.000000,2451.505594,11325.150913
5468.013983,-666.185348,1072.533697,9844.739029
5468.014306,888.247130,1302.362347,8068.244768
5468.014629,-1554.432478,689.485948,7994.224174
5468.014952,-3627.009116,-229.828649,9474.636058
5468.015275,-3627.009116,-842.705048,8068.244768
5468.015598,-3701.029710,-766.095498,7920.203579
5468.015921,-4663.297435,0.000000,6365.771101
5468.016244,-5107.421000,-1302.362347,7698.141797
5468.016566,-2960.823768,-536.266849,7994.224174
5468.016889,-2146.597232,1455.581446,9252.574275
5468.017212,-3034.844362,766.095498,8882.471304
5468.017535,-1480.411884,229.828649,9770.718434
5468.017858,-1332.370696,383.047749,10436.903782
5468.018181,74.020594,1762.019645,8882.471304
5468.018504,1258.350101,1072.533697,9178.553681
5468.018827,1184.329507,459.657299,8660.409521
5468.019150,1776.494261,459.657299,10436.903782
5468.019473,2146.597232,-383.047749,8438.347739
5468.019796,3478.967927,0.000000,7698.141797
5468.020119,3256.906145,-76.609550,8142.265362
5468.020442,1036.288319,-459.657299,11029.068536
5468.020765,3701.029710,-306.438199,10066.800811
5468.021087,4367.215058,689.485948,9474.636058
5468.021410,2368.659014,1302.362347,11325.150913
5468.021733,2368.659014,229.828649,11177.109724
5468.022056,1998.556043,306.438199,11103.089130
5468.022379,4071.132681,1685.410096,8956.491898
5468.022702,3404.947333,1225.752797,9770.718434
5468.023025,666.185348,-153.219100,9178.553681
5468.023348,740.205942,383.047749,10362.883188
5468.023671,296.082377,459.657299,9030.512492
5468.023994,-962.267725,153.219100,8882.471304
5468.024317,-370.102971,-459.657299,8068.244768
5468.024640,-444.123565,-919.314598,10066.800811
5468.024963,-1184.329507,-536.266849,9992.780217
5468.025286,-1554.432478,-766.095498,9178.553681
5468.025608,-666.185348,-306.438199,8734.430116
5468.025931,-1332.370696,0.000000,10807.006753
5468.026254,-2516.700203,689.485948,11547.212695
5468.026577,-1702.473667,1225.752797,11547.212695
5468.026900,-518.144159,1762.019645,9252.574275
5468.027223,-1258.350101,1149.143247,9474.636058
5468.027546,-2442.679609,0.000000,8660.409521
5468.027869,-1480.411884,612.876398,8808.450710
5468.028192,-2368.659014,1762.019645,8216.285956
5468.028515,-3256.906145,995.924147,7550.100608
5468.028838,-1924.535449,76.609550,7698.141797
5468.029161,-1554.432478,0.000000,6661.853478
5468.029484,-2664.741391,1685.410096,6735.874072
5468.029807,-2886.803174,612.876398,7772.162391
5468.030130,-2368.659014,842.705048,8956.491898
5468.030452,-962.267725,1762.019645,9474.636058
5468.030775,-1850.514855,1455.581446,8956.491898
5468.031098,-3478.967927,842.705048,10807.006753
5468.031421,-2516.700203,383.047749,10140.821405
5468.031744,-1776.494261,766.095498,10066.800811
5468.032067,962.267725,919.314598,7846.182985
5468.032390,444.123565,1915.238745,9104.533087
5468.032713,2442.679609,1302.362347,8290.306550
5468.033036,1480.411884,1149.143247,9104.533087
5468.033359,2368.659014,1608.800546,7179.997637
5468.033682,3404.947333,1608.800546,7846.182985
5468.034005,3108.864956,1762.019645,8142.265362
5468.034328,1776.494261,689.485948,11547.212695
5468.034651,2590.720797,766.095498,10214.842000
5468.034973,3404.947333,612.876398,10436.903782
5468.035296,1998.556043,536.266849,9474.636058
5468.035619,518.144159,-459.657299,12139.377449
5468.035942,2368.659014,76.609550,10955.047942
5468.036265,1998.556043,842.705048,10658.965565
5468.036588,1702.473667,1072.533697,9622.677246
5468.036911,1480.411884,-612.876398,10214.842000
5468.037234,2146.597232,612.876398,9326.594869
5468.037557,2368.659014,1762.019645,8956.491898
5468.037880,296.082377,689.485948,9178.553681
5468.038203,1480.411884,689.485948,8882.471304
5468.038526,296.082377,919.314598,9474.636058
5468.038849,-444.123565,306.438199,8808.450710
5468.039172,-1406.391290,0.000000,9178.553681
5468.039494,-2146.597232,-612.876398,8956.491898
5468.039817,-2072.576638,-766.095498,9696.697840
5468.040140,-2590.720797,-995.924147,10066.800811
5468.040463,-3552.988522,-1072.533697,9400.615463
5468.040786,-4515.256246,-1225.752797,9474.636058
5468.041109,-3627.009116,-766.095498,9770.718434
5468.041432,-1702.473667,612.876398,9400.615463
5468.041755,-592.164754,2068.457845,8068.244768
5468.042078,-1850.514855,1455.581446,8364.327145
5468.042401,-1702.473667,919.314598,9992.780217
5468.042724,-1184.329507,1072.533697,8216.285956
5468.043047,-962.267725,1685.410096,8142.265362
5468.043370,-962.267725,459.657299,7105.977043
5468.043693,-2886.803174,689.485948,10362.883188
5468.044015,-1554.432478,766.095498,8956.491898
5468.044338,-888.247130,842.705048,10066.800811
5468.044661,-2590.720797,459.657299,8216.285956
5468.044984,-2886.803174,-536.266849,9104.533087
5468.045307,-2590.720797,-306.438199,10362.883188
5468.045630,-888.247130,1072.533697,9104.533087
