#time,accel_x,accel_y,accel_z
561.741690,222.061783,612.876398,9178.553681
561.742015,444.123565,229.828649,9770.718434
561.742340,-592.164754,612.876398,9400.615463
561.742666,222.061783,1149.143247,9104.533087
561.742991,1110.308913,689.485948,9252.574275
561.743316,740.205942,612.876398,9474.636058
561.743642,-444.123565,842.705048,9252.574275
561.743967,0.000000,306.438199,9178.553681
561.744293,370.102971,612.876398,9252.574275
561.744618,-666.185348,153.219100,9178.553681
561.744943,-1332.370696,306.438199,8882.471304
561.745269,-740.205942,383.047749,9252.574275
561.745594,-518.144159,306.438199,9178.553681
561.745919,-370.102971,153.219100,8956.491898
561.746245,-444.123565,0.000000,9178.553681
561.746570,-296.082377,842.705048,9030.512492
561.746896,740.205942,919.314598,9252.574275
561.747221,962.267725,766.095498,9474.636058
561.747546,-370.102971,919.314598,9474.636058
561.747872,0.000000,842.705048,9252.574275
561.748197,1184.329507,383.047749,8956.491898
561.748522,222.061783,383.047749,9474.636058
561.748848,0.000000,153.219100,9622.677246
561.749173,0.000000,-229.828649,9178.553681
561.749499,148.041188,612.876398,9474.636058
561.749824,518.144159,689.485948,9326.594869
561.750149,296.082377,689.485948,9548.656652
561.750475,222.061783,1302.362347,9104.533087
561.750800,1406.391290,1378.971896,8808.450710
561.751125,1406.391290,1149.143247,9030.512492
561.751451,444.123565,1072.533697,9326.594869
561.751776,0.000000,689.485948,9178.553681
561.752102,740.205942,612.876398,9326.594869
561.752427,962.267725,919.314598,9622.677246
561.752752,-296.082377,919.314598,9400.615463
561.753078,-296.082377,995.924147,8808.450710
561.753403,-296.082377,383.047749,8956.491898
561.753728,1110.308913,1072.533697,9252.574275
561.754054,1036.288319,1149.143247,9548.656652
561.754379,1110.308913,1532.190996,9474.636058
561.754705,2146.597232,2068.457845,9474.636058
561.755030,3182.885551,2451.505594,9770.718434
561.755355,3478.967927,2757.943793,9474.636058
561.755681,2294.638420,2604.724693,9474.636058
561.756006,2812.782580,2451.505594,9548.656652
561.756332,3923.091493,2681.334243,9474.636058
561.756657,3034.844362,3064.381992,9622.677246
561.756982,2516.700203,3140.991542,9178.553681
561.757308,2960.823768,3217.601092,9030.512492
561.757633,3108.864956,3524.039291,8586.388927
561.757958,3552.988522,4826.401637,8882.471304
561.758284,3478.967927,4136.915689,8808.450710
561.758609,3256.906145,4596.572988,8216.285956
561.758935,3923.091493,4673.182538,8660.409521
561.759260,4071.132681,4903.011187,8882.471304
561.759585,2516.700203,4596.572988,9030.512492
561.759911,1924.535449,3907.087040,8364.327145
561.760236,2368.659014,4136.915689,8808.450710
561.760561,1776.494261,4060.306139,9696.697840
561.760887,518.144159,3600.648841,9030.512492
561.761212,-148.041188,3140.991542,8808.450710
561.761538,518.144159,3064.381992,8660.409521
561.761863,444.123565,3370.820191,8808.450710
561.762188,0.000000,3447.429741,8734.430116
561.762514,-370.102971,2681.334243,8956.491898
561.762839,1036.288319,2987.772442,8438.347739
561.763164,1554.432478,2987.772442,9104.533087
561.763490,666.185348,2528.115143,9252.574275
561.763815,296.082377,2451.505594,8956.491898
561.764141,888.247130,1915.238745,9178.553681
561.764466,1332.370696,1685.410096,9992.780217
561.764791,592.164754,2145.067394,9622.677246
561.765117,296.082377,995.924147,10510.924376
561.765442,222.061783,459.657299,10362.883188
561.765767,888.247130,153.219100,10881.027347
561.766093,1036.288319,306.438199,11029.068536
561.766418,1184.329507,0.000000,10807.006753
561.766744,2664.741391,459.657299,9696.697840
561.767069,4145.153275,1532.190996,9474.636058
561.767394,4441.235652,2145.067394,9252.574275
561.767720,3478.967927,2528.115143,8216.285956
561.768045,4145.153275,2374.896044,7328.038826
561.768370,4737.318029,2528.115143,7476.080014
561.768696,3849.070898,2757.943793,7772.162391
561.769021,2442.679609,1762.019645,7698.141797
561.769347,2886.803174,1532.190996,8068.244768
561.769672,3478.967927,2068.457845,9400.615463
561.769997,3552.988522,2221.676944,10140.821405
561.770323,3034.844362,2374.896044,10362.883188
561.770648,3330.926739,2298.286494,10066.800811
561.770973,4515.256246,2145.067394,10955.047942
561.771299,4441.235652,3064.381992,11399.171507
561.771624,3256.906145,2681.334243,11547.212695
561.771950,2886.803174,1608.800546,11843.295072
561.772275,2516.700203,2221.676944,11473.192101
561.772600,1924.535449,2145.067394,10584.944971
561.772926,888.247130,2451.505594,9030.512492
561.773251,1036.288319,3600.648841,7402.059420
561.773577,1776.494261,5056.230287,6809.894666
561.773902,3182.885551,5669.106685,5773.606348
561.774227,3404.947333,7507.735880,5551.544565
561.774553,2220.617826,6894.859482,4811.338623
561.774878,1702.473667,6588.421283,4663.297435
561.775203,1776.494261,5669.106685,6883.915261
561.775529,0.000000,4519.963438,9326.594869
561.775854,-3034.844362,3294.210641,11103.089130
561.776180,-4515.256246,0.000000,12361.439231
561.776505,-4145.153275,-1991.848295,12805.562797
561.776830,-3701.029710,-1378.971896,14211.954086
561.777156,-2072.576638,153.219100,13767.830521
561.777481,962.267725,1762.019645,11843.295072
561.777806,4441.235652,3600.648841,10140.821405
561.778132,6957.935855,6281.983084,8216.285956
561.778457,7550.100608,7507.735880,5921.647536
561.778783,7920.203579,7660.954980,4737.318029
561.779108,7624.121203,6741.640382,4885.359217
561.779433,5699.585753,5362.668486,6513.812290
561.779759,3478.967927,4060.306139,7105.977043
561.780084,1998.556043,3447.429741,8068.244768
561.780409,0.000000,1991.848295,9474.636058
561.780735,-1776.494261,76.609550,9622.677246
561.781060,-2960.823768,-1149.143247,9770.718434
561.781386,-1628.453072,-995.924147,10140.821405
561.781711,-1036.288319,-383.047749,11103.089130
561.782036,-518.144159,-306.438199,11325.150913
561.782362,2072.576638,-229.828649,11029.068536
561.782687,4071.132681,1532.190996,11843.295072
561.783012,6365.771101,2221.676944,11917.315666
561.783338,8808.450710,3677.258390,11843.295072
561.783663,9326.594869,4290.134789,12287.418637
561.783989,6143.709319,2221.676944,11843.295072
561.784314,5255.462188,536.266849,9548.656652
561.784639,5033.400406,1225.752797,8808.450710
561.784965,3330.926739,3064.381992,9474.636058
561.785290,1184.329507,2757.943793,8216.285956
561.785615,1850.514855,2221.676944,6661.853478
561.785941,3034.844362,3217.601092,5699.585753
561.786266,1554.432478,4749.792088,5477.523971
561.786592,0.000000,4366.744339,4663.297435
561.786917,1480.411884,4443.353888,4219.173869
561.787242,2960.823768,5132.839837,6735.874072
561.787568,1776.494261,4903.011187,9326.594869
561.787893,148.041188,3753.867940,10658.965565
561.788218,370.102971,2221.676944,11695.253884
561.788544,-222.061783,766.095498,13323.706956
561.788869,-1776.494261,-1532.190996,13471.748144
561.789195,-1406.391290,-1915.238745,11917.315666
561.789520,222.061783,1149.143247,12583.501014
561.789845,1998.556043,4136.915689,11547.212695
561.790171,3701.029710,4903.011187,9252.574275
561.790496,4663.297435,5439.278036,7031.956449
561.790821,5773.606348,7890.783629,2664.741391
561.791147,6513.812290,9652.803275,2738.761985
561.791472,6587.832884,9882.631924,4441.235652
561.791798,4737.318029,8733.488677,5551.544565
561.792123,1110.308913,6281.983084,7994.224174
561.792448,-1924.535449,4060.306139,10214.842000
561.792774,-6365.771101,306.438199,12583.501014
561.793099,-9400.615463,-3140.991542,13841.851115
561.793425,-9178.553681,-6128.763984,14656.077652
561.793750,-8068.244768,-7507.735880,16358.551318
561.794075,-5255.462188,-4519.963438,14211.954086
561.794401,-1332.370696,459.657299,11843.295072
561.794726,4293.194464,3677.258390,8512.368333
561.795051,9548.656652,7737.564530,4441.235652
561.795377,14359.995275,10112.460574,2738.761985
561.795702,15618.345376,11951.089769,1480.411884
561.796028,14359.995275,10878.556072,1776.494261
561.796353,10436.903782,8044.002729,4071.132681
561.796678,6957.935855,5286.058936,7254.018232
561.797004,1554.432478,1225.752797,11621.233289
561.797329,-4737.318029,-2298.286494,15396.283594
561.797654,-6291.750507,-4979.620737,17246.798449
561.797980,-7031.956449,-8273.831378,16580.613101
561.798305,-7994.224174,-9959.241474,14878.139434
561.798631,-4293.194464,-7584.345430,13175.665768
561.798954,3478.967927,5286.058936,9474.636058
561.799279,10066.800811,9576.193725,10658.965565
561.799604,10214.842000,6205.373534,8216.285956
561.799929,9696.697840,3677.258390,2516.700203
561.800254,9326.594869,8044.002729,4737.318029
561.800580,9696.697840,8886.707777,5329.482782
561.800905,6143.709319,4443.353888,8290.306550
561.801230,4145.153275,1455.581446,8216.285956
561.801555,1850.514855,2451.505594,10214.842000
561.801880,0.000000,1762.019645,11177.109724
561.802205,-962.267725,-383.047749,9548.656652
561.802530,-1554.432478,0.000000,8290.306550
561.802855,-3034.844362,1302.362347,8216.285956
561.803180,-814.226536,2757.943793,9474.636058
561.803505,0.000000,2298.286494,9992.780217
561.803830,-2072.576638,2221.676944,9696.697840
561.804155,-1184.329507,3217.601092,9474.636058
561.804480,888.247130,3447.429741,8882.471304
561.804805,3108.864956,4213.525239,9030.512492
561.805130,2664.741391,4443.353888,10362.883188
561.805455,1998.556043,4213.525239,9474.636058
561.805780,2220.617826,4060.306139,7328.038826
561.806105,2812.782580,2374.896044,7846.182985
561.806430,2590.720797,2987.772442,9252.574275
561.806756,1628.453072,3217.601092,10214.842000
561.807081,2442.679609,2911.162892,9474.636058
561.807406,2960.823768,2145.067394,9770.718434
561.807731,2294.638420,2911.162892,10436.903782
561.808056,2294.638420,4903.011187,8882.471304
561.808381,2146.597232,3907.087040,9030.512492
561.808706,1258.350101,1838.629195,9252.574275
561.809031,-370.102971,1302.362347,10214.842000
561.809356,-2072.576638,842.705048,11473.192101
561.809681,-2220.617826,76.609550,9622.677246
561.810006,-888.247130,-995.924147,9992.780217
561.810331,1036.288319,459.657299,10288.862594
561.810656,2294.638420,3830.477490,10288.862594
561.810981,2960.823768,3907.087040,8364.327145
561.811306,5255.462188,2145.067394,4811.338623
561.811631,5551.544565,2911.162892,4737.318029
561.811956,4441.235652,4903.011187,7179.997637
561.812281,4145.153275,4903.011187,7624.121203
561.812606,5107.421000,2298.286494,7328.038826
561.812932,2590.720797,536.266849,9252.574275
561.813257,-370.102971,1685.410096,11177.109724
561.813582,-666.185348,1532.190996,9104.533087
561.813907,0.000000,-1455.581446,8808.450710
561.814232,-2294.638420,-2298.286494,12287.418637
561.814557,-4811.338623,-612.876398,13249.686362
561.814882,-2812.782580,-306.438199,12583.501014
561.815207,0.000000,-2068.457845,11547.212695
561.815532,-1850.514855,-1378.971896,11473.192101
561.815857,74.020594,1532.190996,8808.450710
561.816182,3627.009116,3753.867940,8216.285956
561.816507,4959.379811,2528.115143,8586.388927
561.816832,3034.844362,2221.676944,6883.915261
561.817157,2960.823768,3064.381992,6587.832884
561.817482,3997.112087,3447.429741,7402.059420
561.817807,4441.235652,2834.553343,8586.388927
561.818132,2738.761985,2145.067394,9844.739029
561.818457,-666.185348,1685.410096,11029.068536
561.818782,-1184.329507,-919.314598,8660.409521
561.819108,-1554.432478,-1455.581446,9326.594869
561.819433,-2442.679609,-995.924147,11399.171507
561.819758,-4811.338623,-459.657299,11325.150913
561.820083,-2960.823768,-1149.143247,11029.068536
561.820408,-666.185348,-1072.533697,10436.903782
561.820733,-1480.411884,536.266849,9252.574275
561.821058,-2664.741391,536.266849,7179.997637
561.821383,888.247130,1225.752797,5181.441594
561.821708,1702.473667,1915.238745,6883.915261
561.822033,370.102971,2068.457845,7772.162391
561.822358,518.144159,1915.238745,7698.141797
561.822683,2738.761985,2145.067394,7994.224174
561.823008,1924.535449,1991.848295,9030.512492
561.823333,0.000000,1072.533697,11695.253884
561.823658,740.205942,-1149.143247,10362.883188
561.823983,222.061783,-689.485948,10584.944971
561.824308,-2886.803174,-536.266849,12509.480420
561.824633,-3849.070898,-1762.019645,12139.377449
561.824958,-740.205942,-1302.362347,10362.883188
561.825283,888.247130,-153.219100,11843.295072
561.825609,0.000000,1685.410096,11769.274478
561.825934,888.247130,1838.629195,9400.615463
561.826259,5255.462188,1685.410096,6809.894666
561.826584,5329.482782,3064.381992,6513.812290
561.826909,1184.329507,3830.477490,6439.791695
561.827234,2590.720797,4060.306139,6143.709319
561.827559,5847.626942,3447.429741,8364.327145
561.827884,2072.576638,3064.381992,9474.636058
561.828209,-3849.070898,536.266849,8364.327145
561.828534,-2960.823768,-1608.800546,4219.173869
561.828859,-1332.370696,-612.876398,8364.327145
561.829184,-5403.503377,-536.266849,11695.253884
561.829509,-7550.100608,-2451.505594,10955.047942
561.829834,-5625.565159,-3140.991542,11251.130318
561.830159,-3034.844362,-1991.848295,11917.315666
561.830484,-5921.647536,-995.924147,11991.336260
561.830809,-4737.318029,-2451.505594,8956.491898
561.831134,888.247130,-689.485948,7328.038826
561.831459,3182.885551,2911.162892,10658.965565
561.831785,1258.350101,2987.772442,10214.842000
561.832110,2368.659014,1378.971896,7550.100608
561.832435,6513.812290,2298.286494,7624.121203
561.832760,7994.224174,5056.230287,10362.883188
561.833085,4367.215058,3830.477490,10214.842000
561.833410,3997.112087,1378.971896,7402.059420
561.833735,5847.626942,1608.800546,8438.347739
561.834060,1702.473667,1915.238745,10362.883188
561.834385,-2516.700203,0.000000,9474.636058
561.834710,-1036.288319,-2145.067394,8808.450710
561.835035,-444.123565,-383.047749,11399.171507
561.835360,-2738.761985,153.219100,12361.439231
561.835685,-3182.885551,-1225.752797,8882.471304
561.836010,-2812.782580,-2451.505594,6291.750507
561.836335,-2812.782580,229.828649,5995.668130
561.836660,-2442.679609,612.876398,6291.750507
561.836985,-740.205942,1455.581446,6661.853478
561.837310,1184.329507,1838.629195,8438.347739
561.837635,740.205942,1991.848295,8586.388927
561.837961,-1036.288319,689.485948,7550.100608
561.838286,0.000000,-459.657299,7920.203579
561.838611,1554.432478,0.000000,9030.512492
561.838936,-814.226536,1072.533697,11325.150913
561.839261,-666.185348,0.000000,12657.521608
561.839586,2368.659014,-536.266849,12435.459826
561.839911,1776.494261,383.047749,13175.665768
561.840236,-1110.308913,0.000000,13323.706956
561.840561,148.041188,-995.924147,9696.697840
561.840886,3182.885551,766.095498,10584.944971
561.841211,3034.844362,1532.190996,10955.047942
561.841536,0.000000,1455.581446,8956.491898
561.841861,666.185348,1455.581446,6661.853478
561.842186,3182.885551,2757.943793,7846.182985
561.842511,888.247130,2604.724693,9326.594869
561.842836,-2146.597232,2451.505594,7328.038826
561.843161,-962.267725,995.924147,3923.091493
561.843486,370.102971,1762.019645,6069.688724
561.843811,-4441.235652,153.219100,8438.347739
561.844137,-7846.182985,-2221.676944,8364.327145
561.844462,-5477.523971,-3600.648841,8216.285956
561.844787,-2812.782580,-1378.971896,11991.336260
561.845112,-3923.091493,0.000000,12583.501014
561.845437,-5921.647536,-2221.676944,9548.656652
561.845762,-1776.494261,-4519.963438,7031.956449
561.846087,1036.288319,-229.828649,10140.821405
561.846412,-296.082377,1455.581446,11103.089130
561.846737,1258.350101,1762.019645,9548.656652
561.847062,5773.606348,306.438199,8956.491898
561.847387,4589.276840,2451.505594,10955.047942
561.847712,2146.597232,3140.991542,10807.006753
561.848037,3552.988522,1072.533697,7476.080014
561.848362,5921.647536,459.657299,7772.162391
561.848687,2294.638420,1838.629195,11917.315666
561.849012,222.061783,1455.581446,10436.903782
561.849337,2294.638420,-612.876398,8882.471304
561.849662,1628.453072,-1072.533697,10955.047942
561.849987,-2146.597232,842.705048,11251.130318
561.850313,-1332.370696,-153.219100,8290.306550
561.850638,1332.370696,306.438199,7772.162391
561.850963,74.020594,306.438199,7846.182985
561.851288,-2960.823768,919.314598,8438.347739
561.851613,-740.205942,766.095498,7698.141797
561.851938,1554.432478,1225.752797,8734.430116
561.852263,-888.247130,1225.752797,9844.739029
561.852588,-1702.473667,1149.143247,8956.491898
561.852913,740.205942,459.657299,6291.750507
561.853238,666.185348,1149.143247,7179.997637
561.853563,-2072.576638,153.219100,8586.388927
561.853888,-2146.597232,76.609550,9030.512492
561.854213,2146.597232,1149.143247,10214.842000
561.854538,3404.947333,1838.629195,12361.439231
561.854863,222.061783,1302.362347,13323.706956
561.855188,518.144159,383.047749,10955.047942
561.855513,5329.482782,1302.362347,10066.800811
561.855838,2960.823768,1532.190996,12139.377449
561.856163,-1480.411884,612.876398,10807.006753
561.856488,296.082377,919.314598,9104.533087
561.856814,2812.782580,3217.601092,9474.636058
561.857139,-814.226536,1762.019645,10288.862594
561.857464,-4293.194464,-1455.581446,6957.935855
561.857789,-2812.782580,-459.657299,4441.235652
561.858114,-962.267725,1455.581446,7624.121203
561.858439,-3478.967927,1532.190996,9178.553681
561.858764,-6069.688724,-1072.533697,6735.874072
561.859089,-3849.070898,-995.924147,5625.565159
561.859414,-962.267725,919.314598,7105.977043
561.859739,-1776.494261,2374.896044,9622.677246
561.860064,-2812.782580,76.609550,8068.244768
561.860389,-1776.494261,-1455.581446,9104.533087
561.860714,-2442.679609,-1685.410096,10658.965565
561.861039,-3552.988522,-1149.143247,11399.171507
561.861364,-2220.617826,-2834.553343,10288.862594
561.861689,1184.329507,-919.314598,10732.986159
561.862014,1258.350101,306.438199,14211.954086
561.862339,370.102971,-536.266849,12805.562797
561.862664,3034.844362,-1225.752797,10362.883188
561.862990,4885.359217,0.000000,10214.842000
561.863315,3775.050304,2374.896044,9474.636058
561.863640,3627.009116,2221.676944,8882.471304
561.863965,6143.709319,2298.286494,9252.574275
561.864290,5329.482782,2374.896044,9474.636058
561.864615,666.185348,2374.896044,9770.718434
561.864940,1258.350101,0.000000,6143.709319
561.865265,1036.288319,0.000000,7254.018232
561.865590,-1184.329507,76.609550,8364.327145
561.865915,-3701.029710,153.219100,8142.265362
561.866240,-2368.659014,-1685.410096,7846.182985
561.866565,-1554.432478,-612.876398,9474.636058
561.866890,-2664.741391,0.000000,10214.842000
561.867215,-3256.906145,153.219100,8290.306550
561.867540,1332.370696,-153.219100,7624.121203
561.867865,2886.803174,1302.362347,8512.368333
561.868190,-222.061783,2451.505594,9252.574275
561.868515,-370.102971,1762.019645,7772.162391
561.868840,3701.029710,1608.800546,8216.285956
561.869166,2960.823768,3217.601092,11029.068536
561.869491,-962.267725,2528.115143,12879.583391
561.869816,296.082377,612.876398,8364.327145
561.870141,2368.659014,1455.581446,8734.430116
561.870466,1110.308913,1149.143247,10732.986159
561.870791,-1258.350101,2451.505594,11843.295072
561.871116,666.185348,1838.629195,10584.944971
561.871441,2442.679609,1685.410096,11029.068536
561.871766,222.061783,919.314598,10584.944971
561.872091,-2516.700203,1685.410096,9474.636058
561.872416,-370.102971,1685.410096,6513.812290
561.872741,592.164754,306.438199,7550.100608
561.873066,-1258.350101,919.314598,9252.574275
561.873391,-3552.988522,2451.505594,9178.553681
561.873716,-1332.370696,995.924147,6957.935855
561.874041,-2516.700203,153.219100,7031.956449
561.874366,-4441.235652,229.828649,8216.285956
561.874691,-3775.050304,1149.143247,7031.956449
561.875016,-888.247130,0.000000,7105.977043
561.875342,-1332.370696,-1149.143247,8734.430116
561.875667,-3701.029710,-459.657299,9844.739029
561.875992,-2886.803174,-306.438199,9474.636058
561.876317,-296.082377,-919.314598,11325.150913
561.876642,-962.267725,-2451.505594,11917.315666
561.876967,-444.123565,-1991.848295,10436.903782
561.877292,2072.576638,0.000000,10807.006753
561.877617,3404.947333,612.876398,10584.944971
561.877942,1924.535449,-536.266849,9918.759623
561.878267,2812.782580,-612.876398,9252.574275
561.878592,6439.791695,1762.019645,8882.471304
561.878917,6439.791695,3753.867940,11325.150913
561.879242,3997.112087,2528.115143,10807.006753
561.879567,2960.823768,-459.657299,8068.244768
561.879892,3701.029710,-689.485948,7476.080014
561.880217,814.226536,689.485948,9178.553681
561.880542,-2738.761985,-459.657299,9400.615463
561.880867,-1406.391290,-536.266849,9400.615463
561.881192,518.144159,-1149.143247,10807.006753
561.881517,-3182.885551,-1072.533697,11177.109724
561.881843,-5255.462188,-1608.800546,7254.018232
561.882168,-2812.782580,-1302.362347,5847.626942
561.882493,-962.267725,383.047749,7994.224174
561.882818,-2664.741391,1149.143247,10140.821405
561.883143,-1998.556043,1149.143247,9474.636058
561.883468,3034.844362,1991.848295,7920.203579
561.883793,3182.885551,2911.162892,9030.512492
561.884118,370.102971,2451.505594,10732.986159
561.884443,592.164754,1608.800546,8882.471304
561.884768,3701.029710,1302.362347,8734.430116
561.885093,2590.720797,1762.019645,10658.965565
561.885418,-888.247130,766.095498,11251.130318
561.885743,0.000000,2298.286494,9918.759623
561.886068,2220.617826,2451.505594,12287.418637
561.886393,592.164754,1302.362347,11769.274478
561.886718,740.205942,1455.581446,8142.265362
561.887043,222.061783,3753.867940,7105.977043
561.887368,444.123565,3983.696590,6217.729913
561.887693,-3256.906145,2145.067394,8290.306550
561.888019,-1850.514855,383.047749,7476.080014
561.888344,-2146.597232,3064.381992,8364.327145
561.888669,-3923.091493,1302.362347,9770.718434
561.888994,-4219.173869,-536.266849,8216.285956
561.889319,-4219.173869,-612.876398,6735.874072
561.889644,-4367.215058,-306.438199,7624.121203
561.889969,-4071.132681,-766.095498,7698.141797
561.890294,-3182.885551,-689.485948,8882.471304
561.890619,222.061783,1072.533697,8364.327145
561.890944,2146.597232,1225.752797,11325.150913
561.891269,-1332.370696,0.000000,10807.006753
561.891594,148.041188,-689.485948,8586.388927
561.891919,2664.741391,-383.047749,9770.718434
561.892244,2072.576638,306.438199,10732.986159
561.892569,0.000000,-919.314598,11695.253884
561.892894,814.226536,-2145.067394,9992.780217
561.893219,2516.700203,-842.705048,11695.253884
561.893544,2516.700203,0.000000,13027.624579
561.893869,444.123565,-766.095498,10510.924376
561.894195,1850.514855,-1455.581446,9104.533087
561.894520,4737.318029,229.828649,7994.224174
561.894845,2664.741391,766.095498,9030.512492
561.895170,0.000000,0.000000,8660.409521
561.895495,3478.967927,0.000000,8068.244768
561.895820,4811.338623,1838.629195,11103.089130
561.896145,1036.288319,766.095498,11917.315666
561.896470,-962.267725,-1302.362347,7328.038826
561.896795,-148.041188,-1991.848295,5921.647536
561.897120,-370.102971,-153.219100,7179.997637
561.897445,-3034.844362,0.000000,9400.615463
561.897770,-2960.823768,-2068.457845,8290.306550
561.898095,518.144159,-766.095498,9252.574275
561.898420,-1480.411884,1378.971896,11695.253884
561.898745,-4737.318029,689.485948,9548.656652
561.899070,-2738.761985,-1915.238745,6365.771101
561.899395,518.144159,-919.314598,7105.977043
561.899721,0.000000,2604.724693,9548.656652
561.900046,-296.082377,3064.381992,11991.336260
561.900371,1184.329507,1302.362347,9178.553681
561.900696,2738.761985,1302.362347,9252.574275
561.901021,1628.453072,3370.820191,11399.171507
561.901347,888.247130,3140.991542,8956.491898
561.901672,2738.761985,2681.334243,7624.121203
561.901997,2442.679609,2068.457845,10436.903782
561.902322,-518.144159,1532.190996,10881.027347
561.902647,-1776.494261,1838.629195,8438.347739
561.902973,1850.514855,2528.115143,8734.430116
561.903298,518.144159,2451.505594,10214.842000
561.903623,-2664.741391,2374.896044,9178.553681
561.903948,0.000000,1455.581446,6957.935855
561.904273,222.061783,2298.286494,6513.812290
561.904598,-3775.050304,919.314598,7920.203579
561.904924,-5921.647536,76.609550,7105.977043
561.905249,-2516.700203,306.438199,8142.265362
561.905574,-1924.535449,995.924147,10510.924376
561.905899,-4367.215058,76.609550,10584.944971
561.906224,-4515.256246,-1685.410096,8290.306550
561.906550,-740.205942,-995.924147,7550.100608
561.906875,148.041188,-153.219100,10066.800811
561.907200,-1924.535449,76.609550,11177.109724
561.907525,666.185348,-306.438199,9696.697840
561.907850,5033.400406,1072.533697,11103.089130
561.908176,4515.256246,1608.800546,12731.542202
561.908501,1184.329507,536.266849,10584.944971
561.908826,2664.741391,153.219100,8216.285956
561.909151,6735.874072,612.876398,9622.677246
561.909476,4515.256246,1149.143247,11325.150913
561.909802,592.164754,-459.657299,9548.656652
561.910127,3478.967927,-306.438199,8364.327145
561.910452,3627.009116,1149.143247,10140.821405
561.910777,222.061783,1072.533697,11029.068536
561.911102,-1776.494261,-1532.190996,8734.430116
561.911428,-444.123565,-1838.629195,4959.379811
561.911753,-1184.329507,-383.047749,7550.100608
561.912078,-2664.741391,-612.876398,7772.162391
561.912403,-3108.864956,-536.266849,7105.977043
561.912728,-1036.288319,-229.828649,8956.491898
561.913054,-740.205942,612.876398,9474.636058
561.913379,-4219.173869,-995.924147,10658.965565
561.913704,-2960.823768,-2757.943793,7476.080014
561.914029,-962.267725,-1378.971896,6957.935855
561.914354,-1258.350101,-766.095498,11325.150913
561.914680,-148.041188,-306.438199,11473.192101
561.915005,1924.535449,153.219100,11399.171507
561.915330,2812.782580,919.314598,11843.295072
561.915655,2738.761985,2145.067394,11991.336260
561.915980,962.267725,1685.410096,9474.636058
561.916306,4737.318029,2911.162892,8216.285956
561.916631,6883.915261,2451.505594,9992.780217
561.916956,1702.473667,1838.629195,11029.068536
561.917281,1480.411884,2145.067394,9474.636058
561.917606,2442.679609,4136.915689,10214.842000
561.917932,-148.041188,2528.115143,10584.944971
561.918257,-3701.029710,0.000000,8586.388927
561.918582,-2812.782580,-612.876398,5921.647536
561.918907,-2220.617826,2145.067394,7698.141797
561.919232,-3775.050304,1838.629195,7994.224174
561.919557,-5625.565159,-689.485948,6587.832884
561.919883,-2960.823768,689.485948,6587.832884
561.920208,0.000000,2987.772442,8512.368333
561.920533,-3627.009116,2757.943793,9030.512492
561.920858,-4367.215058,-766.095498,7105.977043
561.921183,-888.247130,-536.266849,7994.224174
561.921509,-1332.370696,2451.505594,9474.636058
561.921834,-3330.926739,0.000000,8660.409521
561.922159,-2294.638420,-2451.505594,8216.285956
561.922484,370.102971,229.828649,11029.068536
561.922809,1110.308913,3677.258390,15174.221811
561.923135,222.061783,459.657299,12065.356855
561.923460,1406.391290,-2911.162892,7328.038826
561.923785,4589.276840,536.266849,9178.553681
561.924110,3701.029710,3600.648841,13101.645173
561.924435,2146.597232,1072.533697,11325.150913
561.924761,5181.441594,-459.657299,10436.903782
561.925086,5995.668130,1991.848295,11843.295072
561.925411,2812.782580,3600.648841,11029.068536
561.925736,2368.659014,0.000000,6439.791695
561.926061,3256.906145,-1838.629195,5033.400406
561.926387,1110.308913,919.314598,8808.450710
561.926712,-1406.391290,1838.629195,9992.780217
561.927037,-148.041188,-919.314598,7402.059420
561.927362,296.082377,-1685.410096,7772.162391
561.927687,-2442.679609,229.828649,9770.718434
561.928013,-4145.153275,306.438199,8142.265362
561.928338,-2146.597232,-1685.410096,6883.915261
561.928663,-296.082377,-2298.286494,7254.018232
561.928988,-2960.823768,-536.266849,9178.553681
561.929313,-3256.906145,0.000000,9326.594869
561.929639,0.000000,-612.876398,9770.718434
561.929964,0.000000,-1225.752797,11621.233289
561.930289,0.000000,229.828649,12213.398043
561.930614,1776.494261,689.485948,10288.862594
561.930939,4441.235652,995.924147,8364.327145
561.931265,2960.823768,1149.143247,10436.903782
561.931590,814.226536,766.095498,10288.862594
561.931915,3552.988522,1991.848295,9844.739029
561.932240,5625.565159,2987.772442,12287.418637
561.932565,2664.741391,2528.115143,11991.336260
561.932891,-1110.308913,1302.362347,9326.594869
561.933216,-296.082377,153.219100,7328.038826
561.933541,-814.226536,536.266849,7105.977043
561.933866,-5033.400406,842.705048,8068.244768
561.934191,-6217.729913,459.657299,7105.977043
561.934517,-3404.947333,306.438199,7772.162391
561.934842,-3775.050304,306.438199,9770.718434
561.935167,-6957.935855,-153.219100,8586.388927
561.935492,-6735.874072,-1302.362347,5181.441594
561.935817,-2516.700203,0.000000,5921.647536
561.936142,-296.082377,1685.410096,9474.636058
561.936468,-2516.700203,1455.581446,10436.903782
561.936793,-2368.659014,153.219100,8660.409521
561.937118,1702.473667,383.047749,8808.450710
561.937443,666.185348,1762.019645,10955.047942
561.937768,-1258.350101,919.314598,10955.047942
561.938094,1628.453072,-153.219100,9252.574275
561.938419,3775.050304,306.438199,10140.821405
561.938744,2442.679609,383.047749,12879.583391
561.939069,2220.617826,383.047749,11473.192101
561.939394,4145.153275,995.924147,11399.171507
561.939720,5625.565159,2374.896044,11251.130318
561.940045,5551.544565,2374.896044,10140.821405
561.940370,4367.215058,1149.143247,8660.409521
561.940695,4737.318029,2068.457845,5995.668130
561.941020,1924.535449,2298.286494,7254.018232
561.941346,222.061783,306.438199,7624.121203
561.941671,222.061783,0.000000,8364.327145
561.941996,-444.123565,229.828649,10140.821405
561.942321,-2812.782580,306.438199,9770.718434
561.942646,-4441.235652,-1685.410096,7846.182985
561.942972,-2516.700203,-2911.162892,6439.791695
561.943297,-1776.494261,-995.924147,7846.182985
561.943622,-2442.679609,536.266849,8734.430116
561.943947,-888.247130,459.657299,9400.615463
561.944272,2590.720797,0.000000,10288.862594
561.944598,666.185348,1915.238745,10955.047942
561.944923,-1258.350101,1532.190996,9400.615463
561.945248,3034.844362,229.828649,7105.977043
561.945573,3923.091493,995.924147,10362.883188
561.945898,814.226536,1455.581446,13101.645173
561.946224,-444.123565,306.438199,11473.192101
561.946549,1850.514855,-612.876398,12139.377449
561.946874,3182.885551,1685.410096,11769.274478
561.947199,814.226536,2528.115143,11695.253884
561.947524,518.144159,1378.971896,8438.347739
561.947850,2442.679609,1762.019645,7994.224174
561.948175,2664.741391,2221.676944,7994.224174
561.948500,-1628.453072,2374.896044,8882.471304
561.948825,-1184.329507,612.876398,6883.915261
561.949150,518.144159,1302.362347,9178.553681
561.949476,-1406.391290,2221.676944,9770.718434
561.949801,-5699.585753,0.000000,9400.615463
561.950126,-6809.894666,-3064.381992,5995.668130
561.950451,-4885.359217,-2145.067394,4959.379811
561.950776,-6291.750507,459.657299,7402.059420
561.951101,-7105.977043,-1149.143247,8660.409521
561.951427,-4515.256246,-1072.533697,8364.327145
561.951752,-1850.514855,153.219100,9696.697840
561.952077,-2664.741391,229.828649,9770.718434
561.952402,-1628.453072,-1072.533697,8956.491898
561.952727,1110.308913,-919.314598,8438.347739
561.953053,2738.761985,1302.362347,9474.636058
561.953378,2220.617826,919.314598,11325.150913
561.953703,3034.844362,383.047749,11991.336260
561.954028,5329.482782,536.266849,11029.068536
561.954353,4737.318029,2298.286494,11843.295072
561.954679,3627.009116,612.876398,10955.047942
561.955004,4663.297435,-153.219100,10362.883188
561.955329,5847.626942,1225.752797,8882.471304
561.955654,2294.638420,1762.019645,10955.047942
561.955979,2368.659014,842.705048,9030.512492
561.956305,3701.029710,842.705048,8364.327145
561.956630,4071.132681,2298.286494,10732.986159
561.956955,740.205942,2145.067394,9622.677246
561.957280,-1480.411884,0.000000,6809.894666
561.957605,-962.267725,-536.266849,6069.688724
561.957931,-2738.761985,-153.219100,6883.915261
561.958256,-5995.668130,-459.657299,7179.997637
561.958581,-4145.153275,-1915.238745,6143.709319
561.958906,-592.164754,-229.828649,9992.780217
561.959231,-2590.720797,536.266849,13471.748144
561.959557,-3701.029710,-842.705048,10732.986159
561.959882,-1036.288319,-1915.238745,7179.997637
561.960207,2072.576638,-459.657299,8142.265362
561.960532,2368.659014,2451.505594,10881.027347
561.960857,1628.453072,3140.991542,11547.212695
561.961183,4219.173869,2145.067394,10436.903782
561.961508,5699.585753,2068.457845,11177.109724
561.961833,1628.453072,2451.505594,10658.965565
561.962158,222.061783,2528.115143,8142.265362
561.962483,2072.576638,1302.362347,7402.059420
561.962809,1776.494261,1149.143247,9400.615463
561.963134,-1184.329507,1685.410096,10955.047942
561.963459,-2072.576638,1455.581446,10658.965565
561.963784,-2146.597232,612.876398,8956.491898
561.964109,-1184.329507,536.266849,7698.141797
561.964435,-2738.761985,1378.971896,8142.265362
561.964760,-3923.091493,1225.752797,7328.038826
561.965085,-2738.761985,689.485948,5181.441594
561.965410,-3627.009116,0.000000,8068.244768
561.965735,-4811.338623,0.000000,8660.409521
561.966061,-3552.988522,229.828649,7254.018232
561.966386,-2442.679609,-229.828649,8586.388927
561.966711,-2368.659014,-229.828649,10584.944971
561.967036,-1850.514855,612.876398,10436.903782
561.967361,-592.164754,-919.314598,9992.780217
561.967686,592.164754,-2451.505594,8068.244768
561.968012,-814.226536,-536.266849,9918.759623
561.968337,1258.350101,1302.362347,12287.418637
561.968662,5625.565159,1455.581446,12287.418637
561.968987,3997.112087,153.219100,12953.603985
561.969312,2664.741391,612.876398,10288.862594
561.969638,5403.503377,2374.896044,8216.285956
561.969963,6217.729913,2068.457845,7476.080014
561.970288,3478.967927,842.705048,8956.491898
561.970613,444.123565,1302.362347,8734.430116
561.970938,2590.720797,1378.971896,8586.388927
561.971264,4219.173869,1072.533697,11621.233289
561.971589,0.000000,459.657299,11621.233289
561.971914,-2294.638420,-1455.581446,7920.203579
561.972239,592.164754,-1762.019645,5847.626942
561.972564,1406.391290,-995.924147,9030.512492
561.972890,-2664.741391,612.876398,9030.512492
561.973215,-3330.926739,153.219100,7105.977043
561.973540,74.020594,-919.314598,8660.409521
561.973865,0.000000,689.485948,10140.821405
561.974190,-3478.967927,689.485948,9844.739029
561.974516,-2960.823768,-1302.362347,7402.059420
561.974841,-888.247130,-1608.800546,7402.059420
561.975166,-1110.308913,-306.438199,10510.924376
561.975491,-1184.329507,0.000000,11621.233289
561.975816,0.000000,-612.876398,11399.171507
561.976142,3478.967927,536.266849,10584.944971
561.976467,2368.659014,2911.162892,13323.706956
561.976792,1184.329507,2298.286494,10881.027347
561.977117,2960.823768,842.705048,6291.750507
561.977442,4515.256246,2068.457845,6957.935855
561.977768,2294.638420,3907.087040,9770.718434
561.978093,1036.288319,3907.087040,8438.347739
561.978418,1628.453072,1378.971896,9400.615463
561.978743,-1184.329507,2145.067394,11473.192101
561.979068,-3256.906145,1608.800546,9548.656652
561.979394,-3108.864956,383.047749,7105.977043
561.979719,-2220.617826,-919.314598,6439.791695
561.980044,-4589.276840,306.438199,8364.327145
561.980369,-4737.318029,995.924147,8956.491898
561.980694,-2590.720797,536.266849,8364.327145
561.981020,-2442.679609,-306.438199,9104.533087
561.981345,-4515.256246,76.609550,9178.553681
561.981670,-1702.473667,1838.629195,7994.224174
561.981995,814.226536,1225.752797,7328.038826
561.982320,0.000000,76.609550,7994.224174
561.982645,-1554.432478,-153.219100,9548.656652
561.982971,592.164754,1762.019645,9326.594869
561.983296,3478.967927,2068.457845,10214.842000
561.983621,2516.700203,1378.971896,13175.665768
561.983946,0.000000,153.219100,11547.212695
561.984271,2442.679609,0.000000,8068.244768
561.984597,4811.338623,383.047749,9326.594869
561.984922,2368.659014,995.924147,11103.089130
561.985247,740.205942,689.485948,9252.574275
561.985572,3552.988522,689.485948,9548.656652
561.985897,3923.091493,1762.019645,11621.233289
561.986223,0.000000,2145.067394,11029.068536
561.986548,-592.164754,-995.924147,7476.080014
561.986873,666.185348,-2451.505594,6291.750507
561.987198,1480.411884,0.000000,7328.038826
561.987523,-1258.350101,1685.410096,11769.274478
561.987849,-1258.350101,0.000000,9770.718434
561.988174,-888.247130,-1915.238745,8364.327145
561.988499,-1110.308913,-1608.800546,9030.512492
561.988824,-2886.803174,0.000000,8512.368333
561.989149,-1924.535449,689.485948,7105.977043
561.989475,1036.288319,-153.219100,7254.018232
561.989800,-222.061783,-536.266849,9548.656652
561.990125,-2368.659014,229.828649,10140.821405
561.990450,-444.123565,1072.533697,8512.368333
561.990775,1110.308913,612.876398,9770.718434
561.991101,370.102971,-153.219100,10658.965565
561.991426,74.020594,536.266849,10658.965565
561.991751,3108.864956,766.095498,9696.697840
561.992076,2960.823768,1915.238745,10362.883188
561.992401,740.205942,229.828649,10807.006753
561.992727,962.267725,1072.533697,9622.677246
561.993052,3404.947333,1991.848295,9622.677246
561.993377,2220.617826,2451.505594,10732.986159
561.993702,-592.164754,1149.143247,9474.636058
561.994027,-1258.350101,1302.362347,8512.368333
561.994353,-592.164754,1838.629195,6439.791695
561.994678,-2886.803174,766.095498,7846.182985
561.995003,-4663.297435,-383.047749,7179.997637
561.995328,-3256.906145,1149.143247,7476.080014
561.995653,-2590.720797,2374.896044,10436.903782
561.995979,-4811.338623,-459.657299,9844.739029
561.996304,-4589.276840,-1455.581446,6439.791695
561.996629,-2960.823768,-1302.362347,5921.647536
561.996954,-2368.659014,1608.800546,8586.388927
561.997279,-2738.761985,1532.190996,10584.944971
561.997605,-1184.329507,0.000000,9548.656652
561.997930,2812.782580,0.000000,9992.780217
561.998255,1554.432478,2145.067394,10436.903782
561.998580,0.000000,1608.800546,9252.574275
561.998905,2368.659014,766.095498,8882.471304
561.999230,4441.235652,689.485948,10436.903782
561.999556,2516.700203,1149.143247,11917.315666
561.999881,2072.576638,612.876398,9844.739029
562.000206,4737.318029,1685.410096,10436.903782
562.000531,5773.606348,2757.943793,10881.027347
562.000856,3108.864956,1991.848295,10955.047942
562.001181,814.226536,-612.876398,8660.409521
562.001507,2664.741391,919.314598,7402.059420
562.001832,1184.329507,2145.067394,9992.780217
562.002157,-1332.370696,-383.047749,7846.182985
562.002482,-1554.432478,-1838.629195,5477.523971
562.002807,-888.247130,-229.828649,8956.491898
562.003132,-1184.329507,2068.457845,11769.274478
562.003457,-2886.803174,-306.438199,9030.512492
562.003783,-2294.638420,-3677.258390,7846.182985
562.004108,-1554.432478,-2145.067394,7031.956449
562.004433,-2368.659014,1838.629195,9326.594869
562.004758,296.082377,459.657299,11029.068536
562.005083,1554.432478,0.000000,10436.903782
562.005408,-222.061783,-153.219100,8586.388927
562.005733,-1258.350101,229.828649,8068.244768
562.006059,888.247130,842.705048,7105.977043
562.006384,2072.576638,2911.162892,10140.821405
562.006709,1480.411884,1378.971896,12065.356855
562.007034,-666.185348,-842.705048,11029.068536
562.007359,148.041188,-1225.752797,9326.594869
562.007684,2368.659014,2528.115143,10214.842000
562.008009,0.000000,2987.772442,10881.027347
562.008335,-1110.308913,383.047749,8956.491898
562.008660,3108.864956,0.000000,8882.471304
562.008985,2220.617826,3524.039291,11251.130318
562.009310,-1480.411884,2221.676944,9622.677246
562.009635,-3108.864956,-306.438199,7179.997637
562.009960,-888.247130,-383.047749,7105.977043
562.010285,-1258.350101,2451.505594,10807.006753
562.010611,-3997.112087,995.924147,9548.656652
562.010936,-4293.194464,-1532.190996,6513.812290
562.011261,-2368.659014,-306.438199,6439.791695
562.011586,-4293.194464,1072.533697,9400.615463
562.011911,-5995.668130,0.000000,7550.100608
562.012236,-2294.638420,-1302.362347,7624.121203
562.012561,666.185348,76.609550,9548.656652
562.012887,-2146.597232,2451.505594,11473.192101
562.013212,-2960.823768,0.000000,9474.636058
562.013537,740.205942,-1915.238745,7105.977043
562.013862,1776.494261,-995.924147,9474.636058
562.014187,1480.411884,1149.143247,10807.006753
562.014512,1702.473667,1762.019645,9696.697840
562.014837,4293.194464,76.609550,10658.965565
562.015163,4145.153275,1149.143247,11029.068536
562.015488,3034.844362,2145.067394,10955.047942
562.015813,4441.235652,1302.362347,8216.285956
562.016138,5625.565159,1072.533697,8586.388927
562.016463,4071.132681,459.657299,11029.068536
562.016788,1554.432478,1838.629195,10732.986159
562.017113,1998.556043,153.219100,8956.491898
562.017439,1332.370696,-76.609550,8882.471304
562.017764,-518.144159,689.485948,8956.491898
562.018089,-370.102971,1455.581446,9104.533087
562.018414,-296.082377,0.000000,8734.430116
562.018739,-1924.535449,-1685.410096,8216.285956
562.019064,-4441.235652,-995.924147,7254.018232
562.019389,-3034.844362,842.705048,7031.956449
562.019714,222.061783,689.485948,9622.677246
562.020040,-148.041188,766.095498,11251.130318
562.020365,-2590.720797,0.000000,10436.903782
562.020690,-222.061783,-536.266849,8882.471304
562.021015,1998.556043,383.047749,8586.388927
562.021340,0.000000,536.266849,8290.306550
562.021665,-814.226536,766.095498,8438.347739
562.021990,2516.700203,1302.362347,10362.883188
562.022316,3775.050304,3677.258390,11991.336260
562.022641,1554.432478,2068.457845,11029.068536
562.022966,-888.247130,-766.095498,8068.244768
562.023291,1406.391290,1378.971896,5921.647536
562.023616,2442.679609,3370.820191,9992.780217
562.023941,-740.205942,1915.238745,11843.295072
562.024266,-2220.617826,-689.485948,9030.512492
562.024592,-592.164754,306.438199,9400.615463
562.024917,296.082377,2451.505594,9622.677246
562.025242,-3701.029710,1532.190996,9770.718434
562.025567,-4071.132681,-1072.533697,7179.997637
562.025892,-1184.329507,-766.095498,7994.224174
562.026217,-2072.576638,1302.362347,9992.780217
562.026542,-4885.359217,536.266849,8438.347739
562.026868,-3256.906145,-1455.581446,6439.791695
562.027193,-1184.329507,-229.828649,7994.224174
562.027518,-2146.597232,766.095498,10510.924376
562.027843,-3775.050304,153.219100,9770.718434
562.028168,-1258.350101,-1455.581446,8660.409521
562.028493,2294.638420,-689.485948,8956.491898
562.028818,296.082377,842.705048,10658.965565
562.029144,-740.205942,-459.657299,9622.677246
562.029469,2590.720797,0.000000,10362.883188
562.029794,3108.864956,1225.752797,12435.459826
562.030119,1776.494261,1991.848295,11843.295072
562.030444,1998.556043,-612.876398,7624.121203
562.030769,2812.782580,-153.219100,8364.327145
562.031094,2368.659014,1685.410096,10584.944971
562.031420,740.205942,1149.143247,10214.842000
562.031745,3478.967927,-1455.581446,8142.265362
562.032070,3552.988522,689.485948,10955.047942
562.032395,888.247130,3600.648841,11769.274478
562.032720,2368.659014,842.705048,7550.100608
562.033045,4737.318029,-1532.190996,7402.059420
562.033370,2294.638420,153.219100,9474.636058
562.033696,-1628.453072,3677.258390,9992.780217
562.034021,962.267725,1225.752797,6809.894666
562.034346,1332.370696,-1991.848295,8068.244768
562.034671,-2368.659014,-536.266849,8808.450710
562.034996,-4515.256246,2834.553343,9992.780217
562.035321,-962.267725,459.657299,8364.327145
562.035646,-370.102971,-1838.629195,7698.141797
562.035971,-3182.885551,-1991.848295,9992.780217
562.036297,-4145.153275,1762.019645,9474.636058
562.036622,222.061783,2374.896044,7772.162391
562.036947,2294.638420,842.705048,10807.006753
562.037272,740.205942,1455.581446,11769.274478
562.037597,0.000000,3140.991542,9548.656652
562.037922,3552.988522,2451.505594,7920.203579
562.038247,3923.091493,766.095498,9104.533087
562.038573,1036.288319,2145.067394,10955.047942
562.038898,1332.370696,3064.381992,9104.533087
562.039223,3552.988522,3064.381992,9696.697840
562.039548,2072.576638,1762.019645,11399.171507
562.039873,-1184.329507,2374.896044,10214.842000
562.040198,-1850.514855,1149.143247,7254.018232
562.040523,-1036.288319,153.219100,7254.018232
562.040849,-3552.988522,0.000000,9400.615463
562.041174,-5107.421000,536.266849,8660.409521
562.041499,-4219.173869,536.266849,8068.244768
562.041824,-3478.967927,0.000000,8438.347739
562.042149,-5699.585753,-153.219100,9178.553681
562.042474,-5329.482782,153.219100,7846.182985
562.042799,-3627.009116,-1072.533697,7254.018232
562.043125,-2368.659014,-1532.190996,8660.409521
562.043450,-3182.885551,-1149.143247,9252.574275
562.043775,-1850.514855,306.438199,9104.533087
562.044100,2146.597232,0.000000,9696.697840
562.044425,1924.535449,153.219100,10881.027347
562.044750,1480.411884,842.705048,11473.192101
562.045075,3552.988522,459.657299,9474.636058
562.045401,5033.400406,0.000000,9696.697840
562.045726,3034.844362,0.000000,10955.047942
562.046051,3775.050304,1225.752797,9918.759623
562.046376,6143.709319,919.314598,9548.656652
562.046701,4737.318029,536.266849,10955.047942
562.047026,962.267725,919.314598,10510.924376
562.047351,0.000000,153.219100,8068.244768
562.047677,2368.659014,-919.314598,7105.977043
562.048002,1036.288319,-1149.143247,9474.636058
562.048327,-3108.864956,0.000000,10140.821405
562.048652,-2146.597232,0.000000,9030.512492
562.048977,1776.494261,-1532.190996,9178.553681
562.049302,-1110.308913,76.609550,11251.130318
562.049627,-3256.906145,306.438199,7328.038826
562.049953,-1036.288319,-153.219100,5255.462188
562.050278,1406.391290,-153.219100,8068.244768
562.050603,-444.123565,1915.238745,10955.047942
562.050928,-2812.782580,1838.629195,9918.759623
562.051253,296.082377,-383.047749,8660.409521
562.051578,3182.885551,229.828649,8660.409521
562.051903,74.020594,2987.772442,10807.006753
562.052229,-518.144159,1991.848295,9252.574275
562.052554,1850.514855,919.314598,8586.388927
562.052879,2072.576638,1838.629195,10214.842000
562.053204,148.041188,3524.039291,11103.089130
562.053529,814.226536,1378.971896,7254.018232
562.053854,1924.535449,1225.752797,7328.038826
562.054179,1776.494261,4060.306139,10214.842000
562.054504,-1850.514855,4290.134789,11177.109724
562.054830,-1036.288319,383.047749,7328.038826
562.055155,-148.041188,-459.657299,5847.626942
562.055480,-3034.844362,1915.238745,8734.430116
562.055805,-5033.400406,2757.943793,9400.615463
562.056130,-2664.741391,766.095498,9474.636058
562.056455,-1332.370696,-1532.190996,9696.697840
562.056780,-4219.173869,-536.266849,9548.656652
562.057106,-4737.318029,76.609550,8586.388927
562.057431,-1924.535449,689.485948,7920.203579
562.057756,-1998.556043,-1072.533697,10066.800811
562.058081,-3330.926739,-1532.190996,9918.759623
562.058406,-1776.494261,-306.438199,8142.265362
562.058731,518.144159,-1072.533697,8586.388927
562.059056,-1554.432478,153.219100,9696.697840
562.059382,-2368.659014,-306.438199,10436.903782
562.059707,2294.638420,-306.438199,9030.512492
562.060032,5181.441594,-995.924147,9474.636058
562.060357,4441.235652,153.219100,11399.171507
562.060682,4737.318029,1225.752797,9844.739029
562.061007,7772.162391,2528.115143,10140.821405
562.061332,7550.100608,919.314598,10584.944971
562.061658,3997.112087,689.485948,10658.965565
562.061983,4589.276840,1455.581446,8660.409521
562.062308,6513.812290,2145.067394,8512.368333
562.062633,1480.411884,-153.219100,10140.821405
562.062958,-2516.700203,-2068.457845,8068.244768
562.063283,-1332.370696,-1915.238745,7328.038826
562.063608,-370.102971,0.000000,9474.636058
562.063934,-2664.741391,-536.266849,10955.047942
562.064259,-5477.523971,-2145.067394,9252.574275
562.064584,-3775.050304,-1072.533697,6735.874072
562.064909,-1628.453072,0.000000,7402.059420
562.065234,-1776.494261,-383.047749,8512.368333
562.065559,-2146.597232,-153.219100,8216.285956
562.065884,-518.144159,1072.533697,10066.800811
562.066210,518.144159,2145.067394,12287.418637
562.066535,74.020594,842.705048,12065.356855
562.066860,74.020594,-153.219100,7846.182985
562.067185,2368.659014,1225.752797,7994.224174
562.067510,3108.864956,3217.601092,9030.512492
562.067835,2590.720797,3600.648841,10955.047942
562.068160,3108.864956,2681.334243,10214.842000
562.068486,3701.029710,3600.648841,9918.759623
562.068811,2294.638420,4443.353888,10362.883188
562.069136,-296.082377,3524.039291,8882.471304
562.069461,-370.102971,995.924147,7031.956449
562.069786,-1998.556043,153.219100,8068.244768
562.070111,-5329.482782,536.266849,9548.656652
562.070436,-6661.853478,536.266849,9030.512492
562.070761,-5773.606348,-919.314598,8808.450710
562.071087,-6661.853478,-1608.800546,9252.574275
562.071412,-8364.327145,-919.314598,8438.347739
562.071737,-7179.997637,-1149.143247,6217.729913
562.072062,-2960.823768,-1072.533697,7772.162391
562.072387,-2886.803174,-459.657299,7846.182985
562.072712,-2960.823768,459.657299,7328.038826
562.073037,-222.061783,1455.581446,9178.553681
562.073363,3775.050304,1838.629195,10288.862594
562.073688,3034.844362,1838.629195,11473.192101
562.074013,1998.556043,153.219100,10955.047942
562.074338,3997.112087,-919.314598,7994.224174
562.074663,4589.276840,-766.095498,8290.306550
562.074988,3330.926739,-306.438199,11177.109724
562.075313,2072.576638,-459.657299,11843.295072
562.075639,4367.215058,-1225.752797,11325.150913
562.075964,5847.626942,-1302.362347,12065.356855
562.076289,3256.906145,-383.047749,12213.398043
562.076614,1702.473667,536.266849,8586.388927
562.076939,4737.318029,76.609550,6809.894666
562.077264,5921.647536,229.828649,7994.224174
562.077589,1332.370696,842.705048,9770.718434
562.077915,-444.123565,0.000000,8956.491898
562.078240,1332.370696,-689.485948,9474.636058
562.078565,1258.350101,-766.095498,12657.521608
562.078890,-2886.803174,-1302.362347,11325.150913
562.079215,-4293.194464,-2604.724693,7772.162391
562.079540,-1776.494261,-3064.381992,7476.080014
562.079865,-1332.370696,-459.657299,9030.512492
562.080191,-3849.070898,842.705048,10288.862594
562.080516,-2368.659014,229.828649,9474.636058
562.080841,0.000000,842.705048,8068.244768
562.081166,-148.041188,2681.334243,10066.800811
562.081491,-592.164754,3294.210641,8290.306550
562.081816,-296.082377,2068.457845,5773.606348
562.082141,-148.041188,2604.724693,7031.956449
562.082467,444.123565,3524.039291,9696.697840
562.082792,666.185348,3447.429741,10140.821405
562.083117,3034.844362,2604.724693,8364.327145
562.083442,1406.391290,3217.601092,9474.636058
562.083767,-370.102971,3677.258390,8068.244768
562.084092,1184.329507,3830.477490,7476.080014
562.084417,1480.411884,1991.848295,9104.533087
562.084743,-1998.556043,2298.286494,9030.512492
562.085068,-2146.597232,1838.629195,10288.862594
562.085393,518.144159,1149.143247,9696.697840
562.085718,-1184.329507,1455.581446,11103.089130
562.086043,-4959.379811,383.047749,11251.130318
562.086368,-5033.400406,-612.876398,8586.388927
562.086693,-3256.906145,-1838.629195,8734.430116
562.087019,-3775.050304,-919.314598,8956.491898
562.087344,-6069.688724,-383.047749,9252.574275
562.087669,-3404.947333,-612.876398,6957.935855
562.087994,444.123565,766.095498,7698.141797
562.088319,-370.102971,0.000000,11399.171507
562.088644,-2220.617826,0.000000,10732.986159
562.088969,1036.288319,-1685.410096,7772.162391
562.089294,3775.050304,-1608.800546,8660.409521
562.089620,2072.576638,-1762.019645,10436.903782
562.089945,2368.659014,0.000000,10881.027347
562.090270,5699.585753,229.828649,10658.965565
562.090595,7550.100608,919.314598,11695.253884
562.090920,3849.070898,229.828649,10732.986159
562.091245,3182.885551,-766.095498,5773.606348
562.091570,5625.565159,919.314598,6365.771101
562.091896,5773.606348,1762.019645,10658.965565
562.092221,1554.432478,1685.410096,10584.944971
562.092546,1110.308913,-1532.190996,9770.718434
562.092871,2368.659014,-1302.362347,9622.677246
562.093196,0.000000,1302.362347,9844.739029
562.093521,-2960.823768,0.000000,11029.068536
562.093846,-2368.659014,-2681.334243,7179.997637
562.094172,-2960.823768,-2757.943793,7846.182985
562.094497,-3923.091493,-1225.752797,10807.006753
562.094822,-3478.967927,459.657299,9178.553681
562.095147,-2368.659014,153.219100,7846.182985
562.095472,-2368.659014,229.828649,9992.780217
562.095797,-4367.215058,1838.629195,11695.253884
562.096122,-1702.473667,1685.410096,8290.306550
562.096448,1850.514855,842.705048,6883.915261
562.096773,-296.082377,1378.971896,8216.285956
562.097098,-1850.514855,2298.286494,8068.244768
562.097423,1332.370696,2987.772442,9030.512492
562.097748,2812.782580,1915.238745,12509.480420
562.098073,370.102971,2221.676944,13027.624579
562.098398,-222.061783,1991.848295,9844.739029
562.098724,2590.720797,995.924147,6957.935855
562.099049,3182.885551,1838.629195,7476.080014
562.099374,-962.267725,3294.210641,9844.739029
562.099699,-1036.288319,3447.429741,6957.935855
562.100024,1110.308913,1991.848295,7254.018232
562.100349,-666.185348,1762.019645,9252.574275
562.100674,-3997.112087,2528.115143,10436.903782
562.101000,-2516.700203,1532.190996,8290.306550
562.101325,-1036.288319,-842.705048,8364.327145
562.101650,-2960.823768,-2604.724693,9400.615463
562.101975,-5921.647536,-919.314598,9400.615463
562.102300,-4737.318029,612.876398,8068.244768
562.102625,-2442.679609,-612.876398,9770.718434
562.102950,-2294.638420,-1072.533697,10584.944971
562.103275,-2886.803174,-689.485948,9918.759623
562.103600,-592.164754,-306.438199,7846.182985
562.103925,1850.514855,-995.924147,6883.915261
562.104251,1258.350101,0.000000,8364.327145
562.104576,518.144159,1915.238745,10658.965565
562.104901,4367.215058,1225.752797,10658.965565
562.105226,6365.771101,995.924147,11547.212695
562.105551,5551.544565,-153.219100,12361.439231
562.105876,3330.926739,0.000000,10362.883188
562.106201,4589.276840,0.000000,7698.141797
562.106526,5255.462188,0.000000,9104.533087
562.106851,4959.379811,229.828649,10807.006753
562.107177,4071.132681,1762.019645,10881.027347
562.107502,3923.091493,919.314598,10288.862594
562.107827,740.205942,-383.047749,9548.656652
562.108152,-1406.391290,-306.438199,8512.368333
562.108477,-444.123565,-612.876398,8512.368333
562.108802,-1184.329507,-383.047749,7402.059420
562.109127,-4737.318029,-1225.752797,8586.388927
562.109452,-4219.173869,-919.314598,9400.615463
562.109777,-1776.494261,306.438199,9400.615463
562.110103,-3775.050304,-612.876398,9548.656652
562.110428,-5551.544565,-1762.019645,9178.553681
562.110753,-3330.926739,-842.705048,7476.080014
562.111078,222.061783,1532.190996,9770.718434
562.111403,370.102971,995.924147,9474.636058
562.111728,-2220.617826,1532.190996,7402.059420
562.112053,1332.370696,1302.362347,7031.956449
562.112378,3552.988522,4903.011187,9844.739029
562.112703,1258.350101,3140.991542,12139.377449
562.113028,222.061783,1685.410096,9474.636058
562.113354,2368.659014,1302.362347,8734.430116
562.113679,2960.823768,2681.334243,9548.656652
562.114004,592.164754,2911.162892,9696.697840
562.114329,0.000000,1072.533697,8882.471304
562.114654,888.247130,1072.533697,9844.739029
562.114979,666.185348,2681.334243,10955.047942
562.115304,-1258.350101,3524.039291,10362.883188
562.115629,-962.267725,1225.752797,8660.409521
562.115954,-740.205942,-842.705048,7402.059420
562.116280,-3108.864956,-153.219100,8882.471304
562.116605,-4737.318029,-229.828649,9474.636058
562.116930,-3849.070898,-766.095498,9622.677246
562.117255,-2294.638420,-842.705048,9030.512492
562.117580,-2738.761985,612.876398,10955.047942
562.117905,-3404.947333,-306.438199,8660.409521
562.118230,-1480.411884,-2374.896044,5329.482782
562.118555,0.000000,-842.705048,7179.997637
562.118880,-1480.411884,1378.971896,9696.697840
562.119206,-444.123565,536.266849,7994.224174
562.119531,1554.432478,-1225.752797,8956.491898
562.119856,518.144159,-612.876398,9992.780217
562.120181,148.041188,689.485948,10955.047942
562.120506,2516.700203,689.485948,9400.615463
562.120831,4441.235652,-1532.190996,8660.409521
562.121156,2738.761985,-1302.362347,10436.903782
562.121481,3034.844362,995.924147,10140.821405
562.121806,5699.585753,1455.581446,10732.986159
562.122131,6439.791695,689.485948,10732.986159
562.122457,2442.679609,1149.143247,12139.377449
562.122782,2442.679609,1149.143247,9326.594869
562.123107,5255.462188,919.314598,7772.162391
562.123432,2886.803174,0.000000,9400.615463
562.123757,-1184.329507,383.047749,9548.656652
562.124082,-1998.556043,1302.362347,8660.409521
562.124407,518.144159,689.485948,9622.677246
562.124732,-1702.473667,306.438199,10658.965565
562.125057,-6735.874072,-306.438199,10140.821405
562.125383,-6291.750507,-1762.019645,5477.523971
562.125708,-2368.659014,-2451.505594,6365.771101
562.126033,-4811.338623,-306.438199,9622.677246
562.126358,-5477.523971,919.314598,8660.409521
562.126683,-2368.659014,153.219100,7920.203579
562.127008,444.123565,766.095498,9252.574275
562.127333,-888.247130,2604.724693,10732.986159
562.127658,-1776.494261,2451.505594,8808.450710
562.127983,3182.885551,2145.067394,7550.100608
562.128309,3627.009116,1685.410096,8734.430116
562.128634,1776.494261,2834.553343,9030.512492
562.128959,1628.453072,4060.306139,9326.594869
562.129284,5329.482782,3983.696590,9622.677246
562.129609,3478.967927,3983.696590,12287.418637
562.129934,370.102971,995.924147,11399.171507
562.130259,-296.082377,1225.752797,7772.162391
562.130584,296.082377,153.219100,7698.141797
562.130909,-2146.597232,1225.752797,9992.780217
562.131234,-3701.029710,383.047749,9400.615463
562.131560,-2220.617826,1072.533697,9178.553681
562.131885,-1110.308913,766.095498,8956.491898
562.132210,-4737.318029,-689.485948,9030.512492
562.132535,-6365.771101,-306.438199,7624.121203
562.132860,-2738.761985,-76.609550,7994.224174
562.133185,-888.247130,-919.314598,8586.388927
562.133510,-2738.761985,-2145.067394,9400.615463
562.133835,-1924.535449,-1608.800546,8808.450710
562.134160,1110.308913,536.266849,9474.636058
562.134486,814.226536,459.657299,11325.150913
562.134811,-1110.308913,-1225.752797,11621.233289
562.135136,1480.411884,-2374.896044,8216.285956
562.135461,4071.132681,-306.438199,8882.471304
562.135786,3701.029710,0.000000,10288.862594
562.136111,1406.391290,153.219100,9918.759623
562.136436,3108.864956,76.609550,9992.780217
562.136761,6217.729913,1685.410096,11029.068536
562.137086,3923.091493,1762.019645,11621.233289
562.137412,2220.617826,229.828649,9178.553681
562.137737,4737.318029,459.657299,6883.915261
562.138062,4145.153275,612.876398,8956.491898
562.138387,296.082377,536.266849,9992.780217
562.138712,-1036.288319,229.828649,9770.718434
562.139037,2368.659014,842.705048,9474.636058
562.139362,814.226536,1378.971896,9918.759623
562.139687,-3256.906145,-306.438199,8734.430116
562.140012,-3478.967927,153.219100,6291.750507
562.140337,592.164754,306.438199,6513.812290
562.140663,-2516.700203,459.657299,9770.718434
562.140988,-5181.441594,-766.095498,9548.656652
562.141313,-2886.803174,153.219100,7624.121203
562.141638,-518.144159,1762.019645,9696.697840
562.141963,-2442.679609,2145.067394,10732.986159
562.142288,-2664.741391,842.705048,7846.182985
562.142613,814.226536,0.000000,7105.977043
562.142938,2590.720797,1762.019645,9474.636058
562.143263,740.205942,2528.115143,10881.027347
562.143589,592.164754,2911.162892,9548.656652
562.143914,3552.988522,2911.162892,9696.697840
562.144239,3108.864956,2911.162892,11843.295072
562.144564,1850.514855,2528.115143,10658.965565
562.144889,1184.329507,2451.505594,8808.450710
562.145214,1480.411884,766.095498,6513.812290
562.145539,-814.226536,459.657299,9104.533087
562.145864,-1036.288319,689.485948,10214.842000
562.146189,-740.205942,2528.115143,10436.903782
562.146514,-222.061783,1302.362347,10140.821405
562.146840,-2664.741391,612.876398,10881.027347
562.147165,-3330.926739,-153.219100,7550.100608
562.147490,-2294.638420,766.095498,6291.750507
562.147815,-3330.926739,-383.047749,6809.894666
562.148140,-4663.297435,-1072.533697,6217.729913
562.148465,-2738.761985,153.219100,7031.956449
562.148790,-444.123565,2298.286494,11325.150913
562.149115,-1776.494261,1225.752797,11177.109724
562.149440,-4589.276840,-1455.581446,9326.594869
562.149766,-1850.514855,-3830.477490,6809.894666
562.150091,740.205942,-2528.115143,9104.533087
562.150416,444.123565,-612.876398,10214.842000
562.150741,518.144159,1072.533697,10955.047942
562.151066,3627.009116,842.705048,12361.439231
562.151391,5403.503377,1762.019645,12435.459826
562.151716,3627.009116,1225.752797,10658.965565
562.152041,3997.112087,0.000000,6513.812290
562.152366,4367.215058,1455.581446,7105.977043
562.152692,5403.503377,2221.676944,10807.006753
562.153017,3701.029710,459.657299,12435.459826
562.153342,740.205942,-1378.971896,10140.821405
562.153667,1406.391290,-612.876398,10066.800811
562.153992,518.144159,995.924147,11991.336260
562.154317,-2812.782580,0.000000,10066.800811
562.154642,-2072.576638,-3064.381992,5921.647536
562.154967,-740.205942,-3370.820191,6735.874072
562.155292,-2146.597232,536.266849,8734.430116
562.155617,-2738.761985,2451.505594,8734.430116
562.155943,-1924.535449,153.219100,8216.285956
562.156268,-1628.453072,-1149.143247,8364.327145
562.156593,-2516.700203,689.485948,9030.512492
562.156918,-2072.576638,1072.533697,8290.306550
562.157243,814.226536,306.438199,7550.100608
562.157568,1702.473667,153.219100,8586.388927
562.157893,0.000000,1225.752797,10955.047942
562.158218,222.061783,1149.143247,9474.636058
562.158543,3256.906145,1532.190996,9992.780217
562.158869,2516.700203,2145.067394,11991.336260
562.159194,1036.288319,2451.505594,11325.150913
562.159519,2146.597232,919.314598,8290.306550
562.159844,3849.070898,995.924147,6809.894666
562.160169,2590.720797,3370.820191,8882.471304
562.160494,740.205942,3447.429741,9622.677246
562.160819,1184.329507,3140.991542,10436.903782
562.161144,74.020594,2145.067394,10732.986159
562.161469,-2516.700203,995.924147,10732.986159
562.161795,-2886.803174,306.438199,6957.935855
562.162120,-962.267725,0.000000,6809.894666
562.162445,-3923.091493,0.000000,10584.944971
562.162770,-6883.915261,-536.266849,9622.677246
562.163095,-4811.338623,-1072.533697,8586.388927
562.163420,-1998.556043,-612.876398,9474.636058
562.163745,-3775.050304,919.314598,9474.636058
562.164070,-4737.318029,842.705048,7550.100608
562.164395,-1554.432478,-1149.143247,6217.729913
562.164720,592.164754,-306.438199,7624.121203
562.165046,-1258.350101,995.924147,9844.739029
562.165371,-962.267725,1608.800546,8882.471304
562.165696,2738.761985,1302.362347,8956.491898
562.166021,4589.276840,842.705048,11843.295072
562.166346,3330.926739,1302.362347,11769.274478
562.166671,2368.659014,612.876398,7920.203579
562.166996,4441.235652,0.000000,8068.244768
562.167321,4367.215058,1072.533697,10732.986159
562.167646,2516.700203,1149.143247,10658.965565
562.167972,3108.864956,153.219100,9030.512492
562.168297,4367.215058,1149.143247,10584.944971
562.168622,2590.720797,1915.238745,11251.130318
562.168947,222.061783,1225.752797,8586.388927
562.169272,-444.123565,-1608.800546,7179.997637
562.169597,-740.205942,-1302.362347,7550.100608
562.169922,-1850.514855,0.000000,8734.430116
562.170247,-2294.638420,-1072.533697,10214.842000
562.170572,-1110.308913,-1762.019645,10214.842000
562.170898,-3182.885551,-842.705048,11029.068536
562.171223,-2886.803174,-766.095498,9918.759623
562.171548,-1924.535449,-2221.676944,8216.285956
562.171873,-444.123565,-1455.581446,8068.244768
562.172198,1628.453072,1225.752797,8808.450710
562.172523,370.102971,2374.896044,10066.800811
562.172848,518.144159,153.219100,9622.677246
562.173173,1998.556043,-306.438199,9474.636058
562.173498,666.185348,1072.533697,10140.821405
562.173823,-1480.411884,2068.457845,10066.800811
562.174149,1924.535449,153.219100,8290.306550
562.174474,3552.988522,-153.219100,8512.368333
562.174799,740.205942,306.438199,9622.677246
562.175124,-814.226536,2451.505594,10066.800811
562.175449,2368.659014,2374.896044,8956.491898
562.175774,2368.659014,1915.238745,9844.739029
562.176099,-1628.453072,766.095498,8660.409521
562.176424,-3182.885551,2528.115143,6883.915261
562.176749,296.082377,1455.581446,6883.915261
562.177075,-1332.370696,306.438199,8660.409521
562.177400,-5625.565159,-1532.190996,11103.089130
562.177725,-4441.235652,229.828649,10807.006753
562.178050,-1850.514855,1455.581446,10955.047942
562.178375,-2960.823768,-842.705048,11177.109724
562.178700,-5773.606348,-2528.115143,9252.574275
562.179025,-3404.947333,-1532.190996,7254.018232
562.179350,2146.597232,3370.820191,9030.512492
562.179675,1554.432478,2987.772442,9622.677246
562.180001,-2590.720797,306.438199,8734.430116
562.180326,74.020594,612.876398,7105.977043
562.180651,1628.453072,4443.353888,8438.347739
562.180976,-222.061783,2145.067394,9326.594869
562.181301,148.041188,-766.095498,7402.059420
562.181626,1998.556043,-306.438199,8068.244768
562.181951,2368.659014,1685.410096,10362.883188
562.182276,1258.350101,766.095498,10807.006753
562.182601,1554.432478,-995.924147,9844.739029
562.182926,3775.050304,766.095498,9474.636058
562.183252,3256.906145,2145.067394,10955.047942
562.183577,3034.844362,1225.752797,10140.821405
562.183902,4145.153275,459.657299,8808.450710
562.184227,2516.700203,689.485948,9326.594869
562.184552,0.000000,919.314598,9104.533087
562.184877,0.000000,-459.657299,9104.533087
562.185202,592.164754,-612.876398,9992.780217
562.185527,-444.123565,766.095498,12509.480420
562.185852,-2516.700203,0.000000,11029.068536
562.186178,-2368.659014,-2911.162892,7402.059420
562.186503,-444.123565,-3064.381992,7105.977043
562.186828,-2146.597232,0.000000,9178.553681
562.187153,-4071.132681,995.924147,10066.800811
562.187478,-1184.329507,-919.314598,9400.615463
562.187803,2368.659014,-689.485948,8660.409521
562.188128,666.185348,2374.896044,9474.636058
562.188453,0.000000,2911.162892,7254.018232
562.188778,2368.659014,689.485948,5847.626942
562.189104,3404.947333,0.000000,8586.388927
562.189429,1332.370696,1991.848295,11251.130318
562.189754,74.020594,2757.943793,10732.986159
562.190079,4145.153275,1762.019645,7994.224174
562.190404,4441.235652,1302.362347,11251.130318
562.190729,-370.102971,919.314598,12435.459826
562.191054,-2368.659014,842.705048,9844.739029
562.191379,1258.350101,-766.095498,7179.997637
562.191704,-296.082377,306.438199,9918.759623
562.192029,-3478.967927,842.705048,11177.109724
562.192355,-3256.906145,2145.067394,8882.471304
562.192680,-518.144159,229.828649,8660.409521
562.193005,-2738.761985,536.266849,9844.739029
562.193330,-5921.647536,459.657299,9400.615463
562.193655,-3701.029710,689.485948,6291.750507
562.193980,-1480.411884,383.047749,6217.729913
562.194305,-3182.885551,-1302.362347,9104.533087
562.194630,-4219.173869,383.047749,10066.800811
562.194955,-592.164754,1608.800546,8438.347739
562.195281,0.000000,1685.410096,10658.965565
562.195606,-2368.659014,-536.266849,10658.965565
562.195931,-370.102971,0.000000,7105.977043
562.196256,2738.761985,1455.581446,5995.668130
562.196581,2146.597232,2834.553343,9178.553681
562.196906,0.000000,2528.115143,8956.491898
562.197231,3701.029710,1608.800546,7476.080014
562.197556,2886.803174,1302.362347,8808.450710
562.197881,666.185348,536.266849,10658.965565
562.198206,0.000000,536.266849,9844.739029
562.198532,3182.885551,0.000000,9918.759623
562.198857,4737.318029,459.657299,12583.501014
562.199182,2590.720797,-306.438199,12065.356855
562.199507,2146.597232,0.000000,10436.903782
562.199832,5477.523971,229.828649,10881.027347
562.200157,2664.741391,2451.505594,13397.727550
562.200482,-1258.350101,536.266849,10658.965565
562.200807,592.164754,-1838.629195,7402.059420
562.201132,1406.391290,-919.314598,7031.956449
562.201458,-1554.432478,1302.362347,10510.924376
562.201783,-4145.153275,-766.095498,9252.574275
562.202108,-2960.823768,-2834.553343,7402.059420
562.202433,-370.102971,-2068.457845,10288.862594
562.202758,-2812.782580,1915.238745,11325.150913
562.203083,-4071.132681,0.000000,6513.812290
562.203408,-962.267725,-1991.848295,4293.194464
562.203733,1258.350101,-1225.752797,6957.935855
562.204058,-1702.473667,3983.696590,9030.512492
562.204383,1110.308913,3447.429741,7698.141797
562.204708,4145.153275,1608.800546,8660.409521
562.205034,3997.112087,2451.505594,9548.656652
562.205359,1702.473667,3600.648841,8956.491898
562.205684,2294.638420,1762.019645,8512.368333
562.206009,4441.235652,1302.362347,9030.512492
562.206334,3182.885551,1991.848295,12065.356855
562.206659,222.061783,1915.238745,12731.542202
562.206984,74.020594,766.095498,10584.944971
562.207309,1110.308913,229.828649,10288.862594
562.207634,-2072.576638,689.485948,11399.171507
562.207959,-5329.482782,306.438199,10658.965565
562.208284,-4219.173869,-1072.533697,7772.162391
562.208609,-3997.112087,-383.047749,8660.409521
562.208935,-6143.709319,-536.266849,8438.347739
562.209260,-6291.750507,0.000000,8290.306550
562.209585,-3552.988522,0.000000,8438.347739
562.209910,-3182.885551,306.438199,10288.862594
562.210235,-4737.318029,-306.438199,10362.883188
562.210560,-1850.514855,-689.485948,6883.915261
562.210885,1628.453072,-919.314598,6883.915261
562.211210,-296.082377,995.924147,8882.471304
562.211535,-740.205942,1685.410096,8364.327145
562.211860,2664.741391,842.705048,9844.739029
562.212185,4737.318029,612.876398,9770.718434
562.212510,2072.576638,2145.067394,10214.842000
562.212836,1036.288319,1762.019645,9178.553681
562.213161,3997.112087,1072.533697,6365.771101
562.213486,4959.379811,306.438199,8734.430116
562.213811,1036.288319,1302.362347,10658.965565
562.214136,1480.411884,1378.971896,9326.594869
562.214461,4145.153275,383.047749,9548.656652
562.214786,1258.350101,306.438199,12435.459826
562.215111,-1924.535449,-1378.971896,11695.253884
562.215436,370.102971,-1072.533697,7920.203579
562.215761,1924.535449,-919.314598,9548.656652
562.216086,0.000000,-1225.752797,11843.295072
562.216412,-3108.864956,-612.876398,8808.450710
562.216737,-1258.350101,-383.047749,8660.409521
562.217062,2220.617826,0.000000,9918.759623
562.217387,-888.247130,1532.190996,10584.944971
562.217712,-1702.473667,689.485948,8068.244768
562.218037,888.247130,1072.533697,7772.162391
562.218362,1110.308913,76.609550,8438.347739
562.218687,-1850.514855,383.047749,9474.636058
562.219012,74.020594,76.609550,8660.409521
562.219337,592.164754,2145.067394,9474.636058
562.219662,1332.370696,2528.115143,10288.862594
562.219987,-370.102971,1608.800546,8808.450710
562.220313,-814.226536,-306.438199,5625.565159
562.220638,814.226536,1991.848295,7328.038826
562.220963,1776.494261,3294.210641,9622.677246
562.221288,740.205942,1685.410096,8956.491898
562.221613,2072.576638,76.609550,9030.512492
562.221938,1258.350101,2757.943793,10584.944971
562.222263,0.000000,4519.963438,11103.089130
562.222588,-148.041188,1302.362347,11325.150913
562.222913,814.226536,-1378.971896,9400.615463
562.223238,-1480.411884,766.095498,10140.821405
562.223563,-2886.803174,1532.190996,9622.677246
562.223888,-3108.864956,0.000000,8808.450710
562.224214,-2220.617826,0.000000,9178.553681
562.224539,-2590.720797,1378.971896,10955.047942
562.224864,-5181.441594,842.705048,9696.697840
562.225189,-3997.112087,-1225.752797,7698.141797
562.225514,-2368.659014,-1762.019645,7772.162391
562.225839,-4441.235652,-383.047749,8512.368333
562.226164,-5921.647536,0.000000,7402.059420
562.226489,-1258.350101,-536.266849,7179.997637
562.226814,1776.494261,1838.629195,9696.697840
562.227139,74.020594,1685.410096,11843.295072
562.227464,-2368.659014,306.438199,7772.162391
562.227790,4589.276840,-766.095498,5107.421000
562.228115,6439.791695,2451.505594,9326.594869
562.228440,2590.720797,1838.629195,10288.862594
562.228765,1924.535449,306.438199,8956.491898
562.229090,7920.203579,1302.362347,9474.636058
562.229415,5477.523971,2604.724693,13915.871710
562.229740,1184.329507,459.657299,11695.253884
562.230065,2960.823768,-1762.019645,7624.121203
562.230390,6217.729913,-229.828649,9474.636058
562.230715,2886.803174,1762.019645,13101.645173
562.231040,-962.267725,153.219100,11473.192101
562.231365,222.061783,-2145.067394,6883.915261
562.231691,1258.350101,689.485948,8660.409521
562.232016,-1776.494261,1225.752797,11843.295072
562.232341,-3182.885551,0.000000,9696.697840
562.232666,-1406.391290,-2528.115143,6439.791695
562.232991,-2516.700203,-1455.581446,9696.697840
562.233316,-3552.988522,1072.533697,9030.512492
562.233641,-1628.453072,995.924147,6957.935855
562.233966,1554.432478,-76.609550,8216.285956
562.234291,444.123565,1762.019645,11103.089130
562.234616,-222.061783,3753.867940,10362.883188
562.234941,2590.720797,1762.019645,7772.162391
562.235266,3775.050304,0.000000,7105.977043
562.235592,1332.370696,2068.457845,8734.430116
562.235917,1406.391290,4290.134789,9918.759623
562.236242,4367.215058,2911.162892,9104.533087
562.236567,3552.988522,1685.410096,10584.944971
562.236892,-296.082377,1762.019645,9252.574275
562.237217,-1924.535449,2451.505594,7179.997637
562.237542,-592.164754,1149.143247,8364.327145
562.237867,-2368.659014,1378.971896,10732.986159
562.238192,-4885.359217,-689.485948,9474.636058
562.238517,-4145.153275,-1762.019645,8216.285956
562.238842,-1776.494261,306.438199,11251.130318
562.239168,-3108.864956,1991.848295,12805.562797
562.239493,-4737.318029,-1302.362347,10214.842000
562.239818,-5255.462188,-4596.572988,7476.080014
562.240143,-3256.906145,-2987.772442,9622.677246
562.240468,-3552.988522,1608.800546,10214.842000
562.240793,-4737.318029,459.657299,9770.718434
562.241118,-1110.308913,-2298.286494,7254.018232
562.241443,222.061783,-459.657299,8660.409521
562.241768,-1480.411884,2374.896044,9326.594869
562.242093,-666.185348,1608.800546,8216.285956
562.242418,962.267725,-536.266849,7328.038826
562.242743,1850.514855,-306.438199,8216.285956
562.243069,1406.391290,0.000000,9252.574275
562.243394,1628.453072,229.828649,7179.997637
562.243719,4515.256246,1532.190996,8882.471304
562.244044,5625.565159,2068.457845,10881.027347
562.244369,1776.494261,766.095498,10732.986159
562.244694,2368.659014,-689.485948,7402.059420
562.245019,3997.112087,612.876398,6809.894666
562.245344,1998.556043,842.705048,9252.574275
562.245669,1554.432478,0.000000,10658.965565
562.245994,2664.741391,-229.828649,13397.727550
562.246319,1924.535449,995.924147,14434.015869
562.246644,888.247130,-383.047749,12065.356855
562.246970,222.061783,-2451.505594,8364.327145
562.247295,814.226536,-995.924147,7698.141797
562.247620,962.267725,3064.381992,10436.903782
562.247945,-2072.576638,1685.410096,10436.903782
562.248270,-2146.597232,-1608.800546,9178.553681
562.248595,-370.102971,-766.095498,8586.388927
562.248920,-2590.720797,2681.334243,9770.718434
562.249245,-3627.009116,1455.581446,8290.306550
562.249570,-666.185348,-612.876398,6957.935855
562.249895,0.000000,0.000000,9030.512492
562.250220,-666.185348,3370.820191,9326.594869
562.250546,-222.061783,3294.210641,6069.688724
562.250871,3256.906145,1991.848295,6217.729913
562.251196,4959.379811,4366.744339,9326.594869
562.251521,1850.514855,5822.325785,11251.130318
562.251846,1850.514855,3447.429741,8734.430116
562.252171,4663.297435,1378.971896,7402.059420
562.252496,2886.803174,3140.991542,7624.121203
562.252821,-1258.350101,4443.353888,7772.162391
562.253146,-1480.411884,1608.800546,8068.244768
562.253471,-222.061783,-919.314598,9474.636058
562.253796,-2590.720797,1915.238745,13397.727550
562.254121,-6069.688724,2068.457845,13471.748144
562.254447,-4811.338623,-995.924147,7698.141797
562.254772,-2368.659014,-3217.601092,6957.935855
562.255097,-5107.421000,-1915.238745,11325.150913
562.255422,-6439.791695,2374.896044,11325.150913
562.255747,-2960.823768,2221.676944,7772.162391
562.256072,-148.041188,0.000000,7846.182985
562.256397,-3108.864956,-919.314598,9548.656652
562.256722,-6439.791695,-689.485948,7698.141797
562.257047,-1998.556043,-1838.629195,7846.182985
562.257372,0.000000,-3140.991542,9992.780217
562.257697,-2146.597232,-3907.087040,10955.047942
562.258022,1110.308913,-459.657299,10140.821405
562.258348,6809.894666,2068.457845,8956.491898
562.258673,6661.853478,612.876398,9844.739029
562.258998,5033.400406,-1072.533697,9326.594869
562.259323,8290.306550,1685.410096,8216.285956
562.259648,8956.491898,4136.915689,8068.244768
562.259973,5847.626942,842.705048,10066.800811
562.260298,2960.823768,-2451.505594,9548.656652
562.260623,3330.926739,-1838.629195,10732.986159
562.260948,444.123565,-612.876398,13619.789333
562.261273,-2812.782580,-2298.286494,12213.398043
562.261598,-3330.926739,-5592.497135,10436.903782
562.261924,-2368.659014,-7660.954980,9474.636058
562.262249,-4663.297435,-4596.572988,9770.718434
562.262574,-6069.688724,-2604.724693,9770.718434
562.262899,-3256.906145,-153.219100,8660.409521
562.263224,148.041188,76.609550,9918.759623
562.263549,-962.267725,766.095498,10288.862594
562.263874,-2368.659014,153.219100,6661.853478
562.264199,-666.185348,459.657299,7476.080014
562.264524,1924.535449,3064.381992,9030.512492
562.264849,74.020594,3140.991542,10066.800811
562.265174,-666.185348,1378.971896,8216.285956
562.265499,2442.679609,2681.334243,7402.059420
562.265825,3775.050304,5286.058936,10658.965565
562.266150,1776.494261,5132.839837,11325.150913
562.266475,1998.556043,3370.820191,7105.977043
562.266800,5181.441594,3064.381992,6291.750507
562.267125,5329.482782,5592.497135,8364.327145
562.267450,2294.638420,5822.325785,8586.388927
562.267775,2368.659014,5132.839837,8734.430116
562.268100,3330.926739,5439.278036,10288.862594
562.268425,-370.102971,4979.620737,10807.006753
562.268750,-3552.988522,3294.210641,10214.842000
562.269075,-3627.009116,1302.362347,8734.430116
562.269400,-4737.318029,1608.800546,8586.388927
562.269726,-7402.059420,0.000000,8808.450710
562.270051,-8216.285956,-1072.533697,7550.100608
562.270376,-5033.400406,919.314598,8586.388927
562.270701,-3997.112087,2068.457845,9030.512492
562.271026,-5699.585753,842.705048,8438.347739
562.271351,-4367.215058,-919.314598,9178.553681
562.271676,-1258.350101,153.219100,7772.162391
562.272001,222.061783,1991.848295,6957.935855
562.272326,740.205942,306.438199,8068.244768
562.272651,2220.617826,842.705048,9252.574275
562.272976,3034.844362,3907.087040,11103.089130
562.273302,4441.235652,1915.238745,10066.800811
562.273627,6587.832884,-536.266849,7772.162391
562.273952,7254.018232,-306.438199,8216.285956
562.274277,7994.224174,2681.334243,9178.553681
562.274602,5181.441594,1149.143247,12139.377449
562.274927,4071.132681,-2451.505594,11103.089130
562.275252,4885.359217,-2451.505594,10214.842000
562.275577,3256.906145,-1225.752797,10807.006753
562.275902,888.247130,-1302.362347,9770.718434
562.276227,-1258.350101,-3370.820191,10066.800811
562.276552,-1554.432478,-5209.449386,10288.862594
562.276877,-3108.864956,-5056.230287,11917.315666
562.277203,-5625.565159,-5822.325785,9400.615463
562.277528,-5255.462188,-6358.592633,7846.182985
562.277853,-2516.700203,-4443.353888,10288.862594
562.278178,-3552.988522,-1915.238745,13471.748144
562.278503,-4885.359217,-2681.334243,11473.192101
562.278828,-2812.782580,-5362.668486,7994.224174
562.279153,-666.185348,-5975.544884,7402.059420
562.279478,-2072.576638,-1608.800546,9474.636058
562.279803,-1480.411884,1608.800546,8808.450710
562.280128,1406.391290,919.314598,10140.821405
562.280453,3849.070898,-536.266849,10584.944971
562.280778,2220.617826,459.657299,8512.368333
562.281104,1998.556043,1991.848295,5477.523971
562.281429,4219.173869,2987.772442,5847.626942
562.281754,3701.029710,2528.115143,9474.636058
562.282079,1332.370696,2604.724693,9474.636058
562.282404,2738.761985,3447.429741,9548.656652
562.282729,3330.926739,4290.134789,9622.677246
562.283054,888.247130,4596.572988,8364.327145
562.283379,-740.205942,1608.800546,8438.347739
562.283704,-1480.411884,2068.457845,8512.368333
562.284029,-2072.576638,3677.258390,9992.780217
562.284354,-2960.823768,2987.772442,10436.903782
562.284680,-3182.885551,-612.876398,8882.471304
562.285005,-5033.400406,229.828649,9992.780217
562.285330,-7031.956449,3294.210641,11399.171507
562.285655,-7476.080014,2604.724693,12139.377449
562.285980,-5773.606348,-612.876398,9474.636058
562.286305,-3627.009116,-1762.019645,7031.956449
562.286630,-4293.194464,3217.601092,7550.100608
562.286955,-5107.421000,5439.278036,7402.059420
562.287280,-2072.576638,2374.896044,7402.059420
562.287605,1998.556043,1685.410096,7846.182985
562.287930,0.000000,4979.620737,10881.027347
562.288255,148.041188,6052.154434,7476.080014
562.288581,4663.297435,3447.429741,5477.523971
562.288906,6439.791695,1302.362347,7031.956449
562.289231,2886.803174,2451.505594,9622.677246
562.289556,2442.679609,3907.087040,8068.244768
562.289881,6661.853478,1762.019645,8882.471304
562.290206,7031.956449,1149.143247,11177.109724
562.290531,2812.782580,2528.115143,11843.295072
562.290856,2738.761985,1149.143247,8808.450710
562.291181,5847.626942,-995.924147,8216.285956
562.291506,3775.050304,-2068.457845,11547.212695
562.291831,-1332.370696,-306.438199,14211.954086
562.292156,-2886.803174,-1149.143247,12509.480420
562.292482,-1998.556043,-3294.210641,10066.800811
562.292807,-4885.359217,-4979.620737,11325.150913
562.293132,-9252.574275,-5056.230287,11991.336260
562.293457,-7846.182985,-5898.935335,7994.224174
562.293782,-5699.585753,-7277.907231,8586.388927
562.294107,-6809.894666,-7584.345430,9770.718434
562.294432,-10140.821405,-5439.278036,9992.780217
562.294757,-6587.832884,-3064.381992,7846.182985
562.295082,-814.226536,-2987.772442,7328.038826
562.295407,74.020594,-2834.553343,9178.553681
562.295732,-592.164754,-1915.238745,7402.059420
562.296058,3034.844362,306.438199,5255.462188
562.296383,5921.647536,-153.219100,7254.018232
562.296708,3256.906145,-842.705048,9696.697840
562.297033,2368.659014,-1225.752797,9696.697840
562.297358,2738.761985,-766.095498,10510.924376
562.297683,2590.720797,-1838.629195,9992.780217
562.298008,0.000000,-2145.067394,10214.842000
562.298333,-1406.391290,-3140.991542,9400.615463
562.298658,-2368.659014,-2757.943793,9104.533087
562.298983,-5477.523971,-2298.286494,11473.192101
562.299308,-8438.347739,-4596.572988,9918.759623
562.299633,-10362.883188,-6128.763984,10288.862594
562.299959,-11991.336260,-7354.516781,12509.480420
562.300284,-13767.830521,-6971.469032,9918.759623
562.300609,-10881.027347,-7354.516781,8808.450710
562.300934,-8586.388927,-7124.688131,9992.780217
562.301259,-8438.347739,-2834.553343,10436.903782
562.301584,-7846.182985,-536.266849,9178.553681
562.301909,-5181.441594,-1072.533697,8364.327145
562.302234,-2516.700203,-2604.724693,8290.306550
562.302559,-2072.576638,-919.314598,9400.615463
562.302884,0.000000,1532.190996,8808.450710
562.303209,2072.576638,306.438199,8660.409521
562.303534,3552.988522,-153.219100,8142.265362
562.303859,4811.338623,1149.143247,7550.100608
562.304185,5625.565159,4826.401637,8142.265362
562.304510,5995.668130,4903.011187,9030.512492
562.304835,4737.318029,1532.190996,9030.512492
562.305160,2960.823768,-1532.190996,7105.977043
562.305485,74.020594,0.000000,5995.668130
562.305810,-2146.597232,612.876398,7550.100608
562.306135,-1628.453072,-995.924147,9030.512492
562.306460,-1480.411884,-3064.381992,9474.636058
562.306785,-2220.617826,-2681.334243,12213.398043
562.307110,-2960.823768,-306.438199,11251.130318
562.307435,-2146.597232,306.438199,9252.574275
562.307760,-296.082377,-1915.238745,9622.677246
562.308085,-2294.638420,-2451.505594,9474.636058
562.308410,-3923.091493,-612.876398,10658.965565
562.308735,-2664.741391,-383.047749,11103.089130
562.309061,-2516.700203,-2298.286494,11843.295072
562.309386,-4515.256246,-4290.134789,11695.253884
562.309711,-4071.132681,-3983.696590,9474.636058
562.310036,-2220.617826,-1532.190996,9844.739029
562.310361,0.000000,1149.143247,9622.677246
562.310686,518.144159,1991.848295,8734.430116
562.311011,296.082377,2068.457845,7698.141797
562.311336,1406.391290,3064.381992,6291.750507
562.311661,888.247130,2834.553343,7105.977043
562.311986,-518.144159,153.219100,7402.059420
562.312311,-1998.556043,-1225.752797,7476.080014
562.312636,-3108.864956,-383.047749,10066.800811
562.312961,-3404.947333,-153.219100,9104.533087
562.313286,-4145.153275,-2221.676944,8438.347739
562.313611,-5181.441594,-4443.353888,7105.977043
562.313936,-3997.112087,-2757.943793,7772.162391
562.314262,-2442.679609,995.924147,10066.800811
562.314587,-1258.350101,1302.362347,10658.965565
562.314912,-1332.370696,-153.219100,10658.965565
562.315237,-3627.009116,-1532.190996,9696.697840
562.315562,-4737.318029,-2068.457845,9770.718434
562.315887,-5477.523971,-2834.553343,10807.006753
562.316212,-7698.141797,-4979.620737,12583.501014
562.316537,-8512.368333,-6358.592633,13175.665768
562.316862,-6957.935855,-6818.249932,12509.480420
562.317187,-7031.956449,-6665.030833,10214.842000
562.317512,-6957.935855,-4749.792088,9400.615463
562.317837,-5107.421000,-3830.477490,7772.162391
562.318162,-1258.350101,-306.438199,6143.709319
562.318487,2368.659014,1762.019645,7105.977043
562.318812,2294.638420,2145.067394,7624.121203
562.319137,1480.411884,2451.505594,6661.853478
562.319463,3775.050304,459.657299,6809.894666
562.319788,3923.091493,-919.314598,7846.182985
562.320113,1628.453072,-2451.505594,9030.512492
562.320438,1480.411884,-3524.039291,9474.636058
562.320763,1776.494261,-3294.210641,11251.130318
562.321088,1036.288319,-3600.648841,11325.150913
562.321413,148.041188,-3830.477490,10510.924376
562.321738,148.041188,-2681.334243,9548.656652
562.322063,444.123565,383.047749,9400.615463
562.322388,148.041188,-306.438199,10140.821405
562.322713,-2146.597232,-1225.752797,10881.027347
562.323038,-3627.009116,-1302.362347,9474.636058
562.323363,-4663.297435,-383.047749,9696.697840
562.323688,-5995.668130,-1455.581446,10214.842000
562.324013,-7031.956449,-3907.087040,10362.883188
562.324339,-8808.450710,-6588.421283,11029.068536
562.324664,-9770.718434,-7814.174080,11547.212695
562.324989,-8808.450710,-7890.783629,10288.862594
562.325314,-6069.688724,-7431.126331,9770.718434
562.325639,-4145.153275,-4366.744339,9844.739029
562.325964,-888.247130,229.828649,9400.615463
562.326289,2812.782580,3217.601092,8586.388927
562.326614,5773.606348,3830.477490,7179.997637
562.326939,6291.750507,5515.887586,7105.977043
562.327264,6957.935855,7507.735880,5995.668130
562.327589,5847.626942,7124.688131,5773.606348
562.327914,2960.823768,3830.477490,6883.915261
562.328239,-1998.556043,689.485948,8142.265362
562.328564,-6291.750507,-1225.752797,8808.450710
562.328889,-8586.388927,-2911.162892,8956.491898
562.329214,-9844.739029,-6741.640382,10214.842000
562.329540,-11399.171507,-9116.536426,10658.965565
562.329865,-10584.944971,-9576.193725,11177.109724
562.330190,-8438.347739,-7201.297681,12435.459826
562.330515,-5921.647536,-3907.087040,12361.439231
562.330840,-3256.906145,-766.095498,11251.130318
562.331165,-370.102971,689.485948,9844.739029
562.331490,2442.679609,2834.553343,8956.491898
562.331815,4441.235652,4596.572988,9844.739029
562.332140,4071.132681,4366.744339,9474.636058
562.332465,3034.844362,3370.820191,7698.141797
562.332790,2294.638420,2068.457845,7994.224174
562.333115,370.102971,1072.533697,7698.141797
562.333440,-2886.803174,-536.266849,7476.080014
562.333765,-5847.626942,-3217.601092,7550.100608
562.334090,-5773.606348,-5132.839837,7105.977043
562.334415,-5255.462188,-5822.325785,7994.224174
562.334741,-4959.379811,-5362.668486,8512.368333
562.335066,-4737.318029,-4136.915689,8734.430116
562.335391,-1924.535449,-3830.477490,8956.491898
562.335716,2590.720797,-2451.505594,9918.759623
562.336041,5773.606348,1225.752797,11177.109724
562.336366,5699.585753,3294.210641,10584.944971
562.336691,5995.668130,3217.601092,9548.656652
562.337016,6069.688724,2068.457845,9326.594869
562.337341,3701.029710,2145.067394,10066.800811
562.337666,0.000000,306.438199,10066.800811
562.337991,-3108.864956,-1608.800546,9992.780217
562.338316,-5551.544565,-2911.162892,11399.171507
562.338641,-7105.977043,-5056.230287,12953.603985
562.338966,-9178.553681,-7890.783629,12657.521608
562.339291,-10658.965565,-9193.145976,10066.800811
562.339617,-9992.780217,-8427.050478,9178.553681
562.339942,-6809.894666,-5975.544884,9844.739029
562.340267,-4589.276840,-2911.162892,9252.574275
562.340592,-2664.741391,-306.438199,7254.018232
562.340917,-962.267725,995.924147,7179.997637
562.341242,888.247130,1302.362347,6735.874072
562.341567,1332.370696,2757.943793,7105.977043
562.341892,888.247130,2757.943793,6809.894666
562.342217,74.020594,1532.190996,6809.894666
562.342542,-1184.329507,153.219100,7550.100608
562.342867,-2368.659014,-1378.971896,8586.388927
562.343192,-3701.029710,-1915.238745,9770.718434
562.343517,-5181.441594,-2604.724693,10807.006753
562.343842,-5773.606348,-5286.058936,10510.924376
562.344167,-6513.812290,-6281.983084,10436.903782
562.344492,-6143.709319,-6818.249932,11029.068536
562.344818,-4959.379811,-4903.011187,11399.171507
562.345143,-2220.617826,-3524.039291,10955.047942
562.345468,-1110.308913,-153.219100,10732.986159
562.345793,222.061783,919.314598,10288.862594
562.346118,962.267725,1532.190996,8808.450710
562.346443,962.267725,1991.848295,8586.388927
562.346768,814.226536,2145.067394,8512.368333
562.347093,518.144159,1378.971896,7994.224174
562.347418,222.061783,689.485948,8068.244768
562.347743,-592.164754,459.657299,7402.059420
562.348068,-2516.700203,-1225.752797,8438.347739
562.348393,-2960.823768,-2528.115143,9326.594869
562.348718,-2368.659014,-3064.381992,9252.574275
562.349043,-2738.761985,-2834.553343,9178.553681
562.349368,-2294.638420,-2834.553343,8660.409521
562.349693,-518.144159,-2221.676944,8956.491898
562.350019,518.144159,-1225.752797,8660.409521
562.350344,592.164754,459.657299,9474.636058
562.350669,1480.411884,1455.581446,9770.718434
562.350994,592.164754,2374.896044,9992.780217
562.351319,1406.391290,1838.629195,9992.780217
562.351644,2146.597232,1225.752797,10066.800811
562.351969,0.000000,153.219100,9178.553681
562.352294,-2220.617826,0.000000,8734.430116
562.352619,-2738.761985,-995.924147,9622.677246
562.352944,-2368.659014,-919.314598,11177.109724
562.353269,-3552.988522,-842.705048,11843.295072
562.353594,-4885.359217,-2145.067394,10362.883188
562.353919,-4663.297435,-2834.553343,8364.327145
562.354244,-2886.803174,-2911.162892,8142.265362
562.354569,-1036.288319,-306.438199,8956.491898
562.354895,-2146.597232,229.828649,8956.491898
562.355220,-2738.761985,153.219100,7994.224174
562.355545,-1036.288319,-459.657299,7698.141797
562.355870,-370.102971,995.924147,8290.306550
562.356195,-222.061783,1532.190996,7624.121203
562.356520,-1332.370696,766.095498,7402.059420
562.356845,-666.185348,-306.438199,7476.080014
562.357170,0.000000,-689.485948,8512.368333
562.357495,-1332.370696,0.000000,9030.512492
562.357820,-2738.761985,-1302.362347,8586.388927
562.358145,-3404.947333,-2451.505594,9474.636058
562.358470,-2590.720797,-2911.162892,10584.944971
562.358795,-2072.576638,-2604.724693,10881.027347
562.359120,-3034.844362,-2757.943793,10140.821405
562.359445,-3997.112087,-3370.820191,9696.697840
562.359770,-3404.947333,-3524.039291,9992.780217
562.360096,-2664.741391,-2451.505594,11399.171507
562.360421,-3552.988522,-1762.019645,10807.006753
562.360746,-5625.565159,-2451.505594,9548.656652
562.361071,-6217.729913,-4443.353888,8290.306550
562.361396,-6143.709319,-4903.011187,9030.512492
562.361721,-5847.626942,-5132.839837,8586.388927
562.362046,-6809.894666,-3983.696590,7920.203579
562.362371,-6661.853478,-5209.449386,8142.265362
562.362696,-4737.318029,-5592.497135,9474.636058
562.363021,-3182.885551,-4366.744339,10288.862594
562.363346,-2072.576638,-3524.039291,9548.656652
562.363671,-1258.350101,-3140.991542,8734.430116
562.363996,444.123565,-2681.334243,9178.553681
562.364321,3404.947333,-2145.067394,10510.924376
562.364646,3330.926739,-306.438199,10362.883188
562.364972,2368.659014,-842.705048,9474.636058
562.365297,2664.741391,-995.924147,9696.697840
562.365622,2738.761985,-1072.533697,10436.903782
562.365947,1036.288319,-1378.971896,9622.677246
562.366272,-1406.391290,-1762.019645,9178.553681
562.366597,-3108.864956,-2757.943793,9474.636058
562.366922,-3627.009116,-3140.991542,9548.656652
562.367247,-4071.132681,-3294.210641,9844.739029
562.367572,-5181.441594,-3217.601092,9178.553681
562.367897,-5551.544565,-2834.553343,8882.471304
562.368222,-4515.256246,-2604.724693,9178.553681
562.368547,-4589.276840,-2374.896044,9326.594869
562.368872,-4737.318029,-1762.019645,8512.368333
562.369197,-4441.235652,-842.705048,7772.162391
562.369522,-3108.864956,-459.657299,8068.244768
562.369847,-2590.720797,76.609550,9104.533087
562.370173,-2886.803174,383.047749,8956.491898
562.370498,-2664.741391,229.828649,8734.430116
562.370823,-2072.576638,-306.438199,9400.615463
562.371148,-1332.370696,-1072.533697,10066.800811
562.371473,-296.082377,0.000000,10066.800811
562.371798,222.061783,536.266849,9622.677246
562.372123,962.267725,995.924147,9474.636058
562.372448,2294.638420,1762.019645,9696.697840
562.372773,2294.638420,2604.724693,9400.615463
562.373098,2146.597232,4366.744339,8068.244768
562.373423,2368.659014,3140.991542,8142.265362
562.373748,1406.391290,3524.039291,8364.327145
562.374073,296.082377,3447.429741,8512.368333
562.374398,-1184.329507,2374.896044,8364.327145
562.374723,-3330.926739,229.828649,8364.327145
562.375048,-6069.688724,-2298.286494,8068.244768
562.375374,-7772.162391,-3064.381992,8660.409521
562.375699,-8364.327145,-3830.477490,8808.450710
562.376024,-8068.244768,-5209.449386,9326.594869
562.376349,-6883.915261,-5592.497135,10510.924376
562.376674,-5403.503377,-4979.620737,10584.944971
562.376999,-3627.009116,-2374.896044,9992.780217
562.377324,-962.267725,-459.657299,9770.718434
562.377649,962.267725,0.000000,10436.903782
562.377974,1258.350101,0.000000,9548.656652
562.378299,1184.329507,-383.047749,8808.450710
562.378624,962.267725,-919.314598,9400.615463
562.378949,-296.082377,-1762.019645,9992.780217
562.379274,-1406.391290,-2834.553343,10510.924376
562.379599,-1628.453072,-4060.306139,10214.842000
562.379924,-1998.556043,-5132.839837,10510.924376
562.380250,-1702.473667,-4749.792088,10658.965565
562.380575,-1628.453072,-4443.353888,10807.006753
562.380900,-1998.556043,-3370.820191,9178.553681
562.381225,-1850.514855,-3140.991542,8364.327145
562.381550,-888.247130,-2757.943793,7624.121203
562.381875,-666.185348,-1685.410096,7254.018232
562.382200,-2294.638420,-1838.629195,8216.285956
562.382525,-3108.864956,-2528.115143,7624.121203
562.382850,-3256.906145,-1378.971896,8586.388927
562.383175,-3701.029710,-1762.019645,9104.533087
562.383500,-5477.523971,-2451.505594,8290.306550
562.383825,-6143.709319,-4903.011187,7105.977043
562.384150,-6365.771101,-5286.058936,7994.224174
562.384475,-5551.544565,-4903.011187,9992.780217
562.384800,-5551.544565,-4060.306139,10807.006753
562.385125,-3552.988522,-4673.182538,11177.109724
562.385451,-2738.761985,-5592.497135,11917.315666
562.385776,-1406.391290,-5132.839837,12287.418637
562.386101,0.000000,-3370.820191,12435.459826
562.386426,2072.576638,-1302.362347,11695.253884
562.386751,2886.803174,0.000000,10955.047942
562.387076,3701.029710,612.876398,10214.842000
562.387401,3701.029710,3064.381992,8808.450710
562.387726,2072.576638,3677.258390,9474.636058
562.388051,222.061783,2987.772442,7846.182985
562.388376,-1036.288319,1915.238745,5773.606348
562.388701,-2220.617826,1455.581446,6143.709319
562.389026,-5551.544565,919.314598,6661.853478
562.389351,-9030.512492,-229.828649,7920.203579
562.389676,-10807.006753,-2451.505594,8586.388927
562.390001,-11547.212695,-6818.249932,7624.121203
562.390326,-11325.150913,-9039.926876,7179.997637
562.390652,-8808.450710,-8197.221829,8734.430116
562.390977,-4737.318029,-3140.991542,10881.027347
562.391302,0.000000,612.876398,11251.130318
562.391627,2220.617826,766.095498,11991.336260
562.391952,5921.647536,1915.238745,8660.409521
562.392277,9992.780217,5822.325785,7698.141797
562.392602,10214.842000,8427.050478,8808.450710
562.392927,8586.388927,7890.783629,9474.636058
562.393252,6661.853478,5669.106685,9622.677246
562.393577,3404.947333,3677.258390,9770.718434
562.393902,-2220.617826,229.828649,8956.491898
562.394227,-8068.244768,-3217.601092,7994.224174
562.394552,-10584.944971,-7431.126331,9474.636058
562.394877,-11399.171507,-8963.317327,11917.315666
562.395202,-9844.739029,-9882.631924,11399.171507
562.395528,-9770.718434,-8656.879127,10881.027347
562.395853,-6809.894666,-7431.126331,7846.182985
562.396178,-2294.638420,-1455.581446,6661.853478
562.396503,4293.194464,3983.696590,8956.491898
562.396828,6365.771101,5898.935335,10955.047942
562.397153,5699.585753,4290.134789,8586.388927
562.397478,5847.626942,3140.991542,8142.265362
562.397803,5107.421000,3064.381992,7772.162391
562.398128,222.061783,1532.190996,7994.224174
562.398453,-3330.926739,-1149.143247,9104.533087
562.398778,-4737.318029,-4443.353888,10584.944971
562.399103,-7031.956449,-6511.811733,10807.006753
562.399428,-7846.182985,-7431.126331,10436.903782
562.399753,-7624.121203,-6358.592633,9844.739029
562.400078,-7624.121203,-4136.915689,7624.121203
562.400403,-5107.421000,-3064.381992,8660.409521
562.400729,-1850.514855,-2757.943793,9770.718434
562.401054,-888.247130,-1608.800546,8512.368333
562.401379,-1332.370696,-536.266849,8660.409521
562.401704,74.020594,-383.047749,9844.739029
562.402029,1332.370696,229.828649,10955.047942
562.402354,2294.638420,-919.314598,11325.150913
562.402679,1850.514855,-1762.019645,9474.636058
562.403004,1110.308913,0.000000,10436.903782
562.403329,-444.123565,536.266849,10288.862594
562.403654,-2368.659014,-1378.971896,9104.533087
562.403979,-3552.988522,-4060.306139,8512.368333
562.404304,-4515.256246,-3447.429741,8660.409521
562.404629,-6217.729913,-2681.334243,10214.842000
562.404954,-7476.080014,-3753.867940,9622.677246
562.405279,-7698.141797,-5592.497135,8586.388927
562.405604,-6143.709319,-6205.373534,8956.491898
562.405929,-3849.070898,-2528.115143,8364.327145
562.406254,-1850.514855,0.000000,8290.306550
562.406579,-962.267725,-689.485948,8882.471304
562.406904,-1332.370696,-995.924147,7698.141797
562.407229,-1110.308913,-536.266849,7254.018232
562.407554,814.226536,1608.800546,8068.244768
562.407879,2590.720797,1302.362347,8586.388927
562.408204,2590.720797,1608.800546,9252.574275
562.408529,2664.741391,1915.238745,10881.027347
562.408854,518.144159,2374.896044,11843.295072
562.409180,-1184.329507,-229.828649,11251.130318
562.409505,-3182.885551,-2911.162892,7476.080014
562.409830,-4663.297435,-3983.696590,7105.977043
562.410155,-6143.709319,-2681.334243,9474.636058
562.410480,-6957.935855,-1608.800546,10362.883188
562.410805,-5625.565159,-3677.258390,9474.636058
562.411130,-3478.967927,-4749.792088,10584.944971
562.411455,-3849.070898,-2221.676944,11103.089130
562.411780,-3849.070898,1532.190996,10807.006753
562.412105,666.185348,0.000000,9252.574275
562.412430,3775.050304,0.000000,9326.594869
562.412755,1480.411884,2911.162892,8956.491898
562.413080,0.000000,4519.963438,7624.121203
562.413405,5329.482782,3370.820191,6217.729913
562.413730,6883.915261,2757.943793,9770.718434
562.414055,2886.803174,3064.381992,12435.459826
562.414380,-1554.432478,1455.581446,9770.718434
562.414705,0.000000,-995.924147,7105.977043
562.415030,1036.288319,-1915.238745,9474.636058
562.415355,-2368.659014,-1608.800546,8882.471304
562.415680,-4663.297435,-1608.800546,7105.977043
562.416005,-1554.432478,-1915.238745,7550.100608
562.416330,1110.308913,1072.533697,10584.944971
562.416655,0.000000,1302.362347,12731.542202
562.416980,-444.123565,153.219100,9474.636058
562.417305,888.247130,-1225.752797,6735.874072
562.417630,1480.411884,2451.505594,9178.553681
562.417955,1998.556043,3064.381992,9622.677246
562.418280,814.226536,766.095498,9030.512492
562.418605,888.247130,0.000000,8660.409521
562.418930,-1110.308913,1991.848295,10288.862594
562.419255,-2442.679609,459.657299,10436.903782
562.419580,-1924.535449,-2911.162892,9474.636058
562.419905,-2590.720797,-3140.991542,9252.574275
562.420230,-4885.359217,-1991.848295,10658.965565
562.420555,-3182.885551,-919.314598,9030.512492
562.420880,592.164754,-1302.362347,8956.491898
562.421205,1480.411884,1149.143247,9474.636058
562.421531,-370.102971,2834.553343,9770.718434
562.421856,1110.308913,2757.943793,8216.285956
562.422181,3701.029710,383.047749,6883.915261
562.422506,5033.400406,2068.457845,7698.141797
562.422831,-814.226536,3140.991542,9474.636058
562.423156,-2146.597232,842.705048,7254.018232
562.423481,2072.576638,1149.143247,8586.388927
562.423806,2368.659014,995.924147,11843.295072
562.424131,-2516.700203,1838.629195,11177.109724
562.424456,-3034.844362,-1838.629195,8882.471304
562.424781,-1776.494261,-1762.019645,9548.656652
562.425106,-2738.761985,-1378.971896,11399.171507
562.425431,-7254.018232,-2528.115143,9252.574275
562.425756,-4959.379811,-3140.991542,5995.668130
562.426081,-1480.411884,306.438199,10066.800811
562.426406,-3182.885551,536.266849,12731.542202
562.426731,-4367.215058,-1915.238745,9770.718434
562.427056,-1554.432478,-4136.915689,8290.306550
562.427381,1110.308913,-383.047749,8142.265362
562.427706,740.205942,3524.039291,10584.944971
562.428031,2738.761985,1302.362347,9326.594869
562.428356,4441.235652,1455.581446,7772.162391
562.428681,6143.709319,3524.039291,9474.636058
562.429006,2368.659014,4596.572988,10066.800811
562.429331,2738.761985,842.705048,7476.080014
562.429656,4885.359217,229.828649,7105.977043
562.429981,2738.761985,1072.533697,10510.924376
562.430306,-296.082377,689.485948,10881.027347
562.430631,1184.329507,-1302.362347,8290.306550
562.430956,2146.597232,-306.438199,9918.759623
562.431281,148.041188,306.438199,10955.047942
562.431606,-962.267725,0.000000,10066.800811
562.431931,1480.411884,-1455.581446,8290.306550
562.432256,2664.741391,153.219100,9252.574275
562.432581,-370.102971,1685.410096,9770.718434
562.432906,222.061783,2145.067394,8290.306550
562.433231,3997.112087,2834.553343,8808.450710
562.433556,2442.679609,3370.820191,11325.150913
562.433882,-666.185348,3217.601092,11177.109724
562.434207,-518.144159,536.266849,6957.935855
562.434532,0.000000,-689.485948,7254.018232
562.434857,-2146.597232,0.000000,9622.677246
562.435182,-3849.070898,1838.629195,9696.697840
562.435507,-1258.350101,766.095498,9918.759623
562.435832,222.061783,383.047749,10362.883188
562.436157,-3478.967927,459.657299,8808.450710
562.436482,-4145.153275,536.266849,6217.729913
562.436807,-592.164754,1915.238745,5773.606348
562.437132,444.123565,1991.848295,9622.677246
562.437457,-1702.473667,1991.848295,9474.636058
562.437782,-814.226536,1302.362347,7179.997637
562.438107,4367.215058,2604.724693,7624.121203
562.438432,5033.400406,4749.792088,10362.883188
562.438757,-1036.288319,3600.648841,10732.986159
562.439082,0.000000,76.609550,9474.636058
562.439407,2368.659014,-383.047749,9474.636058
562.439732,-592.164754,536.266849,10436.903782
562.440057,-4145.153275,76.609550,10140.821405
562.440382,-4145.153275,-1378.971896,9474.636058
562.440707,-740.205942,-689.485948,11029.068536
562.441032,-1480.411884,-1838.629195,12953.603985
562.441357,-4367.215058,-3830.477490,10436.903782
562.441682,-3330.926739,-2834.553343,7698.141797
562.442007,-1036.288319,-842.705048,9326.594869
562.442332,-1332.370696,-766.095498,10732.986159
562.442657,-296.082377,-1915.238745,8882.471304
562.442982,2294.638420,383.047749,7550.100608
562.443307,2738.761985,1991.848295,7920.203579
562.443632,1258.350101,2374.896044,8290.306550
562.443957,2812.782580,536.266849,7402.059420
562.444282,4441.235652,-229.828649,6809.894666
562.444607,1998.556043,1072.533697,8438.347739
562.444932,1036.288319,536.266849,9326.594869
562.445257,3775.050304,229.828649,9030.512492
562.445582,3775.050304,-536.266849,10732.986159
562.445908,-222.061783,0.000000,11843.295072
562.446233,-592.164754,76.609550,9992.780217
562.446558,1776.494261,-1455.581446,8956.491898
562.446883,2590.720797,-1378.971896,9548.656652
562.447208,-1406.391290,153.219100,10955.047942
562.447533,-888.247130,1149.143247,10510.924376
562.447858,2886.803174,919.314598,10214.842000
562.448183,2886.803174,2145.067394,11991.336260
562.448508,74.020594,3370.820191,10732.986159
562.448833,0.000000,2987.772442,7402.059420
562.449158,2146.597232,1302.362347,6143.709319
562.449483,0.000000,1608.800546,9326.594869
562.449808,-4293.194464,2528.115143,9844.739029
562.450133,-2812.782580,536.266849,8216.285956
562.450458,-1332.370696,-229.828649,9474.636058
562.450783,-4367.215058,-536.266849,11621.233289
562.451108,-5847.626942,383.047749,9326.594869
562.451433,-1924.535449,612.876398,6883.915261
562.451758,1554.432478,842.705048,7179.997637
562.452083,0.000000,2757.943793,8142.265362
562.452408,-296.082377,4136.915689,7772.162391
562.452733,2812.782580,4366.744339,6587.832884
562.453058,3034.844362,4903.011187,8438.347739
562.453383,444.123565,3907.087040,8956.491898
562.453708,1110.308913,2757.943793,6957.935855
562.454033,2812.782580,1685.410096,7179.997637
562.454358,0.000000,1685.410096,10140.821405
562.454683,-4515.256246,919.314598,11325.150913
562.455008,-4071.132681,-1072.533697,10288.862594
562.455333,-1332.370696,-1455.581446,9696.697840
562.455658,-3923.091493,-1378.971896,11251.130318
562.455983,-5699.585753,-1532.190996,9844.739029
562.456308,-3108.864956,-1302.362347,8586.388927
562.456633,-1776.494261,-1915.238745,10140.821405
562.456958,-3627.009116,-1225.752797,10436.903782
562.457283,-1702.473667,-842.705048,8882.471304
562.457608,1998.556043,689.485948,9622.677246
562.457933,2220.617826,306.438199,11547.212695
562.458259,-592.164754,-229.828649,10807.006753
562.458584,2738.761985,-1302.362347,8586.388927
562.458909,5403.503377,76.609550,7105.977043
562.459234,2886.803174,383.047749,7994.224174
562.459559,814.226536,229.828649,9252.574275
562.459884,4811.338623,0.000000,7698.141797
562.460209,6217.729913,1149.143247,10066.800811
562.460534,2146.597232,689.485948,10732.986159
562.460859,1480.411884,-459.657299,7402.059420
562.461184,4737.318029,-995.924147,6957.935855
562.461509,3849.070898,-306.438199,9992.780217
562.461834,-1332.370696,0.000000,10658.965565
562.462159,-592.164754,-1302.362347,7920.203579
562.462484,3182.885551,-612.876398,10436.903782
562.462809,1110.308913,1072.533697,13693.809927
562.463134,-2886.803174,0.000000,10732.986159
562.463459,-2664.741391,-3217.601092,6217.729913
562.463784,-1110.308913,-1991.848295,6957.935855
562.464109,-2886.803174,1378.971896,11399.171507
562.464434,-3256.906145,1915.238745,10288.862594
562.464759,-2294.638420,76.609550,9474.636058
562.465084,0.000000,612.876398,10436.903782
562.465409,-296.082377,3294.210641,10658.965565
562.465734,-666.185348,3524.039291,9400.615463
562.466059,1258.350101,1149.143247,7550.100608
562.466384,1406.391290,1915.238745,8660.409521
562.466709,-1406.391290,3294.210641,10066.800811
562.467034,-444.123565,3447.429741,7994.224174
562.467359,1036.288319,2834.553343,7402.059420
562.467684,962.267725,3524.039291,9326.594869
562.468009,-740.205942,3907.087040,9696.697840
562.468334,-222.061783,2298.286494,8512.368333
562.468659,962.267725,2221.676944,8290.306550
562.468984,-1776.494261,2298.286494,8142.265362
562.469309,-3478.967927,2221.676944,7254.018232
562.469634,-592.164754,2374.896044,7031.956449
562.469959,-1184.329507,2068.457845,9992.780217
562.470284,-4663.297435,1838.629195,10584.944971
562.470610,-4737.318029,-1225.752797,8364.327145
562.470935,-3256.906145,-2374.896044,7772.162391
562.471260,-3849.070898,-1608.800546,9030.512492
562.471585,-5107.421000,-1149.143247,9844.739029
562.471910,-2590.720797,-1838.629195,7994.224174
562.472235,666.185348,-229.828649,10436.903782
562.472560,-1184.329507,-536.266849,12805.562797
562.472885,-1850.514855,-1532.190996,8882.471304
562.473210,2812.782580,-1762.019645,6735.874072
562.473535,7105.977043,0.000000,9770.718434
562.473860,2812.782580,995.924147,11621.233289
562.474185,2738.761985,0.000000,9252.574275
562.474510,7105.977043,153.219100,9992.780217
562.474835,8142.265362,766.095498,10732.986159
562.475160,2294.638420,459.657299,9844.739029
562.475485,2442.679609,-1762.019645,8290.306550
562.475810,5403.503377,-1685.410096,8882.471304
562.476135,2294.638420,-919.314598,11621.233289
562.476460,-444.123565,-2451.505594,11547.212695
562.476785,-296.082377,-2528.115143,9030.512492
562.477110,1776.494261,-612.876398,8956.491898
562.477435,962.267725,612.876398,12509.480420
562.477760,-1110.308913,-1838.629195,9474.636058
562.478085,-2442.679609,-3524.039291,6217.729913
562.478410,-1332.370696,-1608.800546,8364.327145
562.478735,-2590.720797,1072.533697,10362.883188
562.479060,-3478.967927,153.219100,8882.471304
562.479385,-1554.432478,-1915.238745,8734.430116
562.479710,-148.041188,-689.485948,9918.759623
562.480035,-2220.617826,2987.772442,11029.068536
562.480360,-2294.638420,1532.190996,9030.512492
562.480685,0.000000,0.000000,6291.750507
562.481010,0.000000,1532.190996,6883.915261
562.481335,-1480.411884,4673.182538,8734.430116
562.481660,518.144159,3447.429741,7994.224174
562.481985,2368.659014,2911.162892,9844.739029
562.482310,814.226536,3524.039291,10362.883188
562.482635,-1480.411884,3677.258390,9844.739029
562.482961,296.082377,1762.019645,7105.977043
562.483286,888.247130,2987.772442,7994.224174
562.483611,-1184.329507,3600.648841,9252.574275
562.483936,-4071.132681,1991.848295,9474.636058
562.484261,-1332.370696,842.705048,7846.182985
562.484586,814.226536,2681.334243,10066.800811
562.484911,-2738.761985,2987.772442,10955.047942
562.485236,-4663.297435,1302.362347,9844.739029
562.485561,-1998.556043,-612.876398,8142.265362
562.485886,-1628.453072,-383.047749,9474.636058
562.486211,-3997.112087,-306.438199,9770.718434
562.486536,-2960.823768,1149.143247,9474.636058
562.486861,888.247130,1225.752797,9918.759623
562.487186,148.041188,153.219100,11473.192101
562.487511,-2590.720797,-1225.752797,10140.821405
562.487836,-148.041188,383.047749,7846.182985
562.488161,4737.318029,1685.410096,6661.853478
562.488486,3330.926739,306.438199,8364.327145
562.488811,2738.761985,536.266849,8734.430116
562.489136,5329.482782,2145.067394,9622.677246
562.489461,6661.853478,2604.724693,9622.677246
562.489786,3627.009116,306.438199,10436.903782
562.490111,3182.885551,-1072.533697,8068.244768
562.490436,4737.318029,919.314598,7476.080014
562.490761,5181.441594,-383.047749,9326.594869
562.491086,1406.391290,-1838.629195,9918.759623
562.491411,592.164754,-1762.019645,10288.862594
562.491736,2072.576638,459.657299,11917.315666
562.492061,666.185348,-612.876398,10732.986159
562.492386,-1850.514855,-3524.039291,9252.574275
562.492711,-444.123565,-3217.601092,8734.430116
562.493036,592.164754,229.828649,10288.862594
562.493361,-888.247130,-229.828649,10436.903782
562.493686,-1480.411884,-2221.676944,10955.047942
562.494011,0.000000,-995.924147,10658.965565
562.494336,-666.185348,1532.190996,10807.006753
562.494661,-3034.844362,229.828649,9918.759623
562.494986,-3034.844362,-2374.896044,7846.182985
562.495312,-1184.329507,0.000000,7624.121203
562.495637,-2220.617826,1838.629195,8882.471304
562.495962,-4219.173869,1149.143247,8734.430116
562.496287,-3404.947333,-919.314598,7402.059420
562.496612,-2886.803174,459.657299,9400.615463
562.496937,-3552.988522,1838.629195,9844.739029
562.497262,-3034.844362,1838.629195,8808.450710
562.497587,740.205942,536.266849,6217.729913
562.497912,2220.617826,2451.505594,7328.038826
562.498237,-1110.308913,3524.039291,9696.697840
562.498562,-740.205942,3064.381992,7698.141797
562.498887,3256.906145,1685.410096,7105.977043
562.499212,1998.556043,2911.162892,10436.903782
562.499537,-1924.535449,4060.306139,11621.233289
562.499862,-1554.432478,1762.019645,8068.244768
562.500187,740.205942,-1302.362347,6439.791695
562.500512,-2368.659014,-995.924147,9696.697840
562.500837,-5477.523971,2145.067394,11251.130318
562.501162,-2738.761985,1149.143247,9474.636058
562.501487,-370.102971,-1225.752797,10510.924376
562.501812,-2664.741391,-1915.238745,11325.150913
562.502137,-5255.462188,0.000000,9104.533087
562.502462,-1776.494261,383.047749,7105.977043
562.502787,2294.638420,-919.314598,8956.491898
562.503112,1184.329507,0.000000,10807.006753
562.503437,2738.761985,2221.676944,9474.636058
562.503762,5995.668130,3600.648841,9178.553681
562.504087,7550.100608,3064.381992,9918.759623
562.504412,5181.441594,2145.067394,9104.533087
562.504737,6513.812290,919.314598,8364.327145
562.505062,6957.935855,2374.896044,9400.615463
562.505387,4515.256246,536.266849,9918.759623
562.505712,2146.597232,0.000000,10658.965565
562.506037,3034.844362,-383.047749,10584.944971
562.506362,3182.885551,1455.581446,10584.944971
562.506687,1406.391290,1532.190996,10214.842000
562.507012,592.164754,-2221.676944,7772.162391
562.507337,1258.350101,-842.705048,6439.791695
562.507662,0.000000,1149.143247,8660.409521
562.507987,-2368.659014,1685.410096,10288.862594
562.508312,-3108.864956,-1378.971896,9844.739029
562.508637,-1258.350101,-1149.143247,11251.130318
562.508962,-370.102971,1378.971896,11547.212695
562.509287,-4515.256246,689.485948,9178.553681
562.509612,-4737.318029,-2451.505594,6661.853478
562.509937,-1702.473667,-1149.143247,8068.244768
562.510262,-2294.638420,2757.943793,11991.336260
562.510587,-5477.523971,612.876398,11029.068536
562.510912,-3404.947333,-2145.067394,6957.935855
562.511237,-444.123565,-612.876398,8142.265362
562.511562,-2072.576638,4213.525239,10362.883188
562.511887,-3256.906145,2298.286494,7846.182985
562.512212,0.000000,-612.876398,5033.400406
562.512537,814.226536,1072.533697,8068.244768
562.512862,-1850.514855,3294.210641,10807.006753
562.513187,-888.247130,2911.162892,8734.430116
562.513512,2664.741391,919.314598,8068.244768
562.513837,2664.741391,919.314598,9548.656652
562.514162,-888.247130,2987.772442,10214.842000
562.514488,370.102971,1455.581446,6809.894666
562.514813,2664.741391,919.314598,7476.080014
562.515138,0.000000,0.000000,10584.944971
562.515463,-3997.112087,1225.752797,11325.150913
562.515788,-74.020594,0.000000,10288.862594
562.516113,1110.308913,-689.485948,9992.780217
562.516438,-2664.741391,-1838.629195,12657.521608
562.516763,-5181.441594,-2451.505594,9992.780217
562.517088,-2442.679609,-2068.457845,7179.997637
562.517413,0.000000,-2834.553343,10362.883188
562.517738,-1702.473667,-1685.410096,11991.336260
562.518063,-1332.370696,459.657299,10066.800811
562.518388,1332.370696,1302.362347,11029.068536
562.518713,2220.617826,383.047749,9474.636058
562.519038,1850.514855,-612.876398,6661.853478
562.519363,3627.009116,842.705048,4737.318029
562.519688,4367.215058,3677.258390,6439.791695
562.520013,3182.885551,2987.772442,9696.697840
562.520338,2960.823768,229.828649,9252.574275
562.520663,5107.421000,0.000000,8586.388927
562.520988,5107.421000,2451.505594,9326.594869
562.521313,2812.782580,2987.772442,9548.656652
562.521638,2220.617826,-153.219100,9030.512492
562.521963,4145.153275,-459.657299,9622.677246
562.522288,3404.947333,1532.190996,11325.150913
562.522613,-666.185348,1072.533697,10436.903782
562.522938,-444.123565,-383.047749,8808.450710
562.523263,1998.556043,612.876398,10881.027347
562.523588,370.102971,2604.724693,12287.418637
562.523913,-4663.297435,229.828649,9918.759623
562.524238,-5033.400406,-2298.286494,5773.606348
562.524563,-4071.132681,0.000000,8364.327145
562.524888,-5033.400406,919.314598,9770.718434
562.525213,-7105.977043,229.828649,9992.780217
562.525538,-3701.029710,-1608.800546,9474.636058
562.525863,-1332.370696,459.657299,10066.800811
562.526188,-3552.988522,2374.896044,10881.027347
562.526513,-4441.235652,459.657299,7254.018232
562.526838,0.000000,-229.828649,4737.318029
562.527163,1924.535449,1685.410096,7402.059420
562.527488,1036.288319,4213.525239,10584.944971
562.527813,3182.885551,3753.867940,9252.574275
562.528138,3997.112087,3524.039291,7994.224174
562.528463,2960.823768,2681.334243,7994.224174
562.528788,592.164754,3753.867940,8068.244768
562.529113,2220.617826,3370.820191,6291.750507
562.529438,2146.597232,1302.362347,6661.853478
562.529763,-1110.308913,153.219100,10066.800811
562.530088,-2886.803174,0.000000,11399.171507
562.530413,-2072.576638,76.609550,13027.624579
562.530738,-2294.638420,-2068.457845,10955.047942
562.531063,-5477.523971,-3064.381992,10881.027347
562.531388,-5773.606348,-3524.039291,9104.533087
562.531713,-2960.823768,-2298.286494,8512.368333
562.532038,-518.144159,-2298.286494,9326.594869
562.532363,-1776.494261,-842.705048,8734.430116
562.532688,-444.123565,76.609550,9622.677246
562.533013,2590.720797,689.485948,12509.480420
562.533338,3330.926739,153.219100,11991.336260
562.533663,1332.370696,-1838.629195,11843.295072
562.533988,3701.029710,-2911.162892,9326.594869
562.534313,5625.565159,229.828649,7920.203579
562.534638,3701.029710,1915.238745,10436.903782
562.534963,3330.926739,1608.800546,9992.780217
562.535288,5033.400406,612.876398,7772.162391
562.535613,4737.318029,1149.143247,8068.244768
562.535938,1850.514855,2451.505594,8290.306550
562.536263,1406.391290,1072.533697,6365.771101
562.536588,2516.700203,76.609550,6883.915261
562.536913,2220.617826,-612.876398,8734.430116
562.537238,-1850.514855,459.657299,10288.862594
562.537563,-962.267725,612.876398,9104.533087
562.537888,1406.391290,1072.533697,9548.656652
562.538213,0.000000,0.000000,10066.800811
562.538538,-3108.864956,76.609550,10510.924376
562.538863,-1924.535449,689.485948,8660.409521
562.539188,296.082377,1302.362347,8142.265362
562.539513,-1036.288319,459.657299,10881.027347
562.539838,-4293.194464,-536.266849,10140.821405
562.540163,-2294.638420,1532.190996,8734.430116
562.540488,-1332.370696,2221.676944,11621.233289
562.540813,-3552.988522,612.876398,12213.398043
562.541138,-4663.297435,-459.657299,9696.697840
562.541463,-2368.659014,306.438199,7254.018232
562.541788,0.000000,2068.457845,7920.203579
562.542113,-444.123565,2528.115143,10288.862594
562.542438,370.102971,3217.601092,8660.409521
562.542763,1998.556043,4290.134789,8808.450710
562.543088,1924.535449,3677.258390,8216.285956
562.543413,1406.391290,3677.258390,6883.915261
562.543738,2368.659014,2681.334243,5477.523971
562.544063,2368.659014,2757.943793,6291.750507
562.544388,0.000000,2298.286494,9992.780217
562.544713,-1332.370696,1225.752797,10214.842000
562.545038,0.000000,0.000000,9474.636058
562.545363,-962.267725,689.485948,10732.986159
562.545688,-3849.070898,229.828649,10288.862594
562.546013,-3330.926739,-2374.896044,7920.203579
562.546338,-740.205942,-2451.505594,7772.162391
562.546663,-1258.350101,-459.657299,10584.944971
562.546988,-3923.091493,306.438199,10732.986159
562.547313,-2146.597232,-1302.362347,8586.388927
562.547638,888.247130,-1762.019645,9474.636058
562.547963,-814.226536,0.000000,11695.253884
562.548288,-1998.556043,0.000000,10436.903782
562.548613,888.247130,-2451.505594,8660.409521
562.548938,3627.009116,-1915.238745,8882.471304
562.549263,2294.638420,-995.924147,11473.192101
562.549588,666.185348,153.219100,10510.924376
562.549913,4737.318029,-153.219100,9178.553681
562.550238,7550.100608,612.876398,11695.253884
562.550563,4515.256246,1302.362347,12583.501014
562.550888,2368.659014,383.047749,7254.018232
562.551213,4737.318029,-459.657299,5699.585753
562.551538,3701.029710,459.657299,8438.347739
562.551864,-1184.329507,536.266849,10362.883188
562.552189,-1850.514855,-689.485948,7698.141797
562.552514,1110.308913,-689.485948,7105.977043
562.552839,-370.102971,0.000000,11325.150913
562.553164,-3256.906145,0.000000,9696.697840
562.553489,-2220.617826,-689.485948,6883.915261
562.553814,-296.082377,-306.438199,9474.636058
562.554139,-1776.494261,306.438199,9770.718434
562.554464,-2590.720797,153.219100,9474.636058
562.554789,-1110.308913,1149.143247,10584.944971
562.555114,-370.102971,1991.848295,11029.068536
562.555439,-2590.720797,1762.019645,10362.883188
562.555764,-1776.494261,-383.047749,8660.409521
562.556089,444.123565,612.876398,7254.018232
562.556414,666.185348,2681.334243,8586.388927
562.556739,-1776.494261,2604.724693,11029.068536
562.557064,0.000000,1225.752797,9326.594869
562.557389,2442.679609,3753.867940,10066.800811
562.557714,888.247130,4749.792088,10214.842000
562.558039,-740.205942,2221.676944,7254.018232
562.558364,74.020594,1991.848295,5995.668130
562.558689,444.123565,3064.381992,8068.244768
562.559014,-2516.700203,2298.286494,10362.883188
562.559339,-1924.535449,1608.800546,7920.203579
562.559664,814.226536,2221.676944,9252.574275
562.559989,592.164754,3140.991542,10436.903782
562.560314,-2442.679609,2451.505594,8956.491898
562.560639,-1924.535449,-229.828649,5329.482782
562.560964,444.123565,0.000000,6587.832884
562.561289,-1480.411884,1915.238745,9770.718434
562.561614,-2442.679609,1532.190996,11103.089130
562.561939,-1258.350101,-995.924147,9252.574275
562.562264,962.267725,-1991.848295,10584.944971
562.562589,-1110.308913,0.000000,11695.253884
562.562914,-1702.473667,-536.266849,9030.512492
562.563239,518.144159,-1915.238745,7550.100608
562.563564,3404.947333,-1378.971896,9474.636058
562.563889,962.267725,0.000000,11399.171507
562.564214,1258.350101,766.095498,9104.533087
562.564539,4441.235652,153.219100,9252.574275
562.564864,4663.297435,306.438199,10288.862594
562.565189,2368.659014,995.924147,10510.924376
