#time,accel_x,accel_y,accel_z
773.163721,-4071.132681,5286.058936,6217.729913
773.164046,-2220.617826,6205.373534,5773.606348
773.164372,-2442.679609,6665.030833,5921.647536
773.164697,-3034.844362,5975.544884,5995.668130
773.165022,-2960.823768,5362.668486,4737.318029
773.165347,-2368.659014,5439.278036,4515.256246
773.165673,-1406.391290,5056.230287,6291.750507
773.165998,-1332.370696,3830.477490,6661.853478
773.166323,-1850.514855,3217.601092,6735.874072
773.166649,-1110.308913,2834.553343,7698.141797
773.166974,-444.123565,2757.943793,9178.553681
773.167299,-592.164754,3294.210641,9844.739029
773.167624,-222.061783,2145.067394,10807.006753
773.167950,740.205942,2528.115143,11843.295072
773.168275,1480.411884,2298.286494,12583.501014
773.168600,1850.514855,2068.457845,13323.706956
773.168926,1998.556043,1608.800546,13693.809927
773.169251,1850.514855,1532.190996,13027.624579
773.169576,2146.597232,2068.457845,13397.727550
773.169901,2664.741391,1532.190996,13767.830521
773.170227,1184.329507,1225.752797,12657.521608
773.170552,0.000000,1685.410096,11251.130318
773.170877,888.247130,1225.752797,10955.047942
773.171203,-444.123565,2757.943793,10214.842000
773.171528,-2220.617826,2681.334243,8882.471304
773.171853,-2664.741391,3370.820191,7698.141797
773.172178,-2960.823768,3907.087040,7105.977043
773.172504,-4737.318029,4366.744339,6661.853478
773.172829,-5107.421000,4366.744339,5995.668130
773.173154,-5995.668130,4596.572988,6069.688724
773.173480,-6809.894666,4519.963438,5995.668130
773.173805,-6661.853478,4366.744339,7402.059420
773.174130,-7698.141797,4519.963438,7698.141797
773.174455,-9030.512492,3907.087040,7254.018232
773.174781,-8364.327145,4366.744339,7254.018232
773.175106,-6957.935855,4290.134789,8438.347739
773.175431,-7254.018232,4290.134789,8882.471304
773.175757,-6809.894666,4366.744339,9178.553681
773.176082,-5847.626942,4826.401637,9326.594869
773.176407,-5107.421000,5132.839837,9770.718434
773.176732,-4441.235652,5056.230287,10436.903782
773.177058,-3923.091493,4979.620737,10362.883188
773.177383,-2960.823768,4749.792088,10066.800811
773.177708,-1258.350101,4519.963438,10362.883188
773.178034,-1184.329507,4136.915689,10214.842000
773.178359,-1776.494261,3983.696590,9474.636058
773.178684,-666.185348,3677.258390,8882.471304
773.179009,370.102971,2834.553343,8956.491898
773.179335,-370.102971,2528.115143,9252.574275
773.179660,-814.226536,2451.505594,9400.615463
773.179985,-518.144159,2221.676944,8290.306550
773.180311,0.000000,1991.848295,8956.491898
773.180636,-148.041188,2068.457845,8882.471304
773.180961,148.041188,2528.115143,8660.409521
773.181286,1184.329507,2911.162892,8068.244768
773.181612,2590.720797,2834.553343,8438.347739
773.181937,3627.009116,2604.724693,8882.471304
773.182262,2960.823768,2451.505594,8364.327145
773.182588,2960.823768,1072.533697,7772.162391
773.182913,5255.462188,459.657299,8512.368333
773.183238,5255.462188,-229.828649,9326.594869
773.183563,3182.885551,-1378.971896,10140.821405
773.183889,2590.720797,-3064.381992,10955.047942
773.184214,1406.391290,-3677.258390,12509.480420
773.184539,-518.144159,-2681.334243,13767.830521
773.184865,-1998.556043,-2145.067394,14804.118840
773.185190,-3627.009116,-1302.362347,14804.118840
773.185515,-4293.194464,-306.438199,14359.995275
773.185840,-3997.112087,1532.190996,14434.015869
773.186165,-4441.235652,3600.648841,12953.603985
773.186490,-6143.709319,4826.401637,10066.800811
773.186815,-4885.359217,4903.011187,7179.997637
773.187140,-3552.988522,4903.011187,5921.647536
773.187464,-4737.318029,4979.620737,5033.400406
773.187789,-6439.791695,3064.381992,3330.926739
773.188114,-6365.771101,1532.190996,3034.844362
773.188439,-7105.977043,459.657299,3775.050304
773.188764,-8068.244768,0.000000,4811.338623
773.189088,-8512.368333,-919.314598,5995.668130
773.189413,-7402.059420,-306.438199,6661.853478
773.189738,-5625.565159,536.266849,8216.285956
773.190063,-3404.947333,2528.115143,9696.697840
773.190388,-1628.453072,4596.572988,8882.471304
773.190713,1110.308913,5898.935335,9474.636058
773.191037,3182.885551,6205.373534,10140.821405
773.191362,2146.597232,7354.516781,10288.862594
773.191687,148.041188,6358.592633,10955.047942
773.192012,-518.144159,5056.230287,11325.150913
773.192337,-2516.700203,4673.182538,12953.603985
773.192662,-3627.009116,3140.991542,13471.748144
773.192986,-3478.967927,2298.286494,13545.768739
773.193311,-3256.906145,1149.143247,11695.253884
773.193636,-1850.514855,1991.848295,10807.006753
773.193961,1480.411884,2604.724693,10066.800811
773.194286,2516.700203,2681.334243,7698.141797
773.194611,3627.009116,2451.505594,6069.688724
773.194935,5329.482782,2987.772442,4663.297435
773.195260,6587.832884,3524.039291,4441.235652
773.195585,5921.647536,2834.553343,5477.523971
773.195910,5773.606348,1608.800546,6513.812290
773.196235,5329.482782,766.095498,7698.141797
773.196559,5921.647536,536.266849,8956.491898
773.196884,5699.585753,-383.047749,9992.780217
773.197209,4589.276840,-536.266849,10436.903782
773.197534,3478.967927,-842.705048,10436.903782
773.197859,3404.947333,-995.924147,12287.418637
773.198184,1924.535449,-1072.533697,12435.459826
773.198508,-666.185348,-842.705048,12139.377449
773.198833,-2294.638420,-1455.581446,11325.150913
773.199158,-2146.597232,-536.266849,11473.192101
773.199483,-2516.700203,-229.828649,11473.192101
773.199808,-2664.741391,-1302.362347,10436.903782
773.200133,-2072.576638,-2911.162892,8808.450710
773.200457,-1850.514855,-1915.238745,8734.430116
773.200782,-2442.679609,-2911.162892,8956.491898
773.201107,-3404.947333,-3753.867940,8512.368333
773.201432,-3108.864956,-5132.839837,8438.347739
773.201757,-2368.659014,-4366.744339,8512.368333
773.202082,-962.267725,-3064.381992,9696.697840
773.202406,-1036.288319,-2757.943793,8290.306550
773.202731,-518.144159,-3217.601092,7476.080014
773.203056,444.123565,-1685.410096,8734.430116
773.203381,444.123565,919.314598,9474.636058
773.203706,-962.267725,1225.752797,9918.759623
773.204031,-1850.514855,842.705048,9400.615463
773.204355,-3404.947333,2145.067394,9400.615463
773.204680,-5773.606348,3064.381992,10362.883188
773.205005,-5699.585753,2298.286494,9770.718434
773.205330,-5255.462188,2145.067394,9622.677246
773.205655,-3849.070898,2145.067394,8956.491898
773.205979,-2590.720797,2068.457845,8438.347739
773.206304,-1924.535449,1608.800546,7328.038826
773.206629,-666.185348,766.095498,6291.750507
773.206954,888.247130,459.657299,6809.894666
773.207279,2220.617826,153.219100,7476.080014
773.207604,2738.761985,-1072.533697,8142.265362
773.207928,3404.947333,-995.924147,8512.368333
773.208253,4589.276840,-689.485948,9622.677246
773.208578,5403.503377,-76.609550,9992.780217
773.208903,6439.791695,919.314598,10214.842000
773.209228,6439.791695,2145.067394,11769.274478
773.209553,5403.503377,3217.601092,12805.562797
773.209877,4663.297435,3600.648841,12213.398043
773.210202,3034.844362,4060.306139,13027.624579
773.210527,444.123565,4290.134789,12435.459826
773.210852,-518.144159,4673.182538,11177.109724
773.211177,814.226536,4290.134789,9844.739029
773.211502,888.247130,4060.306139,8290.306550
773.211826,-962.267725,3830.477490,5329.482782
773.212151,-592.164754,2221.676944,4441.235652
773.212476,592.164754,919.314598,4367.215058
773.212801,296.082377,-306.438199,4737.318029
773.213126,0.000000,-1685.410096,6069.688724
773.213451,0.000000,-2221.676944,7105.977043
773.213775,814.226536,-1762.019645,7994.224174
773.214100,1924.535449,-2528.115143,9992.780217
773.214425,1554.432478,-1915.238745,9992.780217
773.214750,1258.350101,-1149.143247,9918.759623
773.215075,1998.556043,306.438199,12213.398043
773.215399,1628.453072,1149.143247,13693.809927
773.215724,-814.226536,1149.143247,13323.706956
773.216049,-2368.659014,383.047749,11695.253884
773.216374,-3034.844362,1762.019645,11399.171507
773.216699,-5477.523971,2298.286494,11103.089130
773.217024,-5699.585753,1915.238745,10807.006753
773.217348,-5773.606348,-229.828649,9400.615463
773.217673,-5329.482782,-1532.190996,7328.038826
773.217998,-4219.173869,-1762.019645,6957.935855
773.218323,-3108.864956,-1608.800546,6513.812290
773.218648,-3034.844362,-2451.505594,6587.832884
773.218973,-2664.741391,-4366.744339,7920.203579
773.219297,-1554.432478,-4826.401637,7402.059420
773.219622,-962.267725,-3753.867940,7179.997637
773.219947,148.041188,-3140.991542,7994.224174
773.220272,1480.411884,-1838.629195,9474.636058
773.220597,2442.679609,-306.438199,10807.006753
773.220922,3330.926739,306.438199,11251.130318
773.221246,3849.070898,1608.800546,11177.109724
773.221571,2590.720797,2451.505594,10436.903782
773.221896,2368.659014,3753.867940,10288.862594
773.222221,1554.432478,3217.601092,11325.150913
773.222546,-444.123565,2681.334243,11177.109724
773.222871,-1776.494261,2528.115143,10584.944971
773.223195,-888.247130,1915.238745,9030.512492
773.223520,-370.102971,995.924147,7402.059420
773.223845,296.082377,-612.876398,6069.688724
773.224170,814.226536,0.000000,6143.709319
773.224495,1110.308913,-766.095498,7920.203579
773.224819,2590.720797,-1762.019645,8364.327145
773.225144,2886.803174,-1608.800546,9474.636058
773.225469,2812.782580,-612.876398,9992.780217
773.225794,3997.112087,-459.657299,9474.636058
773.226119,5995.668130,1225.752797,11029.068536
773.226444,5921.647536,1378.971896,11547.212695
773.226768,4737.318029,2757.943793,10807.006753
773.227093,4441.235652,3370.820191,10732.986159
773.227418,3627.009116,3753.867940,11029.068536
773.227743,74.020594,3830.477490,10362.883188
773.228068,-2960.823768,3830.477490,9770.718434
773.228393,-4515.256246,2987.772442,9918.759623
773.228717,-5403.503377,3294.210641,9400.615463
773.229042,-6143.709319,2834.553343,8216.285956
773.229367,-6143.709319,1685.410096,6661.853478
773.229692,-5847.626942,1225.752797,5181.441594
773.230017,-4367.215058,1455.581446,5847.626942
773.230342,-2664.741391,766.095498,6587.832884
773.230666,-3256.906145,-153.219100,6661.853478
773.230991,-2516.700203,-1915.238745,7179.997637
773.231316,-518.144159,-1072.533697,8438.347739
773.231641,0.000000,-383.047749,9918.759623
773.231966,74.020594,-919.314598,10066.800811
773.232291,1406.391290,-842.705048,10288.862594
773.232615,2960.823768,842.705048,11547.212695
773.232940,2146.597232,1685.410096,11547.212695
773.233265,1628.453072,1762.019645,11547.212695
773.233590,296.082377,1302.362347,11843.295072
773.233915,-444.123565,1838.629195,11695.253884
773.234239,-1776.494261,2374.896044,12213.398043
773.234564,-3849.070898,1455.581446,11769.274478
773.234889,-4811.338623,689.485948,10214.842000
773.235214,-3478.967927,536.266849,8956.491898
773.235539,-2368.659014,766.095498,7179.997637
773.235864,-2294.638420,76.609550,7105.977043
773.236188,-1258.350101,-459.657299,6587.832884
773.236513,148.041188,-766.095498,6883.915261
773.236838,1480.411884,-995.924147,7105.977043
773.237163,2886.803174,-1608.800546,7402.059420
773.237488,3478.967927,-919.314598,7698.141797
773.237813,5181.441594,-306.438199,8216.285956
773.238137,6735.874072,-306.438199,9918.759623
773.238462,6587.832884,76.609550,10436.903782
773.238787,5477.523971,459.657299,9400.615463
773.239112,4959.379811,1302.362347,10436.903782
773.239437,4441.235652,2604.724693,11177.109724
773.239762,1406.391290,1685.410096,11843.295072
773.240086,-1554.432478,842.705048,11399.171507
773.240411,-3108.864956,2221.676944,11473.192101
773.240736,-3849.070898,1991.848295,10955.047942
773.241061,-3552.988522,1685.410096,9770.718434
773.241386,-3182.885551,1072.533697,8142.265362
773.241711,-2738.761985,995.924147,7179.997637
773.242035,-814.226536,1302.362347,6957.935855
773.242360,444.123565,229.828649,7328.038826
773.242685,-444.123565,-919.314598,7179.997637
773.243010,-370.102971,-1149.143247,7254.018232
773.243335,1110.308913,-1225.752797,8660.409521
773.243659,2368.659014,-1378.971896,9918.759623
773.243984,1480.411884,-1302.362347,10288.862594
773.244309,1998.556043,-306.438199,9326.594869
773.244634,2886.803174,612.876398,9622.677246
773.244959,2072.576638,1915.238745,11029.068536
773.245284,1036.288319,2145.067394,11843.295072
773.245608,-518.144159,2451.505594,11991.336260
773.245933,-1850.514855,2681.334243,10807.006753
773.246258,-3627.009116,3830.477490,10584.944971
773.246583,-5255.462188,3524.039291,10658.965565
773.246908,-6217.729913,3140.991542,8734.430116
773.247233,-4811.338623,2374.896044,8142.265362
773.247557,-3701.029710,1302.362347,7402.059420
773.247882,-3478.967927,1072.533697,6809.894666
773.248207,-2072.576638,76.609550,5107.421000
773.248532,-296.082377,-536.266849,5699.585753
773.248857,518.144159,-995.924147,7105.977043
773.249182,962.267725,-689.485948,8142.265362
773.249506,2442.679609,-995.924147,8882.471304
773.249831,3775.050304,-1532.190996,9326.594869
773.250156,5255.462188,-612.876398,9918.759623
773.250481,5847.626942,919.314598,10732.986159
773.250806,4885.359217,1608.800546,11029.068536
773.251131,3552.988522,1149.143247,11621.233289
773.251455,2812.782580,2604.724693,12139.377449
773.251780,444.123565,2451.505594,11769.274478
773.252105,-2442.679609,2221.676944,10807.006753
773.252430,-3552.988522,2451.505594,10732.986159
773.252755,-4219.173869,2374.896044,10658.965565
773.253079,-3404.947333,2068.457845,9622.677246
773.253404,-2516.700203,1455.581446,7328.038826
773.253729,-2442.679609,536.266849,5625.565159
773.254054,-592.164754,766.095498,4663.297435
773.254379,1480.411884,383.047749,6365.771101
773.254704,1702.473667,-1608.800546,7031.956449
773.255028,1110.308913,-2298.286494,7476.080014
773.255353,2368.659014,-2374.896044,8512.368333
773.255678,3923.091493,-995.924147,9696.697840
773.256003,3330.926739,-2068.457845,10066.800811
773.256328,3330.926739,-1532.190996,9918.759623
773.256653,4293.194464,459.657299,11177.109724
773.256977,3775.050304,1838.629195,12361.439231
773.257302,1850.514855,1838.629195,12583.501014
773.257627,-888.247130,1149.143247,11991.336260
773.257952,-2368.659014,1915.238745,11177.109724
773.258277,-3404.947333,2374.896044,12213.398043
773.258602,-4441.235652,2298.286494,11769.274478
773.258926,-4959.379811,995.924147,9326.594869
773.259251,-3923.091493,229.828649,7772.162391
773.259576,-2812.782580,0.000000,6883.915261
773.259901,-2368.659014,-306.438199,5995.668130
773.260226,-2072.576638,-1302.362347,5551.544565
773.260551,-666.185348,-2145.067394,6587.832884
773.260875,0.000000,-2068.457845,7476.080014
773.261200,296.082377,-2604.724693,8586.388927
773.261525,2072.576638,-2374.896044,9474.636058
773.261850,2516.700203,-1608.800546,9178.553681
773.262175,3997.112087,0.000000,9474.636058
773.262499,4811.338623,1302.362347,10584.944971
773.262824,3404.947333,2221.676944,11473.192101
773.263149,1850.514855,1762.019645,10436.903782
773.263474,1184.329507,2681.334243,10658.965565
773.263799,-1406.391290,3064.381992,10955.047942
773.264124,-4071.132681,2911.162892,11251.130318
773.264448,-4959.379811,2145.067394,10658.965565
773.264773,-4367.215058,1378.971896,9474.636058
773.265098,-3701.029710,1302.362347,8068.244768
773.265423,-2738.761985,612.876398,6513.812290
773.265748,-2220.617826,689.485948,5403.503377
773.266073,814.226536,-766.095498,5847.626942
773.266397,2072.576638,-459.657299,7772.162391
773.266722,2220.617826,-1149.143247,8512.368333
773.267047,2368.659014,-1149.143247,8068.244768
773.267372,3775.050304,-1378.971896,8956.491898
773.267697,5255.462188,-995.924147,10658.965565
773.268022,4737.318029,536.266849,11325.150913
773.268346,4663.297435,306.438199,10510.924376
773.268671,4367.215058,995.924147,11029.068536
773.268996,3182.885551,1608.800546,11251.130318
773.269321,740.205942,2528.115143,11399.171507
773.269646,-888.247130,2451.505594,12065.356855
773.269971,-2960.823768,2145.067394,10955.047942
773.270295,-4367.215058,1302.362347,10510.924376
773.270620,-4515.256246,1685.410096,10436.903782
773.270945,-5107.421000,1225.752797,8290.306550
773.271270,-4219.173869,229.828649,6439.791695
773.271595,-1998.556043,0.000000,6217.729913
773.271919,-1406.391290,0.000000,6069.688724
773.272244,-1110.308913,-306.438199,6217.729913
773.272569,740.205942,-1685.410096,6809.894666
773.272894,1702.473667,-2374.896044,7698.141797
773.273219,2072.576638,-1378.971896,9252.574275
773.273544,2960.823768,-383.047749,10066.800811
773.273868,4293.194464,-689.485948,10214.842000
773.274193,4441.235652,-306.438199,9844.739029
773.274518,4737.318029,995.924147,10955.047942
773.274843,3552.988522,2145.067394,11843.295072
773.275168,962.267725,1225.752797,10955.047942
773.275493,-1184.329507,1072.533697,11547.212695
773.275817,-3108.864956,1378.971896,12065.356855
773.276142,-6069.688724,1762.019645,11621.233289
773.276467,-6883.915261,919.314598,10214.842000
773.276792,-6513.812290,383.047749,9104.533087
773.277117,-4811.338623,842.705048,7402.059420
773.277442,-3775.050304,612.876398,7031.956449
773.277766,-2146.597232,383.047749,6069.688724
773.278091,-370.102971,-306.438199,6143.709319
773.278416,1850.514855,-383.047749,7179.997637
773.278741,2812.782580,-842.705048,8438.347739
773.279066,2442.679609,-1302.362347,8586.388927
773.279390,4071.132681,-1991.848295,8660.409521
773.279715,5773.606348,-229.828649,9696.697840
773.280040,5625.565159,306.438199,10288.862594
773.280365,4737.318029,459.657299,9992.780217
773.280690,4367.215058,1072.533697,10658.965565
773.281015,2812.782580,1762.019645,10658.965565
773.281339,814.226536,2451.505594,11325.150913
773.281664,-1776.494261,2681.334243,11843.295072
773.281989,-3849.070898,2221.676944,11251.130318
773.282314,-4663.297435,2145.067394,10658.965565
773.282639,-4293.194464,2221.676944,10584.944971
773.282964,-4441.235652,1532.190996,8438.347739
773.283288,-4219.173869,842.705048,6883.915261
773.283613,-1850.514855,842.705048,6439.791695
773.283938,-962.267725,612.876398,6883.915261
773.284263,-814.226536,-229.828649,6809.894666
773.284588,74.020594,-1838.629195,7105.977043
773.284913,1554.432478,-1838.629195,8290.306550
773.285237,2516.700203,-1225.752797,9474.636058
773.285562,3701.029710,-1072.533697,10140.821405
773.285887,4145.153275,-1072.533697,9474.636058
773.286212,5403.503377,306.438199,9622.677246
773.286537,5699.585753,2298.286494,10658.965565
773.286862,3404.947333,2604.724693,11695.253884
773.287186,296.082377,2145.067394,11399.171507
773.287511,-1110.308913,1838.629195,11251.130318
773.287836,-2960.823768,2298.286494,11473.192101
773.288161,-5921.647536,1991.848295,11399.171507
773.288486,-7698.141797,1072.533697,9474.636058
773.288810,-6365.771101,383.047749,8290.306550
773.289135,-4737.318029,306.438199,8142.265362
773.289460,-3552.988522,383.047749,6957.935855
773.289785,-2146.597232,383.047749,6513.812290
773.290110,-518.144159,-536.266849,6513.812290
773.290435,1110.308913,0.000000,7105.977043
773.290760,2220.617826,-1378.971896,8216.285956
773.291085,2294.638420,-1225.752797,8882.471304
773.291410,3330.926739,-1225.752797,8660.409521
773.291735,4885.359217,-689.485948,9770.718434
773.292060,5181.441594,76.609550,10362.883188
773.292385,3552.988522,842.705048,10140.821405
773.292709,2590.720797,1455.581446,10732.986159
773.293034,2220.617826,1838.629195,10881.027347
773.293359,-518.144159,2451.505594,11325.150913
773.293684,-2590.720797,2451.505594,11843.295072
773.294009,-4885.359217,2374.896044,11621.233289
773.294334,-5181.441594,2451.505594,10807.006753
773.294659,-4367.215058,1915.238745,10214.842000
773.294984,-3849.070898,1378.971896,8586.388927
773.295309,-2812.782580,1685.410096,6809.894666
773.295634,-962.267725,1302.362347,6291.750507
773.295959,-592.164754,536.266849,7105.977043
773.296284,0.000000,-766.095498,6661.853478
773.296609,1036.288319,-1149.143247,7031.956449
773.296934,2812.782580,-1685.410096,8290.306550
773.297259,3627.009116,-842.705048,9030.512492
773.297584,4071.132681,-1225.752797,9770.718434
773.297909,5033.400406,0.000000,9918.759623
773.298234,5699.585753,1378.971896,9548.656652
773.298558,5551.544565,1838.629195,10362.883188
773.298883,4071.132681,2987.772442,11325.150913
773.299208,1554.432478,3140.991542,11251.130318
773.299533,-1332.370696,2757.943793,11843.295072
773.299858,-2442.679609,2374.896044,11769.274478
773.300183,-5255.462188,2987.772442,11029.068536
773.300508,-6069.688724,2374.896044,9474.636058
773.300833,-5107.421000,1532.190996,7846.182985
773.301158,-4071.132681,536.266849,7031.956449
773.301483,-3923.091493,459.657299,6883.915261
773.301808,-2442.679609,0.000000,5699.585753
773.302133,-1480.411884,-1455.581446,5403.503377
773.302458,666.185348,-1685.410096,6809.894666
773.302783,1702.473667,-1302.362347,8882.471304
773.303108,1554.432478,-2451.505594,9696.697840
773.303433,2294.638420,-3064.381992,8586.388927
773.303758,4737.318029,-2068.457845,9844.739029
773.304083,5403.503377,612.876398,10955.047942
773.304407,4589.276840,2068.457845,11843.295072
773.304732,4367.215058,995.924147,11695.253884
773.305057,2442.679609,1991.848295,11473.192101
773.305382,1184.329507,3907.087040,12065.356855
773.305707,-1480.411884,4443.353888,11917.315666
773.306032,-3627.009116,2528.115143,11251.130318
773.306357,-4737.318029,2068.457845,10436.903782
773.306682,-3775.050304,1608.800546,10066.800811
773.307007,-4219.173869,1455.581446,8068.244768
773.307332,-4515.256246,306.438199,6439.791695
773.307657,-3552.988522,-995.924147,6291.750507
773.307982,-1554.432478,-1838.629195,6883.915261
773.308307,-1332.370696,-1915.238745,7105.977043
773.308632,-740.205942,-2451.505594,7328.038826
773.308957,1110.308913,-2604.724693,7476.080014
773.309282,3330.926739,-1532.190996,8586.388927
773.309607,4441.235652,76.609550,9770.718434
773.309932,5329.482782,306.438199,10066.800811
773.310256,5551.544565,919.314598,10066.800811
773.310581,5329.482782,2451.505594,11177.109724
773.310906,3627.009116,3294.210641,11621.233289
773.311231,1036.288319,3140.991542,11621.233289
773.311556,-1480.411884,2374.896044,10436.903782
773.311881,-2886.803174,2681.334243,11325.150913
773.312206,-4885.359217,3064.381992,11251.130318
773.312531,-5847.626942,1838.629195,9178.553681
773.312856,-4737.318029,612.876398,6957.935855
773.313181,-3330.926739,536.266849,6735.874072
773.313506,-2442.679609,612.876398,6439.791695
773.313831,-962.267725,153.219100,6809.894666
773.314156,740.205942,-689.485948,6587.832884
773.314481,1998.556043,-995.924147,7402.059420
773.314806,3404.947333,-1149.143247,8808.450710
773.315131,4071.132681,-1149.143247,9548.656652
773.315456,4737.318029,-1608.800546,9770.718434
773.315780,5699.585753,0.000000,10658.965565
773.316105,6809.894666,1225.752797,11769.274478
773.316430,4293.194464,1532.190996,10807.006753
773.316755,2368.659014,1225.752797,10807.006753
773.317080,222.061783,2145.067394,10881.027347
773.317405,-962.267725,2911.162892,11547.212695
773.317730,-3701.029710,2528.115143,11769.274478
773.318055,-5477.523971,1685.410096,11251.130318
773.318380,-5551.544565,1685.410096,9252.574275
773.318705,-4145.153275,1225.752797,7550.100608
773.319030,-3849.070898,1072.533697,7402.059420
773.319355,-4071.132681,-229.828649,6069.688724
773.319680,-3034.844362,-995.924147,5477.523971
773.320005,-370.102971,-1915.238745,6809.894666
773.320330,0.000000,-1838.629195,7550.100608
773.320655,0.000000,-2298.286494,7476.080014
773.320980,1998.556043,-2221.676944,8364.327145
773.321305,3849.070898,-2757.943793,9474.636058
773.321629,4737.318029,-919.314598,10881.027347
773.321954,5551.544565,153.219100,10658.965565
773.322279,5625.565159,919.314598,11103.089130
773.322604,4959.379811,2145.067394,11621.233289
773.322929,3552.988522,3140.991542,11769.274478
773.323254,814.226536,2911.162892,12139.377449
773.323579,-2442.679609,1991.848295,11547.212695
773.323904,-4737.318029,2145.067394,11843.295072
773.324229,-4959.379811,1532.190996,10955.047942
773.324554,-6143.709319,459.657299,9030.512492
773.324879,-6069.688724,-229.828649,6587.832884
773.325204,-4663.297435,0.000000,6661.853478
773.325529,-3034.844362,-229.828649,6587.832884
773.325854,-2664.741391,-1455.581446,6587.832884
773.326179,-1332.370696,-2374.896044,7031.956449
773.326504,222.061783,-1838.629195,7179.997637
773.326829,2886.803174,-1225.752797,8660.409521
773.327154,4145.153275,-1072.533697,9992.780217
773.327478,4737.318029,-689.485948,9326.594869
773.327803,5773.606348,229.828649,9474.636058
773.328128,6587.832884,1991.848295,10732.986159
773.328453,5329.482782,2298.286494,11769.274478
773.328778,2886.803174,2374.896044,10658.965565
773.329103,1332.370696,2834.553343,11325.150913
773.329428,-666.185348,3524.039291,11843.295072
773.329753,-2960.823768,3753.867940,12213.398043
773.330078,-4515.256246,2757.943793,10807.006753
773.330403,-4367.215058,2681.334243,8808.450710
773.330728,-4071.132681,2681.334243,7550.100608
773.331053,-3330.926739,1685.410096,7402.059420
773.331378,-3256.906145,842.705048,6587.832884
773.331703,-3330.926739,-766.095498,6217.729913
773.332028,-1628.453072,-1149.143247,6957.935855
773.332353,-666.185348,-1378.971896,7624.121203
773.332678,-888.247130,-1838.629195,7550.100608
773.333003,1332.370696,-1915.238745,8882.471304
773.333327,2664.741391,-995.924147,9548.656652
773.333652,4071.132681,0.000000,10288.862594
773.333977,4885.359217,919.314598,10214.842000
773.334302,4737.318029,2298.286494,10584.944971
773.334627,4145.153275,3064.381992,10732.986159
773.334952,2738.761985,3064.381992,11251.130318
773.335277,0.000000,3217.601092,11547.212695
773.335602,-2368.659014,3217.601092,11621.233289
773.335927,-3108.864956,2528.115143,11325.150913
773.336252,-3627.009116,1915.238745,10288.862594
773.336577,-4515.256246,1302.362347,9030.512492
773.336902,-4737.318029,0.000000,7105.977043
773.337227,-2886.803174,-306.438199,7105.977043
773.337552,-1924.535449,-1225.752797,6513.812290
773.337877,-1184.329507,-1685.410096,6883.915261
773.338202,-1110.308913,-2451.505594,7179.997637
773.338527,592.164754,-2604.724693,7254.018232
773.338852,2812.782580,-2451.505594,8956.491898
773.339176,3701.029710,-2298.286494,10658.965565
773.339501,3923.091493,-1608.800546,10066.800811
773.339826,4959.379811,-1149.143247,10288.862594
773.340151,5625.565159,612.876398,11695.253884
773.340476,3849.070898,1302.362347,11695.253884
773.340801,1110.308913,1302.362347,11029.068536
773.341126,-222.061783,1455.581446,11103.089130
773.341451,-1924.535449,1838.629195,11843.295072
773.341776,-3997.112087,2221.676944,12139.377449
773.342101,-4737.318029,1225.752797,10955.047942
773.342426,-4737.318029,1072.533697,8142.265362
773.342751,-3627.009116,766.095498,7105.977043
773.343076,-2738.761985,459.657299,7105.977043
773.343401,-2590.720797,459.657299,6291.750507
773.343726,-1628.453072,-612.876398,6217.729913
773.344051,74.020594,-2298.286494,6883.915261
773.344376,814.226536,-1915.238745,7031.956449
773.344701,1628.453072,-1149.143247,8290.306550
773.345025,2442.679609,-1378.971896,9178.553681
773.345350,4219.173869,-1378.971896,10288.862594
773.345675,5107.421000,-153.219100,10584.944971
773.346000,5329.482782,1532.190996,11103.089130
773.346325,4589.276840,2451.505594,11695.253884
773.346650,2516.700203,3140.991542,10807.006753
773.346975,1998.556043,3830.477490,11917.315666
773.347300,-1406.391290,3217.601092,12583.501014
773.347625,-4293.194464,3370.820191,11399.171507
773.347950,-5107.421000,2604.724693,10066.800811
773.348275,-4441.235652,1991.848295,9178.553681
773.348600,-5329.482782,1762.019645,7846.182985
773.348925,-5551.544565,689.485948,6587.832884
773.349250,-3627.009116,153.219100,5625.565159
773.349575,-2590.720797,-383.047749,6217.729913
773.349900,-1332.370696,-306.438199,6587.832884
773.350225,-148.041188,-306.438199,6957.935855
773.350550,1628.453072,-842.705048,7328.038826
773.350874,4071.132681,-306.438199,8734.430116
773.351199,5477.523971,0.000000,10066.800811
773.351524,5699.585753,1455.581446,9844.739029
773.351849,6661.853478,1685.410096,10066.800811
773.352174,5847.626942,2221.676944,11621.233289
773.352499,4071.132681,2911.162892,11843.295072
773.352824,2368.659014,3294.210641,11251.130318
773.353149,0.000000,2681.334243,11621.233289
773.353474,-2812.782580,2681.334243,11621.233289
773.353799,-4145.153275,2374.896044,10881.027347
773.354124,-5181.441594,1838.629195,9474.636058
773.354449,-5181.441594,153.219100,7994.224174
773.354774,-5033.400406,76.609550,6809.894666
773.355099,-3627.009116,0.000000,7105.977043
773.355424,-2664.741391,-1149.143247,6735.874072
773.355749,-2146.597232,-2681.334243,6735.874072
773.356074,-592.164754,-2911.162892,7402.059420
773.356398,1850.514855,-2068.457845,8216.285956
773.356723,2368.659014,-1915.238745,9474.636058
773.357048,3997.112087,-2374.896044,9844.739029
773.357373,5995.668130,-1915.238745,10436.903782
773.357698,6809.894666,0.000000,10881.027347
773.358023,6883.915261,1532.190996,12065.356855
773.358348,4811.338623,1225.752797,11843.295072
773.358673,3330.926739,1838.629195,11177.109724
773.358998,1332.370696,2528.115143,11991.336260
773.359323,-1924.535449,2528.115143,12435.459826
773.359648,-5255.462188,1225.752797,10584.944971
773.359973,-5995.668130,459.657299,9252.574275
773.360298,-5403.503377,612.876398,7920.203579
773.360623,-5699.585753,536.266849,7476.080014
773.360948,-6143.709319,-919.314598,5921.647536
773.361273,-4811.338623,-1762.019645,5403.503377
773.361598,-3034.844362,-1532.190996,6439.791695
773.361923,-1850.514855,-1762.019645,6365.771101
773.362247,-222.061783,-2374.896044,6809.894666
773.362572,1776.494261,-1378.971896,7624.121203
773.362897,3849.070898,0.000000,9104.533087
773.363222,5699.585753,0.000000,11103.089130
773.363547,6069.688724,0.000000,10584.944971
773.363872,5625.565159,1072.533697,10510.924376
773.364197,5551.544565,2068.457845,12065.356855
773.364522,4293.194464,2604.724693,12805.562797
773.364847,1406.391290,2298.286494,12361.439231
773.365172,-814.226536,1455.581446,11399.171507
773.365497,-2442.679609,2911.162892,12139.377449
773.365822,-3701.029710,3064.381992,11251.130318
773.366147,-3404.947333,2757.943793,9622.677246
773.366472,-3775.050304,1378.971896,7994.224174
773.366797,-3849.070898,1685.410096,5921.647536
773.367122,-2294.638420,1685.410096,5995.668130
773.367447,-1628.453072,842.705048,5921.647536
773.367772,-2368.659014,-842.705048,5699.585753
773.368096,-1258.350101,-1915.238745,6957.935855
773.368421,592.164754,-1072.533697,8216.285956
773.368746,1332.370696,-1225.752797,9474.636058
773.369071,2368.659014,-1378.971896,9622.677246
773.369396,3775.050304,306.438199,9696.697840
773.369721,5255.462188,2451.505594,9622.677246
773.370046,5847.626942,3064.381992,10436.903782
773.370371,4145.153275,3677.258390,10214.842000
773.370696,2664.741391,4443.353888,9770.718434
773.371021,1554.432478,4749.792088,11177.109724
773.371346,-814.226536,4290.134789,11843.295072
773.371671,-3552.988522,2757.943793,10584.944971
773.371996,-4589.276840,2374.896044,9548.656652
773.372321,-4663.297435,995.924147,8512.368333
773.372646,-5699.585753,0.000000,8364.327145
773.372971,-6439.791695,-1302.362347,6957.935855
773.373296,-4663.297435,-1915.238745,6439.791695
773.373621,-2664.741391,-2528.115143,7105.977043
773.373945,-1406.391290,-2834.553343,7402.059420
773.374270,-296.082377,-1991.848295,8068.244768
773.374595,1776.494261,-1991.848295,9474.636058
773.374920,3997.112087,-1225.752797,9622.677246
773.375245,6069.688724,-306.438199,10288.862594
773.375570,6587.832884,919.314598,10436.903782
773.375895,5329.482782,1302.362347,10362.883188
773.376220,5033.400406,1915.238745,10584.944971
773.376545,3701.029710,2298.286494,11399.171507
773.376870,296.082377,2451.505594,11621.233289
773.377195,-2294.638420,1685.410096,10881.027347
773.377520,-3182.885551,1455.581446,11103.089130
773.377845,-3849.070898,1072.533697,10436.903782
773.378170,-4367.215058,612.876398,9326.594869
773.378495,-4441.235652,0.000000,7402.059420
773.378820,-3923.091493,0.000000,6217.729913
773.379145,-1850.514855,-1302.362347,6587.832884
773.379470,-888.247130,-1762.019645,6883.915261
773.379794,-1258.350101,-2451.505594,7254.018232
773.380119,74.020594,-2987.772442,7772.162391
773.380444,2294.638420,-2834.553343,9178.553681
773.380769,2960.823768,-2911.162892,10955.047942
773.381094,3775.050304,-1915.238745,10510.924376
773.381419,5255.462188,-842.705048,10881.027347
773.381744,5921.647536,229.828649,11843.295072
773.382069,5255.462188,2374.896044,12435.459826
773.382394,3478.967927,2528.115143,11843.295072
773.382719,1702.473667,2604.724693,10658.965565
773.383044,-148.041188,3370.820191,11177.109724
773.383369,-2368.659014,4060.306139,11547.212695
773.383694,-4663.297435,2987.772442,9844.739029
773.384019,-5033.400406,1072.533697,7179.997637
773.384344,-5551.544565,383.047749,6661.853478
773.384669,-5995.668130,919.314598,5773.606348
773.384994,-5403.503377,306.438199,5181.441594
773.385319,-3775.050304,-1532.190996,4885.359217
773.385643,-2886.803174,-1378.971896,5773.606348
773.385968,-666.185348,-1302.362347,7179.997637
773.386293,1776.494261,-306.438199,8216.285956
773.386618,3627.009116,-689.485948,9696.697840
773.386943,5181.441594,0.000000,11177.109724
773.387268,7698.141797,1455.581446,11843.295072
773.387593,7846.182985,2451.505594,11917.315666
773.387918,5847.626942,2681.334243,11695.253884
773.388243,5107.421000,4136.915689,12065.356855
773.388568,3701.029710,4673.182538,12509.480420
773.388893,-222.061783,3907.087040,11991.336260
773.389218,-3701.029710,2374.896044,11177.109724
773.389543,-4959.379811,2374.896044,10362.883188
773.389867,-5921.647536,2298.286494,9474.636058
773.390192,-7031.956449,1149.143247,7846.182985
773.390517,-7328.038826,229.828649,6143.709319
773.390842,-5847.626942,-459.657299,4145.153275
773.391167,-3849.070898,-689.485948,4589.276840
773.391492,-1406.391290,-919.314598,6439.791695
773.391817,-1480.411884,-1378.971896,6217.729913
773.392142,0.000000,-2145.067394,7179.997637
773.392467,3701.029710,-1225.752797,9474.636058
773.392792,5625.565159,-689.485948,10732.986159
773.393116,6069.688724,76.609550,10362.883188
773.393441,7476.080014,919.314598,10881.027347
773.393766,7402.059420,1991.848295,11621.233289
773.394091,6661.853478,3217.601092,11991.336260
773.394416,4367.215058,3217.601092,11991.336260
773.394741,1480.411884,2757.943793,11695.253884
773.395066,-1036.288319,2298.286494,11843.295072
773.395391,-2738.761985,1991.848295,11399.171507
773.395716,-4811.338623,919.314598,9844.739029
773.396041,-6365.771101,-459.657299,8142.265362
773.396366,-6143.709319,-995.924147,7179.997637
773.396690,-5847.626942,-1838.629195,5921.647536
773.397015,-5551.544565,-2451.505594,6069.688724
773.397340,-3849.070898,-2528.115143,5847.626942
773.397665,-2294.638420,-2145.067394,6143.709319
773.397990,296.082377,-2374.896044,7550.100608
773.398315,2294.638420,-2145.067394,9252.574275
773.398640,3552.988522,-1991.848295,10436.903782
773.398965,5329.482782,-766.095498,10214.842000
773.399290,7105.977043,536.266849,11251.130318
773.399615,7698.141797,1838.629195,12509.480420
773.399940,5477.523971,2298.286494,11843.295072
773.400264,4441.235652,2451.505594,10881.027347
773.400589,2738.761985,3140.991542,11843.295072
773.400914,-1036.288319,2911.162892,11769.274478
773.401239,-4515.256246,2451.505594,10881.027347
773.401564,-5181.441594,1302.362347,9548.656652
773.401889,-5329.482782,459.657299,8142.265362
773.402214,-6217.729913,306.438199,7179.997637
773.402539,-6143.709319,306.438199,6439.791695
773.402864,-4959.379811,-612.876398,5255.462188
773.403189,-3034.844362,-1378.971896,5995.668130
773.403513,-1184.329507,-1378.971896,7402.059420
773.403838,-666.185348,-1072.533697,7772.162391
773.404163,962.267725,-1378.971896,7772.162391
773.404488,3478.967927,-1149.143247,9918.759623
773.404813,5477.523971,0.000000,11399.171507
773.405138,5403.503377,919.314598,10807.006753
773.405463,5847.626942,1532.190996,10584.944971
773.405788,6143.709319,2757.943793,11547.212695
773.406113,4589.276840,4290.134789,11695.253884
773.406438,2146.597232,4596.572988,11621.233289
773.406763,-296.082377,3217.601092,10732.986159
773.407087,-2664.741391,3524.039291,10140.821405
773.407412,-3404.947333,3600.648841,11251.130318
773.407737,-4441.235652,2757.943793,9770.718434
773.408062,-5699.585753,1072.533697,7031.956449
773.408387,-4885.359217,0.000000,5995.668130
773.408712,-3552.988522,0.000000,5403.503377
773.409037,-3256.906145,153.219100,5181.441594
773.409362,-2072.576638,-842.705048,6143.709319
773.409687,0.000000,-1762.019645,7105.977043
773.410012,1406.391290,-1455.581446,8660.409521
773.410336,3256.906145,-612.876398,10214.842000
773.410661,5033.400406,-612.876398,10658.965565
773.410986,5773.606348,306.438199,9844.739029
773.411311,7105.977043,1149.143247,10807.006753
773.411636,6069.688724,2145.067394,11917.315666
773.411961,3552.988522,2451.505594,10955.047942
773.412286,1776.494261,2221.676944,10807.006753
773.412611,74.020594,2298.286494,11843.295072
773.412936,-3256.906145,2374.896044,11621.233289
773.413261,-6587.832884,1378.971896,10658.965565
773.413586,-6587.832884,0.000000,9030.512492
773.413910,-7105.977043,0.000000,7254.018232
773.414235,-6291.750507,-306.438199,7105.977043
773.414560,-5403.503377,-459.657299,6217.729913
773.414885,-3923.091493,-1302.362347,5329.482782
773.415210,-1332.370696,-2145.067394,5847.626942
773.415535,814.226536,-1608.800546,7920.203579
773.415860,2146.597232,-383.047749,8808.450710
773.416185,2886.803174,-1149.143247,9252.574275
773.416510,4811.338623,-2528.115143,10436.903782
773.416835,5921.647536,-919.314598,11325.150913
773.417160,5699.585753,536.266849,11103.089130
773.417484,5255.462188,1072.533697,11325.150913
773.417809,4737.318029,1991.848295,11547.212695
773.418134,2368.659014,2528.115143,11399.171507
773.418459,740.205942,3140.991542,11325.150913
773.418784,-1850.514855,1991.848295,11473.192101
773.419109,-3775.050304,2528.115143,10881.027347
773.419434,-4737.318029,1838.629195,10436.903782
773.419759,-5033.400406,919.314598,9030.512492
773.420084,-5847.626942,0.000000,6809.894666
773.420409,-5551.544565,-995.924147,5107.421000
773.420733,-3330.926739,-1225.752797,6439.791695
773.421058,-2072.576638,-1225.752797,6513.812290
773.421383,-1036.288319,-1762.019645,6957.935855
773.421708,1036.288319,-2451.505594,7772.162391
773.422033,3849.070898,-1302.362347,9104.533087
773.422358,5107.421000,76.609550,10140.821405
773.422683,6291.750507,612.876398,11399.171507
773.423008,7698.141797,1915.238745,11103.089130
773.423333,8586.388927,2757.943793,10807.006753
773.423658,7476.080014,3217.601092,11103.089130
773.423983,3997.112087,3983.696590,10955.047942
773.424307,666.185348,3600.648841,10658.965565
773.424632,-1406.391290,3370.820191,11843.295072
773.424957,-5033.400406,2374.896044,11917.315666
773.425282,-8216.285956,1838.629195,9474.636058
773.425607,-8364.327145,689.485948,7254.018232
773.425932,-8216.285956,76.609550,7105.977043
773.426257,-7402.059420,-153.219100,5921.647536
773.426582,-5921.647536,-229.828649,5921.647536
773.426907,-3330.926739,-842.705048,5625.565159
773.427232,-444.123565,-1302.362347,5995.668130
773.427557,1850.514855,-383.047749,8216.285956
773.427881,3182.885551,306.438199,10066.800811
773.428206,5033.400406,-383.047749,9770.718434
773.428531,7105.977043,-459.657299,10658.965565
773.428856,8142.265362,842.705048,11547.212695
773.429181,7476.080014,2681.334243,11251.130318
773.429506,6587.832884,2911.162892,11843.295072
773.429831,4811.338623,2145.067394,11547.212695
773.430156,1628.453072,1532.190996,11029.068536
773.430481,-1036.288319,2987.772442,11547.212695
773.430806,-3997.112087,2681.334243,11029.068536
773.431130,-6439.791695,1225.752797,10214.842000
773.431455,-7328.038826,-536.266849,8882.471304
773.431780,-6809.894666,-995.924147,7031.956449
773.432105,-7105.977043,0.000000,5995.668130
773.432430,-5551.544565,-689.485948,6069.688724
773.432755,-3256.906145,-1532.190996,6217.729913
773.433080,-1850.514855,-2068.457845,7698.141797
773.433405,0.000000,-2528.115143,7772.162391
773.433730,2072.576638,-2528.115143,8364.327145
773.434055,4441.235652,-2068.457845,9844.739029
773.434380,6291.750507,0.000000,11547.212695
773.434704,7772.162391,612.876398,11843.295072
773.435029,8512.368333,0.000000,10881.027347
773.435354,8290.306550,1378.971896,10140.821405
773.435679,6587.832884,3600.648841,11325.150913
773.436004,3256.906145,3677.258390,11473.192101
773.436329,148.041188,2221.676944,10584.944971
773.436654,-2368.659014,1225.752797,11103.089130
773.436979,-5551.544565,1838.629195,10288.862594
773.437304,-9030.512492,1378.971896,8956.491898
773.437629,-9474.636058,-459.657299,6365.771101
773.437954,-8068.244768,-1838.629195,5995.668130
773.438278,-7328.038826,-1149.143247,6143.709319
773.438603,-5699.585753,-383.047749,5847.626942
773.438928,-3330.926739,-1302.362347,5847.626942
773.439253,-1184.329507,-2145.067394,6957.935855
773.439578,1702.473667,-1608.800546,8586.388927
773.439903,3552.988522,-459.657299,10584.944971
773.440228,5107.421000,-612.876398,10881.027347
773.440553,6809.894666,-612.876398,11325.150913
773.440878,8142.265362,919.314598,12139.377449
773.441203,7920.203579,2681.334243,11621.233289
773.441527,6217.729913,3217.601092,11325.150913
773.441852,4589.276840,2834.553343,11399.171507
773.442177,1628.453072,3217.601092,11177.109724
773.442502,-1628.453072,3677.258390,11843.295072
773.442827,-4663.297435,2987.772442,11399.171507
773.443152,-6735.874072,2145.067394,9622.677246
773.443477,-7179.997637,1991.848295,7624.121203
773.443802,-6883.915261,1149.143247,6143.709319
773.444127,-7105.977043,689.485948,5107.421000
773.444452,-6217.729913,0.000000,4071.132681
773.444777,-3775.050304,-536.266849,4959.379811
773.445101,-1480.411884,-1072.533697,5995.668130
773.445426,-444.123565,-1072.533697,7328.038826
773.445751,2072.576638,-842.705048,8438.347739
773.446076,4811.338623,-612.876398,9918.759623
773.446401,7179.997637,-536.266849,11621.233289
773.446726,7920.203579,842.705048,11621.233289
773.447051,8808.450710,2451.505594,11399.171507
773.447376,8808.450710,3447.429741,11325.150913
773.447701,7105.977043,3600.648841,11547.212695
773.448026,2812.782580,3447.429741,11843.295072
773.448350,-962.267725,2987.772442,11769.274478
773.448675,-3627.009116,2068.457845,11917.315666
773.449000,-6217.729913,995.924147,12213.398043
773.449325,-8956.491898,-459.657299,10436.903782
773.449650,-9326.594869,-1302.362347,7328.038826
773.449975,-8142.265362,-2145.067394,5921.647536
773.450300,-6439.791695,-1378.971896,5551.544565
773.450625,-4145.153275,-459.657299,5847.626942
773.450950,-1924.535449,-842.705048,5995.668130
773.451275,888.247130,-1302.362347,6735.874072
773.451600,3108.864956,-1378.971896,7846.182985
773.451924,4885.359217,-612.876398,10066.800811
773.452249,5847.626942,-383.047749,10288.862594
773.452574,6957.935855,-689.485948,10362.883188
773.452899,7994.224174,536.266849,10658.965565
773.453224,7031.956449,2221.676944,10732.986159
773.453549,4219.173869,2374.896044,10584.944971
773.453874,1628.453072,1838.629195,10510.924376
773.454199,-518.144159,1762.019645,10881.027347
773.454524,-3404.947333,2068.457845,11621.233289
773.454849,-6069.688724,1685.410096,11029.068536
773.455174,-7254.018232,306.438199,8956.491898
773.455498,-7105.977043,-536.266849,7105.977043
773.455823,-5625.565159,0.000000,6883.915261
773.456148,-5477.523971,-153.219100,6809.894666
773.456473,-4515.256246,-1072.533697,6217.729913
773.456798,-1776.494261,-2145.067394,7105.977043
773.457123,740.205942,-2374.896044,8364.327145
773.457448,2368.659014,-1685.410096,8956.491898
773.457773,4367.215058,-1762.019645,10066.800811
773.458098,6217.729913,-766.095498,11399.171507
773.458423,8068.244768,459.657299,12583.501014
773.458747,8660.409521,1685.410096,12509.480420
773.459072,7550.100608,2374.896044,11325.150913
773.459397,7031.956449,3753.867940,10214.842000
773.459722,5477.523971,5132.839837,10510.924376
773.460047,1258.350101,4366.744339,9918.759623
773.460372,-2960.823768,3447.429741,10066.800811
773.460697,-6439.791695,2604.724693,9770.718434
773.461022,-8512.368333,2374.896044,9178.553681
773.461347,-9548.656652,995.924147,7476.080014
773.461672,-9844.739029,-842.705048,5181.441594
773.461997,-8512.368333,-995.924147,4367.215058
773.462321,-5699.585753,-383.047749,4663.297435
773.462646,-3182.885551,0.000000,5403.503377
773.462971,-592.164754,-536.266849,6883.915261
773.463296,1554.432478,-1532.190996,7846.182985
773.463621,4663.297435,0.000000,9770.718434
773.463946,7179.997637,383.047749,11843.295072
773.464271,7994.224174,536.266849,12213.398043
773.464596,8438.347739,689.485948,11473.192101
773.464921,9400.615463,1762.019645,11547.212695
773.465246,7624.121203,3677.258390,12583.501014
773.465571,3775.050304,3447.429741,11843.295072
773.465895,592.164754,2604.724693,11399.171507
773.466220,-1776.494261,1915.238745,11399.171507
773.466545,-4811.338623,2068.457845,10881.027347
773.466870,-7698.141797,2298.286494,10510.924376
773.467195,-8438.347739,0.000000,8216.285956
773.467520,-7846.182985,-383.047749,5847.626942
773.467845,-7105.977043,-612.876398,5995.668130
773.468170,-5995.668130,-536.266849,5699.585753
773.468495,-4515.256246,-1455.581446,4811.338623
773.468820,-962.267725,-2451.505594,6217.729913
773.469144,1850.514855,-1915.238745,7920.203579
773.469469,3108.864956,-1762.019645,8956.491898
773.469794,4589.276840,-1455.581446,9474.636058
773.470119,7031.956449,-1225.752797,10807.006753
773.470444,7920.203579,76.609550,11473.192101
773.470769,9030.512492,1302.362347,11917.315666
773.471094,8364.327145,1838.629195,12361.439231
773.471419,6143.709319,2221.676944,10732.986159
773.471744,3701.029710,2451.505594,11177.109724
773.472069,592.164754,2298.286494,12065.356855
773.472394,-3627.009116,2451.505594,10955.047942
773.472718,-6439.791695,689.485948,10362.883188
773.473043,-7254.018232,76.609550,9696.697840
773.473368,-8068.244768,-153.219100,8586.388927
773.473693,-8660.409521,-995.924147,6365.771101
773.474018,-7105.977043,-2145.067394,4737.318029
773.474343,-4441.235652,-1072.533697,5921.647536
773.474668,-2664.741391,-1455.581446,6587.832884
773.474993,-592.164754,-1072.533697,7846.182985
773.475318,1776.494261,-1532.190996,8586.388927
773.475643,4589.276840,-1149.143247,9326.594869
773.475968,6809.894666,229.828649,10881.027347
773.476292,7105.977043,1378.971896,11399.171507
773.476617,7254.018232,1685.410096,10510.924376
773.476942,8142.265362,2298.286494,10658.965565
773.477267,6217.729913,3370.820191,11029.068536
773.477592,1998.556043,3830.477490,10584.944971
773.477917,-592.164754,3217.601092,10066.800811
773.478242,-2664.741391,2604.724693,10658.965565
773.478567,-6217.729913,1915.238745,10807.006753
773.478892,-8290.306550,1455.581446,10066.800811
773.479217,-8216.285956,919.314598,7254.018232
773.479541,-7031.956449,0.000000,5329.482782
773.479866,-5477.523971,383.047749,6439.791695
773.480191,-4737.318029,766.095498,7031.956449
773.480516,-2960.823768,229.828649,6587.832884
773.480841,444.123565,-1225.752797,6957.935855
773.481166,2590.720797,-1378.971896,9548.656652
773.481491,3552.988522,383.047749,10510.924376
773.481816,4663.297435,766.095498,10881.027347
773.482141,6735.874072,-766.095498,10807.006753
773.482466,7402.059420,0.000000,11103.089130
773.482791,7105.977043,2528.115143,10584.944971
773.483115,6809.894666,3753.867940,10955.047942
773.483440,4441.235652,2298.286494,10436.903782
773.483765,1554.432478,2911.162892,10732.986159
773.484090,-666.185348,2911.162892,11473.192101
773.484415,-4737.318029,2911.162892,10214.842000
773.484740,-7179.997637,1149.143247,8734.430116
773.485065,-7328.038826,229.828649,8068.244768
773.485390,-7179.997637,689.485948,7550.100608
773.485715,-7105.977043,306.438199,5625.565159
773.486040,-5551.544565,-919.314598,5033.400406
773.486364,-3552.988522,-1991.848295,5477.523971
773.486689,-1110.308913,-1302.362347,7105.977043
773.487014,1110.308913,-1762.019645,8586.388927
773.487339,2590.720797,-2757.943793,9548.656652
773.487664,4811.338623,-2221.676944,10362.883188
773.487989,7476.080014,-306.438199,11917.315666
773.488314,8290.306550,-229.828649,12065.356855
773.488639,7846.182985,0.000000,10807.006753
773.488964,7550.100608,459.657299,11251.130318
773.489289,6513.812290,1991.848295,11843.295072
773.489614,2590.720797,2298.286494,11843.295072
773.489938,-1036.288319,1072.533697,11029.068536
773.490263,-3182.885551,1149.143247,10584.944971
773.490588,-5699.585753,1149.143247,10881.027347
773.490913,-7476.080014,1302.362347,9474.636058
773.491238,-7846.182985,0.000000,7254.018232
773.491563,-7031.956449,-842.705048,5699.585753
773.491888,-5329.482782,-766.095498,5477.523971
773.492213,-3552.988522,-536.266849,6513.812290
773.492538,-3034.844362,-842.705048,5995.668130
773.492863,-1554.432478,-1991.848295,7402.059420
773.493187,1480.411884,-2834.553343,8734.430116
773.493512,2590.720797,-1685.410096,9844.739029
773.493837,3627.009116,-1378.971896,9918.759623
773.494162,5033.400406,-689.485948,9992.780217
773.494487,6291.750507,612.876398,11029.068536
773.494812,6735.874072,2374.896044,11029.068536
773.495137,4737.318029,3217.601092,11325.150913
773.495462,2368.659014,3064.381992,10510.924376
773.495787,888.247130,3370.820191,10584.944971
773.496112,-1258.350101,3447.429741,11621.233289
773.496436,-4737.318029,2987.772442,11547.212695
773.496761,-7254.018232,1991.848295,9474.636058
773.497086,-7179.997637,1149.143247,8438.347739
773.497411,-5255.462188,229.828649,7624.121203
773.497736,-5477.523971,1608.800546,6735.874072
773.498061,-4293.194464,612.876398,6217.729913
773.498386,-1258.350101,-459.657299,6587.832884
773.498711,740.205942,-1149.143247,6957.935855
773.499036,1332.370696,-306.438199,8660.409521
773.499361,3034.844362,-383.047749,9474.636058
773.499685,5255.462188,306.438199,9918.759623
773.500010,6883.915261,153.219100,11621.233289
773.500335,7179.997637,1685.410096,11621.233289
773.500660,6587.832884,2834.553343,10140.821405
773.500985,6513.812290,2834.553343,9622.677246
773.501310,4737.318029,3600.648841,10732.986159
773.501635,0.000000,4060.306139,10881.027347
773.501960,-2960.823768,3524.039291,9548.656652
773.502285,-4219.173869,2374.896044,10066.800811
773.502610,-7105.977043,1838.629195,10140.821405
773.502934,-7328.038826,1455.581446,8808.450710
773.503259,-6439.791695,536.266849,7105.977043
773.503584,-4811.338623,-306.438199,5773.606348
773.503909,-2738.761985,-383.047749,5995.668130
773.504234,-1554.432478,0.000000,6439.791695
773.504559,-74.020594,-306.438199,7254.018232
773.504884,1628.453072,-2068.457845,8216.285956
773.505209,3330.926739,-2451.505594,9474.636058
773.505534,5033.400406,-1378.971896,10584.944971
773.505859,5107.421000,-842.705048,11177.109724
773.506183,6439.791695,-766.095498,11251.130318
773.506508,7105.977043,459.657299,11251.130318
773.506833,5995.668130,1532.190996,11251.130318
773.507158,3182.885551,2145.067394,10807.006753
773.507483,592.164754,1685.410096,10510.924376
773.507808,-1406.391290,1915.238745,10658.965565
773.508133,-3849.070898,1608.800546,11695.253884
773.508458,-7179.997637,1532.190996,11029.068536
773.508783,-8660.409521,0.000000,8734.430116
773.509108,-7179.997637,-1838.629195,7550.100608
773.509432,-5921.647536,-1532.190996,6439.791695
773.509757,-5329.482782,-919.314598,6661.853478
773.510082,-3923.091493,-1149.143247,5625.565159
773.510407,-666.185348,-2221.676944,6809.894666
773.510732,1998.556043,-1915.238745,8216.285956
773.511057,3404.947333,-1072.533697,8734.430116
773.511382,4589.276840,-842.705048,8956.491898
773.511707,6809.894666,-842.705048,10362.883188
773.512032,8142.265362,306.438199,11621.233289
773.512356,8438.347739,1072.533697,12287.418637
773.512681,6439.791695,1838.629195,11029.068536
773.513006,4367.215058,2145.067394,11473.192101
773.513331,2886.803174,2757.943793,10881.027347
773.513656,-518.144159,3294.210641,10510.924376
773.513981,-4589.276840,2068.457845,9918.759623
773.514306,-5995.668130,1149.143247,10214.842000
773.514631,-7698.141797,2221.676944,8956.491898
773.514956,-7402.059420,1532.190996,7846.182985
773.515281,-6735.874072,536.266849,6883.915261
773.515605,-5699.585753,1149.143247,5921.647536
773.515930,-3478.967927,766.095498,5995.668130
773.516255,-962.267725,-919.314598,7254.018232
773.516580,-370.102971,-919.314598,8142.265362
773.516905,814.226536,-1378.971896,8364.327145
773.517230,3775.050304,-995.924147,9770.718434
773.517555,5255.462188,0.000000,11325.150913
773.517880,5255.462188,383.047749,11547.212695
773.518205,6809.894666,995.924147,10881.027347
773.518530,7476.080014,2145.067394,10807.006753
773.518854,5625.565159,3677.258390,10584.944971
773.519179,3478.967927,4443.353888,10214.842000
773.519504,962.267725,3753.867940,9992.780217
773.519829,-1480.411884,3447.429741,9770.718434
773.520154,-4663.297435,3064.381992,10732.986159
773.520479,-7402.059420,1991.848295,9992.780217
773.520804,-8512.368333,612.876398,7254.018232
773.521129,-7031.956449,-1225.752797,6809.894666
773.521454,-5255.462188,-995.924147,6587.832884
773.521779,-4737.318029,0.000000,7031.956449
773.522103,-3404.947333,-1149.143247,6291.750507
773.522428,0.000000,-2068.457845,7105.977043
773.522753,2590.720797,-2604.724693,8068.244768
773.523078,3552.988522,-536.266849,9252.574275
773.523403,4515.256246,76.609550,10658.965565
773.523728,6883.915261,0.000000,11473.192101
773.524053,7994.224174,0.000000,11695.253884
773.524378,7476.080014,0.000000,11843.295072
773.524703,5551.544565,1378.971896,11103.089130
773.525028,3478.967927,1762.019645,10807.006753
773.525352,1036.288319,1302.362347,11547.212695
773.525677,-1628.453072,-842.705048,11621.233289
773.526002,-5699.585753,0.000000,10436.903782
773.526327,-7846.182985,229.828649,9252.574275
773.526652,-7624.121203,0.000000,8438.347739
773.526977,-6735.874072,-919.314598,7550.100608
773.527302,-5551.544565,-919.314598,6957.935855
773.527627,-3256.906145,-995.924147,6143.709319
773.527952,-962.267725,0.000000,5625.565159
773.528277,1406.391290,-995.924147,6957.935855
773.528601,2664.741391,-1225.752797,8068.244768
773.528926,3034.844362,-1149.143247,8660.409521
773.529251,5107.421000,-1608.800546,9844.739029
773.529576,7105.977043,-1915.238745,11325.150913
773.529901,6587.832884,-306.438199,11843.295072
773.530226,5329.482782,-383.047749,10288.862594
773.530551,5403.503377,306.438199,10436.903782
773.530876,3997.112087,1378.971896,11103.089130
773.531201,740.205942,1838.629195,11325.150913
773.531526,-2146.597232,1838.629195,10732.986159
773.531850,-3997.112087,1608.800546,9770.718434
773.532175,-5847.626942,1991.848295,10807.006753
773.532500,-7402.059420,842.705048,10066.800811
773.532825,-7698.141797,995.924147,8364.327145
773.533150,-6439.791695,-306.438199,7105.977043
773.533475,-4515.256246,0.000000,7031.956449
773.533800,-3182.885551,995.924147,7105.977043
773.534125,-1258.350101,306.438199,6809.894666
773.534450,1554.432478,-766.095498,7402.059420
773.534775,3478.967927,-383.047749,8808.450710
773.535099,5033.400406,612.876398,9844.739029
773.535424,6069.688724,1149.143247,10362.883188
773.535749,7031.956449,612.876398,10510.924376
773.536074,7920.203579,2145.067394,10510.924376
773.536399,7476.080014,3294.210641,10436.903782
773.536724,4515.256246,3217.601092,10362.883188
773.537049,1554.432478,2834.553343,9992.780217
773.537374,-666.185348,3140.991542,9548.656652
773.537699,-3404.947333,3524.039291,10436.903782
773.538024,-7698.141797,2604.724693,10362.883188
773.538348,-9622.677246,1072.533697,8364.327145
773.538673,-8586.388927,919.314598,8438.347739
773.538998,-7550.100608,842.705048,7920.203579
773.539323,-6587.832884,766.095498,7105.977043
773.539648,-4367.215058,0.000000,6143.709319
773.539973,-1036.288319,-306.438199,6587.832884
773.540298,1850.514855,-306.438199,8364.327145
773.540623,3404.947333,-383.047749,9252.574275
773.540948,4515.256246,-919.314598,9030.512492
773.541273,5847.626942,-1378.971896,10214.842000
773.541597,8290.306550,0.000000,12287.418637
773.541922,8068.244768,229.828649,12213.398043
773.542247,7105.977043,229.828649,10436.903782
773.542572,5995.668130,459.657299,11029.068536
773.542897,3923.091493,1838.629195,11103.089130
773.543222,888.247130,2451.505594,11029.068536
773.543547,-1776.494261,1072.533697,10510.924376
773.543872,-4737.318029,919.314598,9622.677246
773.544197,-6217.729913,1532.190996,9548.656652
773.544522,-6217.729913,1302.362347,9474.636058
773.544846,-6883.915261,-459.657299,7402.059420
773.545171,-6735.874072,-1762.019645,6365.771101
773.545496,-4515.256246,-1302.362347,6217.729913
773.545821,-2516.700203,-1225.752797,7031.956449
773.546146,-1480.411884,-2374.896044,6883.915261
773.546471,740.205942,-3140.991542,7476.080014
773.546796,2738.761985,-2604.724693,9400.615463
773.547121,4441.235652,-1838.629195,10584.944971
773.547446,5107.421000,-1608.800546,10807.006753
773.547771,6513.812290,-1302.362347,10436.903782
773.548095,7772.162391,842.705048,10436.903782
773.548420,7105.977043,2145.067394,11029.068536
773.548745,4737.318029,2528.115143,10807.006753
773.549070,1480.411884,1685.410096,10584.944971
773.549395,-666.185348,1608.800546,11029.068536
773.549720,-3478.967927,2221.676944,11399.171507
773.550045,-7031.956449,1608.800546,11473.192101
773.550370,-9030.512492,1225.752797,9844.739029
773.550695,-7772.162391,-383.047749,8438.347739
773.551020,-6291.750507,-76.609550,7328.038826
773.551344,-5329.482782,536.266849,6661.853478
773.551669,-3478.967927,229.828649,6143.709319
773.551994,-518.144159,0.000000,5773.606348
773.552319,2294.638420,-76.609550,8068.244768
773.552644,3034.844362,-536.266849,9030.512492
773.552969,3478.967927,-153.219100,9104.533087
773.553294,4293.194464,-459.657299,9400.615463
773.553619,6735.874072,459.657299,10881.027347
773.553944,6069.688724,766.095498,11029.068536
773.554269,4515.256246,1455.581446,9992.780217
773.554593,3552.988522,2451.505594,9696.697840
773.554918,1628.453072,3217.601092,10288.862594
773.555243,-814.226536,3447.429741,10214.842000
773.555568,-3256.906145,3983.696590,10510.924376
773.555893,-4737.318029,2834.553343,10066.800811
773.556218,-5921.647536,2374.896044,9474.636058
773.556543,-5773.606348,1915.238745,9252.574275
773.556868,-5773.606348,1838.629195,7624.121203
773.557193,-5107.421000,689.485948,6513.812290
773.557518,-2960.823768,0.000000,6365.771101
773.557842,-592.164754,0.000000,7846.182985
773.558167,666.185348,-766.095498,7698.141797
773.558492,1924.535449,-1378.971896,8216.285956
773.558817,3552.988522,-1608.800546,9474.636058
773.559142,5625.565159,-766.095498,10658.965565
773.559467,6661.853478,0.000000,11547.212695
773.559792,7328.038826,229.828649,11103.089130
773.560117,7550.100608,2451.505594,9770.718434
773.560442,7031.956449,2757.943793,11029.068536
773.560767,3256.906145,3217.601092,11473.192101
773.561091,222.061783,2221.676944,9992.780217
773.561416,-2368.659014,1762.019645,10436.903782
773.561741,-4885.359217,1149.143247,11029.068536
773.562066,-8068.244768,1149.143247,10436.903782
773.562391,-9770.718434,0.000000,8586.388927
773.562716,-8586.388927,-1072.533697,8142.265362
773.563041,-6957.935855,-2834.553343,6809.894666
773.563366,-5699.585753,-1991.848295,5995.668130
773.563691,-3404.947333,-612.876398,6291.750507
773.564016,0.000000,-995.924147,6957.935855
773.564340,2664.741391,-1685.410096,8586.388927
773.564665,4663.297435,-2451.505594,9178.553681
773.564990,5181.441594,-1455.581446,9770.718434
773.565315,6365.771101,-919.314598,10584.944971
773.565640,8290.306550,-842.705048,11843.295072
773.565965,8216.285956,0.000000,11917.315666
773.566290,5699.585753,766.095498,11177.109724
773.566615,4367.215058,1532.190996,10955.047942
773.566940,2664.741391,2374.896044,11325.150913
773.567265,-444.123565,2298.286494,11103.089130
773.567589,-4145.153275,1608.800546,11473.192101
773.567914,-7254.018232,1149.143247,9548.656652
773.568239,-7994.224174,1149.143247,8216.285956
773.568564,-6365.771101,459.657299,8512.368333
773.568889,-6365.771101,766.095498,7772.162391
773.569214,-5847.626942,-229.828649,6069.688724
773.569539,-4145.153275,-842.705048,5699.585753
773.569864,-148.041188,-1378.971896,6661.853478
773.570189,888.247130,-689.485948,7846.182985
773.570514,2294.638420,-842.705048,8216.285956
773.570838,4367.215058,-842.705048,9326.594869
773.571163,6365.771101,306.438199,10732.986159
773.571488,7772.162391,995.924147,11547.212695
773.571813,7920.203579,1378.971896,10066.800811
773.572138,7772.162391,3600.648841,9770.718434
773.572463,6661.853478,4213.525239,11029.068536
773.572788,3849.070898,4290.134789,10955.047942
773.573113,148.041188,3600.648841,10140.821405
773.573438,-3034.844362,3294.210641,10140.821405
773.573763,-6069.688724,3217.601092,10288.862594
773.574087,-8956.491898,2298.286494,9918.759623
773.574412,-9326.594869,1302.362347,8660.409521
773.574737,-8290.306550,0.000000,7254.018232
773.575062,-7105.977043,0.000000,6809.894666
773.575387,-5255.462188,306.438199,6069.688724
773.575712,-2220.617826,842.705048,6809.894666
773.576037,222.061783,383.047749,7550.100608
773.576362,2738.761985,-689.485948,8142.265362
773.576687,4811.338623,-306.438199,9548.656652
773.577012,5625.565159,612.876398,9992.780217
773.577336,6291.750507,229.828649,10140.821405
773.577661,8142.265362,383.047749,10955.047942
773.577986,7994.224174,1378.971896,11251.130318
773.578311,4959.379811,1455.581446,10658.965565
773.578636,2368.659014,1378.971896,10066.800811
773.578961,592.164754,1302.362347,10140.821405
773.579286,-2442.679609,1685.410096,10362.883188
773.579611,-6069.688724,1072.533697,10510.924376
773.579936,-8216.285956,766.095498,10288.862594
773.580261,-7920.203579,306.438199,8660.409521
773.580585,-6587.832884,229.828649,7920.203579
773.580910,-6143.709319,-995.924147,7402.059420
773.581235,-5181.441594,-612.876398,5773.606348
773.581560,-2442.679609,-1302.362347,6439.791695
773.581885,1184.329507,-1991.848295,7994.224174
773.582210,2516.700203,-2298.286494,9474.636058
773.582535,3182.885551,-2451.505594,10066.800811
773.582860,5625.565159,-2451.505594,10510.924376
773.583185,8290.306550,-3370.820191,10881.027347
773.583509,8290.306550,-1302.362347,11843.295072
773.583834,8512.368333,459.657299,11769.274478
773.584159,7920.203579,1149.143247,10732.986159
773.584484,5773.606348,1378.971896,11177.109724
773.584809,2590.720797,1685.410096,11325.150913
773.585134,-1702.473667,2221.676944,9918.759623
773.585459,-5107.421000,2451.505594,9400.615463
773.585784,-8290.306550,919.314598,9844.739029
773.586109,-9400.615463,383.047749,10214.842000
773.586434,-10214.842000,383.047749,8068.244768
773.586758,-8734.430116,-536.266849,6143.709319
773.587083,-6957.935855,-1072.533697,5921.647536
773.587408,-4885.359217,689.485948,5477.523971
773.587733,-1850.514855,1455.581446,7105.977043
773.588058,1480.411884,-306.438199,7476.080014
773.588383,3552.988522,-459.657299,7846.182985
773.588708,5773.606348,-229.828649,9696.697840
773.589033,6735.874072,1225.752797,10214.842000
773.589358,7105.977043,1072.533697,10658.965565
773.589682,7920.203579,1072.533697,11103.089130
773.590007,8364.327145,1532.190996,11251.130318
773.590332,5403.503377,3753.867940,11029.068536
773.590657,2442.679609,3677.258390,10066.800811
773.590982,-148.041188,3447.429741,10066.800811
773.591306,-2960.823768,3447.429741,10658.965565
773.591631,-5921.647536,3294.210641,11621.233289
773.591956,-8512.368333,3140.991542,10584.944971
773.592281,-8364.327145,3294.210641,8142.265362
773.592606,-7105.977043,1225.752797,7624.121203
773.592931,-6513.812290,1838.629195,7105.977043
773.593255,-5625.565159,1532.190996,5403.503377
773.593580,-3256.906145,153.219100,6217.729913
773.593905,0.000000,-306.438199,7476.080014
773.594230,1480.411884,-842.705048,8808.450710
773.594555,2368.659014,-1149.143247,8660.409521
773.594880,3775.050304,-612.876398,8882.471304
773.595204,6661.853478,-536.266849,9770.718434
773.595529,7920.203579,153.219100,10732.986159
773.595854,7550.100608,1302.362347,10066.800811
773.596179,6587.832884,1991.848295,9770.718434
773.596504,5773.606348,2451.505594,10140.821405
773.596829,3627.009116,3447.429741,11251.130318
773.597153,-296.082377,3064.381992,11769.274478
773.597478,-4441.235652,2145.067394,10658.965565
773.597803,-5477.523971,1378.971896,10881.027347
773.598128,-6143.709319,919.314598,10140.821405
773.598453,-7105.977043,306.438199,8438.347739
773.598777,-7105.977043,-1072.533697,6069.688724
773.599102,-5033.400406,-1762.019645,6143.709319
773.599427,-2590.720797,-1072.533697,6809.894666
773.599752,-1110.308913,-1455.581446,7179.997637
773.600077,1628.453072,-2681.334243,8142.265362
773.600402,3256.906145,-3217.601092,7772.162391
773.600726,5477.523971,-3217.601092,10214.842000
773.601051,6735.874072,-2145.067394,12213.398043
773.601376,6439.791695,-1608.800546,11621.233289
773.601701,7105.977043,-1225.752797,11177.109724
773.602026,7328.038826,-459.657299,10584.944971
773.602351,4367.215058,1915.238745,11769.274478
773.602675,888.247130,1762.019645,11103.089130
773.603000,-1258.350101,1072.533697,10955.047942
773.603325,-3923.091493,766.095498,10658.965565
773.603650,-7105.977043,1762.019645,10881.027347
773.603975,-8882.471304,1915.238745,9474.636058
773.604299,-7920.203579,766.095498,8216.285956
773.604624,-6661.853478,-689.485948,5847.626942
773.604949,-5625.565159,-689.485948,6069.688724
773.605274,-4663.297435,0.000000,4959.379811
773.605599,-1776.494261,-306.438199,5403.503377
773.605924,1406.391290,-1225.752797,7328.038826
773.606248,2442.679609,-1915.238745,8882.471304
773.606573,3627.009116,-1302.362347,9992.780217
773.606898,5847.626942,-689.485948,10140.821405
773.607223,7476.080014,76.609550,10955.047942
773.607548,8956.491898,842.705048,11177.109724
773.607873,8290.306550,3217.601092,11029.068536
773.608197,6069.688724,4519.963438,11325.150913
773.608522,3552.988522,4136.915689,10658.965565
773.608847,1554.432478,4136.915689,11547.212695
773.609172,-3330.926739,4136.915689,11103.089130
773.609497,-6809.894666,3830.477490,10955.047942
773.609821,-8660.409521,2681.334243,10436.903782
773.610146,-8660.409521,1685.410096,9178.553681
773.610471,-9178.553681,536.266849,7624.121203
773.610796,-9770.718434,0.000000,5773.606348
773.611121,-6587.832884,1302.362347,5477.523971
773.611446,-2516.700203,766.095498,5255.462188
773.611770,-222.061783,153.219100,6587.832884
773.612095,1776.494261,153.219100,8142.265362
773.612420,4663.297435,1149.143247,7994.224174
773.612745,7698.141797,1532.190996,9400.615463
773.613070,8956.491898,1302.362347,10732.986159
773.613395,9104.533087,2374.896044,9918.759623
773.613719,9548.656652,3370.820191,10066.800811
773.614044,9178.553681,3294.210641,10510.924376
773.614369,5477.523971,3447.429741,10955.047942
773.614694,1258.350101,2987.772442,10732.986159
773.615019,-1332.370696,2451.505594,10066.800811
773.615343,-4811.338623,995.924147,10066.800811
773.615668,-8660.409521,766.095498,10214.842000
773.615993,-10140.821405,306.438199,9474.636058
773.616318,-8586.388927,-1225.752797,7994.224174
773.616643,-7846.182985,-2757.943793,6883.915261
773.616968,-6587.832884,-3370.820191,7179.997637
773.617292,-5329.482782,-1915.238745,7476.080014
773.617617,-2960.823768,-1991.848295,7550.100608
773.617942,-370.102971,-3447.429741,8734.430116
773.618267,2960.823768,-4979.620737,10066.800811
773.618592,4367.215058,-3753.867940,10140.821405
773.618917,6809.894666,-2298.286494,10658.965565
773.619241,8660.409521,-1991.848295,11843.295072
773.619566,9104.533087,-1149.143247,12213.398043
773.619891,8808.450710,459.657299,11991.336260
773.620216,7476.080014,1685.410096,10732.986159
773.620541,4885.359217,2374.896044,9918.759623
773.620866,2072.576638,995.924147,10140.821405
773.621190,-1850.514855,2068.457845,10658.965565
773.621515,-5403.503377,2145.067394,10362.883188
773.621840,-7179.997637,995.924147,8734.430116
773.622165,-7476.080014,-459.657299,7105.977043
773.622490,-7772.162391,-919.314598,6735.874072
773.622814,-7846.182985,-383.047749,5921.647536
773.623139,-5699.585753,-766.095498,5403.503377
773.623464,-2442.679609,-1608.800546,6883.915261
773.623789,-444.123565,-1608.800546,7846.182985
773.624114,814.226536,-766.095498,8586.388927
773.624439,3552.988522,-995.924147,9400.615463
773.624763,5773.606348,0.000000,10807.006753
773.625088,7105.977043,689.485948,11917.315666
773.625413,7402.059420,842.705048,11695.253884
773.625738,7179.997637,1991.848295,10955.047942
773.626063,5921.647536,2757.943793,10807.006753
773.626388,2442.679609,3907.087040,11695.253884
773.626712,-1258.350101,3907.087040,11177.109724
773.627037,-3627.009116,3447.429741,9992.780217
773.627362,-5699.585753,2987.772442,11029.068536
773.627687,-7846.182985,3294.210641,9622.677246
773.628012,-8364.327145,3140.991542,8364.327145
773.628336,-8438.347739,2068.457845,6883.915261
773.628661,-6957.935855,1532.190996,5033.400406
773.628986,-4145.153275,2451.505594,5329.482782
773.629311,-2294.638420,2145.067394,5847.626942
773.629636,-444.123565,1302.362347,5921.647536
773.629961,1776.494261,-153.219100,7772.162391
773.630285,4589.276840,0.000000,9474.636058
773.630610,5477.523971,0.000000,10214.842000
773.630935,6365.771101,-306.438199,9770.718434
773.631260,7994.224174,612.876398,11029.068536
773.631585,8734.430116,1762.019645,11399.171507
773.631910,6735.874072,2068.457845,11399.171507
773.632234,4663.297435,1991.848295,11621.233289
773.632559,2664.741391,2298.286494,10881.027347
773.632884,0.000000,2681.334243,11473.192101
773.633209,-3627.009116,2298.286494,12065.356855
773.633534,-6661.853478,919.314598,10214.842000
773.633858,-7772.162391,536.266849,8512.368333
773.634183,-6217.729913,-689.485948,7772.162391
773.634508,-6069.688724,-1302.362347,6291.750507
773.634833,-5773.606348,-1838.629195,5995.668130
773.635158,-2738.761985,-1915.238745,6439.791695
773.635483,0.000000,-2528.115143,8512.368333
773.635807,1554.432478,-2911.162892,8956.491898
773.636132,3034.844362,-3370.820191,9326.594869
773.636457,5403.503377,-3753.867940,10066.800811
773.636782,8216.285956,-2298.286494,11103.089130
773.637107,9400.615463,-766.095498,12731.542202
773.637432,8290.306550,-612.876398,12287.418637
773.637756,7105.977043,-383.047749,10066.800811
773.638081,5403.503377,0.000000,10140.821405
773.638406,2812.782580,1302.362347,10288.862594
773.638731,-1406.391290,919.314598,10658.965565
773.639056,-5329.482782,306.438199,10214.842000
773.639381,-8216.285956,306.438199,11177.109724
773.639705,-10584.944971,153.219100,9548.656652
773.640030,-10584.944971,-229.828649,7402.059420
773.640355,-9548.656652,-2374.896044,6587.832884
773.640680,-7772.162391,-2068.457845,5995.668130
773.641005,-3775.050304,1532.190996,6513.812290
773.641329,-740.205942,919.314598,7179.997637
773.641654,-370.102971,0.000000,7105.977043
773.641979,2516.700203,-536.266849,7698.141797
773.642304,6291.750507,766.095498,9918.759623
773.642629,7846.182985,1455.581446,11103.089130
773.642954,8216.285956,612.876398,11473.192101
773.643278,9622.677246,1608.800546,11399.171507
773.643603,8808.450710,2987.772442,11769.274478
773.643928,6291.750507,4136.915689,11473.192101
773.644253,3182.885551,3600.648841,11177.109724
773.644578,222.061783,3907.087040,9548.656652
773.644903,-2590.720797,4136.915689,10436.903782
773.645227,-5773.606348,3907.087040,11029.068536
773.645552,-8882.471304,2911.162892,8882.471304
773.645877,-10436.903782,2604.724693,6883.915261
773.646202,-8956.491898,1685.410096,5033.400406
773.646527,-7994.224174,1762.019645,4959.379811
773.646851,-7328.038826,1762.019645,5181.441594
773.647176,-4663.297435,1455.581446,5773.606348
773.647501,-1480.411884,-612.876398,7105.977043
773.647826,1776.494261,-459.657299,7476.080014
773.648151,4589.276840,995.924147,9622.677246
773.648476,7772.162391,1915.238745,11177.109724
773.648800,10732.986159,1685.410096,12435.459826
773.649125,11769.274478,1532.190996,12953.603985
773.649450,10807.006753,3140.991542,11991.336260
773.649775,9474.636058,4136.915689,10658.965565
773.650100,7254.018232,3983.696590,10436.903782
773.650425,4589.276840,2911.162892,10584.944971
773.650749,-1332.370696,3064.381992,11177.109724
773.651074,-6217.729913,2451.505594,10362.883188
773.651399,-8364.327145,842.705048,9696.697840
773.651724,-9992.780217,-459.657299,8438.347739
773.652049,-10658.965565,-1302.362347,7328.038826
773.652373,-10140.821405,-2298.286494,6217.729913
773.652698,-7476.080014,-2298.286494,5699.585753
773.653023,-4737.318029,-1762.019645,7031.956449
773.653348,-2516.700203,-1302.362347,7254.018232
773.653673,-518.144159,-2451.505594,7476.080014
773.653998,2516.700203,-4060.306139,8438.347739
773.654322,5329.482782,-3217.601092,10584.944971
773.654647,7254.018232,-1302.362347,11769.274478
773.654972,7624.121203,-2145.067394,11103.089130
773.655297,8364.327145,-1991.848295,10510.924376
773.655622,8660.409521,-459.657299,10732.986159
773.655947,6291.750507,1608.800546,10807.006753
773.656271,3330.926739,1072.533697,11177.109724
773.656596,0.000000,306.438199,10881.027347
773.656921,-2664.741391,1072.533697,10658.965565
773.657246,-5551.544565,1225.752797,10732.986159
773.657571,-7476.080014,842.705048,9030.512492
773.657896,-8734.430116,-612.876398,6661.853478
773.658220,-7402.059420,-2374.896044,6883.915261
773.658545,-6365.771101,-2221.676944,6883.915261
773.658870,-5181.441594,-919.314598,6809.894666
773.659195,-2812.782580,-1455.581446,6735.874072
773.659520,-370.102971,-2451.505594,7550.100608
773.659844,2072.576638,-2834.553343,8956.491898
773.660169,4737.318029,-766.095498,10658.965565
773.660494,6513.812290,229.828649,11103.089130
773.660819,8586.388927,0.000000,11325.150913
773.661144,10066.800811,1225.752797,11621.233289
773.661469,9104.533087,3217.601092,11399.171507
773.661793,6513.812290,4136.915689,10140.821405
773.662118,4293.194464,3753.867940,9992.780217
773.662443,1332.370696,3140.991542,10658.965565
773.662768,-3330.926739,3983.696590,11103.089130
773.663093,-7328.038826,3677.258390,10436.903782
773.663418,-9252.574275,2221.676944,8956.491898
773.663742,-9030.512492,1149.143247,7105.977043
773.664067,-9326.594869,1455.581446,5847.626942
773.664392,-8142.265362,2604.724693,5625.565159
773.664717,-5107.421000,2068.457845,4737.318029
773.665042,-1702.473667,1455.581446,5625.565159
773.665366,296.082377,766.095498,7772.162391
773.665691,1406.391290,995.924147,8734.430116
773.666016,3552.988522,612.876398,9326.594869
773.666341,6883.915261,229.828649,10881.027347
773.666666,8142.265362,536.266849,12287.418637
773.666991,7772.162391,2221.676944,11473.192101
773.667315,8290.306550,2145.067394,10584.944971
773.667640,7328.038826,2451.505594,10658.965565
773.667965,4441.235652,3217.601092,10732.986159
773.668290,888.247130,3753.867940,11399.171507
773.668615,-1776.494261,2757.943793,10436.903782
773.668940,-5181.441594,2145.067394,9474.636058
773.669264,-7920.203579,1072.533697,9622.677246
773.669589,-10140.821405,919.314598,8586.388927
773.669914,-10732.986159,-153.219100,6883.915261
773.670239,-8734.430116,-2451.505594,6439.791695
773.670564,-6883.915261,-2834.553343,7031.956449
773.670888,-5329.482782,-1915.238745,6957.935855
773.671213,-2812.782580,-1608.800546,6587.832884
773.671538,1036.288319,-2681.334243,8512.368333
773.671863,4367.215058,-2987.772442,9696.697840
773.672188,6587.832884,-2145.067394,10807.006753
773.672513,8660.409521,-766.095498,11177.109724
773.672837,10732.986159,0.000000,11177.109724
773.673162,11177.109724,919.314598,11843.295072
773.673487,9622.677246,612.876398,11769.274478
773.673812,6735.874072,1532.190996,10436.903782
773.674137,3923.091493,1378.971896,10436.903782
773.674462,1110.308913,1149.143247,10658.965565
773.674786,-3997.112087,842.705048,11399.171507
773.675111,-8142.265362,536.266849,9770.718434
773.675436,-9622.677246,-229.828649,8216.285956
773.675761,-9178.553681,-2451.505594,7698.141797
773.676086,-8808.450710,-2757.943793,6217.729913
773.676410,-8290.306550,-2451.505594,5995.668130
773.676735,-5773.606348,-1378.971896,6217.729913
773.677060,-2146.597232,-459.657299,7476.080014
773.677385,666.185348,-1225.752797,9030.512492
773.677710,2368.659014,-1991.848295,8956.491898
773.678035,4515.256246,-1685.410096,9030.512492
773.678359,7402.059420,-612.876398,10732.986159
773.678684,9030.512492,536.266849,12583.501014
773.679009,8512.368333,842.705048,11769.274478
773.679334,7772.162391,1762.019645,10732.986159
773.679659,6143.709319,2681.334243,10732.986159
773.679984,4071.132681,3677.258390,10658.965565
773.680308,740.205942,3907.087040,10807.006753
773.680633,-2960.823768,3217.601092,10955.047942
773.680958,-5551.544565,3677.258390,9326.594869
773.681283,-6587.832884,2528.115143,9178.553681
773.681608,-7550.100608,2298.286494,7772.162391
773.681933,-8068.244768,1455.581446,5477.523971
773.682257,-6883.915261,1072.533697,5699.585753
773.682582,-4663.297435,919.314598,6291.750507
773.682907,-2442.679609,612.876398,7031.956449
773.683232,-518.144159,76.609550,7624.121203
773.683557,1850.514855,-612.876398,8290.306550
773.683881,4071.132681,-612.876398,9474.636058
773.684206,5921.647536,0.000000,11399.171507
773.684531,7105.977043,919.314598,12065.356855
773.684856,8290.306550,689.485948,11695.253884
773.685181,8660.409521,1991.848295,10881.027347
773.685506,6661.853478,2757.943793,11251.130318
773.685830,2960.823768,2911.162892,10066.800811
773.686155,0.000000,2681.334243,9548.656652
773.686480,-2146.597232,2374.896044,10510.924376
773.686805,-6069.688724,2221.676944,11325.150913
773.687130,-9252.574275,2528.115143,9178.553681
773.687455,-8734.430116,1532.190996,6661.853478
773.687779,-7402.059420,-1072.533697,5847.626942
773.688104,-7179.997637,-536.266849,6217.729913
773.688429,-5329.482782,842.705048,6143.709319
773.688754,-2220.617826,76.609550,6291.750507
773.689079,1110.308913,-1072.533697,7550.100608
773.689403,3627.009116,-1378.971896,9400.615463
773.689728,4589.276840,-1608.800546,9474.636058
773.690053,6809.894666,-536.266849,10066.800811
773.690378,8808.450710,-1685.410096,11917.315666
773.690703,9696.697840,-612.876398,12509.480420
773.691028,8956.491898,842.705048,11473.192101
773.691353,7254.018232,1072.533697,10732.986159
773.691677,4589.276840,1455.581446,10955.047942
773.692002,592.164754,919.314598,10732.986159
773.692327,-2664.741391,995.924147,11103.089130
773.692652,-5995.668130,306.438199,10436.903782
773.692977,-9474.636058,153.219100,9844.739029
773.693302,-10288.862594,-383.047749,9770.718434
773.693626,-9770.718434,-1225.752797,9104.533087
773.693951,-9474.636058,-1991.848295,7105.977043
773.694276,-7476.080014,-2451.505594,5773.606348
773.694601,-3923.091493,-1915.238745,5921.647536
773.694926,-1184.329507,153.219100,6883.915261
773.695251,1406.391290,0.000000,8068.244768
773.695575,4367.215058,-1225.752797,8438.347739
773.695900,6957.935855,-612.876398,9252.574275
773.696225,9844.739029,1302.362347,10807.006753
773.696550,10510.924376,2374.896044,11177.109724
773.696875,11029.068536,2068.457845,10436.903782
773.697200,9844.739029,2145.067394,10584.944971
773.697525,7105.977043,3677.258390,11029.068536
773.697849,3108.864956,4290.134789,10362.883188
773.698174,-666.185348,2374.896044,9992.780217
773.698499,-5033.400406,1685.410096,10436.903782
773.698824,-8512.368333,1838.629195,10214.842000
773.699149,-11621.233289,1991.848295,8956.491898
773.699474,-11843.295072,-995.924147,6883.915261
773.699798,-11473.192101,-2451.505594,7105.977043
773.700123,-10732.986159,-1991.848295,6735.874072
773.700448,-7476.080014,-306.438199,6587.832884
773.700773,-3849.070898,76.609550,6143.709319
773.701098,444.123565,-612.876398,7772.162391
773.701423,4441.235652,-612.876398,9178.553681
773.701747,6809.894666,1225.752797,11473.192101
773.702072,7846.182985,536.266849,11029.068536
773.702397,9622.677246,0.000000,11399.171507
773.702722,11991.336260,1225.752797,11843.295072
773.703047,10584.944971,3524.039291,11399.171507
773.703372,8512.368333,3907.087040,11103.089130
773.703697,5773.606348,3217.601092,11251.130318
773.704021,2368.659014,2834.553343,10362.883188
773.704346,-1554.432478,3217.601092,10362.883188
773.704671,-5477.523971,3217.601092,9326.594869
773.704996,-7402.059420,2451.505594,7476.080014
773.705321,-9030.512492,2221.676944,8068.244768
773.705646,-9918.759623,-383.047749,6809.894666
773.705970,-9770.718434,-1455.581446,4293.194464
773.706295,-8660.409521,-1991.848295,4959.379811
773.706620,-5107.421000,-1685.410096,7031.956449
773.706945,-2442.679609,-1378.971896,8586.388927
773.707270,-518.144159,-2604.724693,9474.636058
773.707595,2812.782580,-3524.039291,9770.718434
773.707919,5551.544565,-2451.505594,10510.924376
773.708244,7328.038826,0.000000,11843.295072
773.708569,10066.800811,689.485948,12731.542202
773.708894,9548.656652,842.705048,11991.336260
773.709219,8956.491898,1532.190996,11547.212695
773.709544,6957.935855,3064.381992,11251.130318
773.709868,3404.947333,3753.867940,10584.944971
773.710193,0.000000,2681.334243,10214.842000
773.710518,-3256.906145,995.924147,10140.821405
773.710843,-6883.915261,1838.629195,10214.842000
773.711168,-9696.697840,1838.629195,8364.327145
773.711493,-10066.800811,-383.047749,6513.812290
773.711818,-8734.430116,-2451.505594,5551.544565
773.712142,-7254.018232,-2451.505594,4737.318029
773.712467,-5551.544565,-229.828649,6809.894666
773.712792,-2812.782580,76.609550,8512.368333
773.713117,0.000000,-1838.629195,8438.347739
773.713442,2960.823768,-3907.087040,8808.450710
773.713767,4885.359217,-2068.457845,9844.739029
773.714091,6439.791695,0.000000,10362.883188
773.714416,8734.430116,306.438199,12213.398043
773.714741,10584.944971,612.876398,12583.501014
773.715066,8290.306550,1838.629195,10807.006753
773.715391,5255.462188,2911.162892,9770.718434
773.715716,3627.009116,2681.334243,9548.656652
773.716040,1110.308913,2911.162892,10510.924376
773.716365,-2886.803174,2681.334243,12065.356855
773.716690,-6735.874072,2221.676944,11695.253884
773.717015,-8808.450710,1915.238745,8438.347739
773.717340,-8808.450710,612.876398,6069.688724
773.717665,-6809.894666,-383.047749,6513.812290
773.717990,-7624.121203,842.705048,5625.565159
773.718314,-5995.668130,842.705048,5847.626942
773.718639,-2294.638420,-536.266849,7105.977043
773.718964,370.102971,-2298.286494,7624.121203
773.719289,1258.350101,-689.485948,8364.327145
773.719614,4071.132681,995.924147,8734.430116
773.719939,6883.915261,229.828649,11177.109724
773.720263,9178.553681,-383.047749,12213.398043
773.720588,9770.718434,1455.581446,12139.377449
773.720913,9178.553681,3524.039291,10881.027347
773.721238,7254.018232,3753.867940,9844.739029
773.721563,5255.462188,2374.896044,10140.821405
773.721888,1036.288319,3294.210641,10732.986159
773.722212,-3330.926739,4060.306139,11399.171507
773.722537,-6513.812290,2451.505594,10732.986159
773.722862,-8364.327145,766.095498,8882.471304
773.723187,-9992.780217,-612.876398,7328.038826
773.723512,-10362.883188,-1072.533697,6217.729913
773.723837,-8438.347739,-842.705048,5551.544565
773.724162,-6809.894666,-383.047749,5995.668130
773.724486,-3849.070898,-1072.533697,6957.935855
773.724811,-1258.350101,-1302.362347,8734.430116
773.725136,1998.556043,-1378.971896,8438.347739
773.725461,4737.318029,-1455.581446,9326.594869
773.725786,6661.853478,-2068.457845,10807.006753
773.726111,7624.121203,-153.219100,11843.295072
773.726435,8808.450710,995.924147,12953.603985
773.726760,9400.615463,536.266849,11399.171507
773.727085,7402.059420,459.657299,10288.862594
773.727410,4219.173869,1149.143247,10362.883188
773.727735,1184.329507,3140.991542,9992.780217
773.728060,-740.205942,2604.724693,10288.862594
773.728384,-4441.235652,1225.752797,9918.759623
773.728709,-7550.100608,995.924147,8808.450710
773.729034,-9030.512492,1532.190996,7105.977043
773.729359,-6957.935855,1225.752797,5995.668130
773.729684,-5921.647536,-459.657299,6365.771101
773.730009,-5921.647536,-995.924147,6809.894666
773.730334,-4071.132681,-383.047749,6883.915261
773.730658,0.000000,-919.314598,7254.018232
773.730983,2146.597232,-2298.286494,8956.491898
773.731308,2960.823768,-1915.238745,10214.842000
773.731633,4663.297435,-689.485948,11251.130318
773.731958,7550.100608,-459.657299,12435.459826
773.732283,8660.409521,-689.485948,12805.562797
773.732607,8364.327145,153.219100,11177.109724
773.732932,7994.224174,2451.505594,10214.842000
773.733257,6143.709319,3677.258390,10288.862594
773.733582,3034.844362,3294.210641,11029.068536
773.733907,-1036.288319,2068.457845,10584.944971
773.734232,-4959.379811,2298.286494,9622.677246
773.734556,-8142.265362,1838.629195,9252.574275
773.734881,-9474.636058,1302.362347,8586.388927
773.735206,-10140.821405,306.438199,6809.894666
773.735531,-9474.636058,-995.924147,5773.606348
773.735856,-7179.997637,-1532.190996,5255.462188
773.736181,-4959.379811,0.000000,6143.709319
773.736506,-2072.576638,1149.143247,7254.018232
773.736830,1184.329507,0.000000,8882.471304
773.737155,3701.029710,-1302.362347,9326.594869
773.737480,6513.812290,-536.266849,9992.780217
773.737805,8734.430116,306.438199,11325.150913
773.738130,8586.388927,536.266849,12065.356855
773.738455,8068.244768,612.876398,11695.253884
773.738779,8068.244768,1149.143247,11103.089130
773.739104,6365.771101,1991.848295,11325.150913
773.739429,2442.679609,2528.115143,11177.109724
773.739754,-1110.308913,2068.457845,9770.718434
773.740079,-3552.988522,1915.238745,9770.718434
773.740404,-7105.977043,1608.800546,9918.759623
773.740728,-9474.636058,1685.410096,9400.615463
773.741053,-9622.677246,689.485948,7772.162391
773.741378,-7624.121203,-383.047749,5847.626942
773.741703,-6143.709319,-383.047749,6439.791695
773.742028,-5403.503377,995.924147,6661.853478
773.742353,-2812.782580,1225.752797,6217.729913
773.742678,1406.391290,-1532.190996,8290.306550
773.743002,3627.009116,-2528.115143,9474.636058
773.743327,4441.235652,-842.705048,10436.903782
773.743652,5921.647536,-383.047749,10807.006753
773.743977,8438.347739,-842.705048,11991.336260
773.744302,8882.471304,-1149.143247,12065.356855
773.744627,8438.347739,842.705048,11621.233289
773.744951,7328.038826,2911.162892,10807.006753
773.745276,4811.338623,2145.067394,10214.842000
773.745601,1702.473667,2068.457845,10510.924376
773.745926,-1628.453072,1608.800546,10288.862594
773.746251,-5403.503377,1455.581446,8956.491898
773.746576,-8512.368333,1455.581446,9474.636058
773.746900,-8290.306550,766.095498,8956.491898
773.747225,-8216.285956,459.657299,7550.100608
773.747550,-8068.244768,-1455.581446,6291.750507
773.747875,-6809.894666,-2451.505594,5403.503377
773.748200,-4145.153275,-766.095498,6735.874072
773.748525,-1406.391290,229.828649,7994.224174
773.748849,1258.350101,-995.924147,9474.636058
773.749174,2738.761985,-2987.772442,8956.491898
773.749499,5329.482782,-1991.848295,9474.636058
773.749824,8512.368333,612.876398,11843.295072
773.750149,8290.306550,689.485948,11843.295072
773.750474,8142.265362,-306.438199,10955.047942
773.750799,8438.347739,919.314598,10881.027347
773.751123,6661.853478,3830.477490,10288.862594
773.751448,2368.659014,3753.867940,10214.842000
773.751773,-370.102971,2374.896044,9622.677246
773.752098,-4219.173869,2068.457845,9474.636058
773.752423,-6883.915261,2911.162892,10955.047942
773.752748,-8364.327145,1991.848295,9030.512492
773.753072,-9474.636058,0.000000,7179.997637
773.753397,-8660.409521,-995.924147,6957.935855
773.753722,-6439.791695,-842.705048,7031.956449
773.754047,-5033.400406,306.438199,7328.038826
773.754372,-2960.823768,-153.219100,7179.997637
773.754697,-148.041188,-1915.238745,7846.182985
773.755021,2812.782580,-1915.238745,9030.512492
773.755346,4737.318029,-766.095498,9844.739029
773.755671,6217.729913,0.000000,10955.047942
773.755996,7994.224174,919.314598,11843.295072
773.756321,9622.677246,1149.143247,11769.274478
773.756646,8956.491898,2374.896044,10732.986159
773.756971,6883.915261,3524.039291,11029.068536
773.757295,4589.276840,3830.477490,10214.842000
773.757620,1628.453072,4136.915689,10066.800811
773.757945,-1702.473667,3600.648841,10140.821405
773.758270,-5699.585753,3294.210641,10140.821405
773.758595,-9030.512492,2298.286494,9474.636058
773.758920,-9104.533087,1608.800546,7624.121203
773.759244,-8142.265362,-153.219100,6513.812290
773.759569,-9030.512492,-1685.410096,5107.421000
773.759894,-7031.956449,-1225.752797,4589.276840
773.760219,-3478.967927,306.438199,6291.750507
773.760544,-666.185348,0.000000,7920.203579
773.760869,1776.494261,-1378.971896,8734.430116
773.761193,4515.256246,-1838.629195,8882.471304
773.761518,7105.977043,0.000000,9918.759623
773.761843,9992.780217,919.314598,12287.418637
773.762168,10214.842000,383.047749,13397.727550
773.762493,9178.553681,383.047749,11769.274478
773.762818,7920.203579,1149.143247,11843.295072
773.763143,5921.647536,2221.676944,11399.171507
773.763467,1702.473667,2298.286494,11029.068536
773.763792,-1924.535449,1302.362347,10658.965565
773.764117,-5181.441594,1378.971896,10955.047942
773.764442,-8068.244768,1149.143247,9992.780217
773.764767,-9622.677246,76.609550,8438.347739
773.765092,-9252.574275,-2068.457845,5921.647536
773.765416,-7772.162391,-2528.115143,4959.379811
773.765741,-5773.606348,-1762.019645,6439.791695
773.766066,-3404.947333,-459.657299,7105.977043
773.766391,-1258.350101,-1608.800546,6809.894666
773.766716,1480.411884,-3447.429741,7179.997637
773.767041,4145.153275,-2374.896044,9178.553681
773.767365,5847.626942,-306.438199,11547.212695
773.767690,7920.203579,-919.314598,12287.418637
773.768015,9400.615463,-1455.581446,12657.521608
773.768340,9178.553681,0.000000,13101.645173
773.768665,8142.265362,3294.210641,10584.944971
773.768990,6365.771101,2451.505594,10214.842000
773.769315,2960.823768,1149.143247,9770.718434
773.769639,-518.144159,3140.991542,10732.986159
773.769964,-2960.823768,4596.572988,11843.295072
773.770289,-6587.832884,2681.334243,8512.368333
773.770614,-9770.718434,919.314598,6587.832884
773.770939,-9474.636058,-1225.752797,5995.668130
773.771264,-8142.265362,0.000000,5477.523971
773.771588,-7476.080014,1149.143247,5995.668130
773.771913,-6217.729913,842.705048,6143.709319
773.772238,-3478.967927,-1149.143247,6365.771101
773.772563,0.000000,-2068.457845,7254.018232
773.772888,1998.556043,-229.828649,9400.615463
773.773213,4219.173869,459.657299,11769.274478
773.773537,7031.956449,0.000000,12583.501014
773.773862,9326.594869,-612.876398,13397.727550
773.774187,9474.636058,1302.362347,11843.295072
773.774512,7994.224174,2604.724693,10732.986159
773.774837,6957.935855,3983.696590,10807.006753
773.775162,4441.235652,3907.087040,9918.759623
773.775487,444.123565,3753.867940,11769.274478
773.775811,-4515.256246,3830.477490,10436.903782
773.776136,-7105.977043,2374.896044,8068.244768
773.776461,-8882.471304,1762.019645,7550.100608
773.776786,-9474.636058,1455.581446,7179.997637
773.777111,-10362.883188,2604.724693,5995.668130
773.777436,-7698.141797,919.314598,4959.379811
773.777760,-5477.523971,0.000000,5699.585753
773.778085,-2886.803174,-766.095498,6439.791695
773.778410,-1332.370696,-612.876398,6809.894666
773.778735,1628.453072,-689.485948,7698.141797
773.779060,5477.523971,-1685.410096,10214.842000
773.779385,7624.121203,-1072.533697,12583.501014
773.779709,7920.203579,-459.657299,11177.109724
773.780034,9326.594869,842.705048,10955.047942
773.780359,9474.636058,689.485948,11177.109724
773.780684,8290.306550,2145.067394,10955.047942
773.781009,5625.565159,2451.505594,11325.150913
773.781334,2368.659014,2221.676944,11177.109724
773.781659,-1036.288319,1608.800546,10362.883188
773.781983,-5403.503377,1302.362347,11399.171507
773.782308,-8438.347739,1532.190996,10732.986159
773.782633,-9770.718434,-306.438199,8586.388927
773.782958,-9548.656652,-2451.505594,7698.141797
773.783283,-8364.327145,-3447.429741,6587.832884
773.783608,-7476.080014,-2145.067394,6365.771101
773.783932,-4663.297435,-1302.362347,6069.688724
773.784257,-1776.494261,-612.876398,6735.874072
773.784582,2072.576638,-1608.800546,8586.388927
773.784907,4367.215058,-1608.800546,9992.780217
773.785232,7698.141797,-612.876398,11399.171507
773.785557,9326.594869,689.485948,11251.130318
773.785881,10807.006753,536.266849,11917.315666
773.786206,11325.150913,536.266849,11621.233289
773.786531,9030.512492,1455.581446,10584.944971
773.786856,5995.668130,2834.553343,11029.068536
773.787181,2960.823768,3064.381992,11103.089130
773.787506,-1554.432478,2604.724693,10584.944971
773.787830,-6513.812290,995.924147,8512.368333
773.788155,-9104.533087,1072.533697,8438.347739
773.788480,-10214.842000,842.705048,9030.512492
773.788805,-11251.130318,459.657299,6883.915261
773.789130,-10955.047942,-536.266849,5847.626942
773.789455,-9474.636058,-1685.410096,5477.523971
773.789780,-5921.647536,-1149.143247,5329.482782
773.790104,-2220.617826,-229.828649,7031.956449
773.790429,518.144159,-459.657299,9400.615463
773.790754,2368.659014,-995.924147,10214.842000
773.791079,5699.585753,-1532.190996,10881.027347
773.791404,8586.388927,-536.266849,11843.295072
773.791729,9178.553681,536.266849,11843.295072
773.792054,9918.759623,919.314598,11547.212695
773.792379,10510.924376,1608.800546,11325.150913
773.792704,8512.368333,3524.039291,11251.130318
773.793029,4959.379811,4290.134789,10955.047942
773.793354,1480.411884,3983.696590,10510.924376
773.793679,-1924.535449,3524.039291,8290.306550
773.794004,-5181.441594,2911.162892,9104.533087
773.794329,-7994.224174,2681.334243,8882.471304
773.794654,-9770.718434,2604.724693,7105.977043
773.794979,-9400.615463,536.266849,5551.544565
773.795304,-7772.162391,-1225.752797,4811.338623
773.795629,-6957.935855,-1838.629195,5847.626942
773.795953,-4885.359217,-689.485948,5699.585753
773.796278,-1406.391290,-995.924147,7550.100608
773.796603,1702.473667,-2374.896044,9992.780217
773.796928,3849.070898,-2374.896044,10732.986159
773.797253,5921.647536,-612.876398,11843.295072
773.797578,8586.388927,459.657299,11991.336260
773.797903,10732.986159,306.438199,12435.459826
773.798228,10658.965565,1685.410096,12139.377449
773.798553,8438.347739,2681.334243,11251.130318
773.798878,5403.503377,3600.648841,10510.924376
773.799203,2442.679609,3064.381992,10436.903782
773.799528,-1998.556043,2221.676944,10807.006753
773.799853,-7031.956449,2068.457845,9992.780217
773.800178,-9696.697840,1532.190996,8586.388927
773.800503,-10362.883188,306.438199,7476.080014
773.800828,-10066.800811,-1302.362347,5477.523971
773.801153,-9918.759623,-1685.410096,5255.462188
773.801478,-8364.327145,-612.876398,5329.482782
773.801803,-4367.215058,0.000000,5403.503377
773.802127,-666.185348,-1149.143247,7254.018232
773.802452,1480.411884,-1915.238745,8512.368333
773.802777,2812.782580,-1608.800546,9622.677246
773.803102,6661.853478,-306.438199,10807.006753
773.803427,9326.594869,0.000000,12213.398043
773.803752,9400.615463,-306.438199,12361.439231
773.804077,9104.533087,459.657299,11103.089130
773.804402,9178.553681,2374.896044,11399.171507
773.804727,6957.935855,3140.991542,11547.212695
773.805052,3701.029710,2757.943793,11843.295072
773.805377,0.000000,2528.115143,11029.068536
773.805702,-3478.967927,2987.772442,9548.656652
773.806027,-6439.791695,2681.334243,9548.656652
773.806352,-8068.244768,1608.800546,9252.574275
773.806677,-9178.553681,689.485948,7402.059420
773.807002,-8586.388927,-689.485948,5995.668130
773.807327,-6957.935855,-1378.971896,5625.565159
773.807652,-5477.523971,-1455.581446,6217.729913
773.807977,-3256.906145,-306.438199,6365.771101
773.808301,-222.061783,-995.924147,7550.100608
773.808626,2368.659014,-2451.505594,9252.574275
773.808951,4293.194464,-2145.067394,9918.759623
773.809276,6661.853478,-536.266849,11251.130318
773.809601,8734.430116,536.266849,11325.150913
773.809926,9844.739029,1302.362347,10510.924376
773.810251,9696.697840,1915.238745,10732.986159
773.810576,7476.080014,3217.601092,10658.965565
773.810901,3256.906145,3830.477490,10066.800811
773.811226,1110.308913,2911.162892,9844.739029
773.811551,-2960.823768,2221.676944,10510.924376
773.811876,-8068.244768,2834.553343,10214.842000
773.812201,-10362.883188,2681.334243,8660.409521
773.812526,-8956.491898,459.657299,6883.915261
773.812851,-8882.471304,-1838.629195,6513.812290
773.813176,-8734.430116,-1762.019645,5847.626942
773.813501,-5921.647536,-612.876398,5773.606348
773.813826,-2220.617826,306.438199,6883.915261
773.814151,1332.370696,-383.047749,9400.615463
773.814475,2442.679609,-1532.190996,9770.718434
773.814800,4293.194464,-1838.629195,9918.759623
773.815125,6513.812290,-1149.143247,11029.068536
773.815450,8438.347739,76.609550,12805.562797
773.815775,8068.244768,612.876398,13027.624579
773.816100,7476.080014,995.924147,10955.047942
773.816425,6735.874072,1838.629195,11251.130318
773.816750,3701.029710,2911.162892,10436.903782
773.817075,814.226536,3907.087040,9474.636058
773.817400,-2886.803174,2911.162892,9474.636058
773.817725,-6513.812290,2681.334243,7920.203579
773.818050,-8068.244768,2681.334243,8660.409521
773.818375,-8512.368333,1455.581446,8364.327145
773.818700,-8956.491898,0.000000,5921.647536
773.819025,-8142.265362,-1608.800546,4737.318029
773.819350,-5847.626942,-2145.067394,5699.585753
773.819675,-2442.679609,-766.095498,7254.018232
773.820000,-444.123565,-306.438199,7846.182985
773.820325,2368.659014,-1378.971896,9548.656652
773.820649,5329.482782,-2451.505594,9844.739029
773.820974,6957.935855,-995.924147,10807.006753
773.821299,9252.574275,689.485948,12213.398043
773.821624,10584.944971,995.924147,12583.501014
773.821949,9548.656652,995.924147,11251.130318
773.822274,7624.121203,1455.581446,11547.212695
773.822599,4737.318029,2604.724693,11251.130318
773.822924,222.061783,2221.676944,9918.759623
773.823249,-2590.720797,1149.143247,9400.615463
773.823574,-5477.523971,1455.581446,10658.965565
773.823899,-9548.656652,2068.457845,10066.800811
773.824224,-10881.027347,306.438199,7994.224174
773.824549,-9696.697840,-3064.381992,6217.729913
773.824874,-8808.450710,-2987.772442,5921.647536
773.825199,-7031.956449,-459.657299,6587.832884
773.825524,-3775.050304,1991.848295,7105.977043
773.825849,444.123565,842.705048,7624.121203
773.826174,3478.967927,-1302.362347,9104.533087
773.826499,5033.400406,-1608.800546,9844.739029
773.826824,6587.832884,153.219100,9770.718434
773.827148,8512.368333,229.828649,11251.130318
773.827473,9770.718434,76.609550,13027.624579
773.827798,8734.430116,919.314598,12213.398043
773.828123,6809.894666,1915.238745,9918.759623
773.828448,5033.400406,2298.286494,10214.842000
773.828773,2220.617826,2834.553343,10214.842000
773.829098,-2368.659014,2451.505594,9622.677246
773.829423,-5329.482782,1991.848295,9104.533087
773.829748,-8438.347739,2451.505594,9474.636058
773.830073,-9400.615463,1991.848295,9252.574275
773.830398,-9252.574275,1838.629195,7698.141797
773.830723,-8512.368333,153.219100,5773.606348
773.831048,-7402.059420,0.000000,6217.729913
773.831373,-3923.091493,766.095498,6661.853478
773.831698,-666.185348,1915.238745,6661.853478
773.832023,1554.432478,-306.438199,7846.182985
773.832348,3034.844362,-995.924147,8438.347739
773.832673,5181.441594,-306.438199,9474.636058
773.832998,7846.182985,153.219100,10955.047942
773.833322,8660.409521,459.657299,11843.295072
773.833647,8734.430116,229.828649,11917.315666
773.833972,9104.533087,1685.410096,10288.862594
773.834297,7105.977043,2834.553343,10288.862594
773.834622,3108.864956,2068.457845,10214.842000
773.834947,-666.185348,1532.190996,9474.636058
773.835272,-3108.864956,1915.238745,9548.656652
773.835597,-5329.482782,2145.067394,11473.192101
773.835922,-8438.347739,2145.067394,10584.944971
773.836247,-9918.759623,-76.609550,7846.182985
773.836572,-8068.244768,-2834.553343,5847.626942
773.836897,-6883.915261,-2681.334243,6587.832884
773.837222,-5403.503377,459.657299,7105.977043
773.837547,-1702.473667,2145.067394,7698.141797
773.837872,2664.741391,-536.266849,8364.327145
773.838197,3627.009116,-2834.553343,9548.656652
773.838522,5255.462188,-2145.067394,9548.656652
773.838847,6661.853478,229.828649,10658.965565
773.839172,8808.450710,-766.095498,11843.295072
773.839496,9548.656652,-1532.190996,12509.480420
773.839821,8586.388927,-536.266849,11029.068536
773.840146,5995.668130,1378.971896,10362.883188
773.840471,3775.050304,2221.676944,10140.821405
773.840796,740.205942,1532.190996,10510.924376
773.841121,-2294.638420,1532.190996,10066.800811
773.841446,-6069.688724,2604.724693,10510.924376
773.841771,-8734.430116,2068.457845,8956.491898
773.842096,-9178.553681,612.876398,7772.162391
773.842421,-8808.450710,-612.876398,6809.894666
773.842746,-8882.471304,-459.657299,5477.523971
773.843071,-7179.997637,0.000000,5181.441594
773.843396,-3775.050304,-459.657299,5847.626942
773.843721,-962.267725,-1378.971896,7772.162391
773.844046,370.102971,-1532.190996,8808.450710
773.844371,2590.720797,-1455.581446,8586.388927
773.844696,5995.668130,-1608.800546,10510.924376
773.845021,7402.059420,-1149.143247,12731.542202
773.845346,8364.327145,306.438199,12879.583391
773.845670,8586.388927,1149.143247,12065.356855
773.845995,8364.327145,1608.800546,11103.089130
773.846320,6587.832884,2757.943793,10658.965565
773.846645,3256.906145,3370.820191,10510.924376
773.846970,-814.226536,3370.820191,9844.739029
773.847295,-4071.132681,3064.381992,10584.944971
773.847620,-7254.018232,2145.067394,9696.697840
773.847945,-10288.862594,1915.238745,8808.450710
773.848270,-11325.150913,229.828649,6883.915261
773.848595,-9178.553681,-766.095498,5477.523971
773.848920,-7254.018232,76.609550,5107.421000
773.849245,-5181.441594,76.609550,5773.606348
773.849570,-2442.679609,1225.752797,6143.709319
773.849895,1628.453072,612.876398,6735.874072
773.850220,4737.318029,-612.876398,8734.430116
773.850545,6513.812290,-995.924147,10658.965565
773.850870,7402.059420,383.047749,11177.109724
773.851195,8808.450710,229.828649,11325.150913
773.851520,10881.027347,0.000000,11843.295072
773.851845,9400.615463,995.924147,11769.274478
773.852169,5995.668130,2451.505594,11325.150913
773.852494,3478.967927,2987.772442,10658.965565
773.852819,592.164754,2604.724693,10732.986159
773.853144,-2960.823768,1915.238745,10362.883188
773.853469,-6587.832884,2451.505594,9548.656652
773.853794,-9622.677246,2528.115143,9252.574275
773.854119,-9770.718434,1302.362347,8216.285956
773.854444,-8660.409521,-459.657299,6883.915261
773.854769,-7994.224174,-1302.362347,6143.709319
773.855094,-7254.018232,-612.876398,5107.421000
773.855419,-3997.112087,-689.485948,6365.771101
773.855744,444.123565,-612.876398,7772.162391
773.856069,2146.597232,-1991.848295,9178.553681
773.856394,3478.967927,-2834.553343,9178.553681
773.856719,6587.832884,-2374.896044,10288.862594
773.857044,9104.533087,0.000000,12361.439231
773.857369,9474.636058,536.266849,12953.603985
773.857694,8882.471304,0.000000,11843.295072
773.858019,8364.327145,1072.533697,10362.883188
773.858343,6217.729913,3524.039291,10584.944971
773.858668,2886.803174,4060.306139,10955.047942
773.858993,-2516.700203,2604.724693,9770.718434
773.859318,-6217.729913,1838.629195,9548.656652
773.859643,-8660.409521,1072.533697,9030.512492
773.859968,-10881.027347,229.828649,8586.388927
773.860293,-11843.295072,-1532.190996,6291.750507
773.860618,-10140.821405,-2298.286494,6365.771101
773.860943,-7476.080014,-2374.896044,6365.771101
773.861268,-5107.421000,-2145.067394,6587.832884
773.861593,-1332.370696,-1455.581446,7846.182985
773.861918,2294.638420,-689.485948,8660.409521
773.862243,5995.668130,0.000000,10288.862594
773.862568,8956.491898,-919.314598,11991.336260
773.862893,9770.718434,-153.219100,11843.295072
773.863218,10807.006753,689.485948,11991.336260
773.863543,12731.542202,1762.019645,11843.295072
773.863868,10732.986159,2451.505594,10955.047942
773.864193,6513.812290,2451.505594,11029.068536
773.864517,2368.659014,2911.162892,9918.759623
773.864842,-1036.288319,2987.772442,9844.739029
773.865167,-5255.462188,2911.162892,9918.759623
773.865492,-9548.656652,3064.381992,8364.327145
773.865817,-12139.377449,612.876398,7550.100608
773.866142,-11695.253884,-306.438199,5847.626942
773.866467,-9918.759623,-766.095498,5995.668130
773.866792,-9104.533087,0.000000,6365.771101
773.867117,-6957.935855,612.876398,5625.565159
773.867442,-2516.700203,229.828649,6735.874072
773.867767,1776.494261,-306.438199,7994.224174
773.868092,4071.132681,-612.876398,10288.862594
773.868417,6587.832884,-153.219100,11029.068536
773.868742,9474.636058,612.876398,12583.501014
773.869067,11399.171507,1149.143247,14063.912898
773.869392,12065.356855,1762.019645,13545.768739
773.869717,10881.027347,2221.676944,11991.336260
773.870042,8438.347739,3677.258390,10214.842000
773.870367,5847.626942,3907.087040,10732.986159
773.870691,1776.494261,4060.306139,10732.986159
773.871016,-3552.988522,2987.772442,9400.615463
773.871341,-8586.388927,2451.505594,8290.306550
773.871666,-10955.047942,1149.143247,7402.059420
773.871991,-12805.562797,229.828649,6439.791695
773.872316,-13249.686362,-1608.800546,4737.318029
773.872641,-11917.315666,-2451.505594,4885.359217
773.872966,-9474.636058,-1991.848295,5403.503377
773.873291,-5921.647536,-1378.971896,6291.750507
773.873616,-2220.617826,-919.314598,7402.059420
773.873941,1850.514855,-766.095498,8956.491898
773.874266,6069.688724,-995.924147,10066.800811
773.874591,9400.615463,-1072.533697,11843.295072
773.874916,10955.047942,-766.095498,12953.603985
773.875241,11991.336260,0.000000,12435.459826
773.875566,12953.603985,766.095498,11991.336260
773.875891,11547.212695,2068.457845,12065.356855
773.876216,7105.977043,2451.505594,12065.356855
773.876541,3182.885551,2145.067394,10584.944971
773.876865,0.000000,1455.581446,10288.862594
773.877190,-4959.379811,1838.629195,9770.718434
773.877515,-9770.718434,1685.410096,9548.656652
773.877840,-11399.171507,76.609550,8142.265362
773.878165,-10436.903782,-2068.457845,5921.647536
773.878490,-9844.739029,-2757.943793,6291.750507
773.878815,-8882.471304,-1608.800546,5921.647536
773.879140,-6587.832884,383.047749,4885.359217
773.879465,-2294.638420,-1532.190996,5625.565159
773.879790,1628.453072,-2451.505594,8660.409521
773.880115,3182.885551,-1991.848295,10066.800811
773.880440,5403.503377,-383.047749,10955.047942
773.880765,9104.533087,-383.047749,11547.212695
773.881090,10436.903782,-689.485948,12509.480420
773.881415,11325.150913,-229.828649,12139.377449
773.881740,9474.636058,2451.505594,11621.233289
773.882065,7624.121203,2987.772442,11399.171507
773.882390,4589.276840,3064.381992,11769.274478
773.882715,592.164754,2757.943793,10955.047942
773.883040,-4441.235652,3064.381992,9400.615463
773.883364,-8068.244768,2681.334243,8290.306550
773.883689,-9474.636058,2757.943793,9030.512492
773.884014,-11177.109724,1225.752797,7698.141797
773.884339,-11695.253884,0.000000,5625.565159
773.884664,-10362.883188,-995.924147,4293.194464
773.884989,-7846.182985,-995.924147,4737.318029
773.885314,-4293.194464,459.657299,6661.853478
773.885639,-518.144159,1608.800546,8216.285956
773.885964,2886.803174,0.000000,9622.677246
773.886289,6291.750507,-1072.533697,9252.574275
773.886614,9104.533087,-919.314598,10732.986159
773.886939,10140.821405,1685.410096,12213.398043
773.887264,10510.924376,2298.286494,12213.398043
773.887589,10436.903782,995.924147,11325.150913
773.887914,8956.491898,1532.190996,10955.047942
773.888239,4367.215058,3064.381992,11177.109724
773.888564,666.185348,3524.039291,10288.862594
773.888889,-2960.823768,2451.505594,9918.759623
773.889214,-7402.059420,2298.286494,10140.821405
773.889538,-10732.986159,1762.019645,9918.759623
773.889863,-11991.336260,919.314598,8364.327145
773.890188,-10658.965565,-1072.533697,5329.482782
773.890513,-9252.574275,-1072.533697,6291.750507
773.890838,-7846.182985,-689.485948,6069.688724
773.891163,-5255.462188,689.485948,6217.729913
773.891488,-296.082377,-536.266849,7476.080014
773.891813,3701.029710,-1762.019645,9474.636058
773.892138,5403.503377,-1915.238745,9548.656652
773.892463,7920.203579,-766.095498,10288.862594
773.892788,11473.192101,-459.657299,11251.130318
773.893113,12731.542202,459.657299,13249.686362
773.893438,12361.439231,689.485948,12657.521608
773.893763,10955.047942,1608.800546,11177.109724
773.894088,7402.059420,2374.896044,10436.903782
773.894413,4071.132681,2528.115143,10140.821405
773.894738,-370.102971,2374.896044,11029.068536
773.895063,-6365.771101,2681.334243,9474.636058
773.895388,-10732.986159,1455.581446,8734.430116
773.895713,-12731.542202,-1915.238745,8438.347739
773.896037,-13175.665768,-2221.676944,6587.832884
773.896362,-13175.665768,-2451.505594,5107.421000
773.896687,-11029.068536,-2757.943793,4737.318029
773.897012,-7402.059420,-2451.505594,5477.523971
773.897337,-3330.926739,-1762.019645,7402.059420
773.897662,814.226536,-919.314598,8660.409521
773.897987,4515.256246,-612.876398,10362.883188
773.898312,8364.327145,-1302.362347,10732.986159
773.898637,11547.212695,-689.485948,13027.624579
773.898962,13249.686362,536.266849,14137.933492
773.899287,13471.748144,1378.971896,13989.892304
773.899612,12361.439231,1838.629195,12657.521608
773.899937,9548.656652,2145.067394,11547.212695
773.900262,4811.338623,3370.820191,10807.006753
773.900587,148.041188,4213.525239,10584.944971
773.900912,-4219.173869,2987.772442,9474.636058
773.901237,-8512.368333,2374.896044,8290.306550
773.901562,-12805.562797,1608.800546,8068.244768
773.901887,-14434.015869,842.705048,5773.606348
773.902211,-13175.665768,-229.828649,3256.906145
773.902536,-11843.295072,-1149.143247,4367.215058
773.902861,-9844.739029,-1072.533697,4811.338623
773.903186,-6661.853478,612.876398,5995.668130
773.903511,-1258.350101,306.438199,6661.853478
773.903836,2886.803174,-383.047749,9104.533087
773.904161,5847.626942,-689.485948,10584.944971
773.904486,8586.388927,919.314598,11103.089130
773.904811,12065.356855,1532.190996,12361.439231
773.905136,13841.851115,2221.676944,13101.645173
773.905461,13619.789333,2451.505594,13175.665768
773.905786,10658.965565,3677.258390,12657.521608
773.906111,7994.224174,4213.525239,11251.130318
773.906436,4293.194464,4060.306139,10955.047942
773.906761,0.000000,4136.915689,12213.398043
773.907086,-6809.894666,3600.648841,9918.759623
773.907411,-10214.842000,3447.429741,7402.059420
773.907736,-12139.377449,459.657299,7179.997637
773.908061,-12953.603985,-1608.800546,4737.318029
773.908386,-12953.603985,-1532.190996,4071.132681
773.908710,-10510.924376,-766.095498,4441.235652
773.909035,-7402.059420,0.000000,6069.688724
773.909360,-3404.947333,-306.438199,7105.977043
773.909685,518.144159,-1378.971896,7994.224174
773.910010,4441.235652,-2068.457845,9474.636058
773.910335,7994.224174,-766.095498,10584.944971
773.910660,11251.130318,383.047749,12583.501014
773.910985,13767.830521,76.609550,14063.912898
773.911310,12879.583391,383.047749,12509.480420
773.911635,11251.130318,1532.190996,11843.295072
773.911960,9622.677246,2221.676944,11695.253884
773.912285,5255.462188,2451.505594,11399.171507
773.912610,296.082377,1991.848295,11399.171507
773.912935,-4293.194464,2221.676944,10732.986159
773.913260,-8660.409521,1762.019645,9474.636058
773.913585,-11621.233289,229.828649,8438.347739
773.913910,-12731.542202,-2145.067394,6513.812290
773.914235,-12287.418637,-2068.457845,4737.318029
773.914560,-9992.780217,-2145.067394,4885.359217
773.914885,-7402.059420,-1915.238745,6661.853478
773.915209,-5181.441594,-1532.190996,7179.997637
773.915534,-1332.370696,-2604.724693,7550.100608
773.915859,3182.885551,-3140.991542,9770.718434
773.916184,5699.585753,-2604.724693,10436.903782
773.916509,8512.368333,-919.314598,11251.130318
773.916834,12065.356855,-919.314598,12139.377449
773.917159,13323.706956,0.000000,12657.521608
773.917484,12139.377449,1838.629195,11991.336260
773.917809,9696.697840,3524.039291,11399.171507
773.918134,6439.791695,3370.820191,9992.780217
773.918459,2886.803174,3447.429741,9474.636058
773.918784,-962.267725,3753.867940,10658.965565
773.919109,-7179.997637,3830.477490,9770.718434
773.919434,-11547.212695,3064.381992,7698.141797
773.919759,-12509.480420,-383.047749,6587.832884
773.920084,-12657.521608,-2528.115143,4663.297435
773.920409,-13175.665768,-1762.019645,4663.297435
773.920734,-10732.986159,-842.705048,5403.503377
773.921059,-6439.791695,-306.438199,7031.956449
773.921384,-2220.617826,-1302.362347,8438.347739
773.921708,1628.453072,-1532.190996,8808.450710
773.922033,5625.565159,-229.828649,9622.677246
773.922358,9326.594869,1915.238745,11325.150913
773.922683,12953.603985,2528.115143,14063.912898
773.923008,13989.892304,1455.581446,14211.954086
773.923333,12509.480420,2298.286494,11917.315666
773.923658,10584.944971,2528.115143,11103.089130
773.923983,7772.162391,4673.182538,11325.150913
773.924308,2812.782580,4596.572988,11621.233289
773.924633,-2368.659014,3677.258390,10510.924376
773.924958,-6513.812290,2834.553343,8660.409521
773.925283,-10658.965565,3447.429741,7772.162391
773.925608,-12287.418637,2221.676944,7031.956449
773.925933,-12583.501014,-306.438199,4441.235652
773.926258,-12879.583391,-919.314598,3997.112087
773.926583,-10066.800811,-689.485948,4959.379811
773.926908,-6365.771101,459.657299,7105.977043
773.927233,-3627.009116,536.266849,7105.977043
773.927558,-888.247130,-1762.019645,8142.265362
773.927882,3478.967927,-2374.896044,9918.759623
773.928207,7105.977043,-995.924147,11695.253884
773.928532,9770.718434,76.609550,12731.542202
773.928857,11547.212695,-306.438199,12805.562797
773.929182,12805.562797,76.609550,12435.459826
773.929507,11917.315666,1762.019645,11991.336260
773.929832,9178.553681,3753.867940,11843.295072
773.930157,5773.606348,2834.553343,11177.109724
773.930482,1776.494261,2911.162892,10214.842000
773.930807,-2590.720797,2451.505594,10214.842000
773.931132,-7772.162391,2451.505594,8512.368333
773.931457,-11547.212695,766.095498,7105.977043
773.931782,-11843.295072,-1762.019645,5329.482782
773.932107,-11399.171507,-2681.334243,5921.647536
773.932432,-11695.253884,-2911.162892,5773.606348
773.932757,-9548.656652,-2528.115143,5403.503377
773.933082,-5403.503377,-2987.772442,6809.894666
773.933407,-592.164754,-2987.772442,8660.409521
773.933732,2738.761985,-2145.067394,10510.924376
773.934057,6365.771101,-1455.581446,10732.986159
773.934381,10288.862594,-1149.143247,11843.295072
773.934706,13841.851115,383.047749,13175.665768
773.935031,14211.954086,919.314598,13619.789333
773.935356,12065.356855,1378.971896,11621.233289
773.935681,10362.883188,1685.410096,11843.295072
773.936006,7476.080014,2528.115143,11843.295072
773.936331,2294.638420,2987.772442,11547.212695
773.936656,-3775.050304,2374.896044,10732.986159
773.936981,-7846.182985,1685.410096,8216.285956
773.937306,-11251.130318,0.000000,8364.327145
773.937631,-11991.336260,-459.657299,6365.771101
773.937956,-12731.542202,-1225.752797,4737.318029
773.938281,-11695.253884,-995.924147,3849.070898
773.938606,-8364.327145,-306.438199,4515.256246
773.938931,-4589.276840,76.609550,7402.059420
773.939256,-1110.308913,-536.266849,7624.121203
773.939581,1998.556043,-306.438199,8438.347739
773.939906,5477.523971,-1149.143247,10066.800811
773.940231,9030.512492,0.000000,11695.253884
773.940556,10584.944971,842.705048,12435.459826
773.940880,11843.295072,842.705048,12139.377449
773.941205,12657.521608,1838.629195,12065.356855
773.941530,10288.862594,3370.820191,12287.418637
773.941855,6735.874072,4060.306139,11695.253884
773.942180,2590.720797,4060.306139,11177.109724
773.942505,-2072.576638,3370.820191,9474.636058
773.942830,-6217.729913,3830.477490,9474.636058
773.943155,-10214.842000,3524.039291,8660.409521
773.943480,-12509.480420,2451.505594,6957.935855
773.943805,-13693.809927,-306.438199,5329.482782
773.944130,-12065.356855,-1991.848295,4811.338623
773.944455,-10807.006753,-919.314598,5477.523971
773.944780,-7698.141797,383.047749,6439.791695
773.945105,-3108.864956,0.000000,7254.018232
773.945430,1110.308913,-1149.143247,8734.430116
773.945755,4367.215058,-995.924147,10066.800811
773.946080,8068.244768,0.000000,11251.130318
773.946405,11251.130318,2145.067394,11325.150913
773.946730,13915.871710,1072.533697,13249.686362
773.947055,13545.768739,995.924147,13027.624579
773.947379,10658.965565,2221.676944,10881.027347
773.947704,8142.265362,2528.115143,10881.027347
773.948029,4589.276840,3064.381992,10362.883188
773.948354,-370.102971,2987.772442,10807.006753
773.948679,-6957.935855,2987.772442,9696.697840
773.949004,-10510.924376,1608.800546,7846.182985
773.949329,-12065.356855,-766.095498,7550.100608
773.949654,-11991.336260,-2604.724693,5847.626942
773.949979,-12657.521608,-2528.115143,4959.379811
773.950304,-10362.883188,-1991.848295,4737.318029
773.950629,-6069.688724,-459.657299,6661.853478
773.950954,-1554.432478,-995.924147,9548.656652
773.951279,962.267725,-1302.362347,9770.718434
773.951604,3849.070898,-1991.848295,9770.718434
773.951929,8438.347739,-2221.676944,10732.986159
773.952254,11843.295072,-536.266849,12435.459826
773.952579,12657.521608,536.266849,12953.603985
773.952904,12879.583391,-766.095498,12213.398043
773.953229,11991.336260,612.876398,11991.336260
773.953553,9474.636058,2298.286494,11621.233289
773.953878,5033.400406,2987.772442,11177.109724
773.954203,444.123565,2068.457845,10362.883188
773.954528,-4145.153275,2298.286494,8882.471304
773.954853,-8142.265362,2068.457845,8882.471304
773.955178,-11029.068536,459.657299,8586.388927
773.955503,-13175.665768,-459.657299,5847.626942
773.955828,-13175.665768,-995.924147,5107.421000
773.956153,-11103.089130,-2068.457845,5329.482782
773.956478,-9474.636058,-1838.629195,6143.709319
773.956803,-5921.647536,-1225.752797,7254.018232
773.957128,-1406.391290,-612.876398,7772.162391
773.957453,2886.803174,-1608.800546,9622.677246
773.957778,6217.729913,-612.876398,10807.006753
773.958103,9178.553681,1072.533697,12139.377449
773.958428,12065.356855,1685.410096,12139.377449
773.958753,14211.954086,1532.190996,12731.542202
773.959078,13841.851115,2145.067394,12361.439231
773.959403,9992.780217,3677.258390,11103.089130
773.959728,6217.729913,4213.525239,10214.842000
773.960052,2294.638420,3600.648841,10066.800811
773.960377,-2886.803174,3600.648841,10066.800811
773.960702,-9104.533087,3447.429741,9252.574275
773.961027,-11917.315666,2298.286494,7402.059420
773.961352,-13545.768739,-229.828649,6661.853478
773.961677,-13249.686362,-1608.800546,4885.359217
773.962002,-13249.686362,-1455.581446,4885.359217
773.962327,-10214.842000,-306.438199,4737.318029
773.962652,-5625.565159,689.485948,6587.832884
773.962977,-444.123565,306.438199,8216.285956
773.963302,1776.494261,-689.485948,9326.594869
773.963627,4293.194464,-842.705048,9992.780217
773.963952,8882.471304,229.828649,11843.295072
773.964277,12361.439231,919.314598,13397.727550
773.964602,12953.603985,153.219100,13249.686362
773.964927,12657.521608,1072.533697,11991.336260
773.965252,12065.356855,2911.162892,12139.377449
773.965577,9474.636058,4060.306139,11547.212695
773.965902,5403.503377,3524.039291,11029.068536
773.966227,0.000000,2451.505594,9696.697840
773.966551,-4811.338623,3064.381992,9030.512492
773.966876,-8142.265362,3524.039291,8364.327145
773.967201,-10955.047942,1685.410096,7846.182985
773.967526,-13249.686362,-1762.019645,5329.482782
773.967851,-13915.871710,-3064.381992,5033.400406
773.968176,-11843.295072,-2681.334243,5551.544565
773.968501,-8660.409521,-2221.676944,6365.771101
773.968826,-5699.585753,-2221.676944,7105.977043
773.969151,-1332.370696,-2604.724693,8512.368333
773.969476,2886.803174,-1991.848295,9474.636058
773.969801,7254.018232,-1072.533697,10510.924376
773.970126,10584.944971,766.095498,12287.418637
773.970451,12879.583391,995.924147,12213.398043
773.970776,14285.974681,1302.362347,12065.356855
773.971101,14063.912898,2068.457845,12435.459826
773.971426,9770.718434,2681.334243,11917.315666
773.971751,4737.318029,2834.553343,10881.027347
773.972076,1776.494261,2145.067394,10807.006753
773.972401,-3775.050304,2068.457845,10214.842000
773.972726,-9696.697840,1302.362347,9030.512492
773.973050,-12287.418637,76.609550,7476.080014
773.973375,-12879.583391,-1532.190996,6587.832884
773.973700,-13323.706956,-2528.115143,5403.503377
773.974025,-12361.439231,-2987.772442,4071.132681
773.974350,-9992.780217,-1991.848295,4959.379811
773.974675,-5329.482782,-689.485948,6661.853478
773.975000,-444.123565,-766.095498,8660.409521
773.975325,2368.659014,-1608.800546,10362.883188
773.975650,4959.379811,-1762.019645,10584.944971
773.975975,8956.491898,-383.047749,11695.253884
773.976300,13249.686362,76.609550,13175.665768
773.976625,13175.665768,1149.143247,14285.974681
773.976950,12657.521608,1072.533697,12879.583391
773.977275,11621.233289,2221.676944,12213.398043
773.977600,9104.533087,3600.648841,11547.212695
773.977925,4589.276840,4903.011187,11177.109724
773.978250,-814.226536,3753.867940,10658.965565
