#time,accel_x,accel_y,accel_z
87282.959055,0.000000,842.705048,8956.491898
87282.959384,-962.267725,0.000000,8734.430116
87282.959713,-814.226536,612.876398,8808.450710
87282.960042,-296.082377,1455.581446,8512.368333
87282.960371,296.082377,995.924147,9030.512492
87282.960700,-444.123565,536.266849,9400.615463
87282.961029,-1184.329507,0.000000,8660.409521
87282.961358,-148.041188,536.266849,8734.430116
87282.961687,0.000000,306.438199,9104.533087
87282.962016,-666.185348,459.657299,9030.512492
87282.962345,-666.185348,-306.438199,8808.450710
87282.962674,222.061783,306.438199,9400.615463
87282.963003,592.164754,689.485948,9400.615463
87282.963332,296.082377,689.485948,9104.533087
87282.963661,666.185348,842.705048,8956.491898
87282.963990,888.247130,1378.971896,8586.388927
87282.964319,1480.411884,1225.752797,9252.574275
87282.964648,666.185348,1072.533697,9400.615463
87282.964977,0.000000,612.876398,9104.533087
87282.965306,0.000000,919.314598,9252.574275
87282.965635,370.102971,306.438199,9844.739029
87282.965964,-1184.329507,0.000000,9548.656652
87282.966293,-1332.370696,0.000000,9770.718434
87282.966622,-592.164754,0.000000,9400.615463
87282.966951,-592.164754,0.000000,9178.553681
87282.967280,-814.226536,536.266849,9474.636058
87282.967609,-666.185348,536.266849,9844.739029
87282.967938,-222.061783,919.314598,8808.450710
87282.968267,962.267725,995.924147,9400.615463
87282.968596,518.144159,766.095498,9548.656652
87282.968925,222.061783,2068.457845,9178.553681
87282.969254,444.123565,1532.190996,9252.574275
87282.969583,1480.411884,842.705048,9844.739029
87282.969912,1036.288319,536.266849,9918.759623
87282.970241,74.020594,919.314598,9474.636058
87282.970571,888.247130,1302.362347,9252.574275
87282.970900,1702.473667,1149.143247,9844.739029
87282.971229,1554.432478,1302.362347,9918.759623
87282.971558,1480.411884,1915.238745,10140.821405
87282.971887,2072.576638,2451.505594,9474.636058
87282.972216,2812.782580,2451.505594,9548.656652
87282.972545,2590.720797,1915.238745,10140.821405
87282.972874,1554.432478,2451.505594,9474.636058
87282.973203,1776.494261,3294.210641,9178.553681
87282.973532,2590.720797,2068.457845,9992.780217
87282.973861,1924.535449,1762.019645,9918.759623
87282.974190,592.164754,2068.457845,8956.491898
87282.974519,1406.391290,2374.896044,9030.512492
87282.974848,2590.720797,2528.115143,9474.636058
87282.975177,2590.720797,2834.553343,9474.636058
87282.975506,2590.720797,2604.724693,9400.615463
87282.975835,2368.659014,3370.820191,8290.306550
87282.976164,3849.070898,3907.087040,8660.409521
87282.976493,3923.091493,3830.477490,9400.615463
87282.976822,2442.679609,3753.867940,8882.471304
87282.977151,2294.638420,4060.306139,8290.306550
87282.977480,3552.988522,3370.820191,9400.615463
87282.977809,3478.967927,2757.943793,9400.615463
87282.978138,2368.659014,2987.772442,9178.553681
87282.978467,2738.761985,3677.258390,8956.491898
87282.978796,3997.112087,4290.134789,9326.594869
87282.979125,3923.091493,4290.134789,9104.533087
87282.979454,3627.009116,4366.744339,9400.615463
87282.979783,3404.947333,4903.011187,8660.409521
87282.980112,4959.379811,4749.792088,8734.430116
87282.980441,4885.359217,4749.792088,9030.512492
87282.980770,4071.132681,4596.572988,9252.574275
87282.981099,2886.803174,5056.230287,8364.327145
87282.981428,3256.906145,4366.744339,7772.162391
87282.981757,3108.864956,3524.039291,8586.388927
87282.982086,1184.329507,3447.429741,7994.224174
87282.982415,0.000000,3753.867940,7328.038826
87282.982744,-296.082377,2911.162892,7698.141797
87282.983073,-1036.288319,1685.410096,8290.306550
87282.983402,-2442.679609,1149.143247,8290.306550
87282.983731,-3034.844362,919.314598,8290.306550
87282.984060,-2664.741391,1378.971896,8142.265362
87282.984389,-1998.556043,995.924147,9400.615463
87282.984718,-1406.391290,-229.828649,9326.594869
87282.985047,-1554.432478,306.438199,9474.636058
87282.985376,-370.102971,1072.533697,9474.636058
87282.985705,666.185348,612.876398,10140.821405
87282.986034,518.144159,0.000000,10732.986159
87282.986363,222.061783,-383.047749,10732.986159
87282.986692,814.226536,153.219100,11399.171507
87282.987021,888.247130,-995.924147,12065.356855
87282.987350,1702.473667,-1608.800546,12953.603985
87282.987679,1110.308913,-1302.362347,12287.418637
87282.988008,2294.638420,-1225.752797,10658.965565
87282.988337,3701.029710,-229.828649,9992.780217
87282.988666,4811.338623,1225.752797,9326.594869
87282.988995,4811.338623,2987.772442,7624.121203
87282.989324,6809.894666,4290.134789,6513.812290
87282.989653,7550.100608,5286.058936,6587.832884
87282.989982,6513.812290,5439.278036,7179.997637
87282.990311,5477.523971,4749.792088,7550.100608
87282.990640,5255.462188,3600.648841,8586.388927
87282.990969,4515.256246,2374.896044,10436.903782
87282.991298,2220.617826,1302.362347,11695.253884
87282.991627,518.144159,842.705048,13101.645173
87282.991956,0.000000,-842.705048,12139.377449
87282.992285,444.123565,-1532.190996,11843.295072
87282.992614,1036.288319,-306.438199,11103.089130
87282.992943,2146.597232,3064.381992,9178.553681
87282.993272,4663.297435,6511.811733,6809.894666
87282.993601,6587.832884,8120.612279,5255.462188
87282.993930,7031.956449,7814.174080,4737.318029
87282.994259,5181.441594,9652.803275,4219.173869
87282.994588,4367.215058,9806.022374,5847.626942
87282.994917,2886.803174,8197.221829,8660.409521
87282.995246,0.000000,4443.353888,10807.006753
87282.995575,-3552.988522,459.657299,11547.212695
87282.995904,-4219.173869,-1455.581446,12213.398043
87282.996233,-3330.926739,-1685.410096,13841.851115
87282.996562,-2590.720797,-306.438199,14656.077652
87282.996891,-888.247130,1915.238745,14359.995275
87282.997220,1554.432478,3907.087040,12361.439231
87282.997549,4219.173869,4979.620737,8956.491898
87282.997878,5107.421000,5362.668486,6513.812290
87282.998207,4515.256246,7507.735880,3775.050304
87282.998536,5329.482782,8963.317327,3627.009116
87282.998865,5477.523971,9422.974625,4737.318029
87282.999194,4071.132681,7814.174080,5847.626942
87282.999523,2368.659014,5669.106685,5773.606348
87282.999852,1554.432478,3677.258390,6513.812290
87283.000181,0.000000,2298.286494,7476.080014
87283.000510,-1776.494261,1225.752797,8438.347739
87283.000839,-3034.844362,-306.438199,9252.574275
87283.001168,-3034.844362,-1608.800546,9326.594869
87283.001497,-2220.617826,-1838.629195,9696.697840
87283.001826,-962.267725,-1225.752797,11547.212695
87283.002155,296.082377,-383.047749,12583.501014
87283.002484,1702.473667,76.609550,12805.562797
87283.002813,3034.844362,-1225.752797,13619.789333
87283.003142,3701.029710,-2374.896044,12065.356855
87283.003471,4293.194464,-689.485948,11473.192101
87283.003800,5921.647536,1455.581446,10584.944971
87283.004129,7476.080014,2911.162892,9326.594869
87283.004458,7476.080014,3830.477490,7105.977043
87283.004787,6809.894666,5132.839837,5477.523971
87283.005116,4885.359217,4673.182538,4737.318029
87283.005445,4145.153275,3140.991542,4441.235652
87283.005774,2368.659014,2451.505594,5773.606348
87283.006103,592.164754,1532.190996,8068.244768
87283.006432,-1628.453072,919.314598,10214.842000
87283.006761,-2072.576638,-1302.362347,11991.336260
87283.007090,-2738.761985,-3907.087040,13397.727550
87283.007419,-5403.503377,-4979.620737,13027.624579
87283.007748,-5033.400406,-5669.106685,11695.253884
87283.008077,-1850.514855,-2987.772442,12731.542202
87283.008406,1998.556043,0.000000,13027.624579
87283.008735,3108.864956,2757.943793,10732.986159
87283.009064,4737.318029,4979.620737,7476.080014
87283.009393,6661.853478,6052.154434,4219.173869
87283.009722,8956.491898,7737.564530,3330.926739
87283.010051,8808.450710,10342.289223,4589.276840
87283.010380,7179.997637,10878.556072,6587.832884
87283.010709,4441.235652,7890.783629,7550.100608
87283.011038,962.267725,3370.820191,9918.759623
87283.011367,-4737.318029,229.828649,12435.459826
87283.011696,-8290.306550,-3524.039291,13619.789333
87283.012025,-10288.862594,-5822.325785,15470.304188
87283.012354,-10658.965565,-7277.907231,15692.365970
87283.012683,-10362.883188,-6818.249932,16284.530724
87283.013012,-8142.265362,-4903.011187,13841.851115
87283.013341,-3552.988522,-1915.238745,9844.739029
87283.013670,2516.700203,2374.896044,6809.894666
87283.013999,7698.141797,7737.564530,4811.338623
87283.014328,9918.759623,12640.575717,3182.885551
87283.014657,12953.603985,13713.109414,2146.597232
87283.014986,11177.109724,12180.918418,3330.926739
87283.015315,7105.977043,8427.050478,5329.482782
87283.015644,3256.906145,4060.306139,6957.935855
87283.015973,-592.164754,1378.971896,11547.212695
87283.016303,-4145.153275,-2451.505594,13989.892304
87283.016632,-7254.018232,-5822.325785,14211.954086
87283.016961,-9770.718434,-9039.926876,13101.645173
87283.017291,-8956.491898,-8963.317327,12139.377449
87283.017620,-5403.503377,-5439.278036,9474.636058
87283.017949,-74.020594,229.828649,9030.512492
87283.018278,4367.215058,4826.401637,7846.182985
87283.018608,5921.647536,6894.859482,7105.977043
87283.018937,4811.338623,6281.983084,5773.606348
87283.019266,4737.318029,3370.820191,4145.153275
87283.019596,4515.256246,1685.410096,6587.832884
87283.019925,4515.256246,919.314598,10881.027347
87283.020254,1480.411884,1225.752797,12435.459826
87283.020583,-148.041188,-689.485948,13027.624579
87283.020913,-2294.638420,-5132.839837,11547.212695
87283.021242,-3478.967927,-7354.516781,10436.903782
87283.021571,-1554.432478,-4213.525239,8956.491898
87283.021901,222.061783,1302.362347,10584.944971
87283.022230,1036.288319,3447.429741,8956.491898
87283.022559,0.000000,1762.019645,7476.080014
87283.022889,-740.205942,-1225.752797,5995.668130
87283.023218,-888.247130,-1302.362347,6883.915261
87283.023547,-1702.473667,689.485948,9326.594869
87283.023876,-1850.514855,383.047749,11473.192101
87283.024206,-1110.308913,-1991.848295,11399.171507
87283.024535,-1406.391290,-3447.429741,10288.862594
87283.024864,-2738.761985,-2757.943793,7254.018232
87283.025194,-1110.308913,536.266849,5995.668130
87283.025523,2960.823768,2451.505594,6809.894666
87283.025852,4737.318029,5975.544884,7105.977043
87283.026181,3256.906145,6588.421283,7105.977043
87283.026511,-370.102971,4213.525239,6957.935855
87283.026840,-2072.576638,0.000000,6883.915261
87283.027169,-2664.741391,-2987.772442,10362.883188
87283.027499,-3849.070898,-2757.943793,13915.871710
87283.027828,-4885.359217,-2451.505594,16062.468941
87283.028157,-5107.421000,-4443.353888,15396.283594
87283.028487,-5625.565159,-6511.811733,12953.603985
87283.028816,-2072.576638,-5286.058936,8808.450710
87283.029145,2590.720797,1532.190996,8586.388927
87283.029474,5625.565159,9269.755526,8142.265362
87283.029804,7402.059420,11644.651570,6439.791695
87283.030133,5625.565159,7584.345430,6365.771101
87283.030462,2960.823768,3753.867940,4145.153275
87283.030792,74.020594,2068.457845,4219.173869
87283.031121,0.000000,1838.629195,9326.594869
87283.031450,-1628.453072,1149.143247,13989.892304
87283.031779,-3701.029710,-1762.019645,15544.324782
87283.032109,-4589.276840,-5898.935335,12879.583391
87283.032438,-4959.379811,-6511.811733,10955.047942
87283.032767,-2664.741391,-3370.820191,8956.491898
87283.033097,1332.370696,3294.210641,9178.553681
87283.033426,4811.338623,7890.783629,8586.388927
87283.033755,5255.462188,7584.345430,8216.285956
87283.034085,2146.597232,5132.839837,5699.585753
87283.034414,962.267725,1608.800546,4589.276840
87283.034743,370.102971,1072.533697,7031.956449
87283.035072,-592.164754,2145.067394,11473.192101
87283.035402,-1480.411884,-229.828649,13545.768739
87283.035731,-1702.473667,-3677.258390,13989.892304
87283.036060,-2960.823768,-5898.935335,11621.233289
87283.036390,-2886.803174,-4903.011187,8734.430116
87283.036719,666.185348,-1225.752797,8882.471304
87283.037048,4441.235652,4519.963438,9474.636058
87283.037377,4737.318029,6205.373534,9252.574275
87283.037707,2664.741391,4673.182538,7772.162391
87283.038036,148.041188,1072.533697,5699.585753
87283.038365,-740.205942,-1225.752797,6735.874072
87283.038695,-1258.350101,-1762.019645,10881.027347
87283.039024,-2590.720797,-1225.752797,13693.809927
87283.039353,-2664.741391,-3677.258390,13767.830521
87283.039683,-3701.029710,-5745.716235,12583.501014
87283.040012,-2664.741391,-6281.983084,9696.697840
87283.040341,888.247130,-2145.067394,6883.915261
87283.040670,4219.173869,4213.525239,6439.791695
87283.041000,5921.647536,8580.269578,5329.482782
87283.041329,5477.523971,8273.831378,4515.256246
87283.041658,2886.803174,5056.230287,3775.050304
87283.041988,962.267725,842.705048,5403.503377
87283.042317,-1924.535449,0.000000,7846.182985
87283.042646,-2590.720797,-2221.676944,11621.233289
87283.042975,-3404.947333,-4596.572988,15174.221811
87283.043305,-5107.421000,-7124.688131,16358.551318
87283.043634,-7031.956449,-7737.564530,13471.748144
87283.043963,-5181.441594,-7354.516781,9770.718434
87283.044293,0.000000,-2528.115143,9030.512492
87283.044622,4663.297435,4903.011187,8438.347739
87283.044951,6809.894666,9729.412825,8364.327145
87283.045281,3701.029710,8580.269578,6143.709319
87283.045610,1554.432478,3217.601092,3701.029710
87283.045939,1554.432478,612.876398,4885.359217
87283.046268,-370.102971,1838.629195,8660.409521
87283.046598,-2368.659014,1532.190996,10732.986159
87283.046927,-3701.029710,-1685.410096,11917.315666
87283.047256,-4071.132681,-6128.763984,11473.192101
87283.047586,-4441.235652,-6358.592633,10510.924376
87283.047915,-2664.741391,-1685.410096,8438.347739
87283.048244,1702.473667,3217.601092,9252.574275
87283.048573,5255.462188,6435.202183,9622.677246
87283.048903,3997.112087,6818.249932,9030.512492
87283.049232,1184.329507,3983.696590,7105.977043
87283.049561,444.123565,1072.533697,5329.482782
87283.049891,0.000000,229.828649,7698.141797
87283.050220,-1406.391290,-153.219100,11621.233289
87283.050549,-2220.617826,153.219100,13841.851115
87283.050879,-2812.782580,-1838.629195,13767.830521
87283.051208,-3330.926739,-4903.011187,11325.150913
87283.051537,-2368.659014,-4749.792088,8808.450710
87283.051866,1184.329507,383.047749,8068.244768
87283.052196,5255.462188,6588.421283,8956.491898
87283.052525,7105.977043,8503.660028,9104.533087
87283.052854,3923.091493,6052.154434,7920.203579
87283.053184,444.123565,2068.457845,5921.647536
87283.053513,0.000000,-536.266849,7402.059420
87283.053842,-518.144159,-612.876398,11695.253884
87283.054171,-2664.741391,-1072.533697,14359.995275
87283.054501,-3997.112087,-3830.477490,14508.036463
87283.054830,-3701.029710,-6665.030833,12287.418637
87283.055159,-3478.967927,-6818.249932,9770.718434
87283.055489,0.000000,-2145.067394,7254.018232
87283.055818,3552.988522,4903.011187,8068.244768
87283.056147,6291.750507,9499.584175,6661.853478
87283.056477,5181.441594,8427.050478,6217.729913
87283.056806,1850.514855,3600.648841,4589.276840
87283.057135,-962.267725,306.438199,4811.338623
87283.057464,-2664.741391,-1072.533697,7920.203579
87283.057794,-3478.967927,-2298.286494,11399.171507
87283.058123,-5477.523971,-4596.572988,13767.830521
87283.058452,-6365.771101,-7354.516781,14285.974681
87283.058782,-6809.894666,-8197.221829,13027.624579
87283.059111,-4293.194464,-6052.154434,10214.842000
87283.059440,444.123565,-536.266849,7994.224174
87283.059769,4663.297435,4903.011187,9474.636058
87283.060099,6513.812290,7814.174080,8956.491898
87283.060428,4811.338623,6511.811733,6809.894666
87283.060757,3404.947333,1915.238745,4959.379811
87283.061087,1776.494261,-383.047749,6735.874072
87283.061416,444.123565,536.266849,10066.800811
87283.061745,814.226536,919.314598,12213.398043
87283.062075,-1184.329507,-1608.800546,12657.521608
87283.062404,-3552.988522,-5056.230287,11399.171507
87283.062733,-4737.318029,-5975.544884,8068.244768
87283.063062,-740.205942,-3064.381992,6439.791695
87283.063392,2368.659014,3370.820191,7920.203579
87283.063721,3404.947333,7354.516781,8586.388927
87283.064050,2072.576638,6894.859482,8512.368333
87283.064380,1036.288319,2604.724693,5847.626942
87283.064709,222.061783,-766.095498,4737.318029
87283.065038,-1628.453072,-1378.971896,8142.265362
87283.065367,-1554.432478,1072.533697,11399.171507
87283.065697,-1110.308913,1072.533697,13619.789333
87283.066026,-962.267725,-2451.505594,13101.645173
87283.066355,-3034.844362,-5209.449386,9844.739029
87283.066685,-2516.700203,-2987.772442,6291.750507
87283.067014,2368.659014,2451.505594,6217.729913
87283.067343,5033.400406,7584.345430,7846.182985
87283.067673,5403.503377,8197.221829,8364.327145
87283.068002,2368.659014,4979.620737,7624.121203
87283.068331,0.000000,2068.457845,7402.059420
87283.068660,0.000000,76.609550,9104.533087
87283.068990,-814.226536,-306.438199,11769.274478
87283.069319,-2368.659014,-1991.848295,13545.768739
87283.069648,-2960.823768,-2757.943793,14582.057057
87283.069978,-3034.844362,-3907.087040,12509.480420
87283.070307,-2886.803174,-3524.039291,9030.512492
87283.070636,296.082377,-919.314598,7105.977043
87283.070965,4441.235652,5056.230287,6883.915261
87283.071295,5995.668130,10572.117872,7105.977043
87283.071624,4589.276840,9499.584175,6809.894666
87283.071953,1110.308913,3677.258390,5625.565159
87283.072283,-740.205942,-153.219100,5403.503377
87283.072612,-2146.597232,-995.924147,9104.533087
87283.072941,-3701.029710,-612.876398,12805.562797
87283.073271,-5477.523971,-1915.238745,14285.974681
87283.073600,-5995.668130,-6205.373534,13841.851115
87283.073929,-5699.585753,-8044.002729,10732.986159
87283.074258,-3701.029710,-5515.887586,8956.491898
87283.074588,592.164754,1608.800546,9030.512492
87283.074917,5625.565159,7814.174080,9252.574275
87283.075246,6661.853478,8120.612279,8808.450710
87283.075576,3849.070898,3830.477490,7105.977043
87283.075905,2146.597232,1225.752797,5403.503377
87283.076234,1702.473667,1149.143247,8068.244768
87283.076563,1554.432478,229.828649,12065.356855
87283.076893,-888.247130,-612.876398,14878.139434
87283.077222,-2442.679609,-3524.039291,15322.262999
87283.077551,-2738.761985,-6128.763984,13619.789333
87283.077881,-2072.576638,-7354.516781,9326.594869
87283.078210,-814.226536,-3064.381992,7920.203579
87283.078539,1628.453072,3600.648841,7328.038826
87283.078869,3997.112087,7431.126331,7476.080014
87283.079198,3182.885551,6205.373534,7920.203579
87283.079527,-666.185348,1378.971896,6291.750507
87283.079856,-2664.741391,-1455.581446,4811.338623
87283.080186,-2294.638420,-1762.019645,7254.018232
87283.080515,-1480.411884,-459.657299,11917.315666
87283.080844,-2146.597232,-1991.848295,14730.098246
87283.081174,-3552.988522,-4519.963438,13397.727550
87283.081503,-3330.926739,-5975.544884,9548.656652
87283.081832,0.000000,-3753.867940,7254.018232
87283.082161,3923.091493,2757.943793,7624.121203
87283.082491,5847.626942,9422.974625,7105.977043
87283.082820,6809.894666,9652.803275,7550.100608
87283.083149,3627.009116,4290.134789,6661.853478
87283.083479,1184.329507,153.219100,5181.441594
87283.083808,-370.102971,459.657299,7846.182985
87283.084137,-1480.411884,1072.533697,11029.068536
87283.084467,-1998.556043,0.000000,12953.603985
87283.084796,-2738.761985,-3753.867940,13249.686362
87283.085125,-4367.215058,-5745.716235,12657.521608
87283.085454,-4959.379811,-3524.039291,8216.285956
87283.085784,-666.185348,459.657299,7031.956449
87283.086113,3701.029710,5132.839837,7328.038826
87283.086442,4811.338623,8580.269578,7476.080014
87283.086772,2368.659014,8044.002729,7550.100608
87283.087101,814.226536,2987.772442,4737.318029
87283.087430,-518.144159,-459.657299,6291.750507
87283.087760,-1406.391290,-536.266849,10732.986159
87283.088089,-2368.659014,995.924147,12805.562797
87283.088418,-1184.329507,0.000000,12805.562797
87283.088747,-1258.350101,-4060.306139,12953.603985
87283.089077,-3627.009116,-5822.325785,9844.739029
87283.089406,-1776.494261,-2068.457845,7031.956449
87283.089735,2960.823768,4903.011187,8290.306550
87283.090065,6069.688724,7967.393179,9622.677246
87283.090394,3552.988522,6894.859482,8660.409521
87283.090723,666.185348,2374.896044,5995.668130
87283.091052,-148.041188,-766.095498,5403.503377
87283.091382,-814.226536,-229.828649,8882.471304
87283.091711,-2368.659014,229.828649,11991.336260
87283.092040,-2072.576638,-995.924147,13397.727550
87283.092370,-2368.659014,-3524.039291,13175.665768
87283.092699,-3923.091493,-5822.325785,11621.233289
87283.093028,-2664.741391,-4903.011187,9474.636058
87283.093358,1110.308913,-383.047749,7920.203579
87283.093687,5033.400406,4749.792088,9252.574275
87283.094016,6069.688724,7048.078582,9474.636058
87283.094345,3034.844362,5132.839837,8068.244768
87283.094675,222.061783,1072.533697,7179.997637
87283.095004,74.020594,-1838.629195,8290.306550
87283.095333,0.000000,-1991.848295,10436.903782
87283.095663,-1332.370696,-1149.143247,13545.768739
87283.095992,-2294.638420,-1532.190996,13841.851115
87283.096321,-2886.803174,-3753.867940,13323.706956
87283.096650,-2294.638420,-5592.497135,9918.759623
87283.096980,-666.185348,-2757.943793,7179.997637
87283.097309,2368.659014,3064.381992,7105.977043
87283.097638,4959.379811,7814.174080,7698.141797
87283.097968,4441.235652,7354.516781,8364.327145
87283.098297,1110.308913,2604.724693,6365.771101
87283.098626,-1036.288319,-995.924147,6365.771101
87283.098956,-1554.432478,-1225.752797,9252.574275
87283.099285,-1628.453072,-153.219100,12435.459826
87283.099614,-2294.638420,-842.705048,13619.789333
87283.099943,-3404.947333,-4213.525239,13545.768739
87283.100273,-4737.318029,-5898.935335,10881.027347
87283.100602,-1702.473667,-3447.429741,7624.121203
87283.100931,2368.659014,2681.334243,8142.265362
87283.101261,4441.235652,7967.393179,8882.471304
87283.101590,3552.988522,8656.879127,7698.141797
87283.101919,2442.679609,4826.401637,6513.812290
87283.102248,666.185348,459.657299,5921.647536
87283.102578,-1850.514855,0.000000,7105.977043
87283.102907,-3330.926739,536.266849,9992.780217
87283.103236,-2960.823768,-153.219100,11843.295072
87283.103566,-3923.091493,-2757.943793,12583.501014
87283.103895,-4737.318029,-4749.792088,12213.398043
87283.104224,-4145.153275,-4366.744339,8364.327145
87283.104554,0.000000,0.000000,6587.832884
87283.104883,4515.256246,4749.792088,8438.347739
87283.105212,5329.482782,8120.612279,8216.285956
87283.105541,3182.885551,8503.660028,6587.832884
87283.105871,814.226536,2757.943793,4663.297435
87283.106200,-1036.288319,-1685.410096,5477.523971
87283.106529,-2664.741391,-1225.752797,9104.533087
87283.106859,-2886.803174,-459.657299,12213.398043
87283.107188,-3034.844362,-1608.800546,13545.768739
87283.107517,-3849.070898,-5132.839837,12879.583391
87283.107846,-4959.379811,-6588.421283,9696.697840
87283.108176,-2072.576638,-3447.429741,5921.647536
87283.108505,2738.761985,1991.848295,6809.894666
87283.108834,6513.812290,7124.688131,8364.327145
87283.109164,5773.606348,9116.536426,8808.450710
87283.109493,3478.967927,5132.839837,6809.894666
87283.109822,1776.494261,383.047749,5403.503377
87283.110152,888.247130,-1762.019645,8068.244768
87283.110481,-666.185348,-459.657299,11843.295072
87283.110810,-1480.411884,-153.219100,13545.768739
87283.111139,-1184.329507,-3524.039291,14211.954086
87283.111469,-2738.761985,-6818.249932,13027.624579
87283.111798,-3182.885551,-5132.839837,9770.718434
87283.112127,518.144159,229.828649,8438.347739
87283.112457,4885.359217,5132.839837,7920.203579
87283.112786,6661.853478,7201.297681,8290.306550
87283.113115,4145.153275,5898.935335,8068.244768
87283.113444,518.144159,2987.772442,6217.729913
87283.113774,-962.267725,306.438199,6587.832884
87283.114103,-1258.350101,-1608.800546,10584.944971
87283.114432,-2442.679609,-995.924147,12731.542202
87283.114762,-3404.947333,-1762.019645,12657.521608
87283.115091,-3404.947333,-4136.915689,13101.645173
87283.115420,-3997.112087,-5515.887586,10288.862594
87283.115750,-2368.659014,-3217.601092,7994.224174
87283.116079,1628.453072,2451.505594,8216.285956
87283.116408,4663.297435,8273.831378,8364.327145
87283.116737,5181.441594,8963.317327,8438.347739
87283.117067,2886.803174,4903.011187,8808.450710
87283.117396,-296.082377,536.266849,7105.977043
87283.117725,-1850.514855,-612.876398,7550.100608
87283.118055,-1480.411884,-1072.533697,10436.903782
87283.118384,-2368.659014,-1302.362347,13249.686362
87283.118713,-4515.256246,-2681.334243,13397.727550
87283.119042,-5107.421000,-5975.544884,11695.253884
87283.119372,-3478.967927,-4826.401637,7994.224174
87283.119701,0.000000,-1149.143247,7476.080014
87283.120030,2738.761985,4596.572988,8660.409521
87283.120360,4367.215058,8503.660028,7846.182985
87283.120689,3701.029710,6971.469032,6957.935855
87283.121018,1850.514855,995.924147,6217.729913
87283.121347,-296.082377,-1915.238745,7402.059420
87283.121677,-740.205942,-995.924147,9252.574275
87283.122006,-592.164754,76.609550,13101.645173
87283.122335,-1332.370696,-2451.505594,13989.892304
87283.122664,-3330.926739,-5286.058936,13027.624579
87283.122994,-3849.070898,-5822.325785,9178.553681
87283.123323,-370.102971,-2528.115143,7105.977043
87283.123652,3627.009116,2451.505594,7105.977043
87283.123982,5625.565159,6128.763984,7846.182985
87283.124311,4737.318029,7890.783629,7624.121203
87283.124640,3775.050304,4519.963438,5625.565159
87283.124969,1924.535449,0.000000,5995.668130
87283.125299,-1110.308913,-1532.190996,8068.244768
87283.125628,-2664.741391,-689.485948,11029.068536
87283.125957,-2442.679609,-919.314598,12657.521608
87283.126287,-2368.659014,-4366.744339,13101.645173
87283.126616,-5181.441594,-7201.297681,10732.986159
87283.126945,-5255.462188,-5286.058936,7772.162391
87283.127274,0.000000,-459.657299,7105.977043
87283.127604,4145.153275,4596.572988,8290.306550
87283.127933,4071.132681,7048.078582,8808.450710
87283.128262,1924.535449,5669.106685,7105.977043
87283.128591,1628.453072,2221.676944,5921.647536
87283.128921,1036.288319,153.219100,7476.080014
87283.129250,-1036.288319,76.609550,10066.800811
87283.129579,-1998.556043,-919.314598,11251.130318
87283.129909,-2220.617826,-2987.772442,12287.418637
87283.130238,-3923.091493,-3753.867940,13471.748144
87283.130567,-4441.235652,-3830.477490,10658.965565
87283.130896,-2664.741391,-1991.848295,7476.080014
87283.131226,1554.432478,1455.581446,7698.141797
87283.131555,3034.844362,5362.668486,8216.285956
87283.131884,2516.700203,7124.688131,8068.244768
87283.132214,1258.350101,4519.963438,7550.100608
87283.132543,296.082377,-153.219100,6513.812290
87283.132872,-444.123565,-919.314598,9030.512492
87283.133201,-1258.350101,536.266849,11103.089130
87283.133531,-1480.411884,689.485948,13841.851115
87283.133860,-2664.741391,-2374.896044,14137.933492
87283.134189,-1998.556043,-5669.106685,10955.047942
87283.134518,-1036.288319,-3753.867940,8438.347739
87283.134848,1850.514855,919.314598,7698.141797
87283.135177,4441.235652,6052.154434,7920.203579
87283.135506,4885.359217,7124.688131,8364.327145
87283.135836,2590.720797,4749.792088,9326.594869
87283.136165,0.000000,1225.752797,7402.059420
87283.136494,-444.123565,0.000000,7476.080014
87283.136823,0.000000,-842.705048,10584.944971
87283.137153,-1924.535449,-612.876398,12065.356855
87283.137482,-2516.700203,-919.314598,13619.789333
87283.137811,-2368.659014,-2987.772442,11917.315666
87283.138141,-1924.535449,-3447.429741,8438.347739
87283.138470,296.082377,-1302.362347,6217.729913
87283.138799,2812.782580,4366.744339,7402.059420
87283.139128,4589.276840,9039.926876,7402.059420
87283.139458,4367.215058,7431.126331,7105.977043
87283.139787,2812.782580,2987.772442,6587.832884
87283.140116,74.020594,-1302.362347,7328.038826
87283.140446,-962.267725,306.438199,9252.574275
87283.140775,0.000000,766.095498,12509.480420
87283.141104,-592.164754,-1149.143247,14730.098246
87283.141433,-1998.556043,-4213.525239,13175.665768
87283.141763,-2812.782580,-4826.401637,9326.594869
87283.142092,-518.144159,-2221.676944,7031.956449
87283.142421,1998.556043,2145.067394,7402.059420
87283.142750,3256.906145,5975.544884,8290.306550
87283.143080,3478.967927,6665.030833,7476.080014
87283.143409,1776.494261,4136.915689,7031.956449
87283.143738,-370.102971,76.609550,6365.771101
87283.144068,-2664.741391,-1915.238745,7550.100608
87283.144397,-3701.029710,-1608.800546,9844.739029
87283.144726,-1998.556043,-1455.581446,13027.624579
87283.145055,-2368.659014,-2298.286494,14434.015869
87283.145385,-4293.194464,-4749.792088,11473.192101
87283.145714,-4071.132681,-4826.401637,7624.121203
87283.146043,666.185348,-842.705048,6217.729913
87283.146373,3627.009116,4060.306139,8068.244768
87283.146702,5033.400406,8044.002729,7920.203579
87283.147031,3552.988522,6665.030833,6883.915261
87283.147360,592.164754,1915.238745,6439.791695
87283.147690,-1628.453072,-1225.752797,7031.956449
87283.148019,-2368.659014,-1762.019645,9400.615463
87283.148348,-2442.679609,-689.485948,11695.253884
87283.148677,-1480.411884,-3064.381992,12805.562797
87283.149007,-2590.720797,-4749.792088,13545.768739
87283.149336,-3997.112087,-4596.572988,10510.924376
87283.149665,-2368.659014,-2068.457845,6661.853478
87283.149995,1850.514855,1838.629195,5921.647536
87283.150324,5107.421000,5286.058936,7105.977043
87283.150653,4145.153275,8120.612279,8142.265362
87283.150982,2294.638420,6205.373534,7105.977043
87283.151312,296.082377,229.828649,7105.977043
87283.151641,-1554.432478,-3217.601092,8216.285956
87283.151970,-2294.638420,-2451.505594,11917.315666
87283.152300,-1998.556043,153.219100,14730.098246
87283.152629,-1406.391290,-1532.190996,14137.933492
87283.152958,-2442.679609,-4979.620737,12139.377449
87283.153287,-3256.906145,-5669.106685,9104.533087
87283.153617,-444.123565,76.609550,7402.059420
87283.153946,3923.091493,6435.202183,8882.471304
87283.154275,5033.400406,7660.954980,8586.388927
87283.154604,2294.638420,4673.182538,7920.203579
87283.154934,0.000000,1225.752797,7105.977043
87283.155263,-2072.576638,0.000000,7550.100608
87283.155592,-1850.514855,-1072.533697,10214.842000
87283.155922,-1924.535449,-2528.115143,12731.542202
87283.156251,-2294.638420,-2451.505594,14137.933492
87283.156580,-1924.535449,-2145.067394,12509.480420
87283.156909,-592.164754,-1915.238745,10362.883188
87283.157239,2072.576638,-919.314598,8068.244768
87283.157568,4441.235652,2987.772442,7031.956449
87283.157897,7031.956449,7660.954980,7550.100608
87283.158227,6587.832884,9193.145976,9400.615463
87283.158556,3108.864956,5822.325785,8290.306550
87283.158885,0.000000,-153.219100,7328.038826
87283.159214,-1184.329507,-3064.381992,7994.224174
87283.159544,-2812.782580,-1915.238745,11399.171507
87283.159873,-3701.029710,-229.828649,12953.603985
87283.160202,-4367.215058,-2528.115143,13915.871710
87283.160532,-4737.318029,-5669.106685,11547.212695
87283.160861,-4071.132681,-4596.572988,7402.059420
87283.161190,-296.082377,842.705048,6365.771101
87283.161519,2960.823768,6588.421283,7550.100608
87283.161849,3997.112087,8273.831378,7254.018232
87283.162178,2812.782580,5132.839837,7476.080014
87283.162507,666.185348,1378.971896,6587.832884
87283.162836,-888.247130,-1225.752797,6661.853478
87283.163166,-2146.597232,-1532.190996,9844.739029
87283.163495,-1924.535449,-1455.581446,13767.830521
87283.163824,-1850.514855,-2298.286494,14137.933492
87283.164154,-2146.597232,-3983.696590,13545.768739
87283.164483,-1554.432478,-4596.572988,9030.512492
87283.164812,1258.350101,-995.924147,5921.647536
87283.165141,4811.338623,4673.182538,6735.874072
87283.165471,6069.688724,8580.269578,7476.080014
87283.165800,5255.462188,8963.317327,6957.935855
87283.166129,2960.823768,4060.306139,5995.668130
87283.166459,-444.123565,-229.828649,5921.647536
87283.166788,-3034.844362,-1072.533697,7031.956449
87283.167117,-4515.256246,-766.095498,10732.986159
87283.167446,-4293.194464,-2987.772442,12065.356855
87283.167776,-3923.091493,-4903.011187,12879.583391
87283.168105,-4885.359217,-5898.935335,11695.253884
87283.168434,-3108.864956,-3294.210641,8512.368333
87283.168763,888.247130,1455.581446,6661.853478
87283.169093,4737.318029,5286.058936,7550.100608
87283.169422,5625.565159,7431.126331,8142.265362
87283.169751,4145.153275,6588.421283,7624.121203
87283.170081,1924.535449,2834.553343,7031.956449
87283.170410,370.102971,-1225.752797,7846.182985
87283.170739,-2146.597232,-2298.286494,10436.903782
87283.171068,-2960.823768,-1378.971896,12435.459826
87283.171398,-2368.659014,-2451.505594,12805.562797
87283.171727,-3182.885551,-4826.401637,12287.418637
87283.172056,-3552.988522,-5439.278036,10658.965565
87283.172386,-1332.370696,-1225.752797,8068.244768
87283.172715,2146.597232,4213.525239,7179.997637
87283.173044,5773.606348,6741.640382,7698.141797
87283.173373,4885.359217,7048.078582,8364.327145
87283.173703,1110.308913,4826.401637,7624.121203
87283.174032,-814.226536,1532.190996,7105.977043
87283.174361,-1184.329507,-1455.581446,8438.347739
87283.174691,-3182.885551,-2987.772442,12213.398043
87283.175020,-4811.338623,-3600.648841,12657.521608
87283.175349,-3997.112087,-3524.039291,13397.727550
87283.175678,-3552.988522,-3600.648841,11843.295072
87283.176008,-2220.617826,-4060.306139,9252.574275
87283.176337,0.000000,1072.533697,7179.997637
87283.176666,4811.338623,6205.373534,6661.853478
87283.176995,6661.853478,8503.660028,7624.121203
87283.177325,3627.009116,7584.345430,8586.388927
87283.177654,148.041188,3294.210641,7105.977043
87283.177983,-1406.391290,-153.219100,7105.977043
87283.178313,-518.144159,-2451.505594,10066.800811
87283.178642,-3478.967927,-2987.772442,12879.583391
87283.178971,-4219.173869,-2451.505594,13175.665768
87283.179300,-3404.947333,-3447.429741,12065.356855
87283.179630,-2072.576638,-3983.696590,10881.027347
87283.179959,592.164754,-1378.971896,8364.327145
87283.180288,4145.153275,4826.401637,7698.141797
87283.180618,7254.018232,9193.145976,7402.059420
87283.180947,7328.038826,9116.536426,8068.244768
87283.181276,3923.091493,5209.449386,7402.059420
87283.181605,1036.288319,919.314598,6661.853478
87283.181935,0.000000,-689.485948,8660.409521
87283.182264,-1554.432478,-1378.971896,11695.253884
87283.182593,-3923.091493,-2145.067394,12731.542202
87283.182922,-5033.400406,-3983.696590,11769.274478
87283.183252,-4737.318029,-5439.278036,10214.842000
87283.183581,-3330.926739,-4673.182538,7772.162391
87283.183910,0.000000,76.609550,7031.956449
87283.184240,2294.638420,5439.278036,7476.080014
87283.184569,3034.844362,8120.612279,7105.977043
87283.184898,2368.659014,5669.106685,6513.812290
87283.185227,740.205942,842.705048,5551.544565
87283.185557,-1332.370696,-1225.752797,7254.018232
87283.185886,-2516.700203,-153.219100,10066.800811
87283.186215,-2368.659014,-1838.629195,12731.542202
87283.186545,-2220.617826,-4290.134789,14063.912898
87283.186874,-3627.009116,-6435.202183,13101.645173
87283.187203,-3701.029710,-5439.278036,9548.656652
87283.187532,888.247130,-1608.800546,7698.141797
87283.187862,4811.338623,2987.772442,8142.265362
87283.188191,6513.812290,6741.640382,7772.162391
87283.188520,5033.400406,7737.564530,7402.059420
87283.188849,3478.967927,5286.058936,6291.750507
87283.189179,2072.576638,842.705048,6069.688724
87283.189508,-888.247130,-1532.190996,7920.203579
87283.189837,-3849.070898,-1225.752797,10140.821405
87283.190167,-3923.091493,-2451.505594,12583.501014
87283.190496,-4367.215058,-4979.620737,13175.665768
87283.190825,-6069.688724,-6818.249932,11473.192101
87283.191154,-5107.421000,-5286.058936,7772.162391
87283.191484,-740.205942,0.000000,6735.874072
87283.191813,3849.070898,5515.887586,7402.059420
87283.192142,4737.318029,7890.783629,8216.285956
87283.192472,2886.803174,7124.688131,7402.059420
87283.192801,2368.659014,3140.991542,6661.853478
87283.193130,1924.535449,229.828649,7920.203579
87283.193459,888.247130,-306.438199,11251.130318
87283.193789,-666.185348,-306.438199,13249.686362
87283.194118,-518.144159,-1608.800546,14063.912898
87283.194447,-888.247130,-4136.915689,13989.892304
87283.194777,-1776.494261,-4136.915689,10584.944971
87283.195106,-740.205942,-689.485948,7624.121203
87283.195435,2738.761985,4136.915689,7920.203579
87283.195764,5403.503377,7890.783629,7476.080014
87283.196094,3701.029710,8273.831378,7994.224174
87283.196423,370.102971,4749.792088,6439.791695
87283.196752,-1184.329507,1608.800546,6069.688724
87283.197081,-1776.494261,995.924147,8364.327145
87283.197411,-3923.091493,-459.657299,12361.439231
87283.197740,-6143.709319,-1762.019645,12509.480420
87283.198069,-5403.503377,-5056.230287,12287.418637
87283.198399,-5033.400406,-6281.983084,11991.336260
87283.198728,-4663.297435,-3830.477490,9474.636058
87283.199057,-814.226536,1378.971896,8586.388927
87283.199386,3849.070898,4826.401637,8142.265362
87283.199716,4885.359217,6818.249932,8068.244768
87283.200045,3108.864956,5515.887586,7179.997637
87283.200374,1036.288319,2681.334243,6809.894666
87283.200704,1110.308913,383.047749,8438.347739
87283.201033,296.082377,-995.924147,11473.192101
87283.201362,-1702.473667,-1532.190996,13027.624579
87283.201691,-3034.844362,-3294.210641,13249.686362
87283.202021,-3182.885551,-5515.887586,11621.233289
87283.202350,-1702.473667,-5286.058936,10214.842000
87283.202679,296.082377,-1608.800546,8586.388927
87283.203008,2664.741391,3217.601092,7031.956449
87283.203338,4811.338623,6435.202183,7105.977043
87283.203667,3849.070898,6128.763984,6883.915261
87283.203996,1924.535449,2528.115143,6365.771101
87283.204326,74.020594,-612.876398,6587.832884
87283.204655,-296.082377,-2221.676944,8660.409521
87283.204984,-444.123565,-1915.238745,11621.233289
87283.205313,-1554.432478,-1608.800546,14359.995275
87283.205643,-2072.576638,-3753.867940,13175.665768
87283.205972,-2664.741391,-4903.011187,9844.739029
87283.206301,0.000000,-4366.744339,6217.729913
87283.206631,2516.700203,995.924147,7402.059420
87283.206960,4219.173869,7354.516781,7254.018232
87283.207289,4367.215058,8273.831378,7476.080014
87283.207618,1110.308913,4366.744339,7328.038826
87283.207948,-888.247130,-842.705048,6439.791695
87283.208277,-1702.473667,-1915.238745,8512.368333
87283.208606,-1924.535449,-919.314598,9918.759623
87283.208936,-2960.823768,-1302.362347,12657.521608
87283.209265,-2738.761985,-2757.943793,14359.995275
87283.209594,-3034.844362,-3753.867940,11991.336260
87283.209923,-1924.535449,-2528.115143,7994.224174
87283.210253,2146.597232,612.876398,5625.565159
87283.210582,5551.544565,6052.154434,7698.141797
87283.210911,6143.709319,9882.631924,7254.018232
87283.211240,3923.091493,8733.488677,7402.059420
87283.211570,1554.432478,2911.162892,6291.750507
87283.211899,-740.205942,-536.266849,6809.894666
87283.212228,-2294.638420,-229.828649,9548.656652
87283.212558,-3404.947333,1072.533697,13175.665768
87283.212887,-4293.194464,-1455.581446,13767.830521
87283.213216,-3997.112087,-5439.278036,12953.603985
87283.213545,-5773.606348,-5898.935335,10140.821405
87283.213875,-3701.029710,-3140.991542,6365.771101
87283.214204,444.123565,2757.943793,7105.977043
87283.214533,4367.215058,7507.735880,7402.059420
87283.214863,2960.823768,7354.516781,7402.059420
87283.215192,740.205942,5056.230287,6809.894666
87283.215521,74.020594,689.485948,6735.874072
87283.215850,518.144159,-1302.362347,8512.368333
87283.216180,0.000000,-1072.533697,12805.562797
87283.216509,-1110.308913,-995.924147,15914.427753
87283.216838,444.123565,-2757.943793,15618.345376
87283.217167,1702.473667,-4443.353888,14063.912898
87283.217496,1184.329507,-4136.915689,11029.068536
87283.217825,2368.659014,0.000000,7105.977043
87283.218154,5181.441594,5975.544884,6883.915261
87283.218483,7254.018232,8580.269578,8808.450710
87283.218812,3923.091493,6818.249932,8142.265362
87283.219141,-518.144159,1072.533697,5403.503377
87283.219470,-2368.659014,-2911.162892,5551.544565
87283.219800,-3923.091493,-2298.286494,8956.491898
87283.220129,-5847.626942,-1685.410096,12065.356855
87283.220458,-5107.421000,-3753.867940,12879.583391
87283.220787,-4737.318029,-5669.106685,11695.253884
87283.221116,-4737.318029,-6205.373534,9030.512492
87283.221445,-2072.576638,-2757.943793,6513.812290
87283.221774,2072.576638,3600.648841,7105.977043
87283.222103,5329.482782,6588.421283,8512.368333
87283.222432,5403.503377,6511.811733,9030.512492
87283.222761,3182.885551,3294.210641,8216.285956
87283.223090,814.226536,153.219100,7476.080014
87283.223419,148.041188,-306.438199,9696.697840
87283.223748,-296.082377,-995.924147,12065.356855
87283.224077,-1850.514855,-1685.410096,13027.624579
87283.224406,-2368.659014,-2911.162892,12953.603985
87283.224736,-2886.803174,-4213.525239,11769.274478
87283.225065,-2294.638420,-2681.334243,8512.368333
87283.225394,518.144159,612.876398,7031.956449
87283.225723,2220.617826,4443.353888,6587.832884
87283.226052,3182.885551,6818.249932,6143.709319
87283.226381,1184.329507,5132.839837,5995.668130
87283.226710,-518.144159,1225.752797,4885.359217
87283.227039,-2590.720797,-842.705048,7328.038826
87283.227368,-3478.967927,-1302.362347,9622.677246
87283.227697,-3478.967927,-1302.362347,11473.192101
87283.228026,-2960.823768,-2528.115143,11769.274478
87283.228355,-2294.638420,-4673.182538,11547.212695
87283.228684,-1998.556043,-4749.792088,9030.512492
87283.229013,740.205942,-459.657299,7105.977043
87283.229342,5107.421000,4519.963438,8512.368333
87283.229671,7105.977043,6894.859482,8364.327145
87283.230001,5329.482782,7201.297681,8438.347739
87283.230330,3849.070898,4366.744339,7624.121203
87283.230659,2220.617826,995.924147,7105.977043
87283.230988,-518.144159,-229.828649,9474.636058
87283.231317,-1998.556043,-1378.971896,11251.130318
87283.231646,-2664.741391,-2221.676944,12065.356855
87283.231975,-2960.823768,-3217.601092,13175.665768
87283.232304,-4441.235652,-3753.867940,12509.480420
87283.232633,-2590.720797,-2221.676944,8142.265362
87283.232962,1776.494261,1072.533697,5921.647536
87283.233291,4737.318029,4903.011187,7031.956449
87283.233620,4663.297435,7277.907231,7698.141797
87283.233949,1554.432478,7431.126331,7402.059420
87283.234278,740.205942,2528.115143,6957.935855
87283.234607,0.000000,-995.924147,8808.450710
87283.234937,-1998.556043,-1532.190996,11029.068536
87283.235266,-3034.844362,-919.314598,12361.439231
87283.235595,-3182.885551,-2604.724693,12583.501014
87283.235924,-3182.885551,-4136.915689,12509.480420
87283.236253,-2442.679609,-4290.134789,10288.862594
87283.236582,592.164754,153.219100,7550.100608
87283.236911,3849.070898,5822.325785,7254.018232
87283.237240,5625.565159,8580.269578,7624.121203
87283.237569,4885.359217,7431.126331,7698.141797
87283.237898,1776.494261,4136.915689,7105.977043
87283.238227,0.000000,76.609550,7254.018232
87283.238556,-1554.432478,-612.876398,9178.553681
87283.238885,-2738.761985,-1608.800546,12509.480420
87283.239214,-3923.091493,-3064.381992,13693.809927
87283.239543,-3552.988522,-4826.401637,14211.954086
87283.239873,-2886.803174,-5132.839837,12213.398043
87283.240202,-370.102971,-2834.553343,9474.636058
87283.240531,2220.617826,919.314598,8068.244768
87283.240860,4589.276840,5209.449386,7179.997637
87283.241189,5699.585753,7967.393179,7624.121203
87283.241518,2886.803174,7048.078582,8808.450710
87283.241847,0.000000,995.924147,6513.812290
87283.242176,-2146.597232,-3064.381992,6883.915261
87283.242505,-2738.761985,-2681.334243,10436.903782
87283.242834,-4737.318029,-1762.019645,13989.892304
87283.243163,-5625.565159,-2757.943793,12805.562797
87283.243492,-4811.338623,-6052.154434,10732.986159
87283.243821,-3849.070898,-6511.811733,8290.306550
87283.244150,-1480.411884,-1455.581446,6365.771101
87283.244479,2146.597232,4979.620737,6291.750507
87283.244808,4663.297435,8963.317327,7476.080014
87283.245138,4145.153275,6435.202183,7105.977043
87283.245467,2812.782580,1915.238745,7105.977043
87283.245796,962.267725,-383.047749,7254.018232
87283.246125,-1184.329507,-153.219100,10732.986159
87283.246454,-1850.514855,-1532.190996,12731.542202
87283.246783,-1406.391290,-3753.867940,13693.809927
87283.247112,-2516.700203,-5592.497135,13323.706956
87283.247441,-3404.947333,-3524.039291,10436.903782
87283.247770,-814.226536,-1302.362347,7476.080014
87283.248099,2664.741391,2068.457845,6809.894666
87283.248428,4145.153275,5362.668486,7105.977043
87283.248757,3034.844362,7354.516781,7105.977043
87283.249086,1406.391290,5132.839837,5847.626942
87283.249415,148.041188,459.657299,6661.853478
87283.249744,-2886.803174,-2298.286494,9696.697840
87283.250074,-4663.297435,-1762.019645,11029.068536
87283.250403,-3552.988522,-2298.286494,11917.315666
87283.250732,-2294.638420,-4519.963438,12953.603985
87283.251061,-3108.864956,-4826.401637,12065.356855
87283.251390,-1776.494261,-1762.019645,8586.388927
87283.251719,3701.029710,2604.724693,7105.977043
87283.252048,6513.812290,6435.202183,7105.977043
87283.252377,7179.997637,9193.145976,7920.203579
87283.252706,5033.400406,9039.926876,8068.244768
87283.253035,3701.029710,4596.572988,6217.729913
87283.253364,1924.535449,76.609550,7624.121203
87283.253693,-1258.350101,-1072.533697,11843.295072
87283.254022,-3034.844362,536.266849,12879.583391
87283.254351,-2072.576638,-1225.752797,13397.727550
87283.254680,-2738.761985,-4749.792088,13323.706956
87283.255010,-5403.503377,-5669.106685,10214.842000
87283.255339,-3701.029710,-2145.067394,6735.874072
87283.255668,1702.473667,3140.991542,6291.750507
87283.255997,4071.132681,7048.078582,7031.956449
87283.256326,2590.720797,7890.783629,8438.347739
87283.256655,1480.411884,5132.839837,7402.059420
87283.256984,518.144159,1378.971896,6883.915261
87283.257313,-444.123565,-1302.362347,9770.718434
87283.257642,-2072.576638,-1915.238745,13027.624579
87283.257971,-2294.638420,-1149.143247,14359.995275
87283.258300,-1110.308913,-2604.724693,13841.851115
87283.258629,-1184.329507,-4903.011187,12435.459826
87283.258958,-222.061783,-4366.744339,9326.594869
87283.259287,2220.617826,919.314598,7550.100608
87283.259616,6291.750507,5745.716235,7624.121203
87283.259945,7031.956449,8503.660028,8808.450710
87283.260275,3849.070898,6511.811733,8142.265362
87283.260604,-444.123565,1608.800546,5773.606348
87283.260933,-1998.556043,-1072.533697,7105.977043
87283.261262,-2886.803174,-2451.505594,10066.800811
87283.261591,-3478.967927,-2604.724693,11917.315666
87283.261920,-4737.318029,-3064.381992,12731.542202
87283.262249,-5699.585753,-5209.449386,12065.356855
87283.262578,-5255.462188,-5745.716235,9696.697840
87283.262907,-1850.514855,-3140.991542,7772.162391
87283.263236,1036.288319,1455.581446,6513.812290
87283.263565,3627.009116,5822.325785,6217.729913
87283.263894,4145.153275,6665.030833,7772.162391
87283.264223,2960.823768,3753.867940,7846.182985
87283.264552,1110.308913,153.219100,8660.409521
87283.264881,-296.082377,-2221.676944,9474.636058
87283.265211,-666.185348,-1838.629195,11029.068536
87283.265540,-296.082377,-1378.971896,12731.542202
87283.265869,-1554.432478,-2987.772442,13619.789333
87283.266198,-2368.659014,-2987.772442,11473.192101
87283.266527,-666.185348,-2528.115143,7994.224174
87283.266856,1924.535449,459.657299,6439.791695
87283.267185,3256.906145,4290.134789,5625.565159
87283.267514,3701.029710,7814.174080,6661.853478
87283.267843,1702.473667,6665.030833,6957.935855
87283.268172,-888.247130,1608.800546,7105.977043
87283.268501,-2368.659014,-2451.505594,7624.121203
87283.268830,-4071.132681,-2374.896044,9474.636058
87283.269159,-3997.112087,-689.485948,11547.212695
87283.269488,-3478.967927,-2298.286494,12287.418637
87283.269817,-4219.173869,-4749.792088,11769.274478
87283.270147,-4293.194464,-3524.039291,9252.574275
87283.270476,148.041188,153.219100,6587.832884
87283.270805,4145.153275,4596.572988,6883.915261
87283.271134,4441.235652,7814.174080,6883.915261
87283.271463,3182.885551,7277.907231,7846.182985
87283.271792,2146.597232,3753.867940,7698.141797
87283.272121,1184.329507,612.876398,7994.224174
87283.272450,-1480.411884,-842.705048,9844.739029
87283.272779,-2738.761985,-1225.752797,11843.295072
87283.273108,-1702.473667,-919.314598,13545.768739
87283.273437,-1184.329507,-2451.505594,13323.706956
87283.273766,-2220.617826,-3294.210641,11103.089130
87283.274095,-1406.391290,-1915.238745,7254.018232
87283.274424,2812.782580,2145.067394,6143.709319
87283.274753,6069.688724,6205.373534,7550.100608
87283.275082,4441.235652,8656.879127,7994.224174
87283.275412,1702.473667,5669.106685,7624.121203
87283.275741,740.205942,0.000000,6883.915261
87283.276070,-666.185348,-2298.286494,8956.491898
87283.276399,-3034.844362,-2068.457845,12065.356855
87283.276728,-3775.050304,-1685.410096,13693.809927
87283.277057,-2368.659014,-3600.648841,12435.459826
87283.277386,-2368.659014,-5745.716235,12583.501014
87283.277715,-2886.803174,-4596.572988,10066.800811
87283.278044,0.000000,306.438199,7624.121203
87283.278373,3923.091493,5286.058936,7550.100608
87283.278702,5255.462188,6588.421283,8068.244768
87283.279031,2516.700203,5822.325785,7698.141797
87283.279360,370.102971,1991.848295,7105.977043
87283.279689,-1184.329507,-536.266849,7328.038826
87283.280018,-1776.494261,-1762.019645,11029.068536
87283.280348,-2960.823768,-2528.115143,13175.665768
87283.280677,-3034.844362,-3064.381992,13397.727550
87283.281006,-2220.617826,-3983.696590,12731.542202
87283.281335,-814.226536,-3677.258390,10214.842000
87283.281664,444.123565,-1991.848295,7402.059420
87283.281993,3849.070898,1991.848295,6217.729913
87283.282322,5773.606348,7277.907231,7179.997637
87283.282651,5921.647536,8503.660028,7920.203579
87283.282980,3627.009116,4979.620737,7550.100608
87283.283309,148.041188,-689.485948,6809.894666
87283.283638,-2368.659014,-2528.115143,8290.306550
87283.283967,-3701.029710,-2604.724693,9770.718434
87283.284296,-4145.153275,-3140.991542,12435.459826
87283.284625,-4737.318029,-4366.744339,13915.871710
87283.284954,-5033.400406,-5669.106685,11917.315666
87283.285284,-2738.761985,-4290.134789,8660.409521
87283.285613,444.123565,0.000000,7402.059420
87283.285942,2590.720797,4290.134789,6957.935855
87283.286271,4293.194464,7354.516781,6217.729913
87283.286600,4145.153275,6358.592633,7031.956449
87283.286929,2368.659014,2681.334243,7476.080014
87283.287258,592.164754,229.828649,7846.182985
87283.287587,-518.144159,-306.438199,9844.739029
87283.287916,-1480.411884,-919.314598,11399.171507
87283.288245,-1480.411884,-1991.848295,13249.686362
87283.288574,-1628.453072,-3140.991542,13545.768739
87283.288903,-2368.659014,-3370.820191,9770.718434
87283.289232,-222.061783,-1608.800546,6957.935855
87283.289561,3478.967927,2221.676944,6883.915261
87283.289890,4515.256246,7124.688131,7402.059420
87283.290220,2590.720797,9193.145976,7402.059420
87283.290549,1702.473667,5209.449386,5699.585753
87283.290878,0.000000,-306.438199,5995.668130
87283.291207,-3478.967927,-2451.505594,7254.018232
87283.291536,-5403.503377,-536.266849,10658.965565
87283.291865,-4293.194464,-153.219100,12213.398043
87283.292194,-3701.029710,-3064.381992,13175.665768
87283.292523,-5107.421000,-6052.154434,11399.171507
87283.292852,-3849.070898,-3753.867940,8438.347739
87283.293181,1628.453072,1991.848295,7476.080014
87283.293510,5181.441594,6052.154434,8216.285956
87283.293839,5403.503377,7277.907231,8438.347739
87283.294168,3478.967927,5822.325785,7772.162391
87283.294497,1480.411884,2834.553343,7179.997637
87283.294826,814.226536,153.219100,9104.533087
87283.295155,-1850.514855,-995.924147,11917.315666
87283.295485,-3256.906145,-2834.553343,12509.480420
87283.295814,-2590.720797,-3753.867940,12953.603985
87283.296143,-2960.823768,-4673.182538,13101.645173
87283.296472,-3256.906145,-4060.306139,10955.047942
87283.296801,-1036.288319,-1225.752797,7624.121203
87283.297130,3404.947333,2911.162892,6883.915261
87283.297459,6217.729913,7124.688131,7624.121203
87283.297788,4885.359217,8350.440928,7550.100608
87283.298117,1998.556043,4826.401637,7179.997637
87283.298446,888.247130,0.000000,6809.894666
87283.298775,-518.144159,-2757.943793,9252.574275
87283.299104,-2294.638420,-1762.019645,11769.274478
87283.299433,-2812.782580,-1838.629195,12805.562797
87283.299762,-2442.679609,-2604.724693,13175.665768
87283.300091,-2368.659014,-5132.839837,12139.377449
87283.300421,-1480.411884,-4596.572988,8882.471304
87283.300750,1480.411884,1149.143247,8068.244768
87283.301079,5181.441594,6281.983084,8216.285956
87283.301408,6883.915261,7660.954980,8142.265362
87283.301737,4145.153275,4903.011187,8216.285956
87283.302066,0.000000,1302.362347,7179.997637
87283.302395,-1406.391290,0.000000,7105.977043
87283.302724,-1258.350101,-1302.362347,10807.006753
87283.303053,-2368.659014,-2451.505594,12139.377449
87283.303382,-4219.173869,-3294.210641,13101.645173
87283.303711,-4071.132681,-4443.353888,11029.068536
87283.304040,-3256.906145,-3677.258390,9696.697840
87283.304369,-592.164754,-1225.752797,7254.018232
87283.304698,2590.720797,2681.334243,7179.997637
87283.305027,4145.153275,7354.516781,7179.997637
87283.305357,4515.256246,7354.516781,7328.038826
87283.305686,2368.659014,3983.696590,7624.121203
87283.306015,222.061783,0.000000,7105.977043
87283.306344,-2442.679609,-306.438199,8660.409521
87283.306673,-2146.597232,-995.924147,10140.821405
87283.307002,-1184.329507,-1915.238745,12213.398043
87283.307331,-2886.803174,-2911.162892,12435.459826
87283.307660,-4515.256246,-4673.182538,9326.594869
87283.307989,-2960.823768,-2451.505594,7105.977043
87283.308318,1406.391290,1685.410096,7254.018232
87283.308647,3552.988522,4979.620737,6809.894666
87283.308976,3923.091493,7201.297681,6365.771101
87283.309305,2886.803174,5286.058936,7179.997637
87283.309634,1332.370696,2451.505594,8364.327145
87283.309963,-740.205942,-612.876398,8512.368333
87283.310292,-1554.432478,-2298.286494,9622.677246
87283.310622,-1702.473667,-2221.676944,11769.274478
87283.310951,-1776.494261,-2221.676944,13693.809927
87283.311280,-2886.803174,-1915.238745,12953.603985
87283.311609,-1924.535449,-3600.648841,9178.553681
87283.311938,814.226536,-1991.848295,7846.182985
87283.312267,3552.988522,3140.991542,7550.100608
87283.312596,5477.523971,7431.126331,7624.121203
87283.312925,3923.091493,8120.612279,7550.100608
87283.313254,2294.638420,2911.162892,7105.977043
87283.313583,1258.350101,-689.485948,7698.141797
87283.313912,-370.102971,-383.047749,9918.759623
87283.314241,-2738.761985,1072.533697,11991.336260
87283.314570,-3256.906145,-1302.362347,12509.480420
87283.314899,-3552.988522,-4673.182538,12287.418637
87283.315228,-5033.400406,-5362.668486,10732.986159
87283.315558,-4367.215058,-3294.210641,7402.059420
87283.315887,148.041188,1149.143247,6661.853478
87283.316216,3034.844362,4290.134789,7476.080014
87283.316545,2590.720797,6281.983084,9548.656652
87283.316874,592.164754,5669.106685,8290.306550
87283.317203,444.123565,1685.410096,5847.626942
87283.317532,740.205942,-1378.971896,7328.038826
87283.317861,-666.185348,-1532.190996,10955.047942
87283.318190,-1998.556043,383.047749,13175.665768
87283.318519,-1776.494261,-153.219100,14137.933492
87283.318849,-1850.514855,-4519.963438,13101.645173
87283.319178,-1850.514855,-5515.887586,9992.780217
87283.319507,222.061783,-919.314598,7476.080014
87283.319836,3256.906145,4366.744339,7254.018232
87283.320165,4515.256246,7048.078582,8734.430116
87283.320495,3404.947333,5286.058936,9474.636058
87283.320824,888.247130,1302.362347,8216.285956
87283.321153,-370.102971,-153.219100,7179.997637
87283.321482,-370.102971,-842.705048,9474.636058
87283.321812,-1702.473667,-1072.533697,12805.562797
87283.322141,-2516.700203,-1685.410096,13323.706956
87283.322470,-2590.720797,-3370.820191,11991.336260
87283.322799,-2072.576638,-4749.792088,9474.636058
87283.323128,0.000000,-2528.115143,7105.977043
87283.323458,2442.679609,2911.162892,6513.812290
87283.323787,4885.359217,7201.297681,7179.997637
87283.324116,4663.297435,7354.516781,8216.285956
87283.324445,2220.617826,3677.258390,7402.059420
87283.324775,-296.082377,76.609550,7402.059420
87283.325104,-1702.473667,-919.314598,7031.956449
87283.325433,-2146.597232,-995.924147,10362.883188
87283.325762,-1924.535449,-1378.971896,12879.583391
87283.326091,-2442.679609,-2374.896044,14063.912898
87283.326421,-3182.885551,-3294.210641,11325.150913
87283.326750,-1480.411884,-3064.381992,7476.080014
87283.327079,1184.329507,76.609550,5847.626942
87283.327408,3701.029710,4749.792088,6735.874072
87283.327738,4515.256246,8503.660028,7179.997637
87283.328067,3034.844362,7277.907231,8142.265362
87283.328396,1036.288319,1915.238745,7105.977043
87283.328725,-888.247130,-1991.848295,7105.977043
87283.329055,-2220.617826,-1455.581446,9252.574275
87283.329384,-1480.411884,-306.438199,11991.336260
87283.329713,-1184.329507,-842.705048,13619.789333
87283.330042,-2738.761985,-3677.258390,12805.562797
87283.330371,-3108.864956,-4290.134789,10214.842000
87283.330701,-370.102971,-1225.752797,6883.915261
87283.331030,2590.720797,3447.429741,6735.874072
87283.331359,3330.926739,6741.640382,7698.141797
87283.331688,2368.659014,5975.544884,7105.977043
87283.332018,518.144159,3370.820191,7624.121203
87283.332347,-962.267725,-306.438199,7698.141797
87283.332676,-2664.741391,-1455.581446,9696.697840
87283.333005,-3478.967927,-1608.800546,11103.089130
87283.333334,-2294.638420,-2451.505594,12139.377449
87283.333664,-2072.576638,-2911.162892,13915.871710
87283.333993,-2220.617826,-3217.601092,11917.315666
87283.334322,-1628.453072,-2451.505594,8290.306550
87283.334651,1850.514855,612.876398,6809.894666
87283.334981,4737.318029,4979.620737,7624.121203
87283.335310,5477.523971,7584.345430,8364.327145
87283.335639,3923.091493,7201.297681,8068.244768
87283.335968,1850.514855,1915.238745,7698.141797
87283.336298,-592.164754,-1915.238745,8068.244768
87283.336627,-2294.638420,-1762.019645,10732.986159
87283.336956,-3478.967927,-1378.971896,12509.480420
87283.337285,-2960.823768,-2451.505594,12953.603985
87283.337614,-2516.700203,-3983.696590,13027.624579
87283.337944,-2812.782580,-4136.915689,10362.883188
87283.338273,-888.247130,-1532.190996,7328.038826
87283.338602,1850.514855,3677.258390,6513.812290
87283.338931,3923.091493,6588.421283,7254.018232
87283.339261,2664.741391,5975.544884,7994.224174
87283.339590,444.123565,3064.381992,7698.141797
87283.339919,-1184.329507,0.000000,7994.224174
87283.340248,-2220.617826,-1762.019645,9696.697840
87283.340577,-2146.597232,-2681.334243,12361.439231
87283.340907,-2146.597232,-3217.601092,13693.809927
87283.341236,-2072.576638,-2451.505594,13175.665768
87283.341565,-1184.329507,-3907.087040,11399.171507
87283.341894,0.000000,-2145.067394,8512.368333
87283.342224,2220.617826,2528.115143,6957.935855
87283.342553,4737.318029,6588.421283,6957.935855
87283.342882,5329.482782,7431.126331,7179.997637
87283.343211,2516.700203,4519.963438,7920.203579
87283.343541,-518.144159,0.000000,7328.038826
87283.343870,-2812.782580,-2221.676944,8438.347739
87283.344199,-3034.844362,-2834.553343,10658.965565
87283.344528,-3330.926739,-3217.601092,12805.562797
87283.344857,-3256.906145,-3753.867940,12879.583391
87283.345187,-2812.782580,-3983.696590,10807.006753
87283.345516,-518.144159,-2374.896044,9030.512492
87283.345845,2812.782580,0.000000,7328.038826
87283.346174,5921.647536,4673.182538,6365.771101
87283.346504,6957.935855,8427.050478,6883.915261
87283.346833,5921.647536,7507.735880,7846.182985
87283.347162,2146.597232,2681.334243,7031.956449
87283.347491,-518.144159,-1838.629195,7772.162391
87283.347820,-3478.967927,-3370.820191,10658.965565
87283.348150,-3849.070898,-2681.334243,12953.603985
87283.348479,-4219.173869,-3524.039291,13767.830521
87283.348808,-4737.318029,-5439.278036,13841.851115
87283.349137,-5773.606348,-5286.058936,10436.903782
87283.349467,-2886.803174,-2374.896044,6143.709319
87283.349796,666.185348,2298.286494,5181.441594
87283.350125,1036.288319,6894.859482,7179.997637
87283.350454,1850.514855,8427.050478,6291.750507
87283.350784,2072.576638,5515.887586,6143.709319
87283.351113,74.020594,919.314598,7105.977043
87283.351442,-2072.576638,-1608.800546,7994.224174
87283.351771,-2368.659014,-306.438199,9992.780217
87283.352100,-370.102971,-536.266849,12139.377449
87283.352430,222.061783,-2221.676944,13545.768739
87283.352759,0.000000,-1991.848295,12361.439231
87283.353088,1924.535449,76.609550,8660.409521
87283.353417,5107.421000,4213.525239,6217.729913
87283.353747,7994.224174,7048.078582,7105.977043
87283.354076,8512.368333,9422.974625,7920.203579
87283.354405,5847.626942,9269.755526,7254.018232
87283.354734,2072.576638,4366.744339,8142.265362
87283.355063,-1628.453072,-1608.800546,8660.409521
87283.355393,-5329.482782,-3370.820191,10658.965565
87283.355722,-7402.059420,-4136.915689,12657.521608
87283.356051,-7031.956449,-4903.011187,13101.645173
87283.356380,-6587.832884,-5362.668486,13101.645173
87283.356710,-5995.668130,-5515.887586,10881.027347
87283.357039,-3330.926739,-2145.067394,7254.018232
87283.357368,2146.597232,2911.162892,6661.853478
87283.357697,5625.565159,7354.516781,7772.162391
87283.358027,5403.503377,8810.098227,7698.141797
87283.358356,4071.132681,6511.811733,7994.224174
87283.358685,3108.864956,1838.629195,7846.182985
87283.359014,1628.453072,-1378.971896,9696.697840
87283.359343,-666.185348,-1685.410096,12139.377449
87283.359673,-1702.473667,-2681.334243,13397.727550
87283.360002,-1332.370696,-3294.210641,14211.954086
87283.360331,-1480.411884,-4673.182538,13545.768739
87283.360660,-1554.432478,-4290.134789,9770.718434
87283.360990,1110.308913,-766.095498,6957.935855
87283.361319,4071.132681,4443.353888,6069.688724
87283.361648,5551.544565,8427.050478,6661.853478
87283.361977,3404.947333,6511.811733,7698.141797
87283.362306,-962.267725,2451.505594,6809.894666
87283.362636,-3849.070898,-2298.286494,6365.771101
87283.362965,-4737.318029,-3753.867940,9104.533087
87283.363294,-5329.482782,-4213.525239,11547.212695
87283.363623,-6365.771101,-3677.258390,12953.603985
87283.363953,-5625.565159,-6435.202183,13101.645173
87283.364282,-5699.585753,-6741.640382,10584.944971
87283.364611,-2146.597232,-4136.915689,7772.162391
87283.364940,1628.453072,1762.019645,7402.059420
87283.365270,4663.297435,6588.421283,6513.812290
87283.365599,5551.544565,7814.174080,7254.018232
87283.365928,4145.153275,4749.792088,9548.656652
87283.366257,1998.556043,1225.752797,8956.491898
87283.366586,148.041188,-1149.143247,7698.141797
87283.366916,0.000000,-3064.381992,9770.718434
87283.367245,-1924.535449,-2604.724693,13323.706956
87283.367574,-3034.844362,-995.924147,14285.974681
87283.367903,-1628.453072,-2451.505594,11103.089130
87283.368233,0.000000,-3600.648841,7994.224174
87283.368562,2516.700203,-306.438199,6587.832884
87283.368891,5181.441594,7354.516781,5921.647536
87283.369220,6809.894666,11951.089769,6291.750507
87283.369549,5255.462188,8810.098227,7402.059420
87283.369879,1776.494261,2681.334243,7328.038826
87283.370208,-148.041188,-995.924147,7105.977043
87283.370537,-1702.473667,0.000000,9252.574275
87283.370866,-3330.926739,-689.485948,11843.295072
87283.371196,-4071.132681,-2911.162892,13249.686362
87283.371525,-4589.276840,-4903.011187,12287.418637
87283.371854,-4737.318029,-4596.572988,9992.780217
87283.372183,-2294.638420,-1378.971896,6439.791695
87283.372512,1406.391290,2911.162892,6883.915261
87283.372842,3923.091493,6818.249932,7254.018232
87283.373171,2738.761985,8580.269578,7254.018232
87283.373500,1628.453072,5669.106685,7476.080014
87283.373829,888.247130,766.095498,8068.244768
87283.374159,-444.123565,-1685.410096,9548.656652
87283.374488,-2442.679609,-1455.581446,11843.295072
87283.374817,-1776.494261,-1455.581446,13767.830521
87283.375146,-666.185348,-2834.553343,13767.830521
87283.375476,-592.164754,-4903.011187,12435.459826
87283.375805,-444.123565,-2604.724693,9992.780217
87283.376134,3108.864956,1838.629195,6883.915261
87283.376463,5847.626942,6588.421283,7254.018232
87283.376792,5773.606348,7584.345430,8660.409521
87283.377122,3182.885551,6358.592633,9030.512492
87283.377451,888.247130,2451.505594,7772.162391
87283.377780,-962.267725,-1991.848295,7920.203579
87283.378109,-3552.988522,-3983.696590,10436.903782
87283.378439,-6365.771101,-3447.429741,11695.253884
87283.378768,-5255.462188,-3677.258390,12805.562797
87283.379097,-4219.173869,-4519.963438,13101.645173
87283.379426,-4885.359217,-5515.887586,9548.656652
87283.379755,-3478.967927,-2757.943793,6069.688724
87283.380085,1998.556043,2451.505594,6069.688724
87283.380414,5181.441594,6894.859482,6809.894666
87283.380743,4959.379811,7431.126331,8290.306550
87283.381072,3256.906145,4366.744339,8882.471304
87283.381402,2368.659014,766.095498,8364.327145
87283.381731,2294.638420,-306.438199,9992.780217
87283.382060,740.205942,-2068.457845,12435.459826
87283.382389,-1406.391290,-1762.019645,14063.912898
87283.382719,-1258.350101,-2221.676944,14434.015869
87283.383048,-370.102971,-3907.087040,12435.459826
87283.383377,-148.041188,-4519.963438,7920.203579
87283.383706,666.185348,-306.438199,6217.729913
87283.384035,3034.844362,5898.935335,6439.791695
87283.384365,3701.029710,9882.631924,7105.977043
87283.384694,1332.370696,6281.983084,8142.265362
87283.385023,-2368.659014,76.609550,7698.141797
87283.385352,-4145.153275,-2221.676944,6439.791695
87283.385682,-3997.112087,-2068.457845,8956.491898
87283.386011,-5033.400406,-2221.676944,11547.212695
87283.386340,-5773.606348,-2834.553343,11991.336260
87283.386669,-4589.276840,-2987.772442,12139.377449
87283.386998,-3256.906145,-3830.477490,9474.636058
87283.387328,-962.267725,-1302.362347,5625.565159
87283.387657,1702.473667,3753.867940,6587.832884
87283.387986,5329.482782,7660.954980,6735.874072
87283.388315,5921.647536,8503.660028,8290.306550
87283.388645,4441.235652,4060.306139,7698.141797
87283.388974,2738.761985,0.000000,7328.038826
87283.389303,-296.082377,0.000000,9400.615463
87283.389632,-666.185348,689.485948,12213.398043
87283.389962,-222.061783,-459.657299,13471.748144
87283.390291,-2072.576638,-3294.210641,12879.583391
87283.390620,-3849.070898,-5286.058936,9770.718434
87283.390949,-1406.391290,-3677.258390,7550.100608
87283.391278,1554.432478,1838.629195,6883.915261
87283.391608,2072.576638,5822.325785,7402.059420
87283.391937,1998.556043,5745.716235,6069.688724
87283.392266,962.267725,4213.525239,7105.977043
87283.392595,-888.247130,1838.629195,8068.244768
87283.392925,-1628.453072,-229.828649,8142.265362
87283.393254,-3404.947333,-2221.676944,10436.903782
87283.393583,-3330.926739,-3370.820191,11843.295072
87283.393912,-444.123565,-3524.039291,13027.624579
87283.394241,-518.144159,-2374.896044,13397.727550
87283.394571,-370.102971,-2298.286494,10732.986159
87283.394900,2294.638420,153.219100,7254.018232
87283.395229,6513.812290,4519.963438,6735.874072
87283.395558,7550.100608,7431.126331,7476.080014
87283.395888,4885.359217,8503.660028,8068.244768
87283.396217,2442.679609,5439.278036,8142.265362
87283.396546,1110.308913,229.828649,8808.450710
87283.396875,-1480.411884,-3064.381992,9844.739029
87283.397205,-4737.318029,-2604.724693,12139.377449
87283.397534,-4441.235652,-2451.505594,12139.377449
87283.397863,-2146.597232,-3753.867940,12879.583391
87283.398192,-3034.844362,-5209.449386,11991.336260
87283.398521,-3701.029710,-2834.553343,8438.347739
87283.398851,444.123565,2221.676944,6735.874072
87283.399180,4515.256246,5898.935335,7550.100608
87283.399509,4441.235652,6511.811733,8216.285956
87283.399838,1628.453072,4596.572988,7476.080014
87283.400168,444.123565,1455.581446,6587.832884
87283.400497,0.000000,-76.609550,8068.244768
87283.400826,-2072.576638,-1685.410096,11695.253884
87283.401155,-4737.318029,-1608.800546,13175.665768
87283.401484,-3849.070898,-2604.724693,12805.562797
87283.401814,-1850.514855,-3830.477490,11843.295072
87283.402143,-1998.556043,-3753.867940,9030.512492
87283.402472,-740.205942,0.000000,6957.935855
87283.402801,3256.906145,5209.449386,6957.935855
87283.403131,5329.482782,7660.954980,7550.100608
87283.403460,3627.009116,5745.716235,7402.059420
87283.403789,444.123565,1991.848295,6069.688724
87283.404118,-518.144159,-383.047749,6957.935855
87283.404448,-814.226536,-842.705048,10955.047942
87283.404777,-1036.288319,-2604.724693,14137.933492
87283.405106,-2146.597232,-2374.896044,13767.830521
87283.405435,-1480.411884,-4519.963438,12583.501014
87283.405764,-592.164754,-4060.306139,9844.739029
87283.406094,1036.288319,-612.876398,8586.388927
87283.406423,3182.885551,2987.772442,7920.203579
87283.406752,5255.462188,6205.373534,7550.100608
87283.407081,5107.421000,6435.202183,7476.080014
87283.407411,1406.391290,4060.306139,7476.080014
87283.407740,-2146.597232,536.266849,5403.503377
87283.408069,-2738.761985,-3140.991542,6661.853478
87283.408398,-3627.009116,-3830.477490,10436.903782
87283.408727,-4515.256246,-2451.505594,12731.542202
87283.409057,-5033.400406,-1838.629195,13175.665768
87283.409386,-4293.194464,-3907.087040,10807.006753
87283.409715,-2368.659014,-4903.011187,7105.977043
87283.410044,962.267725,-995.924147,5699.585753
87283.410374,3478.967927,6205.373534,7402.059420
87283.410703,5033.400406,9806.022374,7550.100608
87283.411032,4293.194464,7048.078582,8586.388927
87283.411361,1258.350101,383.047749,8364.327145
87283.411690,-1924.535449,-1532.190996,7476.080014
87283.412020,-2368.659014,-459.657299,8882.471304
87283.412349,-1924.535449,-1378.971896,11991.336260
87283.412678,-2664.741391,-2834.553343,14285.974681
87283.413007,-3256.906145,-4213.525239,13693.809927
87283.413337,-2590.720797,-3524.039291,9844.739029
87283.413666,296.082377,-1072.533697,5921.647536
87283.413995,2590.720797,2757.943793,6809.894666
87283.414324,4811.338623,7814.174080,7550.100608
87283.414654,5403.503377,9269.755526,7550.100608
87283.414983,2516.700203,5592.497135,7476.080014
87283.415312,0.000000,-919.314598,6883.915261
87283.415641,-2146.597232,-2451.505594,8290.306550
87283.415970,-2960.823768,-1608.800546,11547.212695
87283.416300,-3404.947333,-2604.724693,12953.603985
87283.416629,-3478.967927,-3600.648841,13323.706956
87283.416958,-3627.009116,-5898.935335,12583.501014
87283.417287,-1998.556043,-3447.429741,9326.594869
87283.417617,1628.453072,1149.143247,6069.688724
87283.417946,4663.297435,5669.106685,7476.080014
87283.418275,5477.523971,7354.516781,8882.471304
87283.418604,3256.906145,7048.078582,8142.265362
87283.418933,1776.494261,2528.115143,7328.038826
87283.419263,814.226536,-1685.410096,8438.347739
87283.419592,-1924.535449,-2145.067394,10955.047942
87283.419921,-3256.906145,-2221.676944,11991.336260
87283.420250,-1998.556043,-2528.115143,13101.645173
87283.420580,-1850.514855,-4903.011187,12435.459826
87283.420909,-1480.411884,-4673.182538,10881.027347
87283.421238,370.102971,-306.438199,8142.265362
87283.421567,4367.215058,4903.011187,7772.162391
87283.421896,5699.585753,8120.612279,8068.244768
87283.422225,5033.400406,6741.640382,7698.141797
87283.422554,2368.659014,3753.867940,6513.812290
87283.422884,148.041188,536.266849,5847.626942
87283.423213,-1332.370696,-689.485948,9548.656652
87283.423542,-3849.070898,-1378.971896,12657.521608
87283.423871,-4959.379811,-3064.381992,11991.336260
87283.424200,-5107.421000,-4903.011187,11843.295072
87283.424529,-4737.318029,-5132.839837,11177.109724
87283.424858,-3701.029710,-2987.772442,7994.224174
87283.425188,0.000000,1685.410096,5921.647536
87283.425517,3627.009116,5975.544884,6439.791695
87283.425846,4367.215058,7967.393179,7031.956449
87283.426175,2590.720797,6818.249932,7476.080014
87283.426504,740.205942,3370.820191,7402.059420
87283.426833,0.000000,-383.047749,7624.121203
87283.427163,-814.226536,-1838.629195,10584.944971
87283.427492,-1702.473667,-2221.676944,11917.315666
87283.427821,-2072.576638,-1838.629195,12213.398043
87283.428150,-2368.659014,-2911.162892,11917.315666
87283.428479,-1480.411884,-3983.696590,9992.780217
87283.428808,1110.308913,-536.266849,8068.244768
87283.429137,3552.988522,4673.182538,7402.059420
87283.429467,4737.318029,8427.050478,7031.956449
87283.429796,4071.132681,7277.907231,6957.935855
87283.430125,1628.453072,3294.210641,6735.874072
87283.430454,-1332.370696,-919.314598,6587.832884
87283.430783,-3034.844362,-1532.190996,8586.388927
87283.431112,-3923.091493,-1991.848295,11473.192101
87283.431441,-4367.215058,-3370.820191,12953.603985
87283.431771,-4885.359217,-4366.744339,12065.356855
87283.432100,-4367.215058,-5439.278036,9548.656652
87283.432429,-1924.535449,-3753.867940,7772.162391
87283.432758,1776.494261,1149.143247,7476.080014
87283.433087,4737.318029,5898.935335,8660.409521
87283.433416,5477.523971,7814.174080,9104.533087
87283.433746,4145.153275,5362.668486,9622.677246
87283.434075,1998.556043,842.705048,8734.430116
87283.434404,444.123565,-1149.143247,8438.347739
87283.434733,-1406.391290,-1838.629195,10214.842000
87283.435062,-2294.638420,-2145.067394,12139.377449
87283.435391,-1998.556043,-3140.991542,12879.583391
87283.435720,-2960.823768,-4213.525239,12583.501014
87283.436050,-3552.988522,-3370.820191,9696.697840
87283.436379,-1480.411884,-153.219100,7105.977043
87283.436708,2738.761985,2911.162892,6365.771101
87283.437037,4219.173869,6358.592633,7698.141797
87283.437366,1406.391290,6971.469032,8364.327145
87283.437695,0.000000,3294.210641,6883.915261
87283.438024,0.000000,-1532.190996,7476.080014
87283.438354,-1184.329507,-2681.334243,10807.006753
87283.438683,-3627.009116,-1378.971896,11917.315666
87283.439012,-2368.659014,-536.266849,12287.418637
87283.439341,-888.247130,-3064.381992,13249.686362
87283.439670,-1924.535449,-4903.011187,11769.274478
87283.439999,-1184.329507,-1838.629195,8142.265362
87283.440329,2886.803174,2987.772442,6957.935855
87283.440658,6217.729913,6818.249932,8216.285956
87283.440987,5551.544565,7507.735880,9252.574275
87283.441316,2738.761985,6052.154434,8882.471304
87283.441645,1628.453072,2451.505594,7328.038826
87283.441974,888.247130,-919.314598,8586.388927
87283.442303,-2072.576638,-2451.505594,10584.944971
87283.442633,-4071.132681,-1915.238745,11177.109724
87283.442962,-3108.864956,-1915.238745,11695.253884
87283.443291,-2590.720797,-3524.039291,11473.192101
87283.443620,-3256.906145,-3677.258390,8882.471304
87283.443949,-1036.288319,-919.314598,5403.503377
87283.444278,2516.700203,4366.744339,6217.729913
87283.444607,4071.132681,7048.078582,7179.997637
87283.444937,2960.823768,5515.887586,8068.244768
87283.445266,1036.288319,2528.115143,7698.141797
87283.445595,0.000000,0.000000,8734.430116
87283.445924,-222.061783,-612.876398,10584.944971
87283.446253,-1480.411884,306.438199,11621.233289
87283.446582,-2146.597232,-1302.362347,11843.295072
87283.446912,-1998.556043,-3677.258390,11251.130318
87283.447241,-2368.659014,-3600.648841,9918.759623
87283.447570,-2072.576638,-1072.533697,7698.141797
87283.447899,1332.370696,2911.162892,7179.997637
87283.448228,3034.844362,5592.497135,6661.853478
87283.448557,2812.782580,5056.230287,6957.935855
87283.448886,666.185348,3983.696590,8216.285956
87283.449216,-370.102971,1225.752797,8734.430116
87283.449545,-1036.288319,-689.485948,8660.409521
87283.449874,-1258.350101,-1915.238745,10214.842000
87283.450203,-1628.453072,-1915.238745,11843.295072
87283.450532,-2220.617826,-1608.800546,12953.603985
87283.450861,-2368.659014,-1378.971896,11843.295072
87283.451190,-518.144159,-2374.896044,9178.553681
87283.451520,1998.556043,-842.705048,6883.915261
87283.451849,3552.988522,3677.258390,6143.709319
87283.452178,3923.091493,8044.002729,6883.915261
87283.452507,2664.741391,7507.735880,7105.977043
87283.452836,444.123565,2451.505594,7846.182985
87283.453165,-666.185348,-2221.676944,7772.162391
87283.453495,-2516.700203,-1915.238745,8882.471304
87283.453824,-2960.823768,-383.047749,10807.006753
87283.454153,-2368.659014,-1532.190996,12657.521608
87283.454482,-2590.720797,-3983.696590,12805.562797
87283.454811,-2960.823768,-4673.182538,9918.759623
87283.455140,-666.185348,-1838.629195,7254.018232
87283.455469,3478.967927,2451.505594,7105.977043
87283.455799,4219.173869,6741.640382,9104.533087
87283.456128,2960.823768,6818.249932,9178.553681
87283.456457,1258.350101,3600.648841,9178.553681
87283.456786,74.020594,-1149.143247,8142.265362
87283.457115,-1480.411884,-3370.820191,9918.759623
87283.457444,-3108.864956,-2221.676944,10881.027347
87283.457773,-2368.659014,-2528.115143,12435.459826
87283.458103,-1776.494261,-3140.991542,14211.954086
87283.458432,-2516.700203,-3830.477490,13471.748144
87283.458761,-1924.535449,-2911.162892,8586.388927
87283.459090,1184.329507,689.485948,5995.668130
87283.459419,4737.318029,3983.696590,7550.100608
87283.459748,3478.967927,7354.516781,7920.203579
87283.460078,1406.391290,6281.983084,7994.224174
87283.460407,74.020594,1302.362347,7550.100608
87283.460736,-1480.411884,-2911.162892,8438.347739
87283.461065,-3627.009116,-3907.087040,10436.903782
87283.461394,-4737.318029,-1762.019645,12213.398043
87283.461723,-2886.803174,-1915.238745,11991.336260
87283.462052,-1184.329507,-4213.525239,13175.665768
87283.462382,-1480.411884,-3753.867940,9918.759623
87283.462711,888.247130,76.609550,6661.853478
87283.463040,4737.318029,4903.011187,6143.709319
87283.463369,6291.750507,8120.612279,7402.059420
87283.463698,4737.318029,8503.660028,8438.347739
87283.464027,2516.700203,4596.572988,8808.450710
87283.464356,1184.329507,536.266849,7254.018232
87283.464686,0.000000,-2298.286494,9104.533087
87283.465015,-1702.473667,-2374.896044,11473.192101
87283.465344,-2442.679609,-766.095498,13471.748144
87283.465673,-2368.659014,-383.047749,13175.665768
87283.466002,-1480.411884,-2681.334243,10362.883188
87283.466331,-444.123565,-2221.676944,7920.203579
87283.466660,1184.329507,1608.800546,4885.359217
87283.466990,2738.761985,7277.907231,5551.544565
87283.467319,3923.091493,8963.317327,7476.080014
87283.467648,1702.473667,5669.106685,8660.409521
87283.467977,-1406.391290,1072.533697,7402.059420
87283.468306,-2812.782580,-1072.533697,6883.915261
87283.468635,-3627.009116,-1149.143247,8068.244768
87283.468965,-3923.091493,-1762.019645,11029.068536
87283.469294,-3404.947333,-1991.848295,12953.603985
87283.469623,-2590.720797,-3140.991542,10955.047942
87283.469952,-1998.556043,-2681.334243,9178.553681
87283.470281,592.164754,-153.219100,6883.915261
87283.470610,2960.823768,4826.401637,5921.647536
87283.470939,5255.462188,8044.002729,6809.894666
87283.471269,3849.070898,6588.421283,8586.388927
87283.471598,1036.288319,2528.115143,9326.594869
87283.471927,-296.082377,-995.924147,8882.471304
87283.472256,-2368.659014,-2374.896044,9178.553681
87283.472585,-3849.070898,-3294.210641,11251.130318
87283.472914,-3923.091493,-3524.039291,12953.603985
87283.473243,-3404.947333,-3064.381992,12435.459826
87283.473573,-2960.823768,-3983.696590,10436.903782
87283.473902,-740.205942,-3370.820191,7550.100608
87283.474231,2220.617826,612.876398,7179.997637
87283.474560,4367.215058,6205.373534,8290.306550
87283.474889,4293.194464,7890.783629,8586.388927
87283.475218,3256.906145,3830.477490,8956.491898
87283.475548,2516.700203,-1378.971896,8068.244768
87283.475877,666.185348,-2604.724693,9696.697840
87283.476206,-1332.370696,-995.924147,11325.150913
87283.476535,-1184.329507,-1302.362347,12657.521608
87283.476864,-666.185348,-3370.820191,13323.706956
87283.477193,-2220.617826,-4366.744339,12435.459826
87283.477522,-2590.720797,-3600.648841,8808.450710
87283.477852,222.061783,1378.971896,7031.956449
87283.478181,3330.926739,4366.744339,7105.977043
87283.478510,3330.926739,5822.325785,7698.141797
87283.478839,814.226536,5515.887586,7179.997637
87283.479168,-296.082377,2451.505594,6883.915261
87283.479497,-592.164754,0.000000,7846.182985
87283.479826,-2294.638420,-1915.238745,9030.512492
87283.480156,-3701.029710,-1838.629195,11103.089130
87283.480485,-2516.700203,-1838.629195,11695.253884
87283.480814,-1924.535449,-2681.334243,11991.336260
87283.481143,-1776.494261,-3294.210641,11769.274478
87283.481472,-592.164754,-1302.362347,9400.615463
87283.481801,2886.803174,3600.648841,7994.224174
87283.482131,6291.750507,7277.907231,8364.327145
87283.482460,5921.647536,6665.030833,8956.491898
87283.482789,1628.453072,5439.278036,8956.491898
87283.483118,0.000000,2298.286494,8068.244768
87283.483447,-1184.329507,-612.876398,9326.594869
87283.483776,-2812.782580,-1915.238745,10584.944971
87283.484105,-5329.482782,-2298.286494,11177.109724
87283.484435,-6143.709319,-2451.505594,11177.109724
87283.484764,-5033.400406,-3677.258390,10436.903782
87283.485093,-4441.235652,-3294.210641,8956.491898
87283.485422,-1554.432478,-842.705048,8290.306550
87283.485751,1258.350101,4443.353888,7179.997637
87283.486080,3775.050304,6818.249932,6735.874072
87283.486409,4145.153275,5056.230287,8438.347739
87283.486739,962.267725,1072.533697,7105.977043
87283.487068,0.000000,0.000000,8142.265362
87283.487397,1184.329507,-459.657299,10584.944971
87283.487726,888.247130,76.609550,12361.439231
87283.488055,-962.267725,-2604.724693,11251.130318
87283.488384,-1258.350101,-3830.477490,10807.006753
87283.488714,-444.123565,-2911.162892,9252.574275
87283.489043,1850.514855,-306.438199,7624.121203
87283.489372,3701.029710,2911.162892,6809.894666
87283.489701,4367.215058,6128.763984,7105.977043
87283.490030,3997.112087,6665.030833,7994.224174
87283.490359,2960.823768,4366.744339,7994.224174
87283.490688,-296.082377,0.000000,7105.977043
87283.491018,-2738.761985,-3753.867940,7550.100608
87283.491347,-3627.009116,-3294.210641,9696.697840
87283.491676,-3330.926739,-2451.505594,12213.398043
87283.492005,-4293.194464,-2987.772442,13471.748144
87283.492334,-4589.276840,-4979.620737,11991.336260
87283.492663,-2294.638420,-4826.401637,9252.574275
87283.492992,1924.535449,-612.876398,7550.100608
87283.493322,4293.194464,4749.792088,8586.388927
87283.493651,4959.379811,7890.783629,9326.594869
87283.493980,4441.235652,6358.592633,7920.203579
87283.494309,3404.947333,1838.629195,7402.059420
87283.494638,1258.350101,-689.485948,9474.636058
87283.494967,-1184.329507,689.485948,10140.821405
87283.495297,-2220.617826,459.657299,10881.027347
87283.495626,-1850.514855,-2528.115143,12213.398043
87283.495955,-3701.029710,-4519.963438,11917.315666
87283.496284,-4737.318029,-3600.648841,9178.553681
87283.496613,-1628.453072,-842.705048,5995.668130
87283.496942,2072.576638,2604.724693,6661.853478
87283.497271,3034.844362,5822.325785,8882.471304
87283.497601,1554.432478,7890.783629,8882.471304
87283.497930,1480.411884,5209.449386,7105.977043
87283.498259,1406.391290,0.000000,6883.915261
87283.498588,-1036.288319,-2068.457845,8364.327145
87283.498917,-2442.679609,306.438199,11473.192101
87283.499246,-1924.535449,1302.362347,12879.583391
87283.499575,-444.123565,-2221.676944,13841.851115
87283.499905,-2220.617826,-5056.230287,12805.562797
87283.500234,-2368.659014,-3524.039291,8290.306550
87283.500563,1184.329507,1149.143247,7105.977043
87283.500892,3923.091493,4903.011187,8512.368333
87283.501221,2812.782580,6128.763984,10288.862594
87283.501550,962.267725,4673.182538,8808.450710
87283.501880,296.082377,1302.362347,6957.935855
87283.502209,-740.205942,-842.705048,7772.162391
87283.502538,-1850.514855,-1991.848295,9696.697840
87283.502867,-3330.926739,-1762.019645,11695.253884
87283.503196,-2812.782580,-1762.019645,12657.521608
87283.503525,-2220.617826,-4060.306139,12657.521608
87283.503854,-2368.659014,-4979.620737,9030.512492
87283.504184,-592.164754,-1915.238745,5921.647536
87283.504513,2590.720797,3370.820191,7254.018232
87283.504842,4737.318029,6665.030833,8882.471304
87283.505171,3478.967927,5592.497135,8512.368333
87283.505500,1702.473667,1532.190996,8438.347739
87283.505829,0.000000,-689.485948,7179.997637
87283.506158,0.000000,-383.047749,8290.306550
87283.506488,0.000000,0.000000,11399.171507
87283.506817,-2146.597232,-1838.629195,12213.398043
87283.507146,-3108.864956,-3600.648841,11843.295072
87283.507475,-3034.844362,-3983.696590,10436.903782
87283.507804,-1850.514855,-2528.115143,7994.224174
87283.508133,74.020594,612.876398,6069.688724
87283.508462,1850.514855,4136.915689,6439.791695
87283.508792,2886.803174,5209.449386,7920.203579
87283.509121,1184.329507,4443.353888,7994.224174
87283.509450,444.123565,1149.143247,8586.388927
87283.509779,-518.144159,-1225.752797,8438.347739
87283.510108,-1110.308913,-1072.533697,8586.388927
87283.510437,-222.061783,-1072.533697,11473.192101
87283.510767,-1184.329507,-766.095498,13175.665768
87283.511096,-2146.597232,-1072.533697,12139.377449
87283.511425,-222.061783,-2834.553343,9844.739029
87283.511754,2664.741391,-306.438199,7402.059420
87283.512083,3256.906145,3983.696590,7105.977043
87283.512412,3404.947333,6894.859482,7328.038826
87283.512741,3775.050304,5898.935335,8290.306550
87283.513071,1036.288319,2987.772442,9326.594869
87283.513400,-1554.432478,-306.438199,8216.285956
87283.513729,-2812.782580,-919.314598,8216.285956
87283.514058,-2960.823768,-919.314598,9252.574275
87283.514387,-3182.885551,-2068.457845,11843.295072
87283.514716,-3775.050304,-2451.505594,12509.480420
87283.515045,-4293.194464,-2451.505594,10140.821405
87283.515375,-2220.617826,-1608.800546,7105.977043
87283.515704,1332.370696,1225.752797,6439.791695
87283.516033,2294.638420,4979.620737,7920.203579
87283.516362,1924.535449,6818.249932,8882.471304
87283.516691,1998.556043,4826.401637,9030.512492
87283.517020,1776.494261,-383.047749,9252.574275
87283.517350,888.247130,-2451.505594,9770.718434
87283.517679,-1036.288319,-612.876398,11399.171507
87283.518008,444.123565,536.266849,12583.501014
87283.518337,962.267725,-995.924147,14063.912898
87283.518666,518.144159,-2221.676944,13693.809927
87283.518995,222.061783,-1302.362347,9548.656652
87283.519324,2886.803174,2145.067394,6809.894666
87283.519654,3775.050304,4749.792088,7179.997637
87283.519983,2442.679609,5515.887586,8142.265362
87283.520312,148.041188,4979.620737,6661.853478
87283.520641,-962.267725,995.924147,7254.018232
87283.520970,-3182.885551,-2298.286494,8364.327145
87283.521299,-5773.606348,-2604.724693,9844.739029
87283.521629,-5033.400406,-2451.505594,10658.965565
87283.521958,-2442.679609,-3370.820191,10436.903782
87283.522287,-2590.720797,-2145.067394,11103.089130
87283.522616,-1480.411884,-2221.676944,9770.718434
87283.522945,74.020594,536.266849,6957.935855
87283.523274,4145.153275,3447.429741,7254.018232
87283.523604,5625.565159,6128.763984,8734.430116
87283.523933,5255.462188,7048.078582,8586.388927
87283.524262,2960.823768,5056.230287,8734.430116
87283.524591,1110.308913,689.485948,8364.327145
87283.524920,0.000000,-3370.820191,9030.512492
87283.525249,-2146.597232,-2298.286494,11399.171507
87283.525579,-2294.638420,-1302.362347,12657.521608
87283.525908,-2146.597232,-306.438199,12953.603985
87283.526237,-1924.535449,-2451.505594,10436.903782
87283.526566,-1776.494261,-3064.381992,7476.080014
87283.526895,-740.205942,766.095498,5329.482782
87283.527224,1110.308913,6435.202183,6883.915261
87283.527554,2220.617826,6818.249932,7550.100608
87283.527883,1480.411884,3294.210641,8438.347739
87283.528212,-2368.659014,-689.485948,8882.471304
87283.528541,-4441.235652,-3140.991542,8068.244768
87283.528870,-4737.318029,-3217.601092,9474.636058
87283.529199,-4293.194464,-3370.820191,12213.398043
87283.529529,-2960.823768,-4060.306139,12953.603985
87283.529858,-2368.659014,-2757.943793,11103.089130
87283.530187,-1480.411884,-2374.896044,8512.368333
87283.530516,1776.494261,0.000000,6661.853478
87283.530845,4367.215058,4673.182538,7179.997637
87283.531174,5995.668130,7660.954980,7772.162391
87283.531504,4737.318029,7354.516781,7476.080014
87283.531833,3627.009116,3524.039291,7179.997637
87283.532162,666.185348,-919.314598,8586.388927
87283.532491,-2368.659014,-1762.019645,8734.430116
87283.532820,-2442.679609,-2451.505594,10140.821405
87283.533149,-2516.700203,-3677.258390,12213.398043
87283.533479,-2220.617826,-4519.963438,13175.665768
87283.533808,-3182.885551,-3447.429741,11917.315666
87283.534137,-962.267725,-1072.533697,8438.347739
87283.534466,2664.741391,1685.410096,7846.182985
87283.534795,5255.462188,4826.401637,8808.450710
87283.535124,5477.523971,6818.249932,8734.430116
87283.535454,4515.256246,6511.811733,8586.388927
87283.535783,2590.720797,2298.286494,9252.574275
87283.536112,74.020594,-1302.362347,9400.615463
87283.536441,-1998.556043,-2298.286494,10288.862594
87283.536770,-2738.761985,-1378.971896,12065.356855
87283.537099,-1776.494261,-1532.190996,12805.562797
87283.537429,-2146.597232,-2528.115143,12213.398043
87283.537758,-1554.432478,-3370.820191,8956.491898
87283.538087,0.000000,536.266849,7105.977043
87283.538416,3552.988522,5515.887586,6291.750507
87283.538745,4811.338623,9193.145976,7994.224174
87283.539074,2368.659014,7737.564530,7328.038826
87283.539404,592.164754,3294.210641,7031.956449
87283.539733,-666.185348,0.000000,7031.956449
87283.540062,-1998.556043,-995.924147,9104.533087
87283.540391,-3997.112087,-766.095498,11029.068536
87283.540720,-3849.070898,-2145.067394,12731.542202
87283.541049,-2738.761985,-3983.696590,11991.336260
87283.541379,-2664.741391,-3983.696590,10362.883188
87283.541708,-1850.514855,-1455.581446,8142.265362
87283.542037,1776.494261,2528.115143,7550.100608
87283.542366,4885.359217,6818.249932,8512.368333
87283.542695,5033.400406,7584.345430,9104.533087
87283.543024,2220.617826,4673.182538,8882.471304
87283.543354,-1036.288319,383.047749,8364.327145
87283.543683,-1628.453072,-2298.286494,8364.327145
87283.544012,-2220.617826,-3370.820191,10955.047942
87283.544341,-3923.091493,-3907.087040,11769.274478
87283.544670,-4515.256246,-3907.087040,11695.253884
87283.544999,-2960.823768,-3983.696590,11177.109724
87283.545328,-2146.597232,-2298.286494,8438.347739
87283.545658,592.164754,-383.047749,5995.668130
87283.545987,3478.967927,3677.258390,6069.688724
87283.546316,6069.688724,7277.907231,7179.997637
87283.546645,4885.359217,7048.078582,8586.388927
87283.546974,2146.597232,2681.334243,9474.636058
87283.547303,-1332.370696,-1455.581446,7698.141797
87283.547633,-1036.288319,-3983.696590,7846.182985
87283.547962,-1036.288319,-3753.867940,10584.944971
87283.548291,-3330.926739,-2604.724693,13249.686362
87283.548620,-3404.947333,-2987.772442,12805.562797
87283.548949,-2590.720797,-4213.525239,10807.006753
87283.549278,-888.247130,-3600.648841,7476.080014
87283.549608,888.247130,0.000000,6217.729913
87283.549937,3552.988522,6511.811733,7550.100608
87283.550266,4441.235652,8503.660028,7624.121203
87283.550595,3404.947333,5439.278036,9326.594869
87283.550924,888.247130,-229.828649,9474.636058
87283.551253,-1776.494261,-1991.848295,8808.450710
87283.551583,-1998.556043,-842.705048,9844.739029
87283.551912,-1776.494261,-1378.971896,11917.315666
87283.552241,-2368.659014,-2987.772442,13175.665768
87283.552570,-4441.235652,-3600.648841,11251.130318
87283.552899,-2812.782580,-2298.286494,9326.594869
87283.553228,740.205942,1072.533697,6957.935855
87283.553558,2812.782580,4903.011187,7550.100608
87283.553887,3182.885551,7584.345430,7476.080014
87283.554216,2590.720797,8273.831378,8216.285956
87283.554545,1628.453072,4519.963438,8216.285956
87283.554874,-1036.288319,-459.657299,9104.533087
87283.555203,-3701.029710,-2604.724693,8290.306550
87283.555533,-3849.070898,-1838.629195,10510.924376
87283.555862,-2886.803174,-842.705048,12509.480420
87283.556191,-2886.803174,-1378.971896,12805.562797
87283.556520,-3256.906145,-3677.258390,9844.739029
87283.556849,-1406.391290,-2221.676944,7254.018232
87283.557178,2886.803174,2528.115143,7920.203579
87283.557508,5033.400406,7124.688131,8956.491898
87283.557837,5033.400406,8273.831378,9030.512492
87283.558166,3701.029710,5209.449386,8808.450710
87283.558495,2220.617826,1225.752797,8734.430116
87283.558824,0.000000,-1072.533697,9400.615463
87283.559153,-1702.473667,-1072.533697,10584.944971
87283.559483,-2146.597232,-2068.457845,12953.603985
87283.559812,-1924.535449,-2911.162892,13323.706956
87283.560141,-2442.679609,-3983.696590,11547.212695
87283.560470,-3034.844362,-3217.601092,8290.306550
87283.560799,0.000000,-306.438199,6069.688724
87283.561128,3478.967927,4290.134789,6957.935855
87283.561458,5181.441594,8044.002729,6883.915261
87283.561787,3182.885551,6818.249932,7772.162391
87283.562116,1406.391290,3064.381992,7772.162391
87283.562445,1036.288319,-1838.629195,7402.059420
87283.562774,0.000000,-2987.772442,9844.739029
87283.563103,-1776.494261,-2221.676944,12583.501014
87283.563433,-3182.885551,-2451.505594,12361.439231
87283.563762,-1850.514855,-4213.525239,11843.295072
87283.564091,-2516.700203,-5822.325785,11251.130318
87283.564420,-2146.597232,-3064.381992,7402.059420
87283.564749,1110.308913,2298.286494,5921.647536
87283.565078,4737.318029,5745.716235,7402.059420
87283.565408,5107.421000,6741.640382,8586.388927
87283.565737,1776.494261,4903.011187,8808.450710
87283.566066,-296.082377,995.924147,6809.894666
87283.566395,-1406.391290,-2221.676944,7994.224174
87283.566724,-2072.576638,-2834.553343,9844.739029
87283.567053,-1998.556043,-2451.505594,11399.171507
87283.567383,-2368.659014,-1302.362347,11695.253884
87283.567712,-2368.659014,-2757.943793,10214.842000
87283.568041,-2368.659014,-3217.601092,8364.327145
87283.568370,962.267725,-459.657299,7105.977043
87283.568699,1850.514855,4826.401637,7105.977043
87283.569028,3997.112087,7354.516781,7624.121203
87283.569358,3034.844362,7201.297681,9548.656652
87283.569687,518.144159,2681.334243,9104.533087
87283.570016,-1406.391290,-1608.800546,7624.121203
87283.570345,-1776.494261,-2757.943793,8364.327145
87283.570674,-1702.473667,-1225.752797,12509.480420
87283.571003,-3256.906145,-689.485948,14508.036463
87283.571333,-3552.988522,-1915.238745,12583.501014
87283.571662,-3256.906145,-4060.306139,9992.780217
87283.571991,-1036.288319,-2911.162892,7920.203579
87283.572320,814.226536,3217.601092,7254.018232
87283.572649,2886.803174,7814.174080,7105.977043
87283.572978,4219.173869,7967.393179,8068.244768
87283.573308,1554.432478,3907.087040,8882.471304
87283.573637,-1480.411884,612.876398,8068.244768
87283.573966,-1332.370696,-612.876398,8364.327145
87283.574295,-666.185348,-153.219100,9844.739029
87283.574624,-1998.556043,-153.219100,11991.336260
87283.574953,-2442.679609,-1455.581446,11695.253884
87283.575283,-3701.029710,-2451.505594,9918.759623
87283.575612,-2664.741391,-2757.943793,7994.224174
87283.575941,962.267725,-612.876398,7105.977043
87283.576270,3478.967927,4136.915689,7105.977043
87283.576599,3923.091493,6971.469032,9474.636058
87283.576928,3034.844362,7277.907231,10362.883188
87283.577258,2072.576638,1455.581446,9030.512492
87283.577587,74.020594,-2987.772442,8512.368333
87283.577916,-1258.350101,-2987.772442,9474.636058
87283.578245,-1554.432478,383.047749,11917.315666
87283.578574,-592.164754,-306.438199,13693.809927
87283.578903,-1332.370696,-3524.039291,13323.706956
87283.579233,-2220.617826,-5209.449386,10955.047942
87283.579562,-1258.350101,-2298.286494,7254.018232
87283.579891,2960.823768,3370.820191,6735.874072
87283.580220,4293.194464,5362.668486,8290.306550
87283.580549,2442.679609,4749.792088,9178.553681
87283.580878,444.123565,3064.381992,8216.285956
87283.581207,296.082377,-306.438199,6883.915261
87283.581537,74.020594,-2145.067394,7550.100608
87283.581866,-1554.432478,-1685.410096,10066.800811
87283.582195,-2516.700203,-229.828649,11251.130318
87283.582524,-1036.288319,-1532.190996,11695.253884
87283.582853,-222.061783,-3217.601092,11103.089130
87283.583182,0.000000,-3217.601092,7994.224174
87283.583512,1554.432478,1455.581446,5255.462188
87283.583841,4959.379811,6205.373534,6291.750507
87283.584170,5403.503377,7507.735880,9252.574275
87283.584499,1924.535449,4443.353888,8512.368333
87283.584828,-962.267725,153.219100,6587.832884
87283.585157,-1776.494261,-3140.991542,7031.956449
87283.585487,-3182.885551,-2604.724693,9844.739029
87283.585816,-4367.215058,-1378.971896,12805.562797
87283.586145,-4959.379811,-2145.067394,13471.748144
87283.586474,-3330.926739,-4290.134789,12287.418637
87283.586803,-3034.844362,-5822.325785,8956.491898
87283.587132,-592.164754,-1149.143247,6587.832884
87283.587462,2516.700203,5132.839837,6439.791695
87283.587791,4441.235652,8197.221829,8068.244768
87283.588120,4293.194464,6052.154434,9400.615463
87283.588449,1110.308913,3064.381992,9178.553681
87283.588778,222.061783,-842.705048,7179.997637
87283.589107,296.082377,-1762.019645,8882.471304
87283.589437,-1406.391290,-689.485948,12361.439231
87283.589766,-1702.473667,-766.095498,13397.727550
87283.590095,-1332.370696,-2068.457845,12583.501014
87283.590424,-1480.411884,-4596.572988,9918.759623
87283.590753,-296.082377,-3600.648841,8216.285956
87283.591082,1850.514855,4366.744339,7624.121203
87283.591412,3923.091493,8197.221829,8216.285956
87283.591741,3627.009116,7354.516781,7846.182985
87283.592070,1554.432478,2757.943793,7994.224174
87283.592399,-1184.329507,-919.314598,7105.977043
87283.592728,-2812.782580,-1608.800546,7920.203579
87283.593057,-3182.885551,-1762.019645,10436.903782
87283.593387,-3701.029710,-2374.896044,12805.562797
87283.593716,-2960.823768,-2834.553343,13397.727550
87283.594045,-2664.741391,-3753.867940,11695.253884
87283.594374,-1628.453072,-3140.991542,8216.285956
87283.594703,1258.350101,459.657299,7698.141797
87283.595032,4885.359217,6052.154434,8882.471304
87283.595362,6439.791695,8810.098227,9252.574275
87283.595691,5847.626942,7890.783629,9252.574275
87283.596020,2516.700203,2911.162892,8882.471304
87283.596349,222.061783,-153.219100,8216.285956
87283.596678,-814.226536,-1302.362347,9400.615463
87283.597007,-2146.597232,-1915.238745,11547.212695
87283.597337,-3701.029710,-2374.896044,12509.480420
87283.597666,-4441.235652,-3064.381992,12509.480420
87283.597995,-3552.988522,-3677.258390,10510.924376
87283.598324,-2664.741391,-1915.238745,7550.100608
87283.598653,740.205942,1225.752797,5921.647536
87283.598982,3404.947333,5209.449386,7105.977043
87283.599312,2664.741391,7584.345430,8438.347739
87283.599641,-370.102971,5745.716235,8290.306550
87283.599970,-1480.411884,-383.047749,6809.894666
87283.600299,-962.267725,-4060.306139,7105.977043
87283.600628,-2590.720797,-2681.334243,9770.718434
87283.600957,-3627.009116,-459.657299,12953.603985
87283.601287,-2516.700203,-1225.752797,13693.809927
87283.601616,-1924.535449,-5056.230287,11621.233289
87283.601945,-2368.659014,-5362.668486,8808.450710
87283.602274,-148.041188,-229.828649,6439.791695
87283.602603,3997.112087,6894.859482,6439.791695
87283.602932,6809.894666,7890.783629,9178.553681
87283.603262,3849.070898,4903.011187,9326.594869
87283.603591,-296.082377,1225.752797,7402.059420
87283.603920,-370.102971,-1225.752797,6365.771101
87283.604249,-370.102971,-1608.800546,8956.491898
87283.604578,-2664.741391,-1762.019645,10955.047942
87283.604907,-3182.885551,-2681.334243,11399.171507
87283.605237,-2294.638420,-3753.867940,11991.336260
87283.605566,-1258.350101,-4673.182538,10436.903782
87283.605895,888.247130,-3370.820191,8068.244768
87283.606224,2886.803174,1838.629195,8216.285956
87283.606553,5995.668130,6511.811733,9400.615463
87283.606882,6217.729913,7277.907231,9696.697840
87283.607212,3478.967927,3983.696590,9252.574275
87283.607541,222.061783,-306.438199,7476.080014
87283.607870,-740.205942,-2451.505594,7698.141797
87283.608199,-1554.432478,-1762.019645,9178.553681
87283.608528,-3997.112087,-1532.190996,12287.418637
87283.608857,-4589.276840,-2834.553343,12509.480420
87283.609187,-3923.091493,-3524.039291,12287.418637
87283.609516,-3034.844362,-3600.648841,7772.162391
87283.609845,-296.082377,-1072.533697,5773.606348
87283.610174,2368.659014,4903.011187,6365.771101
87283.610503,5033.400406,8963.317327,7402.059420
87283.610832,4663.297435,8197.221829,8808.450710
87283.611162,1702.473667,4213.525239,9030.512492
87283.611491,-518.144159,-383.047749,6735.874072
87283.611820,0.000000,0.000000,8142.265362
87283.612149,-444.123565,306.438199,10288.862594
87283.612478,-1850.514855,0.000000,13101.645173
87283.612807,-2664.741391,-2068.457845,12657.521608
87283.613137,-2664.741391,-3830.477490,11399.171507
87283.613466,-1036.288319,-2834.553343,9918.759623
87283.613795,1628.453072,2068.457845,8290.306550
87283.614124,2516.700203,7048.078582,9622.677246
87283.614453,3997.112087,7737.564530,9770.718434
87283.614782,2590.720797,4903.011187,9326.594869
87283.615112,296.082377,76.609550,8068.244768
87283.615441,-1702.473667,-995.924147,7772.162391
87283.615770,-2368.659014,612.876398,9104.533087
87283.616099,-1776.494261,459.657299,11621.233289
87283.616428,-2368.659014,-1455.581446,12435.459826
87283.616757,-2960.823768,-3907.087040,10807.006753
87283.617086,-3552.988522,-2604.724693,8438.347739
87283.617416,-370.102971,0.000000,6513.812290
87283.617745,1702.473667,3830.477490,8068.244768
87283.618074,2516.700203,4673.182538,8956.491898
87283.618403,1850.514855,4213.525239,9104.533087
87283.618732,296.082377,1762.019645,7624.121203
87283.619061,296.082377,-1072.533697,8438.347739
87283.619391,-1184.329507,-1302.362347,9030.512492
87283.619720,-1258.350101,-1302.362347,9104.533087
87283.620049,-666.185348,-2451.505594,10881.027347
87283.620378,-1036.288319,-2834.553343,12065.356855
87283.620707,-962.267725,-2298.286494,10066.800811
87283.621036,814.226536,-1302.362347,8216.285956
87283.621366,3182.885551,1302.362347,7328.038826
87283.621695,3404.947333,4366.744339,9030.512492
87283.622024,2812.782580,5439.278036,9770.718434
87283.622353,1258.350101,2757.943793,9030.512492
87283.622682,0.000000,-2068.457845,7179.997637
87283.623011,-962.267725,-3370.820191,8290.306550
87283.623340,-2886.803174,-1762.019645,10584.944971
87283.623670,-3108.864956,-383.047749,11103.089130
87283.623999,-2664.741391,-2528.115143,11695.253884
87283.624328,-2590.720797,-5132.839837,10066.800811
87283.624657,-2886.803174,-2987.772442,7402.059420
87283.624986,0.000000,2145.067394,5477.523971
87283.625315,2738.761985,5439.278036,7476.080014
87283.625644,2960.823768,5592.497135,9252.574275
87283.625973,1036.288319,4673.182538,9252.574275
87283.626303,-592.164754,1455.581446,7994.224174
87283.626632,-1184.329507,-1378.971896,7254.018232
87283.626961,-1776.494261,-2221.676944,10140.821405
87283.627290,-2590.720797,-1455.581446,10881.027347
87283.627619,-2368.659014,-1302.362347,11399.171507
87283.627948,-1998.556043,-2298.286494,11843.295072
87283.628277,-1554.432478,-2911.162892,9474.636058
87283.628607,888.247130,383.047749,8142.265362
87283.628936,2812.782580,4903.011187,7920.203579
87283.629265,4737.318029,7124.688131,7846.182985
87283.629594,4663.297435,6511.811733,8438.347739
87283.629923,2442.679609,3217.601092,8660.409521
87283.630252,592.164754,383.047749,9030.512492
87283.630581,-296.082377,-459.657299,9400.615463
87283.630910,-740.205942,-1072.533697,12435.459826
87283.631240,-2368.659014,-1532.190996,13323.706956
87283.631569,-2812.782580,-2451.505594,12065.356855
87283.631898,-3256.906145,-3447.429741,9918.759623
87283.632227,-1850.514855,-3600.648841,8216.285956
87283.632556,0.000000,766.095498,7402.059420
87283.632885,1998.556043,5515.887586,8660.409521
87283.633214,3034.844362,7584.345430,8882.471304
87283.633544,1850.514855,4749.792088,8364.327145
87283.633873,148.041188,459.657299,7179.997637
87283.634202,-444.123565,-1302.362347,6957.935855
87283.634531,-740.205942,-919.314598,8512.368333
87283.634860,-518.144159,-842.705048,11843.295072
87283.635189,-592.164754,-1302.362347,13249.686362
87283.635518,-1628.453072,-2528.115143,11473.192101
87283.635847,-814.226536,-3064.381992,9030.512492
87283.636177,1850.514855,-459.657299,7550.100608
87283.636506,5107.421000,4060.306139,7846.182985
87283.636835,5699.585753,6511.811733,8956.491898
87283.637164,3701.029710,7124.688131,9030.512492
87283.637493,1628.453072,2451.505594,7624.121203
87283.637822,148.041188,-1378.971896,7328.038826
87283.638151,-1850.514855,-1762.019645,9696.697840
87283.638481,-3182.885551,-995.924147,10658.965565
87283.638810,-3256.906145,-2221.676944,12361.439231
87283.639139,-3701.029710,-4213.525239,12879.583391
87283.639468,-4737.318029,-5209.449386,10362.883188
87283.639797,-3627.009116,-3294.210641,6883.915261
87283.640126,148.041188,1072.533697,6365.771101
87283.640455,3034.844362,5056.230287,8808.450710
87283.640784,2442.679609,6971.469032,9622.677246
87283.641114,1406.391290,4903.011187,7254.018232
87283.641443,1628.453072,612.876398,6217.729913
87283.641772,592.164754,-1762.019645,6587.832884
87283.642101,-888.247130,-229.828649,8882.471304
87283.642430,-1776.494261,1225.752797,10955.047942
87283.642759,-1480.411884,-1608.800546,11843.295072
87283.643088,-1924.535449,-4366.744339,11769.274478
87283.643417,-1850.514855,-3294.210641,8808.450710
87283.643747,-296.082377,-536.266849,6661.853478
87283.644076,1850.514855,3830.477490,6883.915261
87283.644405,3478.967927,4749.792088,9474.636058
87283.644734,1258.350101,4290.134789,10140.821405
87283.645063,-888.247130,1838.629195,7402.059420
87283.645392,-1184.329507,-919.314598,7846.182985
87283.645721,-2516.700203,-2145.067394,8734.430116
87283.646051,-1924.535449,-1991.848295,10436.903782
87283.646380,-2072.576638,-1608.800546,12657.521608
87283.646709,-2146.597232,-2451.505594,12509.480420
87283.647038,-2960.823768,-3217.601092,11547.212695
87283.647367,-666.185348,-1838.629195,8068.244768
87283.647696,1110.308913,1608.800546,7105.977043
87283.648025,2886.803174,5286.058936,8216.285956
87283.648354,3775.050304,6435.202183,9992.780217
87283.648684,1110.308913,3677.258390,10436.903782
87283.649013,-592.164754,0.000000,7550.100608
87283.649342,-1332.370696,-2451.505594,7402.059420
87283.649671,-1554.432478,-1838.629195,9400.615463
87283.650000,-1924.535449,306.438199,11917.315666
87283.650329,-1554.432478,229.828649,12583.501014
87283.650658,-1406.391290,-2374.896044,10584.944971
87283.650988,370.102971,-2145.067394,9326.594869
87283.651317,2220.617826,2068.457845,7698.141797
87283.651646,4737.318029,6358.592633,7402.059420
87283.651975,5625.565159,7124.688131,8882.471304
87283.652304,4441.235652,5056.230287,9252.574275
87283.652633,1628.453072,1302.362347,9104.533087
87283.652962,-296.082377,-536.266849,7772.162391
87283.653291,-888.247130,-1072.533697,9474.636058
87283.653621,-1184.329507,-1072.533697,11695.253884
87283.653950,-1554.432478,-1762.019645,12583.501014
87283.654279,-1702.473667,-1991.848295,11621.233289
87283.654608,-1998.556043,-2374.896044,9474.636058
87283.654937,0.000000,-306.438199,7846.182985
87283.655266,2590.720797,3140.991542,8142.265362
87283.655595,3775.050304,6281.983084,7772.162391
87283.655925,2294.638420,6205.373534,8216.285956
87283.656254,0.000000,2757.943793,8660.409521
87283.656583,-1332.370696,-1302.362347,8290.306550
87283.656912,-3034.844362,-2987.772442,8142.265362
87283.657241,-3997.112087,-2528.115143,9918.759623
87283.657570,-3404.947333,-2451.505594,12509.480420
87283.657899,-2220.617826,-2834.553343,13027.624579
87283.658228,-2516.700203,-2834.553343,10732.986159
87283.658558,-1702.473667,-2145.067394,7846.182985
87283.658887,2294.638420,689.485948,6291.750507
87283.659216,5107.421000,4903.011187,7772.162391
87283.659545,4811.338623,8350.440928,9326.594869
87283.659874,2738.761985,7048.078582,8438.347739
87283.660203,1258.350101,1302.362347,7772.162391
87283.660532,222.061783,-3447.429741,7105.977043
87283.660862,-1258.350101,-2528.115143,8586.388927
87283.661191,-2960.823768,-612.876398,9992.780217
87283.661520,-3108.864956,-1378.971896,11621.233289
87283.661849,-3701.029710,-3370.820191,10955.047942
87283.662178,-3404.947333,-5209.449386,9104.533087
87283.662507,-1406.391290,-1608.800546,7031.956449
87283.662836,1628.453072,3524.039291,7254.018232
87283.663165,4589.276840,6128.763984,9474.636058
87283.663495,3775.050304,5439.278036,10510.924376
87283.663824,1110.308913,1838.629195,8956.491898
87283.664153,-592.164754,-1838.629195,7254.018232
87283.664482,962.267725,-2451.505594,7624.121203
87283.664811,74.020594,-842.705048,11843.295072
87283.665140,-1628.453072,459.657299,12657.521608
87283.665469,-1110.308913,-1302.362347,12435.459826
87283.665799,-1036.288319,-2834.553343,11029.068536
87283.666128,-1184.329507,-2298.286494,8956.491898
87283.666457,296.082377,1838.629195,7550.100608
87283.666786,4367.215058,6435.202183,7328.038826
87283.667115,5181.441594,6894.859482,9178.553681
87283.667444,2072.576638,4749.792088,9252.574275
87283.667773,-666.185348,1991.848295,8290.306550
87283.668102,-1184.329507,0.000000,7476.080014
87283.668432,-888.247130,0.000000,9252.574275
87283.668761,-2812.782580,-1225.752797,10658.965565
87283.669090,-4441.235652,-1608.800546,11029.068536
87283.669419,-3997.112087,-3217.601092,10807.006753
87283.669748,-3627.009116,-3677.258390,9770.718434
87283.670077,-1702.473667,-1762.019645,8216.285956
87283.670406,962.267725,2374.896044,8586.388927
87283.670736,2812.782580,6358.592633,9474.636058
87283.671065,2960.823768,7048.078582,9770.718434
87283.671394,1628.453072,2681.334243,9104.533087
87283.671723,-296.082377,-1378.971896,7179.997637
87283.672052,-1258.350101,-2451.505594,7698.141797
87283.672381,-1776.494261,-459.657299,10881.027347
87283.672710,-1924.535449,-612.876398,12435.459826
87283.673039,-2738.761985,-2451.505594,12657.521608
87283.673369,-2664.741391,-5286.058936,10362.883188
87283.673698,-1480.411884,-3064.381992,7772.162391
87283.674027,2072.576638,919.314598,6809.894666
87283.674356,3404.947333,4673.182538,9030.512492
87283.674685,3256.906145,6128.763984,9696.697840
87283.675014,3404.947333,4366.744339,9178.553681
87283.675343,3034.844362,919.314598,8438.347739
87283.675672,444.123565,-1608.800546,8290.306550
87283.676002,-1110.308913,-1762.019645,9474.636058
87283.676331,0.000000,-842.705048,10807.006753
87283.676660,-296.082377,-2604.724693,11769.274478
87283.676989,-2368.659014,-4060.306139,10881.027347
87283.677318,-2146.597232,-2451.505594,9030.512492
87283.677647,1184.329507,919.314598,7402.059420
87283.677976,3997.112087,4060.306139,8216.285956
87283.678306,4071.132681,4903.011187,9030.512492
87283.678635,2442.679609,4903.011187,8808.450710
87283.678964,1406.391290,3830.477490,7698.141797
87283.679293,1258.350101,0.000000,7402.059420
87283.679622,-1110.308913,-1608.800546,8290.306550
87283.679951,-2664.741391,-1072.533697,9548.656652
87283.680280,-2442.679609,-689.485948,10362.883188
87283.680609,-1850.514855,-1838.629195,11769.274478
87283.680939,-3108.864956,-3064.381992,10584.944971
87283.681268,-2590.720797,-1915.238745,7254.018232
87283.681597,1110.308913,1915.238745,6069.688724
87283.681926,3775.050304,5975.544884,8290.306550
87283.682255,3256.906145,7277.907231,9844.739029
87283.682584,1184.329507,5822.325785,8660.409521
87283.682913,444.123565,1532.190996,7772.162391
87283.683243,1184.329507,-842.705048,8438.347739
87283.683572,-1406.391290,0.000000,9992.780217
87283.683901,-2368.659014,306.438199,11103.089130
87283.684230,-2072.576638,-1072.533697,12361.439231
87283.684559,-2220.617826,-2987.772442,11917.315666
87283.684888,-2812.782580,-3447.429741,9104.533087
87283.685217,-296.082377,-459.657299,7105.977043
87283.685546,2886.803174,3447.429741,7994.224174
87283.685876,3701.029710,5209.449386,10214.842000
87283.686205,2812.782580,5056.230287,10955.047942
87283.686534,1628.453072,2757.943793,9844.739029
87283.686863,518.144159,0.000000,8142.265362
87283.687192,-592.164754,-1838.629195,7179.997637
87283.687521,-1924.535449,-1532.190996,9474.636058
87283.687850,-2368.659014,-383.047749,11991.336260
87283.688180,-2664.741391,-1302.362347,11917.315666
87283.688509,-2738.761985,-2834.553343,10140.821405
87283.688838,-2072.576638,-3370.820191,7105.977043
87283.689167,74.020594,459.657299,6735.874072
87283.689496,2072.576638,4443.353888,8068.244768
87283.689825,2886.803174,5515.887586,8734.430116
87283.690154,962.267725,2834.553343,9548.656652
87283.690483,-740.205942,-919.314598,8216.285956
87283.690813,-518.144159,-1838.629195,7772.162391
87283.691142,370.102971,-306.438199,9474.636058
87283.691471,222.061783,-536.266849,12361.439231
87283.691800,-1702.473667,-995.924147,13249.686362
87283.692129,-2146.597232,-3064.381992,11251.130318
87283.692458,-1776.494261,-3447.429741,9252.574275
87283.692787,0.000000,-1302.362347,8438.347739
87283.693117,814.226536,2451.505594,7476.080014
87283.693446,1110.308913,4673.182538,9326.594869
87283.693775,592.164754,3524.039291,10436.903782
87283.694104,0.000000,153.219100,9696.697840
87283.694433,-1110.308913,-2451.505594,9104.533087
87283.694762,-1924.535449,-2451.505594,9030.512492
87283.695091,-1628.453072,-1072.533697,9844.739029
87283.695420,-888.247130,-919.314598,11843.295072
87283.695750,-740.205942,-2068.457845,11917.315666
87283.696079,-666.185348,-1608.800546,9548.656652
87283.696408,1850.514855,153.219100,7031.956449
87283.696737,3552.988522,4366.744339,6809.894666
87283.697066,3552.988522,6818.249932,6957.935855
87283.697395,2294.638420,5898.935335,7624.121203
87283.697724,518.144159,2451.505594,7994.224174
87283.698054,-1110.308913,-536.266849,7698.141797
87283.698383,-2368.659014,-1915.238745,8586.388927
87283.698712,-3404.947333,-1149.143247,9178.553681
87283.699041,-3034.844362,-1302.362347,9622.677246
87283.699370,-2738.761985,-2451.505594,10066.800811
87283.699699,-3627.009116,-2528.115143,9844.739029
87283.700028,-2590.720797,-306.438199,7846.182985
87283.700357,1406.391290,2374.896044,7624.121203
87283.700687,4367.215058,4826.401637,7994.224174
87283.701016,3997.112087,4749.792088,9474.636058
87283.701345,1332.370696,4290.134789,9474.636058
87283.701674,1924.535449,1532.190996,9252.574275
87283.702003,2294.638420,-1149.143247,9622.677246
87283.702332,1110.308913,-1838.629195,11029.068536
87283.702661,148.041188,459.657299,12139.377449
87283.702991,1406.391290,1532.190996,12139.377449
87283.703320,2294.638420,-76.609550,11251.130318
87283.703649,1406.391290,-1378.971896,9696.697840
87283.703978,444.123565,1072.533697,7031.956449
87283.704307,2886.803174,4826.401637,6069.688724
87283.704636,3627.009116,6665.030833,8586.388927
87283.704965,888.247130,3983.696590,9992.780217
87283.705294,-2664.741391,689.485948,8216.285956
87283.705624,-3330.926739,-1915.238745,7328.038826
87283.705953,-3330.926739,-3983.696590,8364.327145
87283.706282,-4367.215058,-2834.553343,10584.944971
87283.706611,-4219.173869,-1455.581446,11473.192101
87283.706940,-2738.761985,-995.924147,11177.109724
87283.707269,-1850.514855,-1991.848295,9622.677246
87283.707598,-296.082377,-1532.190996,8290.306550
87283.707927,1924.535449,2145.067394,7402.059420
87283.708257,4367.215058,5822.325785,8438.347739
87283.708586,4515.256246,5439.278036,10955.047942
87283.708915,2738.761985,2681.334243,11177.109724
87283.709244,666.185348,-229.828649,9770.718434
87283.709573,-444.123565,-2604.724693,8512.368333
87283.709902,-592.164754,-2834.553343,9622.677246
87283.710231,-666.185348,-1532.190996,12509.480420
87283.710561,-1776.494261,-1072.533697,13027.624579
87283.710890,-1850.514855,-1225.752797,11325.150913
87283.711219,-1332.370696,-2451.505594,9030.512492
87283.711548,370.102971,-1225.752797,6587.832884
87283.711877,1480.411884,3140.991542,6735.874072
87283.712206,2442.679609,6052.154434,8364.327145
87283.712535,1850.514855,5209.449386,10732.986159
87283.712864,-370.102971,919.314598,8882.471304
87283.713194,-2294.638420,-3064.381992,6957.935855
87283.713523,-4071.132681,-3753.867940,6809.894666
87283.713852,-4145.153275,-2145.067394,9548.656652
87283.714181,-3404.947333,-919.314598,11695.253884
87283.714510,-3034.844362,-2374.896044,11917.315666
87283.714839,-2886.803174,-2911.162892,9326.594869
87283.715168,-222.061783,-1915.238745,5995.668130
87283.715498,2590.720797,3064.381992,6957.935855
87283.715827,4515.256246,6894.859482,8438.347739
87283.716156,4219.173869,7507.735880,9252.574275
87283.716485,3330.926739,3524.039291,8882.471304
87283.716814,1258.350101,-153.219100,8364.327145
87283.717143,-666.185348,-612.876398,7994.224174
87283.717472,-1332.370696,-459.657299,8586.388927
87283.717801,-1628.453072,-1149.143247,11103.089130
87283.718131,-1184.329507,-2221.676944,13249.686362
87283.718460,-1332.370696,-1608.800546,12139.377449
87283.718789,-1110.308913,-842.705048,9030.512492
87283.719118,1036.288319,1455.581446,7031.956449
87283.719447,3182.885551,4136.915689,7179.997637
87283.719776,3923.091493,6205.373534,9252.574275
87283.720105,1628.453072,6358.592633,9104.533087
87283.720435,0.000000,1915.238745,7920.203579
87283.720764,-1480.411884,-2068.457845,8364.327145
87283.721093,-3552.988522,-1302.362347,9030.512492
87283.721422,-4145.153275,-1225.752797,9030.512492
87283.721752,-2738.761985,-1685.410096,10658.965565
87283.722081,-2294.638420,-2528.115143,11769.274478
87283.722410,-2146.597232,-1915.238745,10140.821405
87283.722739,-296.082377,766.095498,7846.182985
87283.723068,2590.720797,3983.696590,6957.935855
87283.723398,5551.544565,4673.182538,7402.059420
87283.723727,5921.647536,5669.106685,9400.615463
87283.724056,2738.761985,5132.839837,8808.450710
87283.724385,592.164754,1762.019645,8660.409521
87283.724715,-666.185348,-2374.896044,9622.677246
87283.725044,-1554.432478,-4060.306139,10288.862594
87283.725373,-2516.700203,-2757.943793,11769.274478
87283.725702,-2368.659014,-2145.067394,12361.439231
87283.726031,-2886.803174,-3447.429741,12583.501014
87283.726361,-2812.782580,-3140.991542,10807.006753
87283.726690,-1924.535449,-1838.629195,7772.162391
87283.727019,0.000000,1455.581446,7105.977043
87283.727348,1850.514855,4290.134789,8956.491898
87283.727678,1332.370696,3447.429741,10732.986159
87283.728007,-1406.391290,1225.752797,10288.862594
87283.728336,-2146.597232,-2145.067394,8586.388927
87283.728665,-1480.411884,-4443.353888,8808.450710
87283.728994,-888.247130,-2834.553343,10066.800811
87283.729324,-1554.432478,-1302.362347,11547.212695
87283.729653,-1406.391290,-1378.971896,11917.315666
87283.729982,-962.267725,-2374.896044,9474.636058
87283.730311,1924.535449,-2374.896044,7031.956449
87283.730641,3701.029710,1915.238745,7105.977043
87283.730970,5477.523971,7201.297681,7476.080014
87283.731299,6143.709319,7814.174080,9474.636058
87283.731628,4441.235652,4290.134789,10140.821405
87283.731957,1332.370696,0.000000,8438.347739
87283.732287,74.020594,-1838.629195,6735.874072
87283.732616,592.164754,-306.438199,8068.244768
87283.732945,-888.247130,842.705048,11843.295072
87283.733274,-2738.761985,-842.705048,12583.501014
87283.733604,-3182.885551,-2528.115143,10584.944971
87283.733933,-2738.761985,-3447.429741,8068.244768
87283.734262,-888.247130,-766.095498,6513.812290
87283.734591,888.247130,4903.011187,7920.203579
87283.734920,2146.597232,8503.660028,9696.697840
87283.735250,2368.659014,6971.469032,10288.862594
87283.735579,592.164754,2068.457845,9178.553681
87283.735908,-1258.350101,-1532.190996,7476.080014
87283.736237,-2368.659014,0.000000,7846.182985
87283.736566,-1554.432478,1762.019645,9548.656652
87283.736896,-1110.308913,1149.143247,11695.253884
87283.737225,-2294.638420,-1762.019645,9770.718434
87283.737554,-2442.679609,-1608.800546,7402.059420
87283.737883,666.185348,1685.410096,5477.523971
87283.738213,3775.050304,5515.887586,6883.915261
87283.738542,4959.379811,8197.221829,8882.471304
87283.738871,4293.194464,8044.002729,9474.636058
87283.739200,2738.761985,5132.839837,8364.327145
87283.739529,1110.308913,229.828649,7846.182985
87283.739859,-518.144159,-2604.724693,8290.306550
87283.740188,-3034.844362,-1225.752797,9992.780217
87283.740517,-4071.132681,-536.266849,12805.562797
87283.740846,-4071.132681,-3140.991542,12731.542202
87283.741176,-5181.441594,-5975.544884,10288.862594
87283.741505,-4959.379811,-5669.106685,7624.121203
87283.741834,-3182.885551,-459.657299,6587.832884
87283.742163,0.000000,4443.353888,7772.162391
87283.742492,2738.761985,5822.325785,10140.821405
87283.742822,1036.288319,2451.505594,9918.759623
87283.743151,-296.082377,-536.266849,7772.162391
87283.743480,-666.185348,-2451.505594,7846.182985
87283.743809,-296.082377,-3217.601092,9696.697840
87283.744139,-962.267725,-3140.991542,12213.398043
87283.744468,-740.205942,-3524.039291,14063.912898
87283.744797,518.144159,-3830.477490,12509.480420
87283.745126,296.082377,-4213.525239,9992.780217
87283.745455,1776.494261,-2298.286494,8438.347739
87283.745785,4663.297435,2374.896044,8216.285956
87283.746114,6661.853478,6052.154434,9030.512492
87283.746443,6069.688724,5975.544884,9992.780217
87283.746772,2220.617826,2068.457845,9622.677246
87283.747102,-444.123565,-1302.362347,7698.141797
87283.747431,-1110.308913,-3064.381992,8364.327145
87283.747760,-2072.576638,-3524.039291,10362.883188
87283.748089,-3701.029710,-3907.087040,11843.295072
87283.748418,-4367.215058,-3677.258390,12953.603985
87283.748748,-4071.132681,-5669.106685,11843.295072
87283.749077,-3849.070898,-4673.182538,8808.450710
87283.749406,-1480.411884,-612.876398,7476.080014
87283.749735,1332.370696,3907.087040,7846.182985
87283.750065,3108.864956,6511.811733,9252.574275
87283.750394,3034.844362,6052.154434,9696.697840
87283.750723,1628.453072,2911.162892,8364.327145
