#time,accel_x,accel_y,accel_z
16194.510695,-2368.659014,2451.505594,9696.697840
16194.511020,-1110.308913,2298.286494,8512.368333
16194.511344,222.061783,2374.896044,7624.121203
16194.511668,296.082377,2757.943793,6735.874072
16194.511993,962.267725,3140.991542,5773.606348
16194.512317,1480.411884,3370.820191,6291.750507
16194.512641,1998.556043,2911.162892,6661.853478
16194.512966,1998.556043,2374.896044,7031.956449
16194.513290,1776.494261,1762.019645,8068.244768
16194.513614,962.267725,1455.581446,9178.553681
16194.513939,1554.432478,229.828649,10510.924376
16194.514263,1332.370696,0.000000,10214.842000
16194.514587,740.205942,-153.219100,10955.047942
16194.514912,370.102971,-919.314598,10881.027347
16194.515236,1406.391290,-383.047749,11251.130318
16194.515560,1406.391290,-842.705048,11399.171507
16194.515885,296.082377,-1072.533697,11325.150913
16194.516209,370.102971,-383.047749,11473.192101
16194.516534,1776.494261,-306.438199,11251.130318
16194.516858,2368.659014,-995.924147,10881.027347
16194.517182,1036.288319,0.000000,10881.027347
16194.517507,740.205942,-229.828649,10658.965565
16194.517831,1110.308913,306.438199,9474.636058
16194.518155,2738.761985,383.047749,9252.574275
16194.518480,2220.617826,689.485948,9030.512492
16194.518804,1924.535449,1455.581446,7920.203579
16194.519128,2738.761985,1532.190996,7994.224174
16194.519453,3108.864956,1991.848295,7846.182985
16194.519777,4145.153275,2911.162892,8956.491898
16194.520101,4071.132681,3677.258390,8734.430116
16194.520426,4589.276840,3907.087040,8586.388927
16194.520750,5625.565159,4826.401637,9178.553681
16194.521074,6217.729913,5209.449386,9030.512492
16194.521399,5107.421000,5592.497135,9178.553681
16194.521723,4959.379811,6435.202183,8142.265362
16194.522047,5773.606348,6894.859482,8660.409521
16194.522372,6143.709319,6741.640382,8956.491898
16194.522696,4885.359217,6894.859482,8734.430116
16194.523021,4219.173869,7124.688131,8586.388927
16194.523345,4071.132681,7431.126331,8068.244768
16194.523669,4145.153275,7584.345430,8734.430116
16194.523994,4071.132681,7507.735880,9104.533087
16194.524318,2738.761985,6665.030833,9622.677246
16194.524642,2146.597232,6741.640382,9474.636058
16194.524967,2886.803174,6665.030833,9770.718434
16194.525291,2368.659014,6205.373534,9992.780217
16194.525615,666.185348,6205.373534,9104.533087
16194.525940,666.185348,6358.592633,8142.265362
16194.526264,1406.391290,6358.592633,8142.265362
16194.526588,1406.391290,5592.497135,7698.141797
16194.526913,814.226536,5515.887586,7550.100608
16194.527237,518.144159,5209.449386,7105.977043
16194.527561,518.144159,4673.182538,7550.100608
16194.527886,518.144159,4366.744339,8660.409521
16194.528210,518.144159,3370.820191,9474.636058
16194.528534,-592.164754,3064.381992,9474.636058
16194.528859,-148.041188,1685.410096,10140.821405
16194.529183,592.164754,1302.362347,10732.986159
16194.529507,0.000000,153.219100,10584.944971
16194.529832,-296.082377,0.000000,9918.759623
16194.530156,518.144159,0.000000,9252.574275
16194.530481,814.226536,-306.438199,8808.450710
16194.530805,296.082377,-1302.362347,8142.265362
16194.531129,962.267725,-689.485948,7254.018232
16194.531454,814.226536,-459.657299,8068.244768
16194.531778,0.000000,-1149.143247,8290.306550
16194.532102,0.000000,-2604.724693,9252.574275
16194.532427,-1554.432478,-3600.648841,10066.800811
16194.532751,-2516.700203,-4519.963438,11177.109724
16194.533075,-2812.782580,-5592.497135,12657.521608
16194.533399,-2886.803174,-6205.373534,13545.768739
16194.533724,-4145.153275,-7048.078582,14137.933492
16194.534048,-3478.967927,-6588.421283,13619.789333
16194.534372,-1628.453072,-6205.373534,12435.459826
16194.534697,740.205942,-4673.182538,11103.089130
16194.535021,2516.700203,-2298.286494,9474.636058
16194.535345,4737.318029,-766.095498,7772.162391
16194.535669,6809.894666,1532.190996,6587.832884
16194.535994,7550.100608,2528.115143,6069.688724
16194.536318,7772.162391,3677.258390,5847.626942
16194.536642,6439.791695,3830.477490,6513.812290
16194.536967,4959.379811,2987.772442,7328.038826
16194.537291,3256.906145,2068.457845,9178.553681
16194.537615,0.000000,612.876398,10214.842000
16194.537939,-2220.617826,-689.485948,11399.171507
16194.538264,-3701.029710,-1608.800546,11769.274478
16194.538588,-4441.235652,-1532.190996,11325.150913
16194.538912,-3478.967927,0.000000,10140.821405
16194.539236,-1702.473667,1838.629195,8734.430116
16194.539561,296.082377,3524.039291,7476.080014
16194.539885,2516.700203,6205.373534,6365.771101
16194.540209,2738.761985,8273.831378,5181.441594
16194.540534,3108.864956,8197.221829,5107.421000
16194.540858,2812.782580,8044.002729,6217.729913
16194.541182,2072.576638,7354.516781,7328.038826
16194.541506,-444.123565,5439.278036,9326.594869
16194.541831,-3182.885551,3294.210641,11251.130318
16194.542155,-5847.626942,1378.971896,11843.295072
16194.542479,-6957.935855,-536.266849,12805.562797
16194.542803,-6587.832884,-1072.533697,13545.768739
16194.543128,-5477.523971,153.219100,12509.480420
16194.543452,-2368.659014,2145.067394,11399.171507
16194.543776,1110.308913,4136.915689,10214.842000
16194.544101,3923.091493,7048.078582,7698.141797
16194.544425,5847.626942,8044.002729,6735.874072
16194.544749,7254.018232,8350.440928,5625.565159
16194.545073,7772.162391,8197.221829,5477.523971
16194.545398,5773.606348,6741.640382,6957.935855
16194.545722,2072.576638,3677.258390,7698.141797
16194.546046,-1406.391290,689.485948,8290.306550
16194.546370,-3330.926739,-1455.581446,8512.368333
16194.546695,-4663.297435,-2757.943793,9474.636058
16194.547019,-5773.606348,-3983.696590,9770.718434
16194.547343,-4737.318029,-3217.601092,9918.759623
16194.547668,-3404.947333,-3217.601092,8808.450710
16194.547992,-1258.350101,-2221.676944,8364.327145
16194.548316,-74.020594,-1532.190996,7698.141797
16194.548640,592.164754,-612.876398,7698.141797
16194.548965,2146.597232,-1072.533697,8438.347739
16194.549289,3108.864956,-1532.190996,11325.150913
16194.549613,1480.411884,-3064.381992,13101.645173
16194.549938,-1184.329507,-5439.278036,13693.809927
16194.550262,-1702.473667,-6741.640382,13619.789333
16194.550586,-1036.288319,-6818.249932,13545.768739
16194.550910,-222.061783,-5822.325785,13397.727550
16194.551235,518.144159,-4443.353888,12213.398043
16194.551559,1924.535449,-2987.772442,9918.759623
16194.551883,4441.235652,-383.047749,8216.285956
16194.552207,5403.503377,1225.752797,7254.018232
16194.552532,5551.544565,1762.019645,6439.791695
16194.552856,4145.153275,2757.943793,6291.750507
16194.553180,3404.947333,2298.286494,7772.162391
16194.553505,1036.288319,1072.533697,9178.553681
16194.553829,-2812.782580,-766.095498,9696.697840
16194.554153,-5773.606348,-2451.505594,8660.409521
16194.554477,-6365.771101,-3064.381992,9622.677246
16194.554802,-5329.482782,-2834.553343,9696.697840
16194.555126,-5107.421000,-1915.238745,9104.533087
16194.555450,-4663.297435,-766.095498,6957.935855
16194.555774,-2516.700203,1455.581446,5033.400406
16194.556099,-1110.308913,3370.820191,4811.338623
16194.556423,1110.308913,3907.087040,6069.688724
16194.556747,444.123565,4136.915689,6957.935855
16194.557072,-814.226536,3294.210641,8734.430116
16194.557396,-1554.432478,1991.848295,11251.130318
16194.557720,-2738.761985,76.609550,12805.562797
16194.558044,-4885.359217,-2145.067394,13767.830521
16194.558369,-5847.626942,-2145.067394,13619.789333
16194.558693,-4071.132681,-1072.533697,13471.748144
16194.559017,-1850.514855,-459.657299,13989.892304
16194.559342,0.000000,919.314598,11917.315666
16194.559666,2294.638420,3600.648841,9400.615463
16194.559990,5181.441594,5286.058936,7550.100608
16194.560314,7550.100608,7124.688131,6809.894666
16194.560639,8068.244768,7737.564530,6439.791695
16194.560963,6365.771101,7584.345430,6365.771101
16194.561287,4811.338623,6281.983084,6587.832884
16194.561611,2590.720797,3600.648841,7105.977043
16194.561936,-888.247130,919.314598,7772.162391
16194.562260,-3404.947333,-459.657299,7772.162391
16194.562584,-3627.009116,229.828649,8438.347739
16194.562909,-3034.844362,-1072.533697,8956.491898
16194.563233,-2960.823768,-1455.581446,8068.244768
16194.563557,-1702.473667,-612.876398,6291.750507
16194.563881,0.000000,1225.752797,5329.482782
16194.564206,1406.391290,1685.410096,6957.935855
16194.564530,1850.514855,1378.971896,8068.244768
16194.564854,2590.720797,1072.533697,9622.677246
16194.565178,1406.391290,76.609550,11399.171507
16194.565503,296.082377,-1762.019645,12805.562797
16194.565827,-370.102971,-3677.258390,13693.809927
16194.566151,-1480.411884,-4596.572988,14211.954086
16194.566476,-1258.350101,-4060.306139,14359.995275
16194.566800,0.000000,-3217.601092,13989.892304
16194.567124,1776.494261,-2834.553343,12287.418637
16194.567448,1998.556043,229.828649,9844.739029
16194.567773,4293.194464,1915.238745,8142.265362
16194.568097,5181.441594,2911.162892,7846.182985
16194.568421,4441.235652,2681.334243,7031.956449
16194.568745,2886.803174,2528.115143,6809.894666
16194.569070,518.144159,2145.067394,7402.059420
16194.569394,-1776.494261,-229.828649,7772.162391
16194.569718,-3701.029710,-2374.896044,8808.450710
16194.570043,-5625.565159,-3447.429741,9178.553681
16194.570367,-6661.853478,-3217.601092,8882.471304
16194.570691,-5477.523971,-3064.381992,8808.450710
16194.571015,-4145.153275,-2374.896044,7624.121203
16194.571340,-3034.844362,-995.924147,5995.668130
16194.571664,-2368.659014,306.438199,4589.276840
16194.571988,-370.102971,842.705048,4737.318029
16194.572313,296.082377,1302.362347,6291.750507
16194.572637,0.000000,1455.581446,8808.450710
16194.572961,-888.247130,229.828649,10584.944971
16194.573285,-2664.741391,-1608.800546,12287.418637
16194.573610,-3404.947333,-3447.429741,13841.851115
16194.573934,-3108.864956,-3447.429741,14804.118840
16194.574258,-2368.659014,-3217.601092,15396.283594
16194.574582,-740.205942,-1991.848295,14137.933492
16194.574907,1554.432478,-1302.362347,12805.562797
16194.575231,4293.194464,1378.971896,10658.965565
16194.575555,5403.503377,3064.381992,9030.512492
16194.575880,7105.977043,4903.011187,7698.141797
16194.576204,7624.121203,5515.887586,7105.977043
16194.576528,7031.956449,5822.325785,6883.915261
16194.576852,4959.379811,4826.401637,7550.100608
16194.577177,1702.473667,3064.381992,8142.265362
16194.577501,-518.144159,1455.581446,7550.100608
16194.577825,-1776.494261,229.828649,8068.244768
16194.578149,-2442.679609,153.219100,8290.306550
16194.578474,-2738.761985,536.266849,7994.224174
16194.578798,-2146.597232,229.828649,6439.791695
16194.579122,-1110.308913,1455.581446,5403.503377
16194.579447,-296.082377,2757.943793,5033.400406
16194.579771,888.247130,3140.991542,5625.565159
16194.580095,1332.370696,2987.772442,6587.832884
16194.580419,1110.308913,2451.505594,8660.409521
16194.580744,-148.041188,1302.362347,10955.047942
16194.581068,-1258.350101,76.609550,12953.603985
16194.581392,-2368.659014,-1378.971896,13471.748144
16194.581717,-2146.597232,-1915.238745,13915.871710
16194.582041,-666.185348,-1072.533697,14508.036463
16194.582365,-222.061783,-689.485948,13989.892304
16194.582689,666.185348,153.219100,12213.398043
16194.583014,2812.782580,2068.457845,10362.883188
16194.583338,4811.338623,3370.820191,9326.594869
16194.583662,4589.276840,4826.401637,7772.162391
16194.583986,4293.194464,4596.572988,7031.956449
16194.584311,2960.823768,4136.915689,7476.080014
16194.584635,962.267725,2757.943793,8290.306550
16194.584959,-1480.411884,919.314598,8882.471304
16194.585284,-4145.153275,-995.924147,8808.450710
16194.585608,-5403.503377,-1991.848295,8216.285956
16194.585932,-4071.132681,-1532.190996,8956.491898
16194.586256,-3701.029710,-995.924147,7920.203579
16194.586581,-3404.947333,-1532.190996,7179.997637
16194.586905,-2738.761985,-536.266849,5107.421000
16194.587229,-222.061783,1072.533697,4293.194464
16194.587553,518.144159,1455.581446,5255.462188
16194.587878,-296.082377,1225.752797,6069.688724
16194.588202,-518.144159,229.828649,7698.141797
16194.588526,0.000000,-383.047749,10807.006753
16194.588851,-2368.659014,-1991.848295,12879.583391
16194.589175,-3552.988522,-4136.915689,14063.912898
16194.589499,-3478.967927,-4673.182538,14878.139434
16194.589823,-1998.556043,-3983.696590,15174.221811
16194.590148,296.082377,-3447.429741,14878.139434
16194.590472,1924.535449,-1378.971896,13989.892304
16194.590796,3108.864956,919.314598,10584.944971
16194.591121,6291.750507,3064.381992,9252.574275
16194.591445,7994.224174,3830.477490,8290.306550
16194.591769,7328.038826,4903.011187,7550.100608
16194.592093,6661.853478,4749.792088,7105.977043
16194.592418,4737.318029,3830.477490,7402.059420
16194.592742,1332.370696,1915.238745,7920.203579
16194.593066,-1036.288319,1149.143247,8808.450710
16194.593390,-3034.844362,-306.438199,8660.409521
16194.593715,-3923.091493,-1225.752797,7698.141797
16194.594039,-3404.947333,-229.828649,7920.203579
16194.594363,-2442.679609,153.219100,7476.080014
16194.594688,-2368.659014,1072.533697,6217.729913
16194.595012,-1554.432478,2374.896044,5255.462188
16194.595336,370.102971,2451.505594,5181.441594
16194.595660,888.247130,3217.601092,5995.668130
16194.595985,-592.164754,2911.162892,7846.182985
16194.596309,-740.205942,2298.286494,9844.739029
16194.596633,-2072.576638,766.095498,12435.459826
16194.596957,-3330.926739,-842.705048,12879.583391
16194.597282,-3330.926739,-919.314598,13027.624579
16194.597606,-2368.659014,-766.095498,14359.995275
16194.597930,-518.144159,-766.095498,14211.954086
16194.598255,1110.308913,612.876398,13767.830521
16194.598579,2812.782580,2068.457845,11621.233289
16194.598903,3478.967927,3907.087040,9326.594869
16194.599227,5551.544565,5209.449386,8364.327145
16194.599552,6513.812290,5745.716235,8216.285956
16194.599876,4959.379811,5592.497135,7846.182985
16194.600200,2664.741391,4749.792088,8068.244768
16194.600524,666.185348,2911.162892,8512.368333
16194.600849,-1702.473667,612.876398,7624.121203
16194.601173,-3701.029710,-536.266849,8364.327145
16194.601497,-4293.194464,-306.438199,8068.244768
16194.601822,-4589.276840,-612.876398,7402.059420
16194.602146,-2812.782580,-689.485948,6365.771101
16194.602470,-1332.370696,-229.828649,5477.523971
16194.602794,-1258.350101,1378.971896,4737.318029
16194.603119,0.000000,1302.362347,5255.462188
16194.603443,444.123565,1302.362347,6661.853478
16194.603767,0.000000,383.047749,7772.162391
16194.604092,-888.247130,0.000000,10214.842000
16194.604416,-2516.700203,-2068.457845,12509.480420
16194.604740,-3034.844362,-3830.477490,13323.706956
16194.605064,-3034.844362,-4596.572988,14878.139434
16194.605389,-2442.679609,-3983.696590,15174.221811
16194.605713,-1406.391290,-3600.648841,14952.160028
16194.606037,1702.473667,-2068.457845,13841.851115
16194.606361,4515.256246,0.000000,12139.377449
16194.606686,5255.462188,1149.143247,10436.903782
16194.607010,6365.771101,2528.115143,9030.512492
16194.607334,7328.038826,2987.772442,7772.162391
16194.607659,6439.791695,3064.381992,7328.038826
16194.607983,3108.864956,2145.067394,8290.306550
16194.608307,296.082377,612.876398,8586.388927
16194.608631,-2368.659014,-1225.752797,8290.306550
16194.608956,-4145.153275,-2451.505594,8586.388927
16194.609280,-4959.379811,-2604.724693,8290.306550
16194.609604,-4885.359217,-1991.848295,7920.203579
16194.609928,-4663.297435,-1225.752797,6365.771101
16194.610253,-3108.864956,306.438199,5551.544565
16194.610577,-888.247130,1378.971896,4811.338623
16194.610901,-592.164754,2451.505594,4737.318029
16194.611226,592.164754,3140.991542,5773.606348
16194.611550,1406.391290,2911.162892,7624.121203
16194.611874,888.247130,1685.410096,9844.739029
16194.612198,-1628.453072,229.828649,11547.212695
16194.612523,-3478.967927,-1532.190996,12953.603985
16194.612847,-3775.050304,-2681.334243,13989.892304
16194.613171,-2886.803174,-2451.505594,14730.098246
16194.613496,-888.247130,-1991.848295,14656.077652
16194.613820,-148.041188,-766.095498,13619.789333
16194.614144,2664.741391,1532.190996,11621.233289
16194.614468,5329.482782,3600.648841,9474.636058
16194.614793,6661.853478,5056.230287,8660.409521
16194.615117,5551.544565,5515.887586,7179.997637
16194.615441,5551.544565,5669.106685,7179.997637
16194.615765,4811.338623,4903.011187,7624.121203
16194.616090,1480.411884,3140.991542,8660.409521
16194.616414,-1554.432478,1302.362347,8438.347739
16194.616738,-3627.009116,-306.438199,8068.244768
16194.617063,-4737.318029,-1302.362347,7698.141797
16194.617387,-4367.215058,-995.924147,7846.182985
16194.617711,-3552.988522,-536.266849,7179.997637
16194.618035,-2368.659014,306.438199,6217.729913
16194.618360,-148.041188,1608.800546,5107.421000
16194.618684,1850.514855,2757.943793,4737.318029
16194.619008,1850.514855,2681.334243,5847.626942
16194.619332,1036.288319,2681.334243,7624.121203
16194.619657,1406.391290,1915.238745,9548.656652
16194.619981,0.000000,0.000000,11843.295072
16194.620305,-2516.700203,-2374.896044,13101.645173
16194.620630,-3552.988522,-3064.381992,13767.830521
16194.620954,-3108.864956,-3983.696590,14508.036463
16194.621278,-1480.411884,-3907.087040,14656.077652
16194.621602,592.164754,-1915.238745,14063.912898
16194.621927,2072.576638,-459.657299,11991.336260
16194.622251,4293.194464,1225.752797,9548.656652
16194.622575,7105.977043,3140.991542,8438.347739
16194.622900,7179.997637,3907.087040,7920.203579
16194.623224,5403.503377,3294.210641,7105.977043
16194.623548,4367.215058,3294.210641,7105.977043
16194.623872,1628.453072,1915.238745,8364.327145
16194.624197,-2146.597232,-689.485948,8290.306550
16194.624521,-4737.318029,-2528.115143,8364.327145
16194.624845,-5551.544565,-3217.601092,8216.285956
16194.625169,-6217.729913,-2604.724693,7402.059420
16194.625494,-5107.421000,-2068.457845,7402.059420
16194.625818,-3701.029710,-1149.143247,5847.626942
16194.626142,-2146.597232,153.219100,5107.421000
16194.626467,0.000000,1685.410096,5699.585753
16194.626791,1702.473667,1762.019645,6217.729913
16194.627115,740.205942,1225.752797,7328.038826
16194.627439,0.000000,689.485948,9548.656652
16194.627764,-518.144159,-153.219100,11547.212695
16194.628088,-2368.659014,-2528.115143,13027.624579
16194.628412,-3849.070898,-4213.525239,13545.768739
16194.628736,-3849.070898,-3830.477490,14211.954086
16194.629061,-2664.741391,-3524.039291,14434.015869
16194.629385,-444.123565,-2757.943793,14211.954086
16194.629709,1628.453072,-766.095498,12509.480420
16194.630034,3627.009116,1608.800546,10066.800811
16194.630358,5107.421000,2834.553343,8142.265362
16194.630682,7402.059420,4060.306139,7920.203579
16194.631006,7254.018232,4903.011187,7994.224174
16194.631331,4441.235652,3677.258390,7994.224174
16194.631655,1998.556043,2757.943793,8364.327145
16194.631979,444.123565,919.314598,8734.430116
16194.632303,-2960.823768,-766.095498,8364.327145
16194.632628,-4219.173869,-2451.505594,8068.244768
16194.632952,-3997.112087,-995.924147,7698.141797
16194.633276,-2886.803174,-536.266849,7550.100608
16194.633601,-1850.514855,0.000000,6809.894666
16194.633925,-888.247130,1378.971896,5255.462188
16194.634249,518.144159,2987.772442,4663.297435
16194.634573,2220.617826,3907.087040,5551.544565
16194.634898,2960.823768,3217.601092,7179.997637
16194.635222,1776.494261,2604.724693,9474.636058
16194.635546,-370.102971,842.705048,11029.068536
16194.635871,-1628.453072,-995.924147,12879.583391
16194.636195,-2516.700203,-2604.724693,14137.933492
16194.636519,-3552.988522,-3294.210641,14508.036463
16194.636843,-2220.617826,-2911.162892,13915.871710
16194.637167,-592.164754,-919.314598,13471.748144
16194.637491,1184.329507,0.000000,12361.439231
16194.637815,3552.988522,2221.676944,10140.821405
16194.638140,5477.523971,4136.915689,8364.327145
16194.638464,6217.729913,4903.011187,6809.894666
16194.638788,6291.750507,4903.011187,6809.894666
16194.639112,4885.359217,4673.182538,7402.059420
16194.639436,1406.391290,2604.724693,8660.409521
16194.639760,-1332.370696,459.657299,8660.409521
16194.640084,-2812.782580,-1838.629195,8808.450710
16194.640408,-5329.482782,-2604.724693,9030.512492
16194.640732,-5921.647536,-2221.676944,8290.306550
16194.641057,-4737.318029,-1685.410096,7772.162391
16194.641381,-2960.823768,76.609550,6439.791695
16194.641705,-1332.370696,459.657299,5477.523971
16194.642029,148.041188,2451.505594,4737.318029
16194.642353,1110.308913,2681.334243,5699.585753
16194.642677,1406.391290,2757.943793,7105.977043
16194.643001,1258.350101,2145.067394,8882.471304
16194.643325,-148.041188,612.876398,11325.150913
16194.643650,-3108.864956,-1532.190996,12361.439231
16194.643974,-3701.029710,-3524.039291,14211.954086
16194.644298,-3552.988522,-4060.306139,14359.995275
16194.644622,-3108.864956,-3524.039291,14582.057057
16194.644946,-1924.535449,-2834.553343,14063.912898
16194.645270,592.164754,-689.485948,12065.356855
16194.645594,3552.988522,1225.752797,10066.800811
16194.645918,5699.585753,3140.991542,8882.471304
16194.646242,6957.935855,4903.011187,7846.182985
16194.646567,6883.915261,5286.058936,6587.832884
16194.646891,5995.668130,3753.867940,7031.956449
16194.647215,4145.153275,3140.991542,8364.327145
16194.647539,222.061783,1149.143247,9252.574275
16194.647863,-2960.823768,-1072.533697,9030.512492
16194.648187,-3627.009116,-1991.848295,9104.533087
16194.648511,-3627.009116,-1991.848295,9104.533087
16194.648835,-3627.009116,-1838.629195,8956.491898
16194.649160,-2886.803174,-842.705048,6735.874072
16194.649484,-1332.370696,459.657299,5255.462188
16194.649808,222.061783,2451.505594,4885.359217
16194.650132,1480.411884,3600.648841,5477.523971
16194.650456,1406.391290,3370.820191,6143.709319
16194.650780,962.267725,1608.800546,7920.203579
16194.651104,222.061783,1838.629195,10807.006753
16194.651428,-2738.761985,-536.266849,12657.521608
16194.651752,-4811.338623,-3294.210641,13249.686362
16194.652077,-4737.318029,-3600.648841,13767.830521
16194.652401,-2960.823768,-2604.724693,13989.892304
16194.652725,-2220.617826,-2145.067394,13989.892304
16194.653049,148.041188,-306.438199,12583.501014
16194.653373,2738.761985,1608.800546,9770.718434
16194.653697,4663.297435,3753.867940,8216.285956
16194.654021,6513.812290,4903.011187,7846.182985
16194.654345,6365.771101,5439.278036,7550.100608
16194.654670,5329.482782,5209.449386,7550.100608
16194.654994,3404.947333,4060.306139,8808.450710
16194.655318,444.123565,2068.457845,9030.512492
16194.655642,-3256.906145,-306.438199,8882.471304
16194.655966,-4737.318029,-1225.752797,9474.636058
16194.656290,-3923.091493,-1302.362347,8956.491898
16194.656614,-3997.112087,-995.924147,8586.388927
16194.656938,-4293.194464,-536.266849,7105.977043
16194.657262,-2738.761985,919.314598,5181.441594
16194.657587,-296.082377,2528.115143,3997.112087
16194.657911,1332.370696,2911.162892,5033.400406
16194.658235,1110.308913,3370.820191,6365.771101
16194.658559,444.123565,2374.896044,8142.265362
16194.658883,-518.144159,1072.533697,10362.883188
16194.659207,-1258.350101,-766.095498,12361.439231
16194.659531,-3404.947333,-2451.505594,13397.727550
16194.659855,-3923.091493,-3447.429741,13767.830521
16194.660180,-2590.720797,-2987.772442,13915.871710
16194.660504,-814.226536,-2911.162892,13841.851115
16194.660828,962.267725,-1072.533697,11917.315666
16194.661152,3256.906145,842.705048,10288.862594
16194.661476,5477.523971,2834.553343,8660.409521
16194.661800,6883.915261,4136.915689,7772.162391
16194.662124,7105.977043,4903.011187,7698.141797
16194.662448,5995.668130,5056.230287,8364.327145
16194.662772,3997.112087,2911.162892,8956.491898
16194.663097,1184.329507,1838.629195,9104.533087
16194.663421,-888.247130,-612.876398,9252.574275
16194.663745,-3923.091493,-2221.676944,9400.615463
16194.664069,-4737.318029,-1991.848295,9252.574275
16194.664393,-3627.009116,-1302.362347,8808.450710
16194.664717,-2960.823768,-842.705048,7402.059420
16194.665041,-2368.659014,459.657299,4959.379811
16194.665365,-1776.494261,1608.800546,4663.297435
16194.665690,148.041188,2451.505594,4515.256246
16194.666014,222.061783,2681.334243,6365.771101
16194.666338,0.000000,1838.629195,8068.244768
16194.666662,-1184.329507,919.314598,9844.739029
16194.666986,-2072.576638,-995.924147,11843.295072
16194.667310,-2960.823768,-2987.772442,13249.686362
16194.667634,-3552.988522,-2681.334243,13841.851115
16194.667958,-2812.782580,-2987.772442,14211.954086
16194.668282,-592.164754,-1838.629195,14285.974681
16194.668607,1998.556043,-536.266849,12435.459826
16194.668931,3034.844362,995.924147,10584.944971
16194.669255,5033.400406,3370.820191,8882.471304
16194.669579,7179.997637,5745.716235,7698.141797
16194.669903,6957.935855,4979.620737,7920.203579
16194.670227,5551.544565,4136.915689,7772.162391
16194.670551,3478.967927,3753.867940,8882.471304
16194.670875,370.102971,1838.629195,8956.491898
16194.671200,-2146.597232,-689.485948,9178.553681
16194.671524,-3404.947333,-2068.457845,9326.594869
16194.671848,-4589.276840,-1532.190996,8586.388927
16194.672172,-4663.297435,-1225.752797,8364.327145
16194.672496,-3404.947333,-459.657299,7105.977043
16194.672820,-1850.514855,689.485948,5551.544565
16194.673144,-1184.329507,1915.238745,4071.132681
16194.673468,0.000000,2987.772442,3997.112087
16194.673792,1036.288319,2834.553343,5477.523971
16194.674117,518.144159,1532.190996,7920.203579
16194.674441,-296.082377,1225.752797,10066.800811
16194.674765,-2368.659014,-766.095498,12435.459826
16194.675089,-3627.009116,-3447.429741,13101.645173
16194.675413,-2664.741391,-3294.210641,14508.036463
16194.675737,-1628.453072,-2987.772442,14952.160028
16194.676061,-814.226536,-2374.896044,13989.892304
16194.676385,1406.391290,-919.314598,12583.501014
16194.676710,4959.379811,766.095498,10584.944971
16194.677034,5921.647536,2987.772442,9104.533087
16194.677358,6661.853478,3907.087040,7624.121203
16194.677682,6587.832884,4519.963438,7254.018232
16194.678006,5625.565159,4213.525239,7476.080014
16194.678330,3552.988522,3140.991542,9030.512492
16194.678654,296.082377,995.924147,9326.594869
16194.678978,-2738.761985,-459.657299,9104.533087
16194.679302,-4145.153275,-1762.019645,9104.533087
16194.679627,-3478.967927,-2145.067394,9474.636058
16194.679951,-4145.153275,-1608.800546,8660.409521
16194.680275,-3849.070898,-689.485948,6957.935855
16194.680599,-1776.494261,995.924147,5477.523971
16194.680923,0.000000,1762.019645,4367.215058
16194.681247,222.061783,2451.505594,4737.318029
16194.681571,296.082377,2145.067394,5551.544565
16194.681895,0.000000,2068.457845,7179.997637
16194.682220,-962.267725,536.266849,10214.842000
16194.682544,-2516.700203,-1302.362347,12287.418637
16194.682868,-4145.153275,-2987.772442,13545.768739
16194.683192,-3552.988522,-2911.162892,13101.645173
16194.683516,-1554.432478,-3677.258390,13915.871710
16194.683840,0.000000,-2374.896044,14211.954086
16194.684164,1628.453072,-995.924147,12583.501014
16194.684488,3775.050304,995.924147,10732.986159
16194.684812,6069.688724,2757.943793,8808.450710
16194.685137,6809.894666,4826.401637,7698.141797
16194.685461,6143.709319,4366.744339,7179.997637
16194.685785,5107.421000,4826.401637,7179.997637
16194.686109,2886.803174,2604.724693,9104.533087
16194.686433,-592.164754,689.485948,9844.739029
16194.686757,-3552.988522,-1762.019645,9104.533087
16194.687081,-5255.462188,-2451.505594,9252.574275
16194.687405,-5255.462188,-2298.286494,8956.491898
16194.687730,-4663.297435,-1302.362347,8956.491898
16194.688054,-3478.967927,-1378.971896,7402.059420
16194.688378,-2368.659014,459.657299,5773.606348
16194.688702,-592.164754,1762.019645,4737.318029
16194.689026,1998.556043,2681.334243,4811.338623
16194.689350,1776.494261,2528.115143,5921.647536
16194.689674,740.205942,2528.115143,7179.997637
16194.689998,148.041188,1608.800546,9844.739029
16194.690322,-1184.329507,-383.047749,11991.336260
16194.690647,-2072.576638,-2528.115143,12731.542202
16194.690971,-3404.947333,-3294.210641,13767.830521
16194.691295,-2664.741391,-2911.162892,13471.748144
16194.691619,0.000000,-2221.676944,14137.933492
16194.691943,1850.514855,-919.314598,13027.624579
16194.692267,2960.823768,919.314598,10584.944971
16194.692591,5107.421000,2911.162892,8956.491898
16194.692915,6883.915261,3983.696590,7254.018232
16194.693240,6809.894666,4443.353888,7550.100608
16194.693564,4737.318029,4290.134789,7550.100608
16194.693888,2960.823768,3600.648841,8068.244768
16194.694212,296.082377,1685.410096,9030.512492
16194.694536,-2590.720797,-612.876398,9326.594869
16194.694860,-4441.235652,-1991.848295,9104.533087
16194.695184,-5033.400406,-2374.896044,8956.491898
16194.695508,-4811.338623,-1685.410096,8512.368333
16194.695832,-3330.926739,-919.314598,8290.306550
16194.696157,-2220.617826,0.000000,7031.956449
16194.696481,-1184.329507,1455.581446,5477.523971
16194.696805,592.164754,2451.505594,5033.400406
16194.697129,2146.597232,3217.601092,6439.791695
16194.697453,740.205942,2068.457845,7920.203579
16194.697777,222.061783,1225.752797,9400.615463
16194.698101,-1184.329507,0.000000,11621.233289
16194.698425,-3256.906145,-2374.896044,12509.480420
16194.698750,-3775.050304,-3447.429741,13471.748144
16194.699074,-2516.700203,-2987.772442,14063.912898
16194.699398,-1110.308913,-3064.381992,13619.789333
16194.699722,1332.370696,-995.924147,12583.501014
16194.700046,3108.864956,612.876398,11399.171507
16194.700370,4219.173869,2374.896044,9030.512492
16194.700694,5921.647536,3983.696590,8068.244768
16194.701018,6957.935855,4673.182538,7698.141797
16194.701342,5847.626942,4749.792088,7550.100608
16194.701667,2960.823768,3217.601092,8216.285956
16194.701991,-148.041188,1149.143247,8734.430116
16194.702315,-2886.803174,-766.095498,8660.409521
16194.702639,-5033.400406,-2374.896044,9326.594869
16194.702963,-5403.503377,-2374.896044,9474.636058
16194.703287,-5329.482782,-1838.629195,8882.471304
16194.703611,-4367.215058,-1838.629195,7846.182985
16194.703935,-1554.432478,306.438199,6661.853478
16194.704260,0.000000,1762.019645,5773.606348
16194.704584,518.144159,2374.896044,5255.462188
16194.704908,1628.453072,2757.943793,6143.709319
16194.705232,2072.576638,2298.286494,7772.162391
16194.705556,518.144159,1302.362347,10066.800811
16194.705880,-962.267725,-153.219100,12361.439231
16194.706204,-2368.659014,-1915.238745,12731.542202
16194.706528,-2812.782580,-3140.991542,13397.727550
16194.706852,-2146.597232,-2757.943793,14063.912898
16194.707177,-962.267725,-2451.505594,14063.912898
16194.707501,592.164754,-1149.143247,12731.542202
16194.707825,2886.803174,536.266849,10584.944971
16194.708149,5107.421000,2757.943793,9030.512492
16194.708473,5625.565159,3753.867940,7624.121203
16194.708797,5625.565159,4979.620737,7105.977043
16194.709121,5477.523971,4903.011187,6513.812290
16194.709445,3108.864956,3830.477490,7846.182985
16194.709770,-592.164754,1455.581446,8882.471304
16194.710094,-3256.906145,-459.657299,8512.368333
16194.710418,-4589.276840,-1838.629195,9030.512492
16194.710742,-5403.503377,-2145.067394,9252.574275
16194.711066,-4737.318029,-1302.362347,9474.636058
16194.711390,-3552.988522,-689.485948,8586.388927
16194.711714,-1776.494261,612.876398,6587.832884
16194.712038,666.185348,2451.505594,5995.668130
16194.712363,1924.535449,3524.039291,5995.668130
16194.712687,2072.576638,3600.648841,5995.668130
16194.713011,1924.535449,3140.991542,6957.935855
16194.713335,1332.370696,2681.334243,8808.450710
16194.713659,-962.267725,1072.533697,11251.130318
16194.713983,-2812.782580,-1532.190996,12435.459826
16194.714307,-4071.132681,-2681.334243,13101.645173
16194.714631,-4145.153275,-3370.820191,13841.851115
16194.714955,-2368.659014,-2221.676944,13323.706956
16194.715280,-222.061783,-766.095498,12583.501014
16194.715604,1702.473667,229.828649,10510.924376
16194.715928,4441.235652,2604.724693,8882.471304
16194.716252,6587.832884,4366.744339,7328.038826
16194.716576,6291.750507,4979.620737,7031.956449
16194.716900,5329.482782,4826.401637,7254.018232
16194.717224,4589.276840,4290.134789,7846.182985
16194.717548,2072.576638,2374.896044,9400.615463
16194.717873,-1776.494261,-306.438199,8956.491898
16194.718197,-4589.276840,-1838.629195,8660.409521
16194.718521,-5329.482782,-2298.286494,9030.512492
16194.718845,-4811.338623,-2221.676944,9474.636058
16194.719169,-4071.132681,-1608.800546,8734.430116
16194.719493,-2442.679609,-383.047749,7105.977043
16194.719817,-444.123565,1149.143247,5107.421000
16194.720141,1628.453072,3447.429741,4737.318029
16194.720465,2072.576638,2911.162892,6069.688724
16194.720790,1554.432478,2374.896044,7105.977043
16194.721114,1406.391290,1991.848295,8956.491898
16194.721438,814.226536,229.828649,11621.233289
16194.721762,-2368.659014,-1915.238745,12953.603985
16194.722086,-3997.112087,-3600.648841,13545.768739
16194.722410,-3552.988522,-3907.087040,13619.789333
16194.722734,-1850.514855,-3600.648841,13915.871710
16194.723058,518.144159,-1991.848295,13693.809927
16194.723383,2146.597232,-229.828649,11917.315666
16194.723707,3997.112087,1762.019645,9696.697840
16194.724031,5847.626942,3600.648841,8512.368333
16194.724355,7254.018232,4596.572988,7179.997637
16194.724679,6143.709319,4673.182538,7105.977043
16194.725003,4145.153275,4673.182538,7402.059420
16194.725327,1924.535449,2987.772442,8660.409521
16194.725651,-1332.370696,0.000000,9548.656652
16194.725975,-4515.256246,-1915.238745,9252.574275
16194.726300,-5921.647536,-2374.896044,9400.615463
16194.726624,-5995.668130,-1991.848295,8290.306550
16194.726948,-5033.400406,-1149.143247,8216.285956
16194.727272,-3034.844362,153.219100,7031.956449
16194.727596,-2664.741391,1302.362347,5255.462188
16194.727920,222.061783,2528.115143,3923.091493
16194.728244,1998.556043,3524.039291,4737.318029
16194.728568,1628.453072,3140.991542,6883.915261
16194.728893,814.226536,2221.676944,9030.512492
16194.729217,-296.082377,995.924147,11621.233289
16194.729541,-1406.391290,-919.314598,12361.439231
16194.729865,-3404.947333,-3064.381992,12953.603985
16194.730189,-3701.029710,-3294.210641,13397.727550
16194.730513,-1998.556043,-2451.505594,13545.768739
16194.730837,-148.041188,-1762.019645,13915.871710
16194.731161,1554.432478,-153.219100,11991.336260
16194.731485,4145.153275,1915.238745,9844.739029
16194.731810,5773.606348,4596.572988,8068.244768
16194.732134,7328.038826,5592.497135,7772.162391
16194.732458,7328.038826,5822.325785,7698.141797
16194.732782,4885.359217,4826.401637,8216.285956
16194.733106,1702.473667,3064.381992,8882.471304
16194.733430,-370.102971,1149.143247,9104.533087
16194.733754,-2886.803174,-919.314598,8438.347739
16194.734078,-4811.338623,-1991.848295,8956.491898
16194.734403,-5255.462188,-1225.752797,8808.450710
16194.734727,-4071.132681,-383.047749,8438.347739
16194.735051,-2812.782580,0.000000,7105.977043
16194.735375,-1554.432478,1072.533697,5551.544565
16194.735699,222.061783,2757.943793,4737.318029
16194.736023,1924.535449,3370.820191,4811.338623
16194.736347,2738.761985,2911.162892,6661.853478
16194.736671,2146.597232,2374.896044,8512.368333
16194.736995,-962.267725,1225.752797,10362.883188
16194.737319,-2368.659014,-1302.362347,12065.356855
16194.737643,-2738.761985,-3370.820191,13619.789333
16194.737967,-3256.906145,-4060.306139,14137.933492
16194.738291,-2368.659014,-3677.258390,13841.851115
16194.738615,-148.041188,-2451.505594,13397.727550
16194.738939,1702.473667,-842.705048,12213.398043
16194.739263,3849.070898,1072.533697,10140.821405
16194.739586,5329.482782,2911.162892,8512.368333
16194.739910,6587.832884,4213.525239,7920.203579
16194.740234,6735.874072,4290.134789,7624.121203
16194.740558,5107.421000,3983.696590,8586.388927
16194.740882,1850.514855,2451.505594,9474.636058
16194.741206,-1850.514855,229.828649,9252.574275
16194.741530,-4071.132681,-1838.629195,9252.574275
16194.741854,-5255.462188,-3447.429741,9696.697840
16194.742178,-5107.421000,-2451.505594,9252.574275
16194.742502,-4737.318029,-1532.190996,8216.285956
16194.742826,-3775.050304,-689.485948,6587.832884
16194.743149,-1850.514855,842.705048,5033.400406
16194.743473,518.144159,2451.505594,4441.235652
16194.743797,1554.432478,2757.943793,4811.338623
16194.744121,1998.556043,3294.210641,6217.729913
16194.744445,2368.659014,2681.334243,8216.285956
16194.744769,740.205942,1302.362347,11029.068536
16194.745093,-2294.638420,-1149.143247,12139.377449
16194.745417,-3108.864956,-2987.772442,12879.583391
16194.745741,-2886.803174,-3217.601092,12805.562797
16194.746065,-1258.350101,-3830.477490,13545.768739
16194.746389,-592.164754,-2451.505594,13693.809927
16194.746712,370.102971,-1149.143247,11621.233289
16194.747036,2960.823768,842.705048,10140.821405
16194.747360,4885.359217,2757.943793,9622.677246
16194.747684,6365.771101,4060.306139,8512.368333
16194.748008,5403.503377,5132.839837,7920.203579
16194.748332,5033.400406,4903.011187,7846.182985
16194.748656,2812.782580,3677.258390,9400.615463
16194.748980,-962.267725,842.705048,9696.697840
16194.749304,-3701.029710,-995.924147,9030.512492
16194.749628,-4663.297435,-1608.800546,9178.553681
16194.749951,-4515.256246,-1915.238745,9030.512492
16194.750275,-4219.173869,-689.485948,9030.512492
16194.750599,-3627.009116,-383.047749,6735.874072
16194.750923,-1332.370696,1072.533697,5107.421000
16194.751247,518.144159,2528.115143,4219.173869
16194.751571,1924.535449,3753.867940,4737.318029
16194.751895,1702.473667,3140.991542,5995.668130
16194.752219,1110.308913,2604.724693,7550.100608
16194.752543,814.226536,1608.800546,10066.800811
16194.752867,-888.247130,-536.266849,12139.377449
16194.753191,-3552.988522,-2911.162892,13471.748144
16194.753514,-3256.906145,-3524.039291,13397.727550
16194.753838,-1850.514855,-3064.381992,13767.830521
16194.754162,-370.102971,-2374.896044,14137.933492
16194.754486,444.123565,-1225.752797,12361.439231
16194.754810,2294.638420,612.876398,9474.636058
16194.755134,4071.132681,2604.724693,8216.285956
16194.755458,5699.585753,3677.258390,7994.224174
16194.755782,5625.565159,4519.963438,7920.203579
16194.756106,3997.112087,3294.210641,8290.306550
16194.756430,1850.514855,2374.896044,9030.512492
16194.756754,-666.185348,536.266849,9992.780217
16194.757077,-4589.276840,-1532.190996,9622.677246
16194.757401,-5477.523971,-2757.943793,9326.594869
16194.757725,-4515.256246,-2221.676944,8882.471304
16194.758049,-3701.029710,-1455.581446,9178.553681
16194.758373,-3478.967927,-1608.800546,7698.141797
16194.758697,-1850.514855,0.000000,5847.626942
16194.759021,148.041188,1685.410096,4737.318029
16194.759345,1332.370696,2374.896044,5329.482782
16194.759669,1850.514855,2451.505594,6513.812290
16194.759993,1628.453072,1762.019645,8290.306550
16194.760316,222.061783,689.485948,10140.821405
16194.760640,-1332.370696,-689.485948,11843.295072
16194.760964,-2368.659014,-3294.210641,13767.830521
16194.761288,-2886.803174,-3677.258390,13545.768739
16194.761612,-1850.514855,-2834.553343,13619.789333
16194.761936,148.041188,-1915.238745,13545.768739
16194.762260,2294.638420,-612.876398,11917.315666
16194.762584,2590.720797,842.705048,9326.594869
16194.762908,4663.297435,3524.039291,7698.141797
16194.763232,6513.812290,4443.353888,7402.059420
16194.763556,6069.688724,4596.572988,7920.203579
16194.763879,4515.256246,3753.867940,9104.533087
16194.764203,1480.411884,2528.115143,8882.471304
16194.764527,-1184.329507,842.705048,9474.636058
16194.764851,-2812.782580,-1072.533697,9030.512492
16194.765175,-3997.112087,-1302.362347,9400.615463
16194.765499,-4811.338623,-1455.581446,9252.574275
16194.765823,-3701.029710,-919.314598,8956.491898
16194.766147,-1776.494261,-306.438199,7624.121203
16194.766471,-962.267725,1455.581446,6143.709319
16194.766795,-296.082377,2911.162892,4737.318029
16194.767119,1110.308913,3600.648841,5033.400406
16194.767442,1776.494261,3447.429741,6439.791695
16194.767766,1554.432478,2451.505594,8142.265362
16194.768090,-370.102971,1302.362347,9918.759623
16194.768414,-2590.720797,-459.657299,11177.109724
16194.768738,-3034.844362,-2221.676944,12879.583391
16194.769062,-2886.803174,-2451.505594,13767.830521
16194.769386,-2294.638420,-2221.676944,13545.768739
16194.769710,-740.205942,-1762.019645,12805.562797
16194.770034,1184.329507,76.609550,11177.109724
16194.770358,3552.988522,1762.019645,9696.697840
16194.770681,4737.318029,3217.601092,8660.409521
16194.771005,5995.668130,4826.401637,7402.059420
16194.771329,5921.647536,5132.839837,7402.059420
16194.771653,4811.338623,4979.620737,7550.100608
16194.771977,2664.741391,4060.306139,9400.615463
16194.772301,-1480.411884,1072.533697,9918.759623
16194.772625,-3256.906145,-1378.971896,8734.430116
16194.772949,-4145.153275,-1608.800546,9474.636058
16194.773273,-4737.318029,-2298.286494,9844.739029
16194.773597,-5107.421000,-2068.457845,8808.450710
16194.773921,-3701.029710,-1455.581446,8216.285956
16194.774244,-1480.411884,0.000000,6217.729913
16194.774568,0.000000,1455.581446,6143.709319
16194.774892,1480.411884,2451.505594,4959.379811
16194.775216,1998.556043,2451.505594,5847.626942
16194.775540,1332.370696,1838.629195,7994.224174
16194.775864,74.020594,1072.533697,10140.821405
16194.776188,-1406.391290,-842.705048,11695.253884
16194.776512,-2664.741391,-3217.601092,12731.542202
16194.776836,-2960.823768,-3217.601092,13471.748144
16194.777160,-1258.350101,-2834.553343,14285.974681
16194.777484,-1110.308913,-2681.334243,14359.995275
16194.777807,0.000000,-1378.971896,11991.336260
16194.778131,3108.864956,1149.143247,9770.718434
16194.778455,5255.462188,2451.505594,8290.306550
16194.778779,5773.606348,3907.087040,7179.997637
16194.779103,6069.688724,4213.525239,7698.141797
16194.779427,5033.400406,4443.353888,7476.080014
16194.779751,2886.803174,2987.772442,8882.471304
16194.780075,74.020594,1378.971896,9918.759623
16194.780399,-3108.864956,-612.876398,9622.677246
16194.780723,-4737.318029,-2298.286494,9104.533087
16194.781046,-3701.029710,-2068.457845,9548.656652
16194.781370,-3775.050304,-1149.143247,9030.512492
16194.781694,-4145.153275,-689.485948,7179.997637
16194.782018,-2516.700203,306.438199,5477.523971
16194.782342,74.020594,1991.848295,4737.318029
16194.782666,370.102971,2757.943793,5181.441594
16194.782990,888.247130,2757.943793,5773.606348
16194.783314,370.102971,2604.724693,6587.832884
16194.783638,0.000000,1072.533697,9326.594869
16194.783962,-1406.391290,-383.047749,12065.356855
16194.784286,-2516.700203,-2451.505594,13101.645173
16194.784609,-3256.906145,-2451.505594,13545.768739
16194.784933,-1702.473667,-1838.629195,14211.954086
16194.785257,518.144159,-1608.800546,14063.912898
16194.785581,2146.597232,-766.095498,12953.603985
16194.785905,3182.885551,1378.971896,10584.944971
16194.786229,5329.482782,3524.039291,9178.553681
16194.786553,6365.771101,4136.915689,8290.306550
16194.786877,5773.606348,4366.744339,7846.182985
16194.787201,4293.194464,4366.744339,7624.121203
16194.787525,1850.514855,3753.867940,8438.347739
16194.787848,-1184.329507,689.485948,8808.450710
16194.788172,-3108.864956,-766.095498,9400.615463
16194.788496,-4959.379811,-1532.190996,9178.553681
16194.788820,-5107.421000,-1455.581446,8882.471304
16194.789144,-3256.906145,-919.314598,8068.244768
16194.789468,-2368.659014,-153.219100,7105.977043
16194.789792,-1924.535449,1378.971896,6291.750507
16194.790116,444.123565,2298.286494,4811.338623
16194.790440,2368.659014,3600.648841,5107.421000
16194.790764,2368.659014,2987.772442,6143.709319
16194.791088,962.267725,2528.115143,7550.100608
16194.791411,0.000000,1225.752797,9400.615463
16194.791735,-1184.329507,-689.485948,11695.253884
16194.792059,-2442.679609,-2221.676944,13545.768739
16194.792383,-3478.967927,-2911.162892,13989.892304
16194.792707,-2664.741391,-2911.162892,13915.871710
16194.793031,-444.123565,-1532.190996,13545.768739
16194.793355,1850.514855,-536.266849,12731.542202
16194.793679,2368.659014,689.485948,10807.006753
16194.794003,4071.132681,2298.286494,8660.409521
16194.794327,6143.709319,4060.306139,7772.162391
16194.794651,6291.750507,4519.963438,8068.244768
16194.794974,4293.194464,2911.162892,7698.141797
16194.795298,1998.556043,2911.162892,8290.306550
16194.795622,-592.164754,1072.533697,9548.656652
16194.795946,-2812.782580,-1302.362347,9548.656652
16194.796270,-4737.318029,-2757.943793,9770.718434
16194.796594,-5033.400406,-2451.505594,9474.636058
16194.796918,-3923.091493,-1762.019645,8882.471304
16194.797242,-2442.679609,-995.924147,7920.203579
16194.797566,-518.144159,229.828649,6587.832884
16194.797890,-148.041188,1685.410096,5477.523971
16194.798213,1184.329507,2757.943793,4737.318029
16194.798537,2072.576638,2604.724693,6069.688724
16194.798861,1110.308913,1685.410096,7476.080014
16194.799185,74.020594,459.657299,9326.594869
16194.799509,-2294.638420,-1149.143247,11029.068536
16194.799833,-3256.906145,-3064.381992,12583.501014
16194.800157,-3478.967927,-3677.258390,13915.871710
16194.800481,-2812.782580,-3370.820191,13989.892304
16194.800805,-1776.494261,-2374.896044,13841.851115
16194.801129,814.226536,-842.705048,12361.439231
16194.801453,3330.926739,1455.581446,10807.006753
16194.801776,4885.359217,2528.115143,8808.450710
16194.802100,6217.729913,4673.182538,8290.306550
16194.802424,6217.729913,5439.278036,7920.203579
16194.802748,5921.647536,4519.963438,7994.224174
16194.803072,2960.823768,2987.772442,8660.409521
16194.803396,222.061783,1838.629195,9400.615463
16194.803720,-2812.782580,0.000000,9992.780217
16194.804044,-5033.400406,-2451.505594,9030.512492
16194.804368,-4959.379811,-2451.505594,9326.594869
16194.804692,-4737.318029,-1072.533697,8956.491898
16194.805016,-3701.029710,-459.657299,7476.080014
16194.805339,-1332.370696,919.314598,6291.750507
16194.805663,740.205942,1991.848295,5329.482782
16194.805987,444.123565,3677.258390,4885.359217
16194.806311,1036.288319,2987.772442,5403.503377
16194.806635,1628.453072,2681.334243,7031.956449
16194.806959,444.123565,1762.019645,9474.636058
16194.807283,-1628.453072,76.609550,11547.212695
16194.807607,-3330.926739,-2068.457845,12509.480420
16194.807931,-3478.967927,-3294.210641,13323.706956
16194.808255,-2664.741391,-3447.429741,14211.954086
16194.808578,-592.164754,-1608.800546,14211.954086
16194.808902,814.226536,-459.657299,12805.562797
16194.809226,3552.988522,383.047749,10214.842000
16194.809550,6513.812290,3217.601092,9622.677246
16194.809874,6957.935855,4366.744339,9104.533087
16194.810198,6513.812290,4903.011187,8216.285956
16194.810522,6143.709319,4519.963438,8142.265362
16194.810846,4515.256246,3064.381992,8438.347739
16194.811170,962.267725,2068.457845,9104.533087
16194.811494,-2812.782580,0.000000,9474.636058
16194.811818,-4737.318029,-2068.457845,8956.491898
16194.812141,-5329.482782,-2528.115143,8808.450710
16194.812465,-4959.379811,-2374.896044,8882.471304
16194.812789,-4589.276840,-1072.533697,7550.100608
16194.813113,-3478.967927,-229.828649,5625.565159
16194.813437,-1258.350101,1685.410096,4441.235652
16194.813761,888.247130,2604.724693,5255.462188
16194.814085,814.226536,2298.286494,5773.606348
16194.814409,518.144159,1455.581446,6957.935855
16194.814733,148.041188,1302.362347,8956.491898
16194.815057,-1110.308913,0.000000,11399.171507
16194.815381,-3182.885551,-2451.505594,12583.501014
16194.815704,-3108.864956,-2834.553343,13027.624579
16194.816028,-2294.638420,-3217.601092,13471.748144
16194.816352,-444.123565,-2221.676944,13693.809927
16194.816676,1480.411884,-1072.533697,13915.871710
16194.817000,2738.761985,536.266849,11473.192101
16194.817324,5329.482782,2681.334243,9622.677246
16194.817648,7254.018232,4443.353888,8734.430116
16194.817972,7328.038826,5209.449386,8290.306550
16194.818296,5107.421000,4290.134789,7846.182985
16194.818620,3775.050304,3524.039291,8290.306550
16194.818943,1258.350101,1838.629195,9326.594869
16194.819267,-3034.844362,-919.314598,9548.656652
16194.819591,-6439.791695,-2451.505594,9104.533087
16194.819915,-6291.750507,-2451.505594,8586.388927
16194.820239,-5551.544565,-2451.505594,8068.244768
16194.820563,-5181.441594,-1455.581446,7402.059420
16194.820887,-3330.926739,0.000000,6365.771101
16194.821211,-1480.411884,1455.581446,4811.338623
16194.821535,592.164754,2451.505594,5181.441594
16194.821859,2072.576638,2604.724693,6217.729913
16194.822183,1184.329507,2451.505594,7550.100608
16194.822506,0.000000,1532.190996,8956.491898
16194.822830,0.000000,0.000000,11695.253884
16194.823154,-1554.432478,-1915.238745,13027.624579
16194.823478,-2812.782580,-3983.696590,13989.892304
16194.823802,-2886.803174,-3447.429741,13989.892304
16194.824126,0.000000,-1991.848295,13767.830521
16194.824450,1702.473667,-995.924147,13249.686362
16194.824774,2738.761985,766.095498,11473.192101
16194.825098,5033.400406,2757.943793,9696.697840
16194.825422,6513.812290,4596.572988,7328.038826
16194.825746,7994.224174,5439.278036,7624.121203
16194.826069,6069.688724,4979.620737,8142.265362
16194.826393,2886.803174,3753.867940,8142.265362
16194.826717,-222.061783,1838.629195,8882.471304
16194.827041,-2590.720797,-612.876398,9030.512492
16194.827365,-5477.523971,-2145.067394,8956.491898
16194.827689,-6365.771101,-2451.505594,8882.471304
16194.828013,-5625.565159,-2145.067394,7920.203579
16194.828337,-4441.235652,-1608.800546,7846.182985
16194.828661,-2442.679609,229.828649,6809.894666
16194.828985,-370.102971,1685.410096,5625.565159
16194.829308,1110.308913,2834.553343,4811.338623
16194.829632,2368.659014,3447.429741,5699.585753
16194.829956,2886.803174,2987.772442,7698.141797
16194.830280,1702.473667,2221.676944,9326.594869
16194.830604,-370.102971,459.657299,11399.171507
16194.830928,-2072.576638,-1302.362347,12509.480420
16194.831252,-2664.741391,-2834.553343,13619.789333
16194.831576,-3256.906145,-2911.162892,13989.892304
16194.831900,-1702.473667,-2451.505594,13545.768739
16194.832224,0.000000,-1455.581446,12361.439231
16194.832548,1924.535449,689.485948,10584.944971
16194.832871,3997.112087,2068.457845,9326.594869
16194.833195,5033.400406,4443.353888,7846.182985
16194.833519,6513.812290,4749.792088,7328.038826
16194.833843,6291.750507,5209.449386,8068.244768
16194.834167,4145.153275,4060.306139,8364.327145
16194.834491,74.020594,1532.190996,9178.553681
16194.834815,-2442.679609,-229.828649,9622.677246
16194.835139,-4737.318029,-2298.286494,9178.553681
16194.835463,-6217.729913,-2834.553343,9844.739029
16194.835787,-5699.585753,-2374.896044,8808.450710
16194.836110,-4441.235652,-1532.190996,7846.182985
16194.836434,-2664.741391,-842.705048,5773.606348
16194.836758,-370.102971,1149.143247,5403.503377
16194.837082,1850.514855,2681.334243,4959.379811
16194.837405,2368.659014,3140.991542,5403.503377
16194.837729,2442.679609,3140.991542,7031.956449
16194.838053,2368.659014,2451.505594,9326.594869
16194.838377,-222.061783,689.485948,11473.192101
16194.838700,-2146.597232,-1225.752797,12435.459826
16194.839024,-1998.556043,-2298.286494,13915.871710
16194.839348,-2442.679609,-3370.820191,13545.768739
16194.839672,-1480.411884,-2451.505594,13693.809927
16194.839996,0.000000,-995.924147,13323.706956
16194.840320,1850.514855,76.609550,10955.047942
16194.840644,3997.112087,1608.800546,9326.594869
16194.840968,6143.709319,3830.477490,8142.265362
16194.841292,6587.832884,5745.716235,7624.121203
16194.841616,4737.318029,4749.792088,6735.874072
16194.841940,4959.379811,4749.792088,7476.080014
16194.842264,1480.411884,2298.286494,8882.471304
16194.842588,-2812.782580,229.828649,9104.533087
16194.842912,-5255.462188,-2068.457845,8882.471304
16194.843236,-5107.421000,-2757.943793,8956.491898
16194.843560,-5699.585753,-2068.457845,8808.450710
16194.843884,-5403.503377,-1532.190996,8290.306550
16194.844207,-3997.112087,0.000000,6365.771101
16194.844531,-1332.370696,306.438199,6217.729913
16194.844855,444.123565,2298.286494,6069.688724
16194.845179,1998.556043,3370.820191,6587.832884
16194.845503,2072.576638,3140.991542,7402.059420
16194.845827,2368.659014,2757.943793,8660.409521
16194.846151,1258.350101,1838.629195,10732.986159
16194.846475,-1258.350101,-536.266849,11991.336260
16194.846799,-3108.864956,-2757.943793,12731.542202
16194.847123,-2516.700203,-2757.943793,13767.830521
16194.847447,-1628.453072,-2528.115143,13619.789333
16194.847771,-1480.411884,-2221.676944,12879.583391
16194.848095,0.000000,-995.924147,10881.027347
16194.848419,2072.576638,1378.971896,9178.553681
16194.848743,4219.173869,2987.772442,7920.203579
16194.849067,5329.482782,4290.134789,7846.182985
16194.849391,4441.235652,3983.696590,7328.038826
16194.849714,3256.906145,3217.601092,7179.997637
16194.850038,1628.453072,2298.286494,8882.471304
16194.850362,-592.164754,612.876398,9400.615463
16194.850686,-4367.215058,-2987.772442,9622.677246
16194.851010,-4811.338623,-2528.115143,8956.491898
16194.851334,-3552.988522,-2221.676944,9400.615463
16194.851658,-3552.988522,-2068.457845,8956.491898
16194.851982,-2664.741391,-919.314598,7624.121203
16194.852306,-1332.370696,536.266849,6365.771101
16194.852630,814.226536,1991.848295,5255.462188
16194.852954,2368.659014,2987.772442,6439.791695
16194.853278,2220.617826,2987.772442,7402.059420
16194.853602,1258.350101,2374.896044,9178.553681
16194.853926,962.267725,1455.581446,10510.924376
16194.854250,-148.041188,-459.657299,12509.480420
16194.854574,-2738.761985,-2221.676944,13027.624579
16194.854898,-3330.926739,-2834.553343,13101.645173
16194.855222,-1924.535449,-2298.286494,13027.624579
16194.855545,148.041188,-1302.362347,12435.459826
16194.855869,1184.329507,153.219100,11399.171507
16194.856193,2812.782580,1302.362347,9104.533087
16194.856517,4737.318029,3907.087040,7624.121203
16194.856841,6217.729913,4903.011187,7179.997637
16194.857165,5773.606348,4903.011187,7328.038826
16194.857489,4145.153275,4903.011187,7698.141797
16194.857813,1776.494261,3753.867940,8068.244768
16194.858137,-296.082377,1532.190996,9178.553681
16194.858461,-2516.700203,-1225.752797,9400.615463
16194.858785,-5477.523971,-1915.238745,9252.574275
16194.859109,-5107.421000,-1455.581446,8882.471304
16194.859433,-4071.132681,-1225.752797,8734.430116
16194.859757,-3108.864956,-1072.533697,7772.162391
16194.860081,-1702.473667,995.924147,5625.565159
16194.860405,222.061783,2528.115143,5181.441594
16194.860729,1258.350101,3064.381992,5329.482782
16194.861052,1480.411884,3140.991542,7402.059420
16194.861376,962.267725,2681.334243,8808.450710
16194.861700,-370.102971,1302.362347,11251.130318
16194.862024,-1184.329507,-689.485948,12139.377449
16194.862348,-2072.576638,-2221.676944,13175.665768
16194.862672,-2368.659014,-2681.334243,14285.974681
16194.862996,-2368.659014,-2068.457845,13841.851115
16194.863320,-148.041188,-1455.581446,13545.768739
16194.863644,2146.597232,-383.047749,11547.212695
16194.863968,3034.844362,1455.581446,9770.718434
16194.864292,4737.318029,3140.991542,7772.162391
16194.864616,6365.771101,3677.258390,6883.915261
16194.864940,6069.688724,3830.477490,7105.977043
16194.865264,3923.091493,3140.991542,7772.162391
16194.865588,1258.350101,2145.067394,8364.327145
16194.865912,-2220.617826,-229.828649,8808.450710
16194.866236,-3997.112087,-1915.238745,9030.512492
16194.866559,-4441.235652,-2681.334243,9992.780217
16194.866883,-5551.544565,-2528.115143,8956.491898
16194.867207,-4293.194464,-2451.505594,8142.265362
16194.867531,-2516.700203,-766.095498,7772.162391
16194.867855,-1332.370696,-306.438199,6365.771101
16194.868179,-296.082377,995.924147,6069.688724
16194.868503,1554.432478,2221.676944,6143.709319
16194.868827,2368.659014,2528.115143,7328.038826
16194.869151,2294.638420,1991.848295,9400.615463
16194.869475,888.247130,842.705048,11103.089130
16194.869799,-1554.432478,-1302.362347,12805.562797
16194.870123,-2516.700203,-2451.505594,12953.603985
16194.870447,-1998.556043,-2987.772442,14211.954086
16194.870771,-1258.350101,-2834.553343,13841.851115
16194.871095,-1184.329507,-2221.676944,13101.645173
16194.871419,222.061783,76.609550,10881.027347
16194.871743,3330.926739,1302.362347,9548.656652
16194.872066,4737.318029,3064.381992,8438.347739
16194.872390,4515.256246,4136.915689,6143.709319
16194.872714,4515.256246,4366.744339,6143.709319
16194.873038,3701.029710,4136.915689,6809.894666
16194.873362,1628.453072,2987.772442,8438.347739
16194.873686,-666.185348,995.924147,9400.615463
16194.874010,-3775.050304,-919.314598,7994.224174
16194.874334,-4441.235652,-1532.190996,8660.409521
16194.874658,-3849.070898,-995.924147,9252.574275
16194.874982,-3775.050304,-842.705048,9326.594869
16194.875306,-2738.761985,-612.876398,7994.224174
16194.875630,-740.205942,842.705048,6809.894666
16194.875954,962.267725,2604.724693,6217.729913
16194.876278,1554.432478,2681.334243,5921.647536
16194.876602,1554.432478,2374.896044,6809.894666
16194.876926,1480.411884,2987.772442,8734.430116
16194.877250,296.082377,1608.800546,10955.047942
16194.877573,-1332.370696,-612.876398,12583.501014
16194.877897,-2738.761985,-2068.457845,13323.706956
16194.878221,-2664.741391,-2298.286494,13175.665768
16194.878545,-1332.370696,-2451.505594,13767.830521
16194.878869,296.082377,-1608.800546,13841.851115
16194.879193,962.267725,-536.266849,11547.212695
16194.879517,2960.823768,1608.800546,9474.636058
16194.879841,5403.503377,3140.991542,8364.327145
16194.880165,5773.606348,4443.353888,7402.059420
16194.880489,5181.441594,4903.011187,7254.018232
16194.880813,3997.112087,4366.744339,6883.915261
16194.881137,1998.556043,3217.601092,7624.121203
16194.881461,-518.144159,1225.752797,8882.471304
16194.881785,-2960.823768,-766.095498,8290.306550
16194.882109,-4959.379811,-1991.848295,8512.368333
16194.882433,-4589.276840,-1225.752797,9178.553681
16194.882757,-2886.803174,-1225.752797,9030.512492
16194.883081,-3182.885551,-689.485948,7846.182985
16194.883404,-1924.535449,229.828649,6217.729913
16194.883728,370.102971,2145.067394,5847.626942
16194.884052,1702.473667,2068.457845,6513.812290
16194.884376,1480.411884,1762.019645,7402.059420
16194.884700,296.082377,1225.752797,8808.450710
16194.885024,0.000000,766.095498,10584.944971
16194.885348,-814.226536,-536.266849,12435.459826
16194.885672,-2072.576638,-2374.896044,13027.624579
16194.885996,-3330.926739,-3217.601092,13397.727550
16194.886320,-2146.597232,-2987.772442,13323.706956
16194.886644,0.000000,-2145.067394,12953.603985
16194.886968,1776.494261,-1072.533697,12435.459826
16194.887292,2220.617826,612.876398,10362.883188
16194.887616,4367.215058,2681.334243,8290.306550
16194.887940,6513.812290,3600.648841,7254.018232
16194.888264,5255.462188,4290.134789,7550.100608
16194.888588,3478.967927,3524.039291,7328.038826
16194.888911,1776.494261,2451.505594,8142.265362
16194.889235,-888.247130,689.485948,8956.491898
16194.889559,-3404.947333,-766.095498,9178.553681
16194.889883,-4293.194464,-1762.019645,9178.553681
16194.890207,-4219.173869,-1149.143247,8734.430116
16194.890531,-2368.659014,0.000000,7994.224174
16194.890855,-1702.473667,306.438199,7550.100608
16194.891179,-1332.370696,612.876398,6439.791695
16194.891503,-296.082377,1838.629195,5551.544565
16194.891827,1332.370696,2987.772442,5921.647536
16194.892151,1850.514855,2528.115143,7105.977043
16194.892475,296.082377,1838.629195,8364.327145
16194.892799,-370.102971,842.705048,10214.842000
16194.893123,-1924.535449,-383.047749,11917.315666
16194.893447,-3108.864956,-2451.505594,13175.665768
16194.893771,-3627.009116,-3140.991542,13101.645173
16194.894095,-2220.617826,-2374.896044,13545.768739
16194.894418,-740.205942,-1455.581446,12805.562797
16194.894742,2294.638420,0.000000,12361.439231
16194.895066,4219.173869,1608.800546,10362.883188
16194.895390,4589.276840,3600.648841,8364.327145
16194.895714,5551.544565,4290.134789,7920.203579
16194.896038,6069.688724,4366.744339,7698.141797
16194.896362,5255.462188,4136.915689,7031.956449
16194.896686,2590.720797,3447.429741,8216.285956
16194.897010,-962.267725,919.314598,8216.285956
16194.897334,-3478.967927,-1072.533697,8216.285956
16194.897658,-4737.318029,-1225.752797,8956.491898
16194.897982,-4811.338623,-1685.410096,9178.553681
16194.898306,-4885.359217,-1685.410096,8660.409521
16194.898630,-3256.906145,-995.924147,7402.059420
16194.898954,-1258.350101,995.924147,6735.874072
16194.899278,-666.185348,1072.533697,5995.668130
16194.899602,74.020594,2681.334243,5773.606348
16194.899925,1258.350101,2987.772442,6587.832884
16194.900249,1776.494261,1762.019645,8216.285956
16194.900573,74.020594,1072.533697,10288.862594
16194.900897,-1850.514855,-229.828649,11991.336260
16194.901221,-2812.782580,-2451.505594,13175.665768
16194.901545,-2220.617826,-3140.991542,13619.789333
16194.901869,-962.267725,-2757.943793,13693.809927
16194.902193,-222.061783,-1915.238745,13175.665768
16194.902517,1110.308913,-612.876398,11917.315666
16194.902841,3404.947333,1762.019645,10658.965565
16194.903165,5699.585753,2911.162892,9252.574275
16194.903489,5773.606348,3677.258390,7772.162391
16194.903813,6143.709319,4826.401637,7254.018232
16194.904137,5107.421000,5056.230287,7328.038826
16194.904461,2072.576638,2451.505594,7994.224174
16194.904785,-1258.350101,1302.362347,8734.430116
16194.905109,-4145.153275,-459.657299,8438.347739
16194.905432,-5107.421000,-1915.238745,7994.224174
16194.905756,-5551.544565,-2221.676944,8660.409521
16194.906080,-5255.462188,-1608.800546,8438.347739
16194.906404,-4515.256246,-612.876398,7846.182985
16194.906728,-2146.597232,306.438199,7031.956449
16194.907052,0.000000,1378.971896,5921.647536
16194.907376,1036.288319,2451.505594,6143.709319
16194.907700,1554.432478,2528.115143,6735.874072
16194.908024,1776.494261,1762.019645,8364.327145
16194.908348,1776.494261,995.924147,10955.047942
16194.908672,0.000000,-612.876398,12361.439231
16194.908996,-2294.638420,-2145.067394,12953.603985
16194.909320,-2294.638420,-3217.601092,13915.871710
16194.909644,-1924.535449,-3370.820191,13841.851115
16194.909968,-592.164754,-2068.457845,13767.830521
16194.910292,1554.432478,-689.485948,12509.480420
16194.910616,3256.906145,1072.533697,9918.759623
16194.910940,5625.565159,3600.648841,9178.553681
16194.911263,6957.935855,4749.792088,8068.244768
16194.911587,5921.647536,4213.525239,7698.141797
16194.911911,4515.256246,3830.477490,7402.059420
16194.912235,3256.906145,3370.820191,7994.224174
16194.912559,592.164754,1838.629195,9030.512492
16194.912883,-3256.906145,0.000000,9030.512492
16194.913207,-5255.462188,-1608.800546,8586.388927
16194.913531,-5181.441594,-1608.800546,8512.368333
16194.913855,-4367.215058,-995.924147,8882.471304
16194.914179,-3627.009116,-383.047749,7550.100608
16194.914503,-2442.679609,536.266849,6217.729913
16194.914827,0.000000,2374.896044,5403.503377
16194.915151,2220.617826,3140.991542,5921.647536
16194.915475,1776.494261,3370.820191,6661.853478
16194.915799,592.164754,1915.238745,7254.018232
16194.916123,296.082377,2374.896044,9474.636058
16194.916447,-518.144159,153.219100,12065.356855
16194.916770,-2960.823768,-2451.505594,13175.665768
16194.917094,-3923.091493,-3370.820191,13249.686362
16194.917418,-3627.009116,-2834.553343,13397.727550
16194.917742,-1776.494261,-2451.505594,13471.748144
16194.918066,0.000000,-1225.752797,12657.521608
16194.918390,2220.617826,0.000000,10807.006753
16194.918714,3849.070898,2834.553343,9104.533087
16194.919038,6291.750507,4213.525239,7846.182985
16194.919362,7402.059420,4596.572988,7698.141797
16194.919686,5255.462188,4290.134789,7772.162391
16194.920010,2590.720797,3677.258390,8290.306550
16194.920334,148.041188,2528.115143,9104.533087
16194.920658,-2442.679609,-153.219100,9400.615463
16194.920982,-5551.544565,-2298.286494,8808.450710
16194.921306,-5477.523971,-2451.505594,8808.450710
16194.921630,-4737.318029,-2145.067394,8216.285956
16194.921954,-3627.009116,-1225.752797,8068.244768
16194.922277,-2368.659014,229.828649,6883.915261
16194.922601,-666.185348,1302.362347,5255.462188
16194.922925,888.247130,2911.162892,4515.256246
16194.923249,3478.967927,2528.115143,6587.832884
16194.923573,2516.700203,2451.505594,8142.265362
16194.923897,1184.329507,1762.019645,9696.697840
16194.924221,296.082377,153.219100,11843.295072
16194.924545,-888.247130,-1915.238745,13397.727550
16194.924869,-2812.782580,-3524.039291,13545.768739
16194.925193,-2812.782580,-3677.258390,13323.706956
16194.925517,-1110.308913,-2528.115143,13175.665768
16194.925841,370.102971,-1608.800546,13101.645173
16194.926165,1924.535449,76.609550,11621.233289
16194.926489,4367.215058,2221.676944,9252.574275
16194.926813,5403.503377,3830.477490,7624.121203
16194.927137,6439.791695,4826.401637,6735.874072
16194.927461,6069.688724,5056.230287,7550.100608
16194.927784,3330.926739,3983.696590,8142.265362
16194.928108,-222.061783,1838.629195,8882.471304
16194.928432,-2442.679609,-383.047749,9030.512492
16194.928756,-4663.297435,-2221.676944,8882.471304
16194.929080,-6291.750507,-2528.115143,8586.388927
16194.929404,-5477.523971,-1532.190996,8956.491898
16194.929728,-4071.132681,-1685.410096,8216.285956
16194.930052,-1850.514855,0.000000,6957.935855
16194.930376,0.000000,1532.190996,6069.688724
16194.930700,740.205942,2987.772442,5255.462188
16194.931024,2294.638420,3294.210641,5921.647536
16194.931348,3108.864956,2528.115143,7476.080014
16194.931672,2516.700203,2451.505594,10288.862594
16194.931996,148.041188,1072.533697,11843.295072
16194.932320,-1998.556043,-1532.190996,12139.377449
16194.932644,-2738.761985,-3294.210641,13101.645173
16194.932968,-3182.885551,-3217.601092,13471.748144
16194.933291,-2368.659014,-2681.334243,13693.809927
16194.933615,-962.267725,-1991.848295,12287.418637
16194.933939,1776.494261,-766.095498,10436.903782
16194.934263,3330.926739,1838.629195,9030.512492
16194.934587,4959.379811,4213.525239,7920.203579
16194.934911,5921.647536,4749.792088,7179.997637
16194.935235,6883.915261,4979.620737,7476.080014
16194.935559,4959.379811,4826.401637,8216.285956
16194.935883,1332.370696,2681.334243,8808.450710
16194.936207,-1258.350101,766.095498,8882.471304
16194.936531,-3256.906145,-1378.971896,9400.615463
16194.936855,-4145.153275,-1762.019645,9696.697840
16194.937179,-4959.379811,-1455.581446,9326.594869
16194.937503,-4219.173869,-1532.190996,8142.265362
16194.937827,-2516.700203,76.609550,6439.791695
16194.938151,-370.102971,1378.971896,5847.626942
16194.938475,1332.370696,2451.505594,5403.503377
16194.938798,1406.391290,3524.039291,5995.668130
16194.939122,1776.494261,2451.505594,6735.874072
16194.939446,1998.556043,2451.505594,8660.409521
16194.939770,444.123565,842.705048,11547.212695
16194.940094,-2664.741391,-1455.581446,12657.521608
16194.940418,-3478.967927,-3140.991542,12879.583391
16194.940742,-2442.679609,-3983.696590,14137.933492
16194.941066,-1924.535449,-3447.429741,13397.727550
16194.941390,-1258.350101,-1991.848295,12805.562797
16194.941714,666.185348,-536.266849,11251.130318
16194.942038,3034.844362,1532.190996,9622.677246
16194.942362,5033.400406,2987.772442,9030.512492
16194.942686,6439.791695,4673.182538,8512.368333
16194.943010,5255.462188,4213.525239,7624.121203
16194.943333,3997.112087,4290.134789,7328.038826
16194.943657,2516.700203,2451.505594,8808.450710
16194.943981,-1850.514855,0.000000,8808.450710
16194.944305,-5403.503377,-1838.629195,8734.430116
16194.944629,-5921.647536,-2298.286494,8956.491898
16194.944953,-5625.565159,-2757.943793,9178.553681
16194.945277,-5255.462188,-2528.115143,8438.347739
16194.945601,-4071.132681,-1915.238745,7254.018232
16194.945925,-2368.659014,-383.047749,5477.523971
16194.946249,-962.267725,1302.362347,4811.338623
16194.946573,962.267725,2145.067394,5995.668130
16194.946897,1406.391290,2451.505594,7402.059420
16194.947221,1332.370696,2068.457845,8956.491898
16194.947544,1702.473667,1455.581446,11103.089130
16194.947868,148.041188,-995.924147,12879.583391
16194.948192,-1850.514855,-2911.162892,13841.851115
16194.948516,-1924.535449,-3140.991542,13989.892304
16194.948840,148.041188,-2451.505594,13545.768739
16194.949164,888.247130,-1762.019645,13101.645173
16194.949488,1406.391290,0.000000,11325.150913
16194.949812,4071.132681,2068.457845,9474.636058
16194.950136,6365.771101,3830.477490,7476.080014
16194.950460,6883.915261,4903.011187,8290.306550
16194.950784,5551.544565,4749.792088,7550.100608
16194.951108,3552.988522,4443.353888,7254.018232
16194.951432,2368.659014,3677.258390,8364.327145
16194.951756,-296.082377,1685.410096,9400.615463
16194.952079,-3849.070898,-1149.143247,9104.533087
16194.952403,-5477.523971,-1378.971896,7994.224174
16194.952727,-4663.297435,-459.657299,8290.306550
16194.953051,-4145.153275,-995.924147,8216.285956
16194.953375,-3701.029710,0.000000,7402.059420
16194.953699,-2294.638420,1072.533697,5921.647536
16194.954023,-370.102971,2298.286494,5033.400406
16194.954347,1036.288319,2834.553343,5625.565159
16194.954671,1480.411884,2987.772442,6883.915261
16194.954995,1332.370696,2681.334243,8734.430116
16194.955319,-148.041188,1302.362347,10732.986159
16194.955643,-518.144159,-536.266849,12509.480420
16194.955967,-1776.494261,-2451.505594,13545.768739
16194.956291,-2886.803174,-2834.553343,13989.892304
16194.956614,-1850.514855,-2221.676944,13767.830521
16194.956938,444.123565,-1225.752797,13397.727550
16194.957262,2516.700203,-612.876398,11251.130318
16194.957586,3404.947333,1608.800546,9178.553681
16194.957910,4515.256246,3830.477490,7846.182985
16194.958234,5921.647536,4596.572988,7476.080014
16194.958558,5403.503377,4366.744339,7846.182985
16194.958882,3923.091493,3677.258390,7846.182985
16194.959206,1332.370696,2298.286494,7920.203579
16194.959530,-1628.453072,459.657299,9104.533087
16194.959854,-3404.947333,-536.266849,10214.842000
16194.960178,-6217.729913,-3064.381992,9474.636058
16194.960502,-7105.977043,-3907.087040,8290.306550
16194.960826,-5847.626942,-2681.334243,7994.224174
16194.961149,-3849.070898,-1608.800546,7624.121203
16194.961473,-2368.659014,-689.485948,6809.894666
16194.961797,-962.267725,383.047749,6439.791695
16194.962121,74.020594,1378.971896,5699.585753
16194.962445,1702.473667,1455.581446,7105.977043
16194.962769,2368.659014,1455.581446,9178.553681
16194.963093,1258.350101,689.485948,11399.171507
16194.963417,-296.082377,-612.876398,13027.624579
16194.963741,74.020594,-2374.896044,13175.665768
16194.964065,0.000000,-2604.724693,14063.912898
16194.964389,444.123565,-1991.848295,14063.912898
16194.964713,1184.329507,-842.705048,13397.727550
16194.965037,3330.926739,0.000000,11843.295072
16194.965361,4737.318029,1455.581446,9844.739029
16194.965684,5477.523971,3907.087040,8216.285956
16194.966008,5329.482782,4903.011187,6513.812290
16194.966332,4737.318029,4596.572988,6735.874072
16194.966656,2960.823768,4213.525239,7254.018232
16194.966980,148.041188,3217.601092,8142.265362
16194.967304,-2738.761985,1072.533697,8438.347739
16194.967628,-4293.194464,-766.095498,8216.285956
16194.967952,-5107.421000,-995.924147,8882.471304
16194.968276,-5773.606348,-1225.752797,9252.574275
16194.968600,-5551.544565,-766.095498,8364.327145
16194.968924,-3404.947333,-536.266849,7624.121203
16194.969248,-1332.370696,766.095498,6069.688724
16194.969572,0.000000,1991.848295,5995.668130
16194.969895,1184.329507,2757.943793,6143.709319
16194.970219,1776.494261,2834.553343,7328.038826
16194.970543,1702.473667,2145.067394,8956.491898
16194.970867,740.205942,1915.238745,10807.006753
16194.971191,-962.267725,-153.219100,12509.480420
16194.971515,-2368.659014,-1915.238745,13619.789333
16194.971839,-1924.535449,-2298.286494,13989.892304
16194.972163,148.041188,-2145.067394,13619.789333
16194.972487,222.061783,-919.314598,12805.562797
16194.972811,1406.391290,153.219100,11103.089130
16194.973135,3478.967927,1685.410096,9326.594869
16194.973459,5477.523971,3217.601092,7772.162391
16194.973783,5847.626942,4443.353888,7698.141797
16194.974107,4663.297435,4213.525239,7031.956449
16194.974430,3330.926739,3830.477490,7031.956449
16194.974754,1998.556043,2681.334243,8142.265362
16194.975078,-814.226536,1072.533697,9474.636058
16194.975402,-4885.359217,-1455.581446,9030.512492
16194.975726,-5551.544565,-3064.381992,7698.141797
16194.976050,-4293.194464,-2221.676944,8364.327145
16194.976374,-3923.091493,-2068.457845,8734.430116
16194.976698,-3997.112087,-1532.190996,7476.080014
16194.977022,-1924.535449,-459.657299,6291.750507
16194.977346,296.082377,689.485948,5551.544565
16194.977670,740.205942,1072.533697,6513.812290
16194.977994,814.226536,536.266849,7624.121203
16194.978318,888.247130,536.266849,8956.491898
16194.978642,666.185348,0.000000,11473.192101
16194.978965,-592.164754,-1762.019645,13915.871710
16194.979289,-1554.432478,-3447.429741,14582.057057
16194.979613,-1850.514855,-3447.429741,14952.160028
16194.979937,-370.102971,-3140.991542,13619.789333
16194.980261,2516.700203,-1225.752797,13767.830521
16194.980585,3256.906145,76.609550,12805.562797
16194.980909,3775.050304,1991.848295,9918.759623
16194.981233,5329.482782,3370.820191,8438.347739
16194.981557,6143.709319,4673.182538,6957.935855
16194.981881,4885.359217,4596.572988,6883.915261
16194.982205,2960.823768,4596.572988,6513.812290
16194.982529,814.226536,4060.306139,7550.100608
16194.982853,-2368.659014,1455.581446,7550.100608
16194.983177,-4515.256246,-536.266849,7402.059420
16194.983500,-5847.626942,-919.314598,8216.285956
16194.983824,-5773.606348,-766.095498,6957.935855
16194.984148,-3552.988522,0.000000,7402.059420
16194.984472,-1924.535449,383.047749,7105.977043
16194.984796,-1850.514855,1915.238745,5921.647536
16194.985120,0.000000,2451.505594,5551.544565
16194.985444,1332.370696,3677.258390,5181.441594
16194.985768,1554.432478,2681.334243,6883.915261
16194.986092,666.185348,2298.286494,9104.533087
16194.986416,-296.082377,1225.752797,11695.253884
16194.986740,-1924.535449,-995.924147,13323.706956
16194.987064,-3182.885551,-2374.896044,14211.954086
16194.987388,-3478.967927,-2834.553343,14434.015869
16194.987711,-2590.720797,-2757.943793,14285.974681
16194.988035,-444.123565,-1915.238745,13619.789333
16194.988359,2516.700203,229.828649,12953.603985
16194.988683,3997.112087,1838.629195,11251.130318
16194.989007,4515.256246,2911.162892,8734.430116
16194.989331,6439.791695,5132.839837,7698.141797
16194.989655,6143.709319,5669.106685,9622.677246
16194.989979,2590.720797,5515.887586,10140.821405
16194.990303,1406.391290,2681.334243,7476.080014
16194.990627,-1332.370696,0.000000,6143.709319
16194.990951,-3552.988522,-306.438199,6883.915261
16194.991275,-4589.276840,153.219100,8808.450710
16194.991599,-4737.318029,-842.705048,7920.203579
16194.991923,-3404.947333,-1991.848295,5773.606348
16194.992246,-1554.432478,306.438199,5255.462188
16194.992570,814.226536,2681.334243,4293.194464
16194.992894,2146.597232,3064.381992,4885.359217
16194.993218,3775.050304,2604.724693,5773.606348
16194.993542,3552.988522,3064.381992,7031.956449
16194.993866,1776.494261,2451.505594,8660.409521
16194.994190,962.267725,-536.266849,9548.656652
16194.994514,-1628.453072,-2068.457845,11843.295072
16194.994838,-4145.153275,-2604.724693,13693.809927
16194.995162,-4737.318029,-4596.572988,15618.345376
16194.995486,-2664.741391,-5439.278036,15174.221811
16194.995810,-2146.597232,-3677.258390,13989.892304
16194.996134,-1258.350101,-1685.410096,11991.336260
16194.996458,592.164754,459.657299,11473.192101
16194.996781,3182.885551,76.609550,10732.986159
16194.997105,5107.421000,2681.334243,8586.388927
16194.997429,5329.482782,3447.429741,8512.368333
16194.997753,4589.276840,3370.820191,8290.306550
16194.998077,2368.659014,2298.286494,8660.409521
16194.998401,-592.164754,536.266849,8734.430116
16194.998725,-3108.864956,-689.485948,9326.594869
16194.999049,-4811.338623,-2145.067394,9400.615463
16194.999373,-2738.761985,-2451.505594,8512.368333
16194.999697,-3182.885551,-1532.190996,7994.224174
16195.000021,-3330.926739,-842.705048,6439.791695
16195.000345,-592.164754,536.266849,4959.379811
16195.000669,1480.411884,1762.019645,3997.112087
16195.000993,370.102971,2298.286494,4441.235652
16195.001316,74.020594,2298.286494,5625.565159
16195.001640,444.123565,1762.019645,7254.018232
16195.001964,-888.247130,-229.828649,9474.636058
16195.002288,-3182.885551,-1685.410096,11621.233289
16195.002612,-4589.276840,-2757.943793,12731.542202
16195.002936,-4145.153275,-3753.867940,13693.809927
16195.003260,-3182.885551,-3600.648841,14211.954086
16195.003584,-1480.411884,-2451.505594,13915.871710
16195.003908,962.267725,-995.924147,12361.439231
16195.004232,3404.947333,1072.533697,11029.068536
16195.004556,7105.977043,3370.820191,10510.924376
16195.004880,8142.265362,5056.230287,9918.759623
16195.005204,6587.832884,5286.058936,9104.533087
16195.005528,6513.812290,4903.011187,8660.409521
16195.005851,4145.153275,3830.477490,9178.553681
16195.006175,1036.288319,2757.943793,9104.533087
16195.006499,-1998.556043,76.609550,9400.615463
16195.006823,-3552.988522,-689.485948,8586.388927
16195.007147,-4737.318029,-689.485948,7846.182985
16195.007471,-3997.112087,-306.438199,7698.141797
16195.007795,-2960.823768,612.876398,6217.729913
16195.008119,-1554.432478,1762.019645,4959.379811
16195.008443,592.164754,3524.039291,3552.988522
16195.008767,2146.597232,4596.572988,4737.318029
16195.009091,1406.391290,3983.696590,5921.647536
16195.009415,1036.288319,3600.648841,7254.018232
16195.009739,666.185348,2298.286494,9178.553681
16195.010062,-592.164754,689.485948,11769.274478
16195.010386,-3478.967927,-1685.410096,12879.583391
16195.010710,-3552.988522,-3677.258390,13545.768739
16195.011034,-2960.823768,-2911.162892,13841.851115
16195.011358,-1628.453072,-2298.286494,13915.871710
16195.011682,148.041188,-842.705048,13101.645173
16195.012006,2368.659014,1072.533697,11177.109724
16195.012330,5033.400406,2911.162892,9474.636058
16195.012654,6809.894666,4060.306139,9252.574275
16195.012978,6513.812290,4979.620737,8438.347739
16195.013302,4737.318029,3983.696590,7105.977043
16195.013626,2812.782580,3370.820191,7994.224174
16195.013950,0.000000,1455.581446,9474.636058
16195.014274,-3552.988522,-995.924147,9474.636058
16195.014597,-6365.771101,-3217.601092,9178.553681
16195.014921,-5847.626942,-3524.039291,8364.327145
16195.015245,-5625.565159,-2757.943793,8216.285956
16195.015569,-4441.235652,-2681.334243,7328.038826
16195.015893,-2738.761985,-1378.971896,7031.956449
16195.016217,-1036.288319,76.609550,5921.647536
16195.016541,1258.350101,1685.410096,5329.482782
16195.016865,2590.720797,1838.629195,6069.688724
16195.017189,1628.453072,766.095498,7105.977043
16195.017513,0.000000,-612.876398,9548.656652
16195.017837,-666.185348,-842.705048,11843.295072
16195.018161,-1924.535449,-3600.648841,13249.686362
16195.018485,-3034.844362,-4979.620737,13027.624579
16195.018809,-2368.659014,-3677.258390,13101.645173
16195.019132,-518.144159,-3140.991542,12805.562797
16195.019456,888.247130,-2451.505594,12509.480420
16195.019780,3478.967927,76.609550,11843.295072
16195.020104,5477.523971,1991.848295,9030.512492
16195.020428,6217.729913,3677.258390,7994.224174
16195.020752,7105.977043,3907.087040,8216.285956
16195.021076,5699.585753,4136.915689,8512.368333
16195.021400,2590.720797,3217.601092,9252.574275
16195.021724,0.000000,1685.410096,9622.677246
16195.022048,-2072.576638,-1072.533697,8734.430116
16195.022372,-5107.421000,-1838.629195,8808.450710
16195.022696,-6069.688724,-2068.457845,8882.471304
16195.023020,-5551.544565,-1685.410096,8364.327145
16195.023344,-4663.297435,-995.924147,7698.141797
16195.023667,-2886.803174,459.657299,6439.791695
16195.023991,-518.144159,1685.410096,5033.400406
16195.024315,1258.350101,3140.991542,4589.276840
16195.024639,2146.597232,4903.011187,6069.688724
16195.024963,3182.885551,4213.525239,7476.080014
16195.025287,1776.494261,3140.991542,9474.636058
16195.025611,-148.041188,1455.581446,11103.089130
16195.025935,-666.185348,76.609550,12435.459826
16195.026259,-1628.453072,-1302.362347,13323.706956
16195.026583,-1998.556043,-2604.724693,13471.748144
16195.026907,-1184.329507,-919.314598,13693.809927
16195.027231,148.041188,-229.828649,13175.665768
16195.027555,1776.494261,1532.190996,11325.150913
16195.027879,3478.967927,2987.772442,9548.656652
16195.028202,4663.297435,4673.182538,8512.368333
16195.028526,4959.379811,4903.011187,7772.162391
16195.028850,5107.421000,5209.449386,7402.059420
16195.029174,3849.070898,4366.744339,8290.306550
16195.029498,-222.061783,2451.505594,8660.409521
16195.029822,-2442.679609,842.705048,8512.368333
16195.030146,-3330.926739,-689.485948,8068.244768
16195.030470,-4737.318029,-1762.019645,8660.409521
16195.030794,-5181.441594,-1915.238745,8586.388927
16195.031118,-3256.906145,-1302.362347,7402.059420
16195.031442,-2146.597232,-766.095498,7328.038826
16195.031766,-592.164754,0.000000,6217.729913
16195.032090,1184.329507,1991.848295,6365.771101
16195.032413,1998.556043,2298.286494,6365.771101
16195.032737,2368.659014,1991.848295,8068.244768
16195.033061,2368.659014,1608.800546,10140.821405
16195.033385,296.082377,-536.266849,11621.233289
16195.033709,-2442.679609,-1991.848295,12139.377449
16195.034033,-3256.906145,-3370.820191,13323.706956
16195.034357,-2960.823768,-3907.087040,13767.830521
16195.034681,-2442.679609,-3524.039291,13915.871710
16195.035005,-1258.350101,-2604.724693,12657.521608
16195.035329,1110.308913,-842.705048,10955.047942
16195.035653,2886.803174,1302.362347,8956.491898
16195.035977,5255.462188,2604.724693,7994.224174
16195.036301,5847.626942,3983.696590,7476.080014
16195.036625,5033.400406,3983.696590,7772.162391
16195.036948,4441.235652,3830.477490,8290.306550
16195.037272,2368.659014,1685.410096,9178.553681
16195.037596,-1480.411884,76.609550,9326.594869
16195.037920,-3478.967927,-1762.019645,9178.553681
16195.038244,-3849.070898,-2374.896044,7994.224174
16195.038568,-3627.009116,-2528.115143,8734.430116
16195.038892,-4219.173869,-1608.800546,8216.285956
16195.039216,-2590.720797,-153.219100,6661.853478
16195.039540,-666.185348,766.095498,6291.750507
16195.039864,518.144159,1915.238745,6217.729913
16195.040188,1036.288319,3064.381992,5921.647536
16195.040511,1036.288319,2221.676944,7105.977043
16195.040835,740.205942,2145.067394,8364.327145
16195.041159,74.020594,919.314598,11399.171507
16195.041483,-2738.761985,-1072.533697,13101.645173
16195.041807,-4737.318029,-3447.429741,13101.645173
16195.042131,-3923.091493,-3140.991542,13767.830521
16195.042455,-1924.535449,-1532.190996,13619.789333
16195.042779,-962.267725,-1378.971896,13175.665768
16195.043103,1406.391290,0.000000,11399.171507
16195.043427,4441.235652,2681.334243,9030.512492
16195.043750,5921.647536,4443.353888,8068.244768
16195.044074,7105.977043,5439.278036,7550.100608
16195.044398,6143.709319,5592.497135,7624.121203
16195.044722,4811.338623,5132.839837,7846.182985
16195.045046,2886.803174,4443.353888,9326.594869
16195.045370,444.123565,1302.362347,9326.594869
16195.045694,-2886.803174,-766.095498,8956.491898
16195.046018,-5181.441594,-1838.629195,9030.512492
16195.046342,-4811.338623,-1532.190996,8586.388927
16195.046666,-4293.194464,-2145.067394,8216.285956
16195.046989,-4145.153275,-1378.971896,6587.832884
16195.047313,-2960.823768,766.095498,5551.544565
16195.047637,-888.247130,1685.410096,5847.626942
16195.047961,222.061783,2757.943793,6513.812290
16195.048285,814.226536,2068.457845,7402.059420
16195.048609,370.102971,1991.848295,8734.430116
16195.048933,-518.144159,842.705048,10658.965565
16195.049257,-518.144159,-995.924147,12435.459826
16195.049581,-1924.535449,-2298.286494,13915.871710
16195.049905,-2590.720797,-3064.381992,13175.665768
16195.050228,-370.102971,-2221.676944,13323.706956
16195.050552,1998.556043,-995.924147,13619.789333
16195.050876,2664.741391,0.000000,12065.356855
16195.051200,4219.173869,1532.190996,10214.842000
16195.051524,5403.503377,3064.381992,8882.471304
16195.051848,6291.750507,3830.477490,7994.224174
16195.052172,5551.544565,3907.087040,8142.265362
16195.052496,3404.947333,3830.477490,8142.265362
16195.052820,518.144159,1685.410096,8290.306550
16195.053144,-1332.370696,383.047749,9474.636058
16195.053467,-3701.029710,-1838.629195,8808.450710
16195.053791,-5773.606348,-2451.505594,7920.203579
16195.054115,-5033.400406,-2221.676944,7328.038826
16195.054439,-3701.029710,-1378.971896,7402.059420
16195.054763,-2220.617826,0.000000,7031.956449
16195.055087,-666.185348,1149.143247,5773.606348
16195.055411,740.205942,2298.286494,4737.318029
16195.055735,2146.597232,2757.943793,5625.565159
16195.056059,1850.514855,2528.115143,7179.997637
16195.056383,1480.411884,1838.629195,9252.574275
16195.056706,222.061783,153.219100,11843.295072
16195.057030,-1554.432478,-1915.238745,12953.603985
16195.057354,-2664.741391,-2451.505594,13915.871710
16195.057678,-3478.967927,-3370.820191,14137.933492
16195.058002,-3034.844362,-2987.772442,13915.871710
16195.058326,-1184.329507,-1838.629195,13323.706956
16195.058650,1036.288319,-766.095498,11547.212695
16195.058974,2294.638420,1302.362347,10214.842000
16195.059298,4219.173869,3140.991542,8956.491898
16195.059622,4959.379811,4826.401637,7254.018232
16195.059945,5033.400406,4443.353888,7179.997637
16195.060269,4071.132681,3983.696590,7846.182985
16195.060593,2146.597232,3294.210641,8956.491898
16195.060917,-666.185348,995.924147,9104.533087
16195.061241,-2368.659014,-1149.143247,8882.471304
16195.061565,-3034.844362,-1149.143247,8956.491898
16195.061889,-4145.153275,-1302.362347,8216.285956
16195.062213,-3330.926739,-842.705048,8142.265362
16195.062537,-1850.514855,76.609550,7624.121203
16195.062861,-666.185348,1072.533697,6661.853478
16195.063184,0.000000,2145.067394,5329.482782
16195.063508,296.082377,2221.676944,5329.482782
16195.063832,296.082377,2451.505594,6069.688724
16195.064156,0.000000,2374.896044,8734.430116
16195.064480,-740.205942,919.314598,11621.233289
16195.064804,-3330.926739,-1455.581446,12213.398043
16195.065128,-3478.967927,-2987.772442,12287.418637
16195.065452,-2072.576638,-2451.505594,13323.706956
16195.065776,-1628.453072,-2221.676944,13397.727550
16195.066100,0.000000,-2298.286494,13249.686362
16195.066423,3108.864956,0.000000,12287.418637
16195.066747,4885.359217,2298.286494,9622.677246
16195.067071,6143.709319,3370.820191,8660.409521
16195.067395,7105.977043,4749.792088,7698.141797
16195.067719,6809.894666,5209.449386,7550.100608
16195.068043,5699.585753,4060.306139,8882.471304
16195.068367,2812.782580,2911.162892,10214.842000
16195.068691,-740.205942,1378.971896,9548.656652
16195.069015,-3034.844362,-995.924147,9030.512492
16195.069339,-4515.256246,-1838.629195,8290.306550
16195.069662,-4071.132681,-1991.848295,8734.430116
16195.069986,-4515.256246,-1532.190996,8364.327145
16195.070310,-3849.070898,-1225.752797,6883.915261
16195.070634,-2590.720797,306.438199,5403.503377
16195.070958,-592.164754,1455.581446,5033.400406
16195.071282,-740.205942,2221.676944,5477.523971
16195.071606,-1036.288319,2374.896044,6365.771101
16195.071930,-814.226536,1455.581446,7920.203579
16195.072254,-1480.411884,0.000000,11029.068536
16195.072578,-3182.885551,-2145.067394,12583.501014
16195.072901,-4145.153275,-2834.553343,13249.686362
16195.073225,-3108.864956,-3447.429741,12583.501014
16195.073549,-666.185348,-2528.115143,13767.830521
16195.073873,1554.432478,-2298.286494,14137.933492
16195.074197,2738.761985,76.609550,12287.418637
16195.074521,4737.318029,1685.410096,10510.924376
16195.074845,7105.977043,3217.601092,8290.306550
16195.075169,7920.203579,5209.449386,7772.162391
16195.075493,5625.565159,5286.058936,7994.224174
16195.075817,4145.153275,3983.696590,7105.977043
16195.076140,2812.782580,2987.772442,8364.327145
16195.076464,-1110.308913,842.705048,9770.718434
16195.076788,-4885.359217,-1991.848295,8586.388927
16195.077112,-6217.729913,-3064.381992,7994.224174
16195.077436,-5699.585753,-1991.848295,8216.285956
16195.077760,-4515.256246,-1762.019645,9030.512492
16195.078084,-4145.153275,-995.924147,8660.409521
16195.078408,-2738.761985,306.438199,5625.565159
16195.078732,-370.102971,1838.629195,5625.565159
16195.079056,1628.453072,1991.848295,6217.729913
16195.079379,1702.473667,2374.896044,7179.997637
16195.079703,1184.329507,2451.505594,8586.388927
16195.080027,518.144159,1225.752797,10066.800811
16195.080351,-740.205942,-459.657299,12065.356855
16195.080675,-1258.350101,-2068.457845,12657.521608
16195.080999,-1702.473667,-2451.505594,13323.706956
16195.081323,-222.061783,-1915.238745,13397.727550
16195.081647,1776.494261,-383.047749,13397.727550
16195.081971,3256.906145,76.609550,12139.377449
16195.082295,4737.318029,2068.457845,9844.739029
16195.082618,6291.750507,4213.525239,7624.121203
16195.082942,7476.080014,5132.839837,7254.018232
16195.083266,5773.606348,4596.572988,7994.224174
16195.083590,4219.173869,3830.477490,7994.224174
16195.083914,1480.411884,2987.772442,7994.224174
16195.084238,-1628.453072,995.924147,9474.636058
16195.084562,-3923.091493,-766.095498,9622.677246
16195.084886,-5625.565159,-1685.410096,8956.491898
16195.085210,-5625.565159,-2451.505594,8586.388927
16195.085534,-4959.379811,-2068.457845,8290.306550
16195.085857,-3552.988522,-919.314598,7772.162391
16195.086181,-2368.659014,383.047749,5921.647536
16195.086505,-740.205942,1762.019645,5329.482782
16195.086829,888.247130,2987.772442,5921.647536
16195.087153,1258.350101,2451.505594,6735.874072
16195.087477,888.247130,2298.286494,8068.244768
16195.087801,888.247130,612.876398,10140.821405
16195.088125,-1480.411884,-842.705048,11621.233289
16195.088449,-2886.803174,-2374.896044,12361.439231
16195.088773,-2664.741391,-3524.039291,13323.706956
16195.089096,-2294.638420,-2987.772442,13175.665768
16195.089420,-592.164754,-2451.505594,11917.315666
16195.089744,2220.617826,-766.095498,12731.542202
16195.090068,3849.070898,919.314598,11399.171507
16195.090392,4145.153275,2221.676944,9326.594869
16195.090716,5625.565159,3064.381992,8364.327145
16195.091040,6365.771101,3753.867940,8068.244768
16195.091364,5181.441594,3983.696590,8068.244768
16195.091688,2072.576638,2987.772442,7994.224174
16195.092012,-814.226536,612.876398,8586.388927
16195.092335,-3034.844362,-1532.190996,9770.718434
16195.092659,-5329.482782,-2221.676944,9622.677246
16195.092983,-5551.544565,-3140.991542,9178.553681
16195.093307,-5329.482782,-3217.601092,8438.347739
16195.093631,-4663.297435,-1685.410096,8142.265362
16195.093955,-1628.453072,0.000000,7031.956449
16195.094279,-962.267725,383.047749,6069.688724
16195.094603,-444.123565,1838.629195,4663.297435
16195.094927,962.267725,2834.553343,6069.688724
16195.095251,1480.411884,1838.629195,8660.409521
16195.095574,518.144159,383.047749,10140.821405
16195.095898,-592.164754,-536.266849,11917.315666
16195.096222,-1406.391290,-1378.971896,11917.315666
16195.096546,-1332.370696,-2068.457845,12287.418637
16195.096870,222.061783,-2145.067394,12805.562797
16195.097194,1332.370696,-306.438199,12583.501014
16195.097518,2590.720797,306.438199,11843.295072
16195.097842,5033.400406,1915.238745,10436.903782
16195.098166,6735.874072,4136.915689,9252.574275
16195.098490,6735.874072,4519.963438,8142.265362
16195.098813,5255.462188,4136.915689,7476.080014
16195.099137,3849.070898,4060.306139,7402.059420
16195.099461,2072.576638,3370.820191,9178.553681
16195.099785,-1850.514855,1225.752797,9326.594869
16195.100109,-5403.503377,-689.485948,9104.533087
16195.100433,-6809.894666,-1991.848295,8734.430116
16195.100757,-6513.812290,-2145.067394,8956.491898
16195.101081,-5847.626942,-1685.410096,9252.574275
16195.101405,-5033.400406,0.000000,8142.265362
16195.101729,-3182.885551,459.657299,6587.832884
16195.102052,-370.102971,1915.238745,5773.606348
16195.102376,962.267725,3294.210641,6143.709319
16195.102700,1332.370696,3677.258390,6439.791695
16195.103024,2368.659014,3370.820191,8290.306550
16195.103348,2664.741391,1838.629195,9104.533087
16195.103672,296.082377,842.705048,11325.150913
16195.103996,-1702.473667,-612.876398,12509.480420
16195.104320,-1924.535449,-1532.190996,12287.418637
16195.104644,-592.164754,-2298.286494,12805.562797
16195.104968,444.123565,-919.314598,13101.645173
16195.105291,1258.350101,-153.219100,12435.459826
16195.105615,2368.659014,1149.143247,9548.656652
16195.105939,4737.318029,2221.676944,7550.100608
16195.106263,5921.647536,4366.744339,7624.121203
16195.106587,4737.318029,4903.011187,7772.162391
16195.106911,3182.885551,3524.039291,7772.162391
16195.107235,2146.597232,2757.943793,8438.347739
16195.107559,-518.144159,2145.067394,9992.780217
16195.107883,-3997.112087,-842.705048,9474.636058
16195.108207,-6143.709319,-3294.210641,8142.265362
16195.108530,-4885.359217,-2834.553343,7179.997637
16195.108854,-4071.132681,-1915.238745,8364.327145
16195.109178,-2738.761985,-1378.971896,8956.491898
16195.109502,-1332.370696,0.000000,7624.121203
16195.109826,1110.308913,1991.848295,6513.812290
16195.110150,4145.153275,3140.991542,6661.853478
16195.110474,3997.112087,3064.381992,7105.977043
16195.110798,3108.864956,2298.286494,7476.080014
16195.111122,2516.700203,2145.067394,9400.615463
16195.111446,518.144159,153.219100,11325.150913
16195.111769,-2442.679609,-2221.676944,12139.377449
16195.112093,-3627.009116,-3370.820191,12287.418637
16195.112417,-3701.029710,-3217.601092,12583.501014
16195.112741,-2590.720797,-2604.724693,12657.521608
16195.113065,-1184.329507,-2145.067394,12435.459826
16195.113389,370.102971,-919.314598,11251.130318
16195.113713,1628.453072,766.095498,8882.471304
16195.114037,3701.029710,2681.334243,7994.224174
16195.114361,5329.482782,3600.648841,8438.347739
16195.114685,3552.988522,3677.258390,8290.306550
16195.115008,1776.494261,2681.334243,9104.533087
16195.115332,1258.350101,1762.019645,9992.780217
16195.115656,-1850.514855,-995.924147,9770.718434
16195.115980,-4737.318029,-2911.162892,9104.533087
16195.116304,-5033.400406,-2451.505594,9030.512492
16195.116628,-4589.276840,-1532.190996,9252.574275
16195.116952,-3849.070898,-689.485948,8586.388927
16195.117276,-1776.494261,0.000000,7179.997637
16195.117600,-296.082377,1685.410096,5773.606348
16195.117924,1332.370696,2451.505594,5403.503377
16195.118247,2442.679609,2681.334243,6587.832884
16195.118571,1998.556043,2374.896044,7772.162391
16195.118895,74.020594,1762.019645,9252.574275
16195.119219,-222.061783,1225.752797,10807.006753
16195.119543,-1776.494261,-1225.752797,11399.171507
16195.119867,-3182.885551,-2757.943793,12657.521608
16195.120191,-2590.720797,-2528.115143,12213.398043
16195.120515,-666.185348,-1608.800546,12065.356855
16195.120839,888.247130,-1149.143247,11547.212695
16195.121163,3108.864956,995.924147,10807.006753
16195.121486,4515.256246,4060.306139,9474.636058
16195.121810,5847.626942,4136.915689,8068.244768
16195.122134,6735.874072,4749.792088,7698.141797
16195.122458,7254.018232,4903.011187,8290.306550
16195.122782,3775.050304,4596.572988,9178.553681
16195.123106,518.144159,2451.505594,9474.636058
16195.123430,-1850.514855,612.876398,9400.615463
16195.123754,-3552.988522,-995.924147,9918.759623
16195.124078,-5551.544565,-1149.143247,9252.574275
16195.124402,-5255.462188,-1072.533697,8216.285956
16195.124726,-4219.173869,-919.314598,7179.997637
16195.125049,-2812.782580,0.000000,6735.874072
16195.125373,-1036.288319,2145.067394,6069.688724
16195.125697,222.061783,2911.162892,5699.585753
16195.126021,1406.391290,3217.601092,5847.626942
16195.126345,2812.782580,3140.991542,8142.265362
16195.126669,1702.473667,2757.943793,9844.739029
16195.126993,-592.164754,689.485948,10732.986159
16195.127317,-1480.411884,-1225.752797,11621.233289
16195.127641,-1850.514855,-2221.676944,12213.398043
16195.127965,-1850.514855,-2221.676944,13027.624579
16195.128288,-888.247130,-2528.115143,12879.583391
16195.128612,0.000000,-1532.190996,11843.295072
16195.128936,1480.411884,153.219100,10732.986159
16195.129260,3256.906145,1991.848295,10362.883188
16195.129584,4589.276840,2757.943793,8586.388927
16195.129908,4515.256246,3524.039291,7994.224174
16195.130232,3701.029710,3753.867940,7846.182985
16195.130556,2886.803174,3294.210641,8438.347739
16195.130880,-296.082377,919.314598,9770.718434
16195.131204,-2960.823768,-459.657299,8734.430116
16195.131527,-5033.400406,-2451.505594,9030.512492
16195.131851,-5477.523971,-3140.991542,9474.636058
16195.132175,-4737.318029,-2757.943793,9252.574275
16195.132499,-3627.009116,-2145.067394,8438.347739
16195.132823,-1776.494261,-766.095498,7031.956449
16195.133147,888.247130,995.924147,6439.791695
16195.133471,2368.659014,2451.505594,6809.894666
16195.133795,2368.659014,3370.820191,7105.977043
16195.134119,3108.864956,2757.943793,7772.162391
16195.134443,2590.720797,3294.210641,10955.047942
16195.134766,0.000000,1685.410096,13989.892304
16195.135090,-2368.659014,-1838.629195,11695.253884
16195.135414,-2960.823768,-4443.353888,10436.903782
16195.135738,-2368.659014,-2451.505594,11473.192101
16195.136062,-1924.535449,-689.485948,13323.706956
16195.136386,-1406.391290,-1149.143247,11769.274478
16195.136710,814.226536,-306.438199,8734.430116
16195.137034,3775.050304,2911.162892,7624.121203
16195.137358,6291.750507,6128.763984,7476.080014
16195.137682,7105.977043,5592.497135,7105.977043
16195.138005,6217.729913,4903.011187,7402.059420
16195.138329,4515.256246,5362.668486,8660.409521
16195.138653,2368.659014,4213.525239,9622.677246
16195.138977,-888.247130,0.000000,8956.491898
16195.139301,-3849.070898,-1302.362347,7920.203579
16195.139625,-5625.565159,-919.314598,9400.615463
16195.139949,-5329.482782,-1991.848295,10584.944971
16195.140273,-4441.235652,-3064.381992,9918.759623
16195.140597,-4515.256246,-1072.533697,7254.018232
16195.140921,-3182.885551,842.705048,5625.565159
16195.141245,-2146.597232,1072.533697,5625.565159
16195.141569,-592.164754,842.705048,7031.956449
16195.141893,74.020594,1532.190996,7698.141797
16195.142217,74.020594,1225.752797,8956.491898
16195.142541,370.102971,306.438199,11473.192101
16195.142865,0.000000,-1991.848295,12139.377449
16195.143189,-2516.700203,-3064.381992,13101.645173
16195.143513,-2146.597232,-3524.039291,14137.933492
16195.143837,814.226536,-2987.772442,13841.851115
16195.144161,2516.700203,-2068.457845,12657.521608
16195.144485,3256.906145,-459.657299,10732.986159
16195.144809,4737.318029,1685.410096,9326.594869
16195.145133,6069.688724,2911.162892,8290.306550
16195.145457,5995.668130,3524.039291,7994.224174
16195.145781,4515.256246,3370.820191,7846.182985
16195.146105,2886.803174,3294.210641,7698.141797
16195.146429,592.164754,1685.410096,8216.285956
16195.146753,-2516.700203,-1149.143247,8956.491898
16195.147077,-5773.606348,-2604.724693,8660.409521
16195.147401,-6957.935855,-2911.162892,8438.347739
16195.147725,-5773.606348,-2911.162892,8142.265362
16195.148049,-4071.132681,-2298.286494,8290.306550
16195.148373,-3552.988522,-842.705048,7402.059420
16195.148697,-2294.638420,229.828649,6439.791695
16195.149021,592.164754,1455.581446,5773.606348
16195.149345,2664.741391,1991.848295,6957.935855
16195.149669,2368.659014,2604.724693,8364.327145
16195.149993,1702.473667,2451.505594,10066.800811
16195.150317,888.247130,1225.752797,11621.233289
16195.150641,148.041188,-536.266849,13175.665768
16195.150965,0.000000,-1685.410096,14211.954086
16195.151289,-666.185348,-1915.238745,13471.748144
16195.151613,-296.082377,-766.095498,12805.562797
16195.151937,1406.391290,76.609550,11843.295072
16195.152261,1924.535449,1532.190996,10362.883188
16195.152585,2368.659014,2987.772442,8808.450710
16195.152909,3997.112087,4519.963438,6587.832884
16195.153233,4811.338623,5132.839837,6069.688724
16195.153557,4071.132681,5056.230287,6957.935855
16195.153881,2368.659014,4979.620737,8068.244768
16195.154205,-296.082377,4136.915689,8808.450710
16195.154529,-2368.659014,612.876398,8290.306550
16195.154853,-3923.091493,-229.828649,8216.285956
16195.155177,-4885.359217,-1302.362347,8512.368333
16195.155501,-4737.318029,-1608.800546,8660.409521
16195.155825,-2664.741391,-689.485948,8438.347739
16195.156149,-962.267725,-459.657299,8142.265362
16195.156473,-222.061783,1608.800546,6809.894666
16195.156797,1628.453072,2757.943793,7105.977043
16195.157121,2442.679609,2604.724693,6513.812290
16195.157445,2368.659014,2145.067394,7846.182985
16195.157769,1258.350101,1225.752797,9548.656652
16195.158093,444.123565,306.438199,11251.130318
16195.158417,-1554.432478,-1455.581446,12583.501014
16195.158741,-1924.535449,-3600.648841,13471.748144
16195.159065,-2220.617826,-3524.039291,13767.830521
16195.159389,-1554.432478,-3217.601092,13323.706956
16195.159713,222.061783,-2451.505594,12731.542202
16195.160037,2220.617826,-536.266849,11251.130318
16195.160361,3330.926739,689.485948,9992.780217
16195.160685,4441.235652,2451.505594,8068.244768
16195.161009,5625.565159,3677.258390,7476.080014
16195.161333,4589.276840,3217.601092,6809.894666
16195.161657,3478.967927,3370.820191,7254.018232
16195.161981,444.123565,2221.676944,9400.615463
16195.162305,-2738.761985,-612.876398,9326.594869
16195.162629,-4737.318029,-2911.162892,8364.327145
16195.162953,-5255.462188,-3140.991542,8660.409521
16195.163277,-5107.421000,-2604.724693,8216.285956
16195.163601,-4663.297435,-2221.676944,7624.121203
16195.163925,-2886.803174,-919.314598,7254.018232
16195.164249,-888.247130,229.828649,6513.812290
16195.164573,444.123565,1532.190996,5625.565159
16195.164897,1554.432478,1915.238745,5773.606348
16195.165221,1924.535449,1685.410096,7254.018232
16195.165545,1702.473667,1685.410096,9770.718434
16195.165869,370.102971,153.219100,12731.542202
16195.166193,-1406.391290,-1302.362347,13323.706956
16195.166517,-3108.864956,-2604.724693,13841.851115
16195.166841,-1628.453072,-2374.896044,13323.706956
16195.167165,-148.041188,-2298.286494,13989.892304
16195.167489,-296.082377,-1991.848295,13027.624579
16195.167813,962.267725,-229.828649,10881.027347
16195.168137,3478.967927,2528.115143,9178.553681
16195.168461,4737.318029,3677.258390,8956.491898
16195.168785,4367.215058,4060.306139,7698.141797
16195.169109,3775.050304,4749.792088,6957.935855
16195.169433,2738.761985,4979.620737,7476.080014
16195.169757,1480.411884,3294.210641,8808.450710
16195.170081,-1406.391290,1685.410096,8882.471304
16195.170405,-4219.173869,612.876398,8290.306550
16195.170729,-4515.256246,-995.924147,7772.162391
16195.171053,-3034.844362,-1455.581446,7994.224174
16195.171377,-2738.761985,-383.047749,8142.265362
16195.171701,-2590.720797,612.876398,7328.038826
16195.172025,0.000000,2145.067394,6439.791695
16195.172349,1924.535449,2987.772442,5773.606348
16195.172673,2072.576638,3447.429741,5995.668130
16195.172997,1924.535449,3370.820191,7105.977043
16195.173321,518.144159,2911.162892,7772.162391
16195.173645,-296.082377,1455.581446,10436.903782
16195.173969,-1554.432478,-306.438199,12805.562797
16195.174293,-2960.823768,-1838.629195,12953.603985
16195.174617,-3478.967927,-2604.724693,12805.562797
16195.174941,-1924.535449,-2374.896044,12287.418637
16195.175265,518.144159,-1302.362347,13545.768739
16195.175589,1036.288319,0.000000,12213.398043
16195.175913,2960.823768,1149.143247,9548.656652
16195.176237,5773.606348,3064.381992,8586.388927
16195.176560,6587.832884,4136.915689,8660.409521
16195.176884,5329.482782,4826.401637,8956.491898
16195.177208,3923.091493,3907.087040,9326.594869
16195.177532,1480.411884,2681.334243,9030.512492
16195.177856,-296.082377,1072.533697,9104.533087
16195.178180,-3701.029710,-1149.143247,8808.450710
16195.178504,-5477.523971,-1991.848295,8956.491898
16195.178828,-5773.606348,-2374.896044,7772.162391
16195.179152,-3552.988522,-1838.629195,7402.059420
16195.179476,-2220.617826,-1225.752797,7105.977043
16195.179800,-2368.659014,0.000000,5403.503377
16195.180124,-962.267725,1685.410096,5181.441594
16195.180448,1998.556043,2451.505594,5699.585753
16195.180772,2368.659014,2451.505594,7698.141797
16195.181096,1850.514855,2451.505594,8660.409521
16195.181420,1184.329507,919.314598,9474.636058
16195.181744,-222.061783,-383.047749,11473.192101
16195.182068,-1628.453072,-1378.971896,13397.727550
16195.182392,-2072.576638,-2451.505594,14656.077652
16195.182716,-2146.597232,-2451.505594,13619.789333
16195.183040,0.000000,-1915.238745,13027.624579
16195.183364,814.226536,-612.876398,12805.562797
16195.183688,1480.411884,536.266849,10807.006753
16195.184012,2886.803174,1838.629195,8364.327145
16195.184336,3923.091493,3140.991542,7772.162391
16195.184660,3701.029710,4060.306139,7624.121203
16195.184984,2738.761985,3677.258390,7846.182985
16195.185308,592.164754,1455.581446,7994.224174
16195.185632,-2294.638420,0.000000,9252.574275
16195.185956,-4145.153275,-842.705048,9400.615463
16195.186280,-4589.276840,-2374.896044,8956.491898
16195.186604,-4367.215058,-3140.991542,8068.244768
16195.186928,-3552.988522,-1378.971896,8364.327145
16195.187252,-2146.597232,76.609550,8068.244768
16195.187576,592.164754,306.438199,7105.977043
16195.187900,1628.453072,1378.971896,5995.668130
16195.188224,2516.700203,2987.772442,6143.709319
16195.188548,3182.885551,2987.772442,7254.018232
16195.188872,2516.700203,2068.457845,9104.533087
16195.189196,740.205942,1149.143247,9696.697840
16195.189520,-1258.350101,0.000000,11177.109724
16195.189844,-2516.700203,-2145.067394,11843.295072
16195.190168,-2516.700203,-2911.162892,12879.583391
16195.190492,-1776.494261,-2528.115143,13323.706956
16195.190816,-1332.370696,-1225.752797,12731.542202
16195.191140,1776.494261,-383.047749,11621.233289
16195.191464,3997.112087,1455.581446,9770.718434
16195.191788,4885.359217,2987.772442,8808.450710
16195.192112,5329.482782,4596.572988,7846.182985
16195.192436,5773.606348,4979.620737,8142.265362
16195.192760,4959.379811,4213.525239,8142.265362
16195.193084,2368.659014,3830.477490,8882.471304
16195.193408,-666.185348,1915.238745,9104.533087
16195.193732,-2590.720797,-229.828649,9474.636058
16195.194056,-4737.318029,-1915.238745,8734.430116
16195.194380,-4737.318029,-1991.848295,8956.491898
16195.194704,-4811.338623,-1378.971896,8438.347739
16195.195028,-3849.070898,-612.876398,7402.059420
16195.195352,-1406.391290,995.924147,6661.853478
16195.195676,592.164754,1915.238745,5847.626942
16195.196000,74.020594,2911.162892,6661.853478
16195.196324,370.102971,2145.067394,6587.832884
16195.196648,1036.288319,1915.238745,7698.141797
16195.196972,296.082377,1149.143247,9918.759623
16195.197296,-1924.535449,0.000000,12213.398043
16195.197620,-3182.885551,-2068.457845,12731.542202
16195.197944,-3552.988522,-3524.039291,12287.418637
16195.198268,-2960.823768,-3217.601092,12805.562797
16195.198592,-888.247130,-1762.019645,13027.624579
16195.198916,222.061783,-766.095498,11843.295072
16195.199240,2812.782580,383.047749,10140.821405
16195.199564,5477.523971,2834.553343,9326.594869
16195.199888,6143.709319,4826.401637,8586.388927
16195.200212,5477.523971,4673.182538,7994.224174
16195.200536,4293.194464,4136.915689,7994.224174
16195.200860,2590.720797,3983.696590,8956.491898
16195.201184,-666.185348,1608.800546,9622.677246
16195.201508,-2886.803174,-1225.752797,8660.409521
16195.201832,-3923.091493,-2528.115143,7550.100608
16195.202156,-4441.235652,-1532.190996,7846.182985
16195.202480,-3849.070898,-766.095498,8882.471304
16195.202804,-2072.576638,-229.828649,7624.121203
16195.203128,-740.205942,-383.047749,6217.729913
16195.203452,814.226536,2221.676944,5329.482782
16195.203776,2590.720797,3524.039291,6069.688724
16195.204100,2664.741391,2145.067394,7105.977043
16195.204424,1850.514855,1991.848295,8808.450710
16195.204748,1110.308913,1378.971896,10658.965565
16195.205072,-592.164754,-306.438199,11473.192101
16195.205396,-2590.720797,-2681.334243,12213.398043
16195.205720,-3182.885551,-3524.039291,12509.480420
16195.206044,-3108.864956,-3140.991542,13027.624579
16195.206368,-1258.350101,-2757.943793,13101.645173
16195.206692,888.247130,-1225.752797,12213.398043
16195.207016,2072.576638,919.314598,10658.965565
16195.207340,3478.967927,2834.553343,8882.471304
16195.207664,5181.441594,3830.477490,8216.285956
16195.207988,5773.606348,4596.572988,8438.347739
16195.208312,4219.173869,3294.210641,8364.327145
16195.208636,2220.617826,2987.772442,8882.471304
16195.208960,666.185348,1455.581446,9474.636058
16195.209284,-3182.885551,-842.705048,9696.697840
16195.209608,-6439.791695,-2681.334243,9326.594869
16195.209932,-5699.585753,-2374.896044,8512.368333
16195.210256,-4589.276840,-1762.019645,8068.244768
16195.210580,-3552.988522,-1149.143247,8438.347739
16195.210904,-1850.514855,229.828649,6809.894666
16195.211228,-444.123565,1991.848295,5403.503377
16195.211552,1110.308913,2528.115143,5255.462188
16195.211876,2590.720797,3064.381992,5625.565159
16195.212200,1554.432478,2604.724693,7254.018232
16195.212524,296.082377,1838.629195,9474.636058
16195.212848,-1110.308913,76.609550,11547.212695
16195.213172,-2146.597232,-1915.238745,12213.398043
16195.213496,-3034.844362,-2987.772442,12879.583391
16195.213820,-2812.782580,-2987.772442,12509.480420
16195.214144,-1258.350101,-2145.067394,12805.562797
16195.214468,592.164754,-919.314598,12287.418637
16195.214792,2442.679609,153.219100,10436.903782
16195.215116,3478.967927,2451.505594,9252.574275
16195.215440,5773.606348,4519.963438,8142.265362
16195.215764,6735.874072,4903.011187,8216.285956
16195.216088,5847.626942,4673.182538,8512.368333
16195.216412,3108.864956,3447.429741,9104.533087
16195.216736,296.082377,2298.286494,9178.553681
16195.217060,-1628.453072,-229.828649,8290.306550
16195.217384,-4145.153275,-2298.286494,8660.409521
16195.217708,-5403.503377,-2221.676944,8586.388927
16195.218032,-4367.215058,-1455.581446,8586.388927
16195.218356,-3478.967927,-1455.581446,8290.306550
16195.218680,-2146.597232,76.609550,7254.018232
16195.219004,148.041188,1762.019645,6069.688724
16195.219328,370.102971,2987.772442,5551.544565
16195.219652,2072.576638,3294.210641,6365.771101
16195.219976,2072.576638,2757.943793,7994.224174
16195.220300,666.185348,2374.896044,9844.739029
16195.220624,-370.102971,919.314598,11103.089130
16195.220948,-1036.288319,-995.924147,11991.336260
16195.221272,-2738.761985,-2604.724693,12065.356855
16195.221596,-3330.926739,-2911.162892,12805.562797
16195.221920,-2072.576638,-2068.457845,12509.480420
16195.222244,-296.082377,-1302.362347,11843.295072
16195.222568,1480.411884,76.609550,10881.027347
16195.222892,3478.967927,2298.286494,9252.574275
16195.223216,4663.297435,3524.039291,8364.327145
16195.223539,5033.400406,4136.915689,8290.306550
16195.223863,4959.379811,4519.963438,8216.285956
16195.224187,3478.967927,3907.087040,8290.306550
16195.224511,-888.247130,1302.362347,9326.594869
16195.224835,-3182.885551,-689.485948,9104.533087
16195.225159,-4367.215058,-2451.505594,9326.594869
16195.225483,-5255.462188,-2987.772442,9474.636058
16195.225807,-5477.523971,-1838.629195,9252.574275
16195.226131,-4293.194464,-1838.629195,7920.203579
16195.226455,-2738.761985,-1072.533697,7179.997637
16195.226779,-666.185348,459.657299,6661.853478
16195.227103,1332.370696,2221.676944,6661.853478
16195.227427,1480.411884,2604.724693,7031.956449
16195.227751,2442.679609,2451.505594,7550.100608
16195.228075,2886.803174,1838.629195,9548.656652
16195.228399,666.185348,1225.752797,10881.027347
16195.228723,-1554.432478,-1685.410096,11621.233289
16195.229047,-1332.370696,-2451.505594,12361.439231
16195.229371,-1184.329507,-2757.943793,12657.521608
16195.229695,-740.205942,-1762.019645,12731.542202
16195.230019,814.226536,-842.705048,11917.315666
16195.230343,2368.659014,153.219100,9622.677246
16195.230667,4737.318029,2528.115143,7994.224174
16195.230991,5921.647536,4213.525239,7920.203579
16195.231315,5403.503377,4443.353888,7402.059420
16195.231639,4737.318029,4443.353888,8068.244768
16195.231963,3923.091493,3600.648841,8438.347739
16195.232287,1554.432478,2298.286494,9770.718434
16195.232611,-2516.700203,-306.438199,10362.883188
16195.232935,-5181.441594,-2221.676944,9104.533087
16195.233259,-5107.421000,-2374.896044,8882.471304
16195.233583,-4441.235652,-1991.848295,8882.471304
16195.233907,-4515.256246,-1991.848295,8882.471304
16195.234231,-3182.885551,-766.095498,6735.874072
16195.234555,-1258.350101,1072.533697,6217.729913
16195.234879,0.000000,2451.505594,6735.874072
16195.235203,1184.329507,2451.505594,7920.203579
16195.235527,888.247130,2681.334243,7698.141797
16195.235851,1628.453072,2451.505594,8660.409521
16195.236175,666.185348,1915.238745,10807.006753
16195.236499,-1628.453072,-689.485948,12805.562797
16195.236823,-3330.926739,-2451.505594,12879.583391
16195.237147,-2368.659014,-2221.676944,12361.439231
16195.237471,-592.164754,-1378.971896,12435.459826
16195.237795,666.185348,-229.828649,11991.336260
16195.238119,1850.514855,689.485948,10362.883188
16195.238443,2664.741391,2221.676944,8438.347739
16195.238767,4737.318029,3907.087040,7920.203579
16195.239091,5107.421000,4673.182538,7772.162391
16195.239415,3997.112087,4519.963438,7031.956449
16195.239739,2368.659014,3830.477490,7179.997637
16195.240063,296.082377,2987.772442,8882.471304
16195.240387,-2072.576638,-306.438199,9622.677246
16195.240711,-4441.235652,-2298.286494,9326.594869
16195.241035,-5773.606348,-2681.334243,8438.347739
16195.241359,-4515.256246,-2528.115143,8438.347739
16195.241683,-3478.967927,-1915.238745,8956.491898
16195.242007,-2368.659014,-995.924147,7846.182985
16195.242331,-518.144159,536.266849,5847.626942
16195.242655,1406.391290,1685.410096,5847.626942
16195.242979,2368.659014,2681.334243,6957.935855
16195.243302,2664.741391,2068.457845,8956.491898
16195.243626,1480.411884,1685.410096,10140.821405
16195.243950,1036.288319,306.438199,11621.233289
16195.244274,222.061783,-1302.362347,12805.562797
16195.244598,-1406.391290,-2451.505594,12953.603985
16195.244922,-2220.617826,-3217.601092,12879.583391
16195.245246,-1184.329507,-2757.943793,12805.562797
16195.245570,74.020594,-2221.676944,12287.418637
16195.245894,1628.453072,-1149.143247,10510.924376
16195.246218,2664.741391,1302.362347,8808.450710
16195.246542,4071.132681,2911.162892,7772.162391
16195.246866,4737.318029,3524.039291,8068.244768
16195.247190,3552.988522,3830.477490,8290.306550
16195.247514,2368.659014,3524.039291,7624.121203
16195.247838,0.000000,1532.190996,9400.615463
16195.248162,-2516.700203,229.828649,9548.656652
16195.248486,-4367.215058,-1532.190996,9844.739029
16195.248810,-5625.565159,-2451.505594,9844.739029
16195.249134,-5033.400406,-1915.238745,9474.636058
16195.249458,-3923.091493,-1225.752797,8586.388927
16195.249781,-2368.659014,0.000000,7105.977043
16195.250105,-740.205942,1608.800546,6439.791695
16195.250429,1184.329507,3370.820191,5921.647536
16195.250753,2442.679609,3907.087040,6143.709319
16195.251077,2812.782580,4213.525239,7179.997637
16195.251401,2812.782580,3753.867940,8808.450710
16195.251725,1036.288319,3140.991542,10362.883188
16195.252049,0.000000,536.266849,11991.336260
16195.252373,-370.102971,-229.828649,11843.295072
16195.252697,-1110.308913,-995.924147,12287.418637
16195.253021,-1406.391290,-766.095498,11473.192101
16195.253345,-222.061783,-383.047749,11769.274478
16195.253669,1554.432478,1149.143247,10362.883188
16195.253993,2960.823768,2451.505594,8586.388927
16195.254317,3849.070898,4213.525239,7772.162391
16195.254641,4811.338623,4903.011187,6957.935855
16195.254965,4441.235652,4903.011187,7550.100608
16195.255289,3034.844362,4136.915689,8586.388927
16195.255613,518.144159,2604.724693,9252.574275
16195.255937,-2294.638420,612.876398,9252.574275
16195.256260,-3478.967927,-1302.362347,9326.594869
16195.256584,-3404.947333,-1685.410096,9770.718434
16195.256908,-4367.215058,-2145.067394,9992.780217
16195.257232,-4367.215058,-1685.410096,9474.636058
16195.257556,-2220.617826,-1225.752797,8512.368333
16195.257880,-740.205942,-153.219100,7550.100608
16195.258204,74.020594,1072.533697,7105.977043
16195.258528,1332.370696,1762.019645,6883.915261
16195.258852,1998.556043,1532.190996,8142.265362
16195.259176,1332.370696,1225.752797,8808.450710
16195.259500,1036.288319,229.828649,11029.068536
16195.259824,-740.205942,-766.095498,11843.295072
16195.260148,-1776.494261,-2757.943793,11843.295072
16195.260472,-1332.370696,-2987.772442,12435.459826
16195.260796,-814.226536,-2604.724693,11917.315666
16195.261120,0.000000,-2221.676944,11621.233289
16195.261444,1406.391290,-1149.143247,10807.006753
16195.261768,3034.844362,0.000000,9992.780217
16195.262092,3404.947333,1762.019645,9104.533087
16195.262416,3775.050304,2145.067394,8586.388927
16195.262739,3108.864956,2221.676944,7698.141797
16195.263063,2294.638420,2145.067394,7920.203579
16195.263387,74.020594,1455.581446,9400.615463
16195.263711,-2812.782580,-1072.533697,10066.800811
16195.264035,-4737.318029,-2834.553343,9400.615463
16195.264359,-5255.462188,-2987.772442,8956.491898
16195.264683,-4441.235652,-2451.505594,9326.594869
16195.265007,-3849.070898,-1838.629195,9326.594869
16195.265331,-2664.741391,-919.314598,7476.080014
16195.265655,-518.144159,383.047749,6735.874072
16195.265979,1332.370696,1225.752797,6513.812290
16195.266303,2072.576638,2451.505594,6439.791695
16195.266627,2442.679609,2528.115143,7476.080014
16195.266951,1998.556043,2757.943793,8882.471304
16195.267275,1480.411884,2145.067394,10658.965565
16195.267599,592.164754,229.828649,12139.377449
16195.267923,-222.061783,0.000000,11769.274478
16195.268247,-148.041188,-536.266849,11547.212695
16195.268571,1406.391290,-536.266849,12065.356855
16195.268895,2368.659014,842.705048,11991.336260
16195.269218,1702.473667,1225.752797,10436.903782
16195.269542,2442.679609,2911.162892,8438.347739
16195.269866,4293.194464,5056.230287,8068.244768
16195.270190,4293.194464,5286.058936,7920.203579
16195.270514,2738.761985,4519.963438,7624.121203
16195.270838,1406.391290,4519.963438,7328.038826
16195.271162,-444.123565,3294.210641,8216.285956
16195.271486,-2812.782580,1225.752797,8808.450710
16195.271810,-4515.256246,0.000000,9326.594869
16195.272134,-5995.668130,-1455.581446,8734.430116
16195.272458,-4737.318029,-612.876398,8216.285956
16195.272782,-2442.679609,-153.219100,8956.491898
16195.273106,-1998.556043,842.705048,8364.327145
16195.273430,-888.247130,842.705048,7550.100608
16195.273754,1036.288319,2145.067394,7105.977043
16195.274078,2664.741391,2834.553343,7328.038826
16195.274402,2294.638420,2374.896044,8438.347739
16195.274726,2072.576638,1608.800546,9474.636058
16195.275050,1406.391290,689.485948,10510.924376
16195.275373,-888.247130,-459.657299,11843.295072
16195.275697,-1554.432478,-2145.067394,12139.377449
16195.276021,-2072.576638,-2987.772442,12139.377449
16195.276345,-1850.514855,-2757.943793,11325.150913
16195.276669,-222.061783,-2298.286494,11621.233289
16195.276993,1776.494261,-919.314598,10732.986159
16195.277317,1924.535449,-689.485948,9400.615463
16195.277641,2960.823768,1455.581446,7550.100608
16195.277965,4663.297435,2298.286494,7550.100608
16195.278289,3182.885551,2451.505594,7920.203579
16195.278613,2072.576638,1532.190996,8216.285956
16195.278937,370.102971,536.266849,9104.533087
16195.279261,-1480.411884,-459.657299,8734.430116
16195.279585,-2886.803174,-2374.896044,9474.636058
16195.279909,-3627.009116,-3064.381992,9178.553681
16195.280233,-3256.906145,-2681.334243,9474.636058
16195.280557,-1924.535449,-2068.457845,9844.739029
16195.280881,-370.102971,-1225.752797,9252.574275
16195.281205,296.082377,0.000000,7994.224174
16195.281529,740.205942,919.314598,6735.874072
16195.281852,2368.659014,2068.457845,6883.915261
16195.282176,2590.720797,1991.848295,7994.224174
16195.282500,814.226536,1455.581446,8956.491898
16195.282824,-814.226536,612.876398,10436.903782
16195.283148,-2220.617826,-612.876398,10955.047942
16195.283472,-3034.844362,-2374.896044,11695.253884
16195.283796,-3404.947333,-2451.505594,11917.315666
16195.284120,-2442.679609,-1455.581446,11695.253884
16195.284444,-1406.391290,-919.314598,11177.109724
16195.284768,592.164754,306.438199,10066.800811
16195.285092,2886.803174,1991.848295,9474.636058
16195.285416,3256.906145,3370.820191,8216.285956
16195.285740,3849.070898,4826.401637,7254.018232
16195.286064,4441.235652,5132.839837,7476.080014
16195.286388,3330.926739,4443.353888,7920.203579
16195.286712,740.205942,3217.601092,8734.430116
16195.287036,-1480.411884,2757.943793,9104.533087
16195.287360,-3775.050304,-536.266849,9030.512492
16195.287684,-4885.359217,-1532.190996,8882.471304
16195.288008,-4589.276840,-995.924147,9474.636058
16195.288331,-3923.091493,-612.876398,9252.574275
16195.288655,-2072.576638,-536.266849,7994.224174
16195.288979,0.000000,1685.410096,7772.162391
16195.289303,1184.329507,1915.238745,6809.894666
16195.289627,962.267725,2528.115143,6957.935855
16195.289951,1998.556043,2451.505594,7402.059420
16195.290275,2220.617826,2451.505594,8882.471304
16195.290599,1480.411884,1455.581446,10732.986159
16195.290923,-444.123565,76.609550,11621.233289
16195.291247,-1702.473667,-1149.143247,11399.171507
16195.291571,-1406.391290,-2068.457845,11769.274478
16195.291895,-888.247130,-2145.067394,12213.398043
16195.292219,592.164754,-1149.143247,11843.295072
16195.292543,1628.453072,-306.438199,10807.006753
16195.292867,3034.844362,1225.752797,9548.656652
