#time,accel_x,accel_y,accel_z
28463.256203,-2368.659014,1991.848295,10881.027347
28463.256531,-1110.308913,2298.286494,9474.636058
28463.256859,74.020594,2145.067394,8660.409521
28463.257187,1036.288319,2298.286494,7550.100608
28463.257516,518.144159,2987.772442,7550.100608
28463.257844,148.041188,4136.915689,8142.265362
28463.258172,1184.329507,2528.115143,7550.100608
28463.258500,2072.576638,689.485948,7105.977043
28463.258829,1702.473667,612.876398,6883.915261
28463.259157,814.226536,2221.676944,8882.471304
28463.259485,0.000000,1915.238745,10362.883188
28463.259813,148.041188,-1608.800546,10362.883188
28463.260142,222.061783,-3753.867940,9918.759623
28463.260470,-148.041188,-1149.143247,11399.171507
28463.260798,222.061783,1608.800546,10584.944971
28463.261126,1258.350101,766.095498,10288.862594
28463.261455,740.205942,-2528.115143,11843.295072
28463.261783,-1184.329507,-2681.334243,11399.171507
28463.262111,-740.205942,-1762.019645,9622.677246
28463.262439,518.144159,-1685.410096,10066.800811
28463.262768,0.000000,-2221.676944,11029.068536
28463.263096,-2072.576638,-1991.848295,10066.800811
28463.263424,-1036.288319,-2298.286494,9696.697840
28463.263752,666.185348,-2987.772442,9474.636058
28463.264081,1110.308913,-1762.019645,8956.491898
28463.264409,2072.576638,153.219100,9178.553681
28463.264737,2886.803174,1455.581446,8142.265362
28463.265065,3775.050304,1302.362347,7846.182985
28463.265394,4589.276840,1149.143247,8882.471304
28463.265722,3849.070898,2298.286494,8290.306550
28463.266050,4219.173869,2451.505594,7846.182985
28463.266378,4515.256246,2374.896044,7920.203579
28463.266707,3552.988522,1685.410096,8882.471304
28463.267035,2220.617826,2451.505594,8660.409521
28463.267363,2146.597232,2987.772442,8068.244768
28463.267691,2146.597232,2757.943793,8438.347739
28463.268020,1480.411884,2911.162892,8882.471304
28463.268348,1998.556043,2528.115143,9030.512492
28463.268676,1110.308913,4136.915689,9474.636058
28463.269004,1110.308913,4213.525239,9030.512492
28463.269333,1332.370696,3217.601092,9474.636058
28463.269661,518.144159,2987.772442,9992.780217
28463.269989,-296.082377,3983.696590,9696.697840
28463.270317,74.020594,2911.162892,9844.739029
28463.270646,-962.267725,2604.724693,10214.842000
28463.270974,-1702.473667,1685.410096,9770.718434
28463.271302,-1998.556043,2528.115143,9696.697840
28463.271630,-1554.432478,3140.991542,9474.636058
28463.271959,-1554.432478,2604.724693,9474.636058
28463.272287,-1924.535449,2528.115143,9548.656652
28463.272615,-1554.432478,2911.162892,9178.553681
28463.272943,-1110.308913,2681.334243,7994.224174
28463.273272,0.000000,2834.553343,8068.244768
28463.273600,74.020594,2604.724693,9030.512492
28463.273928,-814.226536,2834.553343,8364.327145
28463.274256,-444.123565,1838.629195,8438.347739
28463.274585,222.061783,689.485948,9178.553681
28463.274913,-518.144159,306.438199,9474.636058
28463.275241,-1036.288319,842.705048,8364.327145
28463.275569,0.000000,-383.047749,8808.450710
28463.275898,222.061783,-1072.533697,9918.759623
28463.276226,0.000000,-689.485948,10510.924376
28463.276554,-148.041188,-612.876398,10214.842000
28463.276882,0.000000,-995.924147,9548.656652
28463.277211,1110.308913,-1915.238745,9844.739029
28463.277540,666.185348,-2374.896044,10362.883188
28463.277868,-296.082377,-1225.752797,10214.842000
28463.278197,-592.164754,-2145.067394,9474.636058
28463.278526,222.061783,-3830.477490,10066.800811
28463.278854,-296.082377,-3447.429741,10436.903782
28463.279183,-1110.308913,-1991.848295,9992.780217
28463.279512,-296.082377,-2911.162892,9844.739029
28463.279840,222.061783,-3370.820191,9770.718434
28463.280169,0.000000,-2834.553343,9770.718434
28463.280498,0.000000,-1378.971896,9844.739029
28463.280826,296.082377,-1072.533697,8882.471304
28463.281155,1776.494261,-1762.019645,9178.553681
28463.281484,1998.556043,-1302.362347,9918.759623
28463.281812,1036.288319,229.828649,9474.636058
28463.282141,888.247130,459.657299,8068.244768
28463.282470,2294.638420,-919.314598,8512.368333
28463.282798,1036.288319,-229.828649,9104.533087
28463.283127,0.000000,919.314598,8734.430116
28463.283456,-222.061783,1532.190996,8068.244768
28463.283784,0.000000,766.095498,7994.224174
28463.284113,-222.061783,383.047749,8808.450710
28463.284442,-1110.308913,1455.581446,9030.512492
28463.284770,-1258.350101,1915.238745,8364.327145
28463.285099,-740.205942,1915.238745,8734.430116
28463.285428,0.000000,1072.533697,9696.697840
28463.285756,-962.267725,2451.505594,9918.759623
28463.286085,-1184.329507,3294.210641,9178.553681
28463.286414,74.020594,2451.505594,9104.533087
28463.286742,518.144159,1838.629195,9326.594869
28463.287071,-370.102971,2911.162892,9474.636058
28463.287400,-370.102971,4366.744339,9178.553681
28463.287728,444.123565,3524.039291,8956.491898
28463.288057,888.247130,2911.162892,9400.615463
28463.288386,1110.308913,3830.477490,9474.636058
28463.288714,888.247130,3983.696590,8586.388927
28463.289043,1406.391290,3907.087040,8438.347739
28463.289372,1332.370696,3677.258390,8882.471304
28463.289700,740.205942,3064.381992,9326.594869
28463.290029,-518.144159,3524.039291,8438.347739
28463.290357,148.041188,2834.553343,8586.388927
28463.290686,296.082377,1302.362347,8586.388927
28463.291015,-444.123565,1838.629195,8734.430116
28463.291343,-1110.308913,2068.457845,8512.368333
28463.291672,-444.123565,1225.752797,8586.388927
28463.292001,-370.102971,0.000000,8956.491898
28463.292329,-296.082377,229.828649,9844.739029
28463.292658,-222.061783,612.876398,9770.718434
28463.292987,222.061783,306.438199,9178.553681
28463.293315,740.205942,-612.876398,9548.656652
28463.293644,592.164754,-1225.752797,10658.965565
28463.293973,0.000000,-459.657299,10436.903782
28463.294301,444.123565,-1149.143247,9844.739029
28463.294630,962.267725,-2451.505594,10362.883188
28463.294959,-518.144159,-2834.553343,10362.883188
28463.295287,-1184.329507,-1991.848295,9548.656652
28463.295616,-296.082377,-2757.943793,9474.636058
28463.295945,-296.082377,-2987.772442,9992.780217
28463.296273,-592.164754,-2834.553343,9992.780217
28463.296602,-1258.350101,-2145.067394,9622.677246
28463.296931,-1036.288319,-1685.410096,8956.491898
28463.297259,-592.164754,-2757.943793,8586.388927
28463.297588,-592.164754,-2911.162892,9400.615463
28463.297917,-1998.556043,-1762.019645,9104.533087
28463.298245,-2516.700203,-1915.238745,8512.368333
28463.298574,-1258.350101,-2834.553343,8808.450710
28463.298903,-2220.617826,-3447.429741,9548.656652
28463.299231,-3034.844362,-2681.334243,9030.512492
28463.299560,-2590.720797,-2451.505594,9030.512492
28463.299889,-2368.659014,-3064.381992,9030.512492
28463.300217,-1480.411884,-2374.896044,10288.862594
28463.300546,-1702.473667,-1149.143247,9548.656652
28463.300875,-1480.411884,-689.485948,9252.574275
28463.301203,0.000000,-689.485948,9178.553681
28463.301532,1110.308913,-689.485948,10140.821405
28463.301861,222.061783,995.924147,9548.656652
28463.302189,370.102971,2145.067394,8882.471304
28463.302518,1628.453072,1072.533697,8956.491898
28463.302847,1628.453072,766.095498,9696.697840
28463.303175,962.267725,1762.019645,9770.718434
28463.303504,888.247130,2528.115143,9252.574275
28463.303832,1406.391290,2145.067394,8956.491898
28463.304161,1850.514855,1915.238745,9400.615463
28463.304490,1924.535449,2604.724693,10140.821405
28463.304818,1776.494261,4519.963438,9252.574275
28463.305147,2590.720797,3524.039291,8734.430116
28463.305476,3478.967927,3294.210641,9030.512492
28463.305804,2442.679609,4290.134789,9474.636058
28463.306133,1184.329507,5209.449386,8216.285956
28463.306462,1850.514855,3677.258390,8216.285956
28463.306790,1628.453072,3140.991542,8808.450710
28463.307119,888.247130,3064.381992,9252.574275
28463.307448,0.000000,4136.915689,8660.409521
28463.307776,0.000000,2757.943793,8364.327145
28463.308105,222.061783,2068.457845,9104.533087
28463.308434,0.000000,2068.457845,9770.718434
28463.308762,-666.185348,3217.601092,9326.594869
28463.309091,0.000000,2757.943793,8438.347739
28463.309420,1036.288319,1838.629195,9178.553681
28463.309748,370.102971,1685.410096,9622.677246
28463.310077,-1184.329507,2298.286494,9178.553681
28463.310406,0.000000,1455.581446,9252.574275
28463.310734,222.061783,-383.047749,9622.677246
28463.311063,-666.185348,-383.047749,10066.800811
28463.311392,-1702.473667,306.438199,9400.615463
28463.311720,-1110.308913,153.219100,9326.594869
28463.312049,-740.205942,-1455.581446,9622.677246
28463.312378,-1184.329507,-1915.238745,9992.780217
28463.312706,-1850.514855,-1378.971896,10140.821405
28463.313035,-1258.350101,-1149.143247,9030.512492
28463.313364,0.000000,-2451.505594,9178.553681
28463.313692,0.000000,-2528.115143,9622.677246
28463.314021,-1258.350101,-2145.067394,9622.677246
28463.314350,-1184.329507,-2068.457845,8438.347739
28463.314678,-444.123565,-3217.601092,9030.512492
28463.315007,-740.205942,-3753.867940,9548.656652
28463.315336,-1480.411884,-2451.505594,9252.574275
28463.315664,-1110.308913,-2451.505594,8882.471304
28463.315993,-296.082377,-3064.381992,9252.574275
28463.316321,-370.102971,-2911.162892,9252.574275
28463.316650,-296.082377,-2451.505594,9474.636058
28463.316979,-518.144159,-1302.362347,8808.450710
28463.317307,592.164754,-1685.410096,9104.533087
28463.317636,740.205942,-2374.896044,9548.656652
28463.317965,-296.082377,-1072.533697,9696.697840
28463.318293,-74.020594,-536.266849,9326.594869
28463.318622,666.185348,-1302.362347,8956.491898
28463.318951,592.164754,-2068.457845,9770.718434
28463.319279,-666.185348,-612.876398,9992.780217
28463.319608,-592.164754,-306.438199,9252.574275
28463.319937,296.082377,-766.095498,9622.677246
28463.320265,666.185348,-306.438199,10362.883188
28463.320594,-370.102971,919.314598,10140.821405
28463.320923,1036.288319,1915.238745,9844.739029
28463.321251,1776.494261,2451.505594,9400.615463
28463.321580,2294.638420,2068.457845,9548.656652
28463.321909,1184.329507,2987.772442,9696.697840
28463.322237,444.123565,3677.258390,8808.450710
28463.322566,1628.453072,2834.553343,9326.594869
28463.322895,1998.556043,2298.286494,9178.553681
28463.323223,814.226536,2987.772442,8808.450710
28463.323552,370.102971,4213.525239,8216.285956
28463.323881,1036.288319,3753.867940,8438.347739
28463.324209,1110.308913,3294.210641,8734.430116
28463.324538,962.267725,3830.477490,9474.636058
28463.324867,444.123565,4596.572988,8882.471304
28463.325195,740.205942,4903.011187,7624.121203
28463.325524,2146.597232,3830.477490,8660.409521
28463.325853,1036.288319,3753.867940,9252.574275
28463.326181,148.041188,4596.572988,8586.388927
28463.326510,666.185348,3753.867940,8438.347739
28463.326839,814.226536,2528.115143,9178.553681
28463.327167,-592.164754,2374.896044,9474.636058
28463.327496,-1184.329507,2757.943793,8808.450710
28463.327825,-222.061783,1915.238745,9030.512492
28463.328153,-296.082377,919.314598,9400.615463
28463.328482,-592.164754,919.314598,9918.759623
28463.328811,-814.226536,1455.581446,9844.739029
28463.329139,-222.061783,1149.143247,9178.553681
28463.329468,740.205942,229.828649,9252.574275
28463.329796,814.226536,612.876398,10066.800811
28463.330125,-666.185348,995.924147,9474.636058
28463.330454,-888.247130,153.219100,8956.491898
28463.330782,0.000000,-1149.143247,9252.574275
28463.331111,-740.205942,-1532.190996,9474.636058
28463.331440,-1406.391290,-1302.362347,9326.594869
28463.331768,-1184.329507,-995.924147,8882.471304
28463.332097,-814.226536,-2145.067394,8734.430116
28463.332426,-666.185348,-2451.505594,9400.615463
28463.332754,-1110.308913,-1915.238745,9548.656652
28463.333083,-1036.288319,-1608.800546,8808.450710
28463.333412,0.000000,-2221.676944,8586.388927
28463.333740,222.061783,-2604.724693,9622.677246
28463.334069,-740.205942,-1838.629195,9400.615463
28463.334398,-1332.370696,-1225.752797,8586.388927
28463.334726,0.000000,-2834.553343,9104.533087
28463.335055,-1036.288319,-3524.039291,9548.656652
28463.335384,-2072.576638,-2604.724693,9770.718434
28463.335712,-1776.494261,-2451.505594,9474.636058
28463.336041,-1184.329507,-3064.381992,9770.718434
28463.336370,-1406.391290,-3294.210641,10362.883188
28463.336698,-1406.391290,-1762.019645,10955.047942
28463.337027,-1184.329507,-1225.752797,9770.718434
28463.337356,0.000000,-1378.971896,9770.718434
28463.337684,962.267725,-1225.752797,10510.924376
28463.338013,0.000000,229.828649,10066.800811
28463.338342,-666.185348,1225.752797,9178.553681
28463.338670,518.144159,383.047749,8808.450710
28463.338999,1110.308913,-229.828649,9696.697840
28463.339328,-296.082377,1302.362347,9474.636058
28463.339656,-296.082377,1991.848295,8808.450710
28463.339985,370.102971,1455.581446,8660.409521
28463.340314,666.185348,1532.190996,8882.471304
28463.340642,814.226536,2298.286494,9622.677246
28463.340971,518.144159,4136.915689,9178.553681
28463.341300,1110.308913,4213.525239,7698.141797
28463.341628,2368.659014,3447.429741,8734.430116
28463.341957,2516.700203,3447.429741,9622.677246
28463.342286,1036.288319,4979.620737,8660.409521
28463.342614,2146.597232,4673.182538,8586.388927
28463.342943,2368.659014,3217.601092,9030.512492
28463.343271,1258.350101,3524.039291,9326.594869
28463.343600,666.185348,4826.401637,8512.368333
28463.343929,1406.391290,4060.306139,8364.327145
28463.344257,1332.370696,3140.991542,8808.450710
28463.344586,962.267725,3064.381992,9400.615463
28463.344915,592.164754,3907.087040,9474.636058
28463.345243,444.123565,4213.525239,8512.368333
28463.345572,1406.391290,2987.772442,8808.450710
28463.345901,1110.308913,2451.505594,9548.656652
28463.346229,-444.123565,3753.867940,9030.512492
28463.346558,-444.123565,2528.115143,8512.368333
28463.346887,74.020594,1149.143247,9326.594869
28463.347215,-1110.308913,766.095498,9474.636058
28463.347544,-1924.535449,1072.533697,8808.450710
28463.347873,-814.226536,306.438199,8512.368333
28463.348201,-1036.288319,-383.047749,8956.491898
28463.348530,-962.267725,153.219100,9030.512492
28463.348859,-962.267725,0.000000,9252.574275
28463.349187,-888.247130,153.219100,8660.409521
28463.349516,0.000000,-766.095498,8734.430116
28463.349845,0.000000,-1762.019645,9770.718434
28463.350173,-1184.329507,-1072.533697,9770.718434
28463.350502,-962.267725,-536.266849,8734.430116
28463.350831,0.000000,-2604.724693,9474.636058
28463.351159,-666.185348,-3294.210641,9844.739029
28463.351488,-1480.411884,-2451.505594,9844.739029
28463.351817,-888.247130,-2604.724693,9622.677246
28463.352145,-444.123565,-2834.553343,9622.677246
28463.352474,-666.185348,-3294.210641,9844.739029
28463.352803,-444.123565,-2221.676944,9844.739029
28463.353131,-666.185348,-1455.581446,9252.574275
28463.353460,592.164754,-2145.067394,9326.594869
28463.353789,666.185348,-3064.381992,9992.780217
28463.354117,-222.061783,-1915.238745,9918.759623
28463.354446,-814.226536,-995.924147,9178.553681
28463.354775,74.020594,-2221.676944,9326.594869
28463.355103,222.061783,-2757.943793,9770.718434
28463.355432,-962.267725,-1378.971896,9548.656652
28463.355761,-962.267725,-1532.190996,9400.615463
28463.356089,-592.164754,-1762.019645,9252.574275
28463.356418,-370.102971,-1532.190996,9844.739029
28463.356746,-518.144159,-383.047749,10288.862594
28463.357075,-666.185348,612.876398,9474.636058
28463.357404,518.144159,459.657299,8956.491898
28463.357732,1332.370696,229.828649,9696.697840
28463.358061,592.164754,1072.533697,9992.780217
28463.358390,222.061783,2528.115143,9326.594869
28463.358718,1036.288319,1991.848295,9252.574275
28463.359047,1184.329507,1072.533697,9474.636058
28463.359376,518.144159,1762.019645,9474.636058
28463.359704,370.102971,2757.943793,9178.553681
28463.360033,370.102971,2834.553343,8660.409521
28463.360362,666.185348,2298.286494,9030.512492
28463.360690,1036.288319,2757.943793,9622.677246
28463.361019,962.267725,3600.648841,9400.615463
28463.361348,888.247130,3983.696590,8216.285956
28463.361676,1924.535449,3753.867940,8290.306550
28463.362005,1998.556043,2681.334243,9548.656652
28463.362334,666.185348,4596.572988,8586.388927
28463.362662,814.226536,4136.915689,8142.265362
28463.362991,1406.391290,2451.505594,8660.409521
28463.363320,814.226536,2451.505594,9252.574275
28463.363648,-592.164754,2451.505594,8364.327145
28463.363977,148.041188,3140.991542,7994.224174
28463.364306,740.205942,1838.629195,9030.512492
28463.364634,296.082377,1608.800546,9252.574275
28463.364963,74.020594,2068.457845,9400.615463
28463.365292,370.102971,2298.286494,8882.471304
28463.365620,740.205942,1608.800546,8438.347739
28463.365949,962.267725,995.924147,9252.574275
28463.366278,0.000000,2145.067394,9178.553681
28463.366606,-296.082377,1455.581446,8882.471304
28463.366935,0.000000,-612.876398,9252.574275
28463.367264,0.000000,-1532.190996,9622.677246
28463.367592,-1406.391290,-689.485948,9104.533087
28463.367921,-1110.308913,-383.047749,9104.533087
28463.368250,-518.144159,-1455.581446,9326.594869
28463.368578,-888.247130,-1762.019645,9548.656652
28463.368907,-1702.473667,-1762.019645,9918.759623
28463.369236,-1184.329507,-1225.752797,9548.656652
28463.369564,-296.082377,-1838.629195,9178.553681
28463.369893,296.082377,-2528.115143,10066.800811
28463.370221,-888.247130,-2145.067394,10066.800811
28463.370550,-814.226536,-1915.238745,9400.615463
28463.370879,-296.082377,-2451.505594,9178.553681
28463.371207,-296.082377,-2834.553343,9548.656652
28463.371536,-1036.288319,-2681.334243,9622.677246
28463.371865,-1480.411884,-1838.629195,9030.512492
28463.372193,-962.267725,-2834.553343,9474.636058
28463.372522,-962.267725,-2987.772442,9770.718434
28463.372851,-1628.453072,-1991.848295,9992.780217
28463.373179,-1332.370696,-1685.410096,9400.615463
28463.373508,-888.247130,-1762.019645,9252.574275
28463.373837,-444.123565,-2374.896044,10436.903782
28463.374165,-1184.329507,-1838.629195,10214.842000
28463.374494,-1480.411884,-919.314598,9696.697840
28463.374823,-962.267725,-1378.971896,9474.636058
28463.375151,-592.164754,-1762.019645,9918.759623
28463.375480,-1110.308913,-842.705048,9696.697840
28463.375809,-1036.288319,153.219100,9696.697840
28463.376137,0.000000,-229.828649,9548.656652
28463.376466,0.000000,-536.266849,9696.697840
28463.376795,0.000000,689.485948,10066.800811
28463.377123,370.102971,1455.581446,9548.656652
28463.377452,1406.391290,1532.190996,9178.553681
28463.377781,2368.659014,1225.752797,9252.574275
28463.378109,1628.453072,1838.629195,9696.697840
28463.378438,962.267725,3140.991542,8808.450710
28463.378767,1702.473667,3064.381992,8882.471304
28463.379095,2072.576638,1915.238745,9104.533087
28463.379424,1480.411884,2604.724693,9474.636058
28463.379753,888.247130,3140.991542,8660.409521
28463.380081,1036.288319,3064.381992,8216.285956
28463.380410,1702.473667,2681.334243,8660.409521
28463.380739,1406.391290,2911.162892,9178.553681
28463.381067,1406.391290,4060.306139,8808.450710
28463.381396,1776.494261,4443.353888,8290.306550
28463.381725,2368.659014,4060.306139,8290.306550
28463.382053,1924.535449,3983.696590,9104.533087
28463.382382,666.185348,4443.353888,8734.430116
28463.382711,-222.061783,4136.915689,7476.080014
28463.383039,888.247130,2145.067394,8438.347739
28463.383368,0.000000,2068.457845,9252.574275
28463.383697,-1110.308913,2451.505594,8808.450710
28463.384025,-1036.288319,1762.019645,8512.368333
28463.384354,-740.205942,536.266849,8734.430116
28463.384682,-1258.350101,306.438199,9326.594869
28463.385011,-1406.391290,2068.457845,9104.533087
28463.385340,-814.226536,1378.971896,8956.491898
28463.385668,-222.061783,459.657299,8882.471304
28463.385997,0.000000,0.000000,9474.636058
28463.386326,-962.267725,766.095498,9474.636058
28463.386654,-962.267725,612.876398,8734.430116
28463.386983,-222.061783,-919.314598,8956.491898
28463.387312,-444.123565,-1455.581446,10066.800811
28463.387640,-1776.494261,-1225.752797,9770.718434
28463.387969,-1480.411884,-1225.752797,9622.677246
28463.388298,-1184.329507,-2298.286494,9622.677246
28463.388626,-888.247130,-2757.943793,10140.821405
28463.388955,-518.144159,-1302.362347,10362.883188
28463.389284,-814.226536,-1225.752797,9474.636058
28463.389612,0.000000,-1302.362347,9030.512492
28463.389941,592.164754,-2221.676944,9548.656652
28463.390270,0.000000,-1532.190996,9992.780217
28463.390598,-666.185348,-689.485948,9400.615463
28463.390927,74.020594,-1608.800546,9252.574275
28463.391256,0.000000,-2681.334243,9622.677246
28463.391584,-1036.288319,-2681.334243,9844.739029
28463.391913,-1036.288319,-1762.019645,9474.636058
28463.392242,-370.102971,-2068.457845,9548.656652
28463.392570,-444.123565,-2604.724693,9696.697840
28463.392899,-518.144159,-1532.190996,10214.842000
28463.393228,-444.123565,-536.266849,10066.800811
28463.393556,0.000000,306.438199,9326.594869
28463.393885,1184.329507,-153.219100,9622.677246
28463.394214,814.226536,-689.485948,10362.883188
28463.394542,-222.061783,1072.533697,9474.636058
28463.394871,444.123565,766.095498,9326.594869
28463.395200,1110.308913,-383.047749,10066.800811
28463.395528,222.061783,612.876398,10066.800811
28463.395857,-148.041188,1838.629195,8882.471304
28463.396186,74.020594,1149.143247,9178.553681
28463.396514,296.082377,1072.533697,8882.471304
28463.396843,296.082377,1685.410096,9104.533087
28463.397172,148.041188,2604.724693,9252.574275
28463.397500,518.144159,3370.820191,8290.306550
28463.397829,1406.391290,2911.162892,8364.327145
28463.398158,2072.576638,3140.991542,9030.512492
28463.398486,814.226536,4366.744339,8956.491898
28463.398815,592.164754,4596.572988,7624.121203
28463.399144,1628.453072,2681.334243,8438.347739
28463.399472,1036.288319,2757.943793,8956.491898
28463.399801,0.000000,3524.039291,8586.388927
28463.400130,740.205942,3677.258390,8290.306550
28463.400458,962.267725,2757.943793,8438.347739
28463.400787,1036.288319,2298.286494,8660.409521
28463.401116,888.247130,3600.648841,9252.574275
28463.401444,592.164754,3753.867940,8290.306550
28463.401773,1480.411884,3064.381992,8512.368333
28463.402101,1850.514855,2528.115143,9474.636058
28463.402430,518.144159,3294.210641,9030.512492
28463.402759,-444.123565,3753.867940,8142.265362
28463.403087,814.226536,1149.143247,8586.388927
28463.403416,222.061783,689.485948,9326.594869
28463.403745,-1258.350101,1149.143247,9252.574275
28463.404073,-962.267725,766.095498,9030.512492
28463.404402,-962.267725,0.000000,8808.450710
28463.404731,-592.164754,-229.828649,9622.677246
28463.405059,-592.164754,-306.438199,9696.697840
28463.405388,-1480.411884,536.266849,8808.450710
28463.405717,74.020594,-612.876398,9326.594869
28463.406045,592.164754,-1072.533697,9770.718434
28463.406374,-222.061783,-612.876398,10214.842000
28463.406703,-814.226536,-153.219100,9622.677246
28463.407031,148.041188,-995.924147,9474.636058
28463.407360,148.041188,-2681.334243,10732.986159
28463.407689,-1110.308913,-2221.676944,9918.759623
28463.408017,-962.267725,-1915.238745,9770.718434
28463.408346,-370.102971,-2221.676944,9622.677246
28463.408675,-592.164754,-2604.724693,9918.759623
28463.409003,-888.247130,-2145.067394,10066.800811
28463.409332,-666.185348,-1225.752797,9548.656652
28463.409661,-518.144159,-1685.410096,9030.512492
28463.409989,222.061783,-1685.410096,9474.636058
28463.410318,-740.205942,-2374.896044,10214.842000
28463.410647,-1924.535449,-1225.752797,9252.574275
28463.410975,-1258.350101,-2298.286494,9252.574275
28463.411304,-666.185348,-2757.943793,10066.800811
28463.411633,-2146.597232,-1991.848295,10066.800811
28463.411961,-2442.679609,-1455.581446,8734.430116
28463.412290,-1258.350101,-2221.676944,9474.636058
28463.412619,-814.226536,-2681.334243,10140.821405
28463.412947,-1036.288319,-1149.143247,10214.842000
28463.413276,-814.226536,-383.047749,9918.759623
28463.413605,0.000000,0.000000,9400.615463
28463.413933,1036.288319,0.000000,9326.594869
28463.414262,1406.391290,459.657299,10066.800811
28463.414591,740.205942,1455.581446,9696.697840
28463.414919,814.226536,1378.971896,8364.327145
28463.415248,1998.556043,459.657299,9252.574275
28463.415577,1036.288319,919.314598,9622.677246
28463.415905,0.000000,2528.115143,8586.388927
28463.416234,888.247130,1915.238745,8290.306550
28463.416563,1406.391290,1838.629195,8586.388927
28463.416891,1184.329507,2451.505594,8438.347739
28463.417220,1332.370696,3140.991542,8956.491898
28463.417549,1406.391290,3907.087040,8364.327145
28463.417877,2072.576638,3600.648841,7920.203579
28463.418206,2590.720797,2911.162892,9252.574275
28463.418534,1332.370696,4213.525239,8660.409521
28463.418863,888.247130,4903.011187,7550.100608
28463.419192,2146.597232,2987.772442,8068.244768
28463.419520,1258.350101,2145.067394,8586.388927
28463.419849,74.020594,3064.381992,8660.409521
28463.420178,0.000000,3217.601092,8512.368333
28463.420506,740.205942,2374.896044,8734.430116
28463.420835,-222.061783,1991.848295,8808.450710
28463.421164,-296.082377,2451.505594,9696.697840
28463.421492,-444.123565,3294.210641,8882.471304
28463.421821,0.000000,2298.286494,8438.347739
28463.422150,592.164754,1302.362347,9326.594869
28463.422478,-370.102971,1608.800546,9696.697840
28463.422807,-1036.288319,2145.067394,9104.533087
28463.423136,0.000000,536.266849,9252.574275
28463.423464,-296.082377,0.000000,9474.636058
28463.423793,-1480.411884,153.219100,9622.677246
28463.424122,-1554.432478,612.876398,9030.512492
28463.424450,-592.164754,-612.876398,9400.615463
28463.424779,-740.205942,-1378.971896,9844.739029
28463.425108,-1110.308913,-995.924147,10140.821405
28463.425436,-1184.329507,-689.485948,9844.739029
28463.425765,-148.041188,-1302.362347,9326.594869
28463.426094,370.102971,-1762.019645,9918.759623
28463.426422,-370.102971,-1838.629195,10362.883188
28463.426751,-1406.391290,-1225.752797,9622.677246
28463.427080,-666.185348,-1991.848295,9326.594869
28463.427408,0.000000,-3217.601092,10214.842000
28463.427737,-1110.308913,-2451.505594,10140.821405
28463.428066,-1924.535449,-1915.238745,8808.450710
28463.428394,-296.082377,-2757.943793,9474.636058
28463.428723,0.000000,-2834.553343,9844.739029
28463.429052,-740.205942,-2528.115143,9992.780217
28463.429380,-666.185348,-1685.410096,9918.759623
28463.429709,74.020594,-1762.019645,9326.594869
28463.430038,1036.288319,-2145.067394,9548.656652
28463.430366,888.247130,-1532.190996,10140.821405
28463.430695,-296.082377,-689.485948,9474.636058
28463.431024,296.082377,-842.705048,8956.491898
28463.431352,666.185348,-1685.410096,9252.574275
28463.431681,148.041188,-1608.800546,9770.718434
28463.432010,-740.205942,-229.828649,9252.574275
28463.432338,-518.144159,612.876398,9030.512492
28463.432667,0.000000,-919.314598,9030.512492
28463.432996,-148.041188,-1072.533697,9178.553681
28463.433324,-814.226536,536.266849,8956.491898
28463.433653,0.000000,1532.190996,8808.450710
28463.433982,666.185348,1532.190996,8660.409521
28463.434310,740.205942,1225.752797,9252.574275
28463.434639,0.000000,2298.286494,8808.450710
28463.434968,592.164754,1838.629195,8660.409521
28463.435296,962.267725,2145.067394,8438.347739
28463.435625,814.226536,1608.800546,9474.636058
28463.435953,0.000000,2757.943793,8882.471304
28463.436282,444.123565,2757.943793,8660.409521
28463.436611,1332.370696,2528.115143,9030.512492
28463.436939,1036.288319,3294.210641,8956.491898
28463.437268,444.123565,3370.820191,9030.512492
28463.437597,1480.411884,4060.306139,9104.533087
28463.437925,1924.535449,3677.258390,8216.285956
28463.438254,1924.535449,3447.429741,9178.553681
28463.438583,962.267725,3600.648841,9104.533087
28463.438911,296.082377,3907.087040,8290.306550
28463.439240,1184.329507,2757.943793,8586.388927
28463.439569,1258.350101,2145.067394,9474.636058
28463.439897,0.000000,2374.896044,9326.594869
28463.440226,-888.247130,2528.115143,8438.347739
28463.440555,-296.082377,1302.362347,8438.347739
28463.440883,-222.061783,536.266849,9326.594869
28463.441212,-814.226536,1225.752797,9770.718434
28463.441541,-740.205942,1685.410096,9252.574275
28463.441869,0.000000,1225.752797,8660.409521
28463.442198,1110.308913,-306.438199,10066.800811
28463.442527,222.061783,229.828649,10436.903782
28463.442855,-666.185348,1302.362347,9252.574275
28463.443184,0.000000,76.609550,9474.636058
28463.443513,740.205942,-1455.581446,10214.842000
28463.443841,-592.164754,-1608.800546,10140.821405
28463.444170,-1184.329507,0.000000,9400.615463
28463.444499,0.000000,-1532.190996,9622.677246
28463.444827,0.000000,-2451.505594,10066.800811
28463.445156,-592.164754,-1915.238745,10510.924376
28463.445485,-740.205942,-1072.533697,10288.862594
28463.445813,-370.102971,-1378.971896,9030.512492
28463.446142,370.102971,-2298.286494,9252.574275
28463.446471,148.041188,-2374.896044,10066.800811
28463.446799,-1332.370696,-1455.581446,8586.388927
28463.447128,-518.144159,-1302.362347,8660.409521
28463.447457,0.000000,-2757.943793,9474.636058
28463.447785,-1628.453072,-2987.772442,9474.636058
28463.448114,-2294.638420,-2221.676944,9252.574275
28463.448443,-1702.473667,-2298.286494,9252.574275
28463.448771,-1702.473667,-2987.772442,9400.615463
28463.449100,-1924.535449,-2911.162892,9696.697840
28463.449429,-1480.411884,-1915.238745,10436.903782
28463.449757,-1628.453072,-1302.362347,9474.636058
28463.450086,-592.164754,-1838.629195,9104.533087
28463.450415,0.000000,-1991.848295,10066.800811
28463.450743,-1036.288319,-383.047749,9696.697840
28463.451072,-1258.350101,306.438199,9326.594869
28463.451401,518.144159,-766.095498,9252.574275
28463.451729,370.102971,-1072.533697,9548.656652
28463.452058,-444.123565,0.000000,9252.574275
28463.452387,148.041188,1072.533697,8956.491898
28463.452715,814.226536,919.314598,8882.471304
28463.453044,1332.370696,1378.971896,9252.574275
28463.453372,888.247130,1762.019645,9474.636058
28463.453701,1036.288319,3140.991542,8364.327145
28463.454030,1924.535449,2528.115143,8660.409521
28463.454358,2368.659014,2528.115143,9030.512492
28463.454687,1406.391290,3064.381992,9104.533087
28463.455016,1184.329507,3524.039291,8364.327145
28463.455344,2220.617826,3524.039291,8956.491898
28463.455673,1776.494261,2987.772442,8882.471304
28463.456002,814.226536,3370.820191,8808.450710
28463.456330,1036.288319,3600.648841,8808.450710
28463.456659,1406.391290,3140.991542,8882.471304
28463.456988,1258.350101,2987.772442,9178.553681
28463.457316,888.247130,3677.258390,9474.636058
28463.457645,1258.350101,4213.525239,8956.491898
28463.457974,1480.411884,3064.381992,8290.306550
28463.458302,1998.556043,3370.820191,9104.533087
28463.458631,814.226536,3753.867940,9622.677246
28463.458960,74.020594,3983.696590,9030.512492
28463.459288,518.144159,2681.334243,9178.553681
28463.459617,222.061783,1915.238745,9474.636058
28463.459946,-962.267725,2221.676944,9400.615463
28463.460274,-1036.288319,1991.848295,9252.574275
28463.460603,-888.247130,1072.533697,9104.533087
28463.460932,-666.185348,306.438199,9474.636058
28463.461260,-1184.329507,459.657299,9918.759623
28463.461589,-1036.288319,766.095498,9622.677246
28463.461918,-592.164754,766.095498,8734.430116
28463.462246,-74.020594,-536.266849,9400.615463
28463.462575,-296.082377,0.000000,9918.759623
28463.462904,-1554.432478,229.828649,9474.636058
28463.463232,-1110.308913,-766.095498,9400.615463
28463.463561,-370.102971,-2451.505594,9992.780217
28463.463890,-1332.370696,-2451.505594,9844.739029
28463.464218,-1628.453072,-1762.019645,9548.656652
28463.464547,-814.226536,-2068.457845,9326.594869
28463.464876,-296.082377,-2757.943793,9844.739029
28463.465204,-518.144159,-2451.505594,9696.697840
28463.465533,0.000000,-2068.457845,9992.780217
28463.465862,222.061783,-1378.971896,9030.512492
28463.466190,888.247130,-1915.238745,9104.533087
28463.466519,1184.329507,-2068.457845,9918.759623
28463.466848,0.000000,-995.924147,9326.594869
28463.467176,0.000000,-1991.848295,8956.491898
28463.467505,592.164754,-2221.676944,9104.533087
28463.467834,-222.061783,-2451.505594,9622.677246
28463.468162,-1184.329507,-1532.190996,9030.512492
28463.468491,-740.205942,-1608.800546,9030.512492
28463.468820,-296.082377,-2145.067394,9104.533087
28463.469148,-1184.329507,-1915.238745,9474.636058
28463.469477,-666.185348,-842.705048,9104.533087
28463.469806,-518.144159,0.000000,8808.450710
28463.470134,222.061783,0.000000,8956.491898
28463.470463,814.226536,0.000000,9622.677246
28463.470791,0.000000,1302.362347,9622.677246
28463.471120,-370.102971,1991.848295,8808.450710
28463.471449,592.164754,612.876398,9030.512492
28463.471777,740.205942,919.314598,9918.759623
28463.472106,-888.247130,1915.238745,8956.491898
28463.472435,-296.082377,2374.896044,8956.491898
28463.472763,592.164754,1838.629195,9178.553681
28463.473092,444.123565,1762.019645,9326.594869
28463.473421,592.164754,2911.162892,9474.636058
28463.473749,518.144159,3753.867940,8808.450710
28463.474078,1628.453072,3830.477490,8882.471304
28463.474407,1998.556043,3064.381992,9104.533087
28463.474735,1628.453072,3830.477490,9474.636058
28463.475064,592.164754,4596.572988,8586.388927
28463.475393,1258.350101,3753.867940,8808.450710
28463.475721,1480.411884,2757.943793,9252.574275
28463.476050,148.041188,3140.991542,9104.533087
28463.476379,222.061783,3217.601092,8660.409521
28463.476707,148.041188,2604.724693,8586.388927
28463.477036,370.102971,1915.238745,9030.512492
28463.477365,148.041188,2451.505594,9622.677246
28463.477693,222.061783,3140.991542,9622.677246
28463.478022,740.205942,2911.162892,8734.430116
28463.478350,1184.329507,1991.848295,8734.430116
28463.478679,1184.329507,1455.581446,9844.739029
28463.479008,0.000000,2068.457845,9622.677246
28463.479336,0.000000,1762.019645,9030.512492
28463.479665,518.144159,0.000000,9474.636058
28463.479994,-444.123565,-536.266849,9918.759623
28463.480322,-1184.329507,0.000000,9104.533087
28463.480651,-296.082377,306.438199,8956.491898
28463.480979,0.000000,-153.219100,9622.677246
28463.481308,-518.144159,-1225.752797,9548.656652
28463.481637,-592.164754,-766.095498,9548.656652
28463.481965,-222.061783,-1072.533697,9400.615463
28463.482294,296.082377,-1149.143247,9030.512492
28463.482622,740.205942,-2298.286494,9918.759623
28463.482951,-666.185348,-1072.533697,9474.636058
28463.483280,-962.267725,-1762.019645,8586.388927
28463.483608,0.000000,-2987.772442,9474.636058
28463.483937,-1258.350101,-3064.381992,9844.739029
28463.484265,-2294.638420,-2145.067394,9030.512492
28463.484594,-1480.411884,-2451.505594,8882.471304
28463.484923,-1110.308913,-2911.162892,9252.574275
28463.485251,-1332.370696,-2987.772442,9548.656652
28463.485580,-1850.514855,-1915.238745,9474.636058
28463.485908,-1258.350101,-1762.019645,9474.636058
28463.486237,-518.144159,-2528.115143,8882.471304
28463.486566,-222.061783,-2451.505594,9918.759623
28463.486894,-1332.370696,-1149.143247,10066.800811
28463.487223,-1554.432478,-612.876398,8956.491898
28463.487551,-666.185348,-2298.286494,9622.677246
28463.487880,-518.144159,-2451.505594,9844.739029
28463.488209,-1628.453072,-1532.190996,9696.697840
28463.488537,-1406.391290,-766.095498,9326.594869
28463.488866,-666.185348,-1302.362347,9474.636058
28463.489194,-444.123565,-1149.143247,9548.656652
28463.489523,-370.102971,0.000000,9770.718434
28463.489852,148.041188,1225.752797,9104.533087
28463.490180,666.185348,1225.752797,8438.347739
28463.490509,1406.391290,919.314598,9474.636058
28463.490837,962.267725,1455.581446,9548.656652
28463.491166,370.102971,2757.943793,8882.471304
28463.491495,962.267725,2068.457845,8882.471304
28463.491823,1406.391290,1225.752797,9326.594869
28463.492152,296.082377,1685.410096,9178.553681
28463.492480,74.020594,2451.505594,8734.430116
28463.492809,1406.391290,2451.505594,9326.594869
28463.493138,1702.473667,2451.505594,9474.636058
28463.493466,1406.391290,2834.553343,9548.656652
28463.493795,1554.432478,3830.477490,9400.615463
28463.494123,2294.638420,4213.525239,8364.327145
28463.494452,3182.885551,3524.039291,9252.574275
28463.494781,2368.659014,3524.039291,9844.739029
28463.495109,1184.329507,4443.353888,9030.512492
28463.495438,1480.411884,3907.087040,8586.388927
28463.495767,1998.556043,2221.676944,9252.574275
28463.496095,296.082377,2298.286494,8956.491898
28463.496424,-518.144159,3524.039291,8068.244768
28463.496752,0.000000,2528.115143,8438.347739
28463.497081,0.000000,1608.800546,8956.491898
28463.497410,-592.164754,995.924147,9252.574275
28463.497738,-1110.308913,2068.457845,9400.615463
28463.498067,-740.205942,2068.457845,8512.368333
28463.498395,0.000000,612.876398,8512.368333
28463.498724,0.000000,536.266849,9696.697840
28463.499053,-1110.308913,1225.752797,8956.491898
28463.499381,-1110.308913,766.095498,8216.285956
28463.499710,-296.082377,-1302.362347,9104.533087
28463.500038,-666.185348,-1532.190996,9696.697840
28463.500367,-1924.535449,-536.266849,9400.615463
28463.500696,-1480.411884,-766.095498,8808.450710
28463.501024,-740.205942,-2068.457845,9178.553681
28463.501353,-814.226536,-2374.896044,9918.759623
28463.501681,-1332.370696,-1302.362347,9918.759623
28463.502010,-814.226536,-1225.752797,9400.615463
28463.502339,74.020594,-1991.848295,9252.574275
28463.502667,814.226536,-2451.505594,10066.800811
28463.502996,-74.020594,-536.266849,10140.821405
28463.503324,-740.205942,-306.438199,9252.574275
28463.503653,518.144159,-2298.286494,8734.430116
28463.503982,370.102971,-3447.429741,9696.697840
28463.504310,-1480.411884,-2145.067394,9474.636058
28463.504639,-1332.370696,-1608.800546,8956.491898
28463.504967,-814.226536,-2528.115143,9178.553681
28463.505296,-740.205942,-2757.943793,9622.677246
28463.505625,-666.185348,-2221.676944,9918.759623
28463.505953,-592.164754,-842.705048,8882.471304
28463.506282,296.082377,-536.266849,9104.533087
28463.506610,888.247130,-1685.410096,9844.739029
28463.506939,148.041188,-689.485948,9992.780217
28463.507268,-740.205942,612.876398,9400.615463
28463.507596,74.020594,-459.657299,9104.533087
28463.507925,814.226536,-1072.533697,9992.780217
28463.508253,0.000000,-459.657299,10362.883188
28463.508582,-444.123565,1072.533697,9474.636058
28463.508911,222.061783,842.705048,9474.636058
28463.509239,740.205942,459.657299,9918.759623
28463.509568,444.123565,1072.533697,10140.821405
28463.509896,592.164754,3064.381992,9770.718434
28463.510225,1036.288319,2451.505594,8660.409521
28463.510554,1776.494261,2604.724693,9104.533087
28463.510882,1258.350101,2451.505594,9474.636058
28463.511211,518.144159,3753.867940,9178.553681
28463.511540,1110.308913,3370.820191,8586.388927
28463.511868,1628.453072,2528.115143,9104.533087
28463.512197,592.164754,2604.724693,9326.594869
28463.512525,-444.123565,3677.258390,8512.368333
28463.512854,444.123565,3294.210641,8068.244768
28463.513183,518.144159,2528.115143,8512.368333
28463.513511,444.123565,2757.943793,9178.553681
28463.513840,148.041188,3600.648841,8882.471304
28463.514168,814.226536,3830.477490,8142.265362
28463.514497,2220.617826,3677.258390,8660.409521
28463.514826,1628.453072,2911.162892,9474.636058
28463.515154,222.061783,3600.648841,9252.574275
28463.515483,592.164754,3447.429741,8142.265362
28463.515811,1184.329507,1455.581446,8956.491898
28463.516140,222.061783,1149.143247,9474.636058
28463.516469,-888.247130,1685.410096,8882.471304
28463.516797,-740.205942,1762.019645,8438.347739
28463.517126,-222.061783,383.047749,8808.450710
28463.517454,-296.082377,229.828649,9918.759623
28463.517783,-1110.308913,995.924147,9474.636058
28463.518112,-518.144159,1072.533697,8808.450710
28463.518440,444.123565,229.828649,8586.388927
28463.518769,444.123565,-919.314598,9474.636058
28463.519097,-518.144159,-153.219100,9252.574275
28463.519426,-888.247130,1072.533697,8586.388927
28463.519755,0.000000,-1378.971896,9030.512492
28463.520083,-444.123565,-2528.115143,9918.759623
28463.520412,-1628.453072,-1532.190996,9844.739029
28463.520740,-1850.514855,-1455.581446,9104.533087
28463.521069,-888.247130,-2451.505594,9178.553681
28463.521398,-888.247130,-2987.772442,9770.718434
28463.521726,-1110.308913,-1838.629195,9992.780217
28463.522055,-1702.473667,-383.047749,9474.636058
28463.522383,0.000000,-1608.800546,9474.636058
28463.522712,370.102971,-2528.115143,9992.780217
28463.523041,-666.185348,-1762.019645,10140.821405
28463.523369,-1184.329507,-919.314598,9474.636058
28463.523698,-444.123565,-1608.800546,9400.615463
28463.524026,-888.247130,-2987.772442,9696.697840
28463.524355,-1702.473667,-2068.457845,10436.903782
28463.524684,-1776.494261,-1838.629195,9474.636058
28463.525012,-1406.391290,-1838.629195,9696.697840
28463.525341,-1480.411884,-2528.115143,9992.780217
28463.525669,-1554.432478,-1991.848295,10510.924376
28463.525998,-1184.329507,-689.485948,10066.800811
28463.526327,-1036.288319,76.609550,8364.327145
28463.526655,518.144159,-919.314598,9696.697840
28463.526984,0.000000,0.000000,10066.800811
28463.527313,-666.185348,689.485948,9474.636058
28463.527641,0.000000,766.095498,9252.574275
28463.527970,740.205942,153.219100,9770.718434
28463.528298,0.000000,383.047749,9548.656652
28463.528627,0.000000,2068.457845,8808.450710
28463.528956,740.205942,2068.457845,8956.491898
28463.529284,1036.288319,1455.581446,8956.491898
28463.529613,1036.288319,1608.800546,9548.656652
28463.529941,888.247130,2757.943793,9178.553681
28463.530270,1480.411884,3217.601092,8364.327145
28463.530599,2960.823768,2298.286494,8438.347739
28463.530927,2886.803174,4213.525239,9326.594869
28463.531256,1332.370696,4136.915689,8586.388927
28463.531584,1998.556043,4060.306139,8216.285956
28463.531913,2664.741391,2987.772442,8586.388927
28463.532242,1776.494261,2834.553343,9178.553681
28463.532570,518.144159,3677.258390,8438.347739
28463.532899,1110.308913,3983.696590,8068.244768
28463.533227,1332.370696,2987.772442,8216.285956
28463.533556,888.247130,2145.067394,9030.512492
28463.533885,222.061783,3370.820191,8956.491898
28463.534213,0.000000,3524.039291,8290.306550
28463.534542,592.164754,2528.115143,8364.327145
28463.534870,666.185348,1685.410096,9178.553681
28463.535199,-592.164754,2451.505594,8956.491898
28463.535528,-740.205942,2451.505594,8364.327145
28463.535856,-740.205942,919.314598,8512.368333
28463.536185,-444.123565,459.657299,9770.718434
28463.536513,-1258.350101,536.266849,9770.718434
28463.536842,-1480.411884,995.924147,9252.574275
28463.537171,-1036.288319,153.219100,9030.512492
28463.537499,-666.185348,-919.314598,9474.636058
28463.537828,-1110.308913,-612.876398,10214.842000
28463.538156,-1258.350101,612.876398,9474.636058
28463.538485,0.000000,-919.314598,9326.594869
28463.538814,370.102971,-1685.410096,10140.821405
28463.539142,-814.226536,-1072.533697,10140.821405
28463.539471,-1110.308913,-612.876398,9474.636058
28463.539799,0.000000,-1302.362347,9770.718434
28463.540128,0.000000,-3217.601092,9696.697840
28463.540457,-1406.391290,-2604.724693,10288.862594
28463.540785,-1184.329507,-1915.238745,9474.636058
28463.541114,-740.205942,-2451.505594,9400.615463
28463.541442,-592.164754,-2911.162892,9844.739029
28463.541771,-592.164754,-2834.553343,10362.883188
28463.542100,-740.205942,-1838.629195,10140.821405
28463.542428,74.020594,-1838.629195,9104.533087
28463.542757,666.185348,-2528.115143,9696.697840
28463.543086,0.000000,-2145.067394,10436.903782
28463.543414,-888.247130,-1149.143247,9548.656652
28463.543743,0.000000,-1378.971896,9474.636058
28463.544071,370.102971,-2528.115143,10066.800811
28463.544400,-518.144159,-1762.019645,9992.780217
28463.544729,-888.247130,-689.485948,9474.636058
28463.545057,-444.123565,-919.314598,9326.594869
28463.545386,0.000000,-1225.752797,9548.656652
28463.545714,0.000000,-612.876398,9918.759623
28463.546043,0.000000,459.657299,9770.718434
28463.546372,370.102971,1455.581446,8808.450710
28463.546700,1332.370696,229.828649,9030.512492
28463.547029,1480.411884,612.876398,9474.636058
28463.547357,444.123565,2068.457845,9326.594869
28463.547686,444.123565,2451.505594,8364.327145
28463.548015,1406.391290,1455.581446,8956.491898
28463.548343,518.144159,1532.190996,9178.553681
28463.548672,-444.123565,2374.896044,8660.409521
28463.549000,296.082377,2528.115143,8068.244768
28463.549329,296.082377,1378.971896,7994.224174
28463.549658,740.205942,2221.676944,8882.471304
28463.549986,666.185348,3294.210641,9104.533087
28463.550315,888.247130,3753.867940,8512.368333
28463.550643,1406.391290,3524.039291,8142.265362
28463.550972,2220.617826,3140.991542,8956.491898
28463.551301,1258.350101,2987.772442,9326.594869
28463.551629,592.164754,3983.696590,8068.244768
28463.551958,1332.370696,2911.162892,8364.327145
28463.552286,888.247130,2298.286494,9326.594869
28463.552615,0.000000,2987.772442,9104.533087
28463.552944,222.061783,2757.943793,8882.471304
28463.553272,222.061783,1915.238745,8660.409521
28463.553601,74.020594,1762.019645,9252.574275
28463.553929,0.000000,2145.067394,9474.636058
28463.554258,-370.102971,2451.505594,8512.368333
28463.554587,222.061783,1991.848295,8586.388927
28463.554915,814.226536,919.314598,9474.636058
28463.555244,0.000000,995.924147,9400.615463
28463.555572,-518.144159,1532.190996,9178.553681
28463.555901,222.061783,766.095498,9474.636058
28463.556230,-296.082377,-919.314598,9696.697840
28463.556558,-1332.370696,-766.095498,9844.739029
28463.556887,-1184.329507,-153.219100,9622.677246
28463.557215,-888.247130,-995.924147,9622.677246
28463.557544,-740.205942,-2145.067394,10066.800811
28463.557873,-814.226536,-1608.800546,10362.883188
28463.558201,-888.247130,-1149.143247,10288.862594
28463.558530,0.000000,-919.314598,9548.656652
28463.558859,962.267725,-2221.676944,10066.800811
28463.559187,0.000000,-1915.238745,10436.903782
28463.559516,-740.205942,-995.924147,9622.677246
28463.559844,0.000000,-1838.629195,9400.615463
28463.560173,222.061783,-2604.724693,9918.759623
28463.560502,-962.267725,-2451.505594,9400.615463
28463.560830,-1480.411884,-2068.457845,9696.697840
28463.561159,-814.226536,-2834.553343,9474.636058
28463.561487,-1258.350101,-3064.381992,9252.574275
28463.561816,-1554.432478,-2528.115143,9844.739029
28463.562145,-1850.514855,-1838.629195,9548.656652
28463.562473,-1406.391290,-1455.581446,8586.388927
28463.562802,-444.123565,-1915.238745,8956.491898
28463.563130,-518.144159,-1991.848295,10362.883188
28463.563459,-1406.391290,-1072.533697,9474.636058
28463.563788,-1480.411884,-1072.533697,9104.533087
28463.564116,0.000000,-1838.629195,9696.697840
28463.564445,-666.185348,-1685.410096,9770.718434
28463.564773,-1332.370696,-229.828649,9474.636058
28463.565102,-444.123565,919.314598,8808.450710
28463.565431,222.061783,0.000000,9474.636058
28463.565759,444.123565,153.219100,9474.636058
28463.566088,592.164754,1225.752797,9622.677246
28463.566416,888.247130,2451.505594,8808.450710
28463.566745,1998.556043,2145.067394,8290.306550
28463.567074,2442.679609,1455.581446,9252.574275
28463.567402,1258.350101,4213.525239,9400.615463
28463.567731,814.226536,3983.696590,8068.244768
28463.568059,2294.638420,2145.067394,8586.388927
28463.568388,1628.453072,2145.067394,9252.574275
28463.568717,592.164754,3370.820191,9030.512492
28463.569045,666.185348,3753.867940,8438.347739
28463.569374,1702.473667,3064.381992,8734.430116
28463.569702,1258.350101,2681.334243,8734.430116
28463.570031,1110.308913,3140.991542,8956.491898
28463.570360,1184.329507,4366.744339,8882.471304
28463.570688,1406.391290,3907.087040,8290.306550
28463.571017,2146.597232,3294.210641,9104.533087
28463.571345,1184.329507,3524.039291,9474.636058
28463.571674,444.123565,4673.182538,8438.347739
28463.572003,962.267725,2604.724693,8660.409521
28463.572331,740.205942,1302.362347,9474.636058
28463.572660,-592.164754,1991.848295,9548.656652
28463.572988,-1184.329507,2298.286494,9252.574275
28463.573317,-444.123565,1455.581446,9326.594869
28463.573646,-370.102971,919.314598,9622.677246
28463.573974,-296.082377,689.485948,9992.780217
28463.574303,-518.144159,1915.238745,9622.677246
28463.574632,0.000000,2298.286494,8586.388927
28463.574960,518.144159,229.828649,9400.615463
28463.575289,74.020594,459.657299,10288.862594
28463.575617,-1184.329507,919.314598,9548.656652
28463.575946,-592.164754,0.000000,9030.512492
28463.576275,74.020594,-1991.848295,9548.656652
28463.576603,-1332.370696,-1532.190996,9622.677246
28463.576932,-2368.659014,-1072.533697,9178.553681
28463.577260,-1554.432478,-2298.286494,9548.656652
28463.577589,-1036.288319,-3140.991542,9770.718434
28463.577918,-1258.350101,-2757.943793,10066.800811
28463.578246,-740.205942,-1532.190996,9992.780217
28463.578575,-444.123565,-1532.190996,8808.450710
28463.578903,444.123565,-1991.848295,8956.491898
28463.579232,666.185348,-2374.896044,9474.636058
28463.579560,0.000000,-1455.581446,9696.697840
28463.579889,-370.102971,-1378.971896,8956.491898
28463.580217,444.123565,-2757.943793,9474.636058
28463.580546,0.000000,-3370.820191,9992.780217
28463.580874,-814.226536,-1915.238745,9252.574275
28463.581203,-296.082377,-1455.581446,9178.553681
28463.581531,-518.144159,-1762.019645,9104.533087
28463.581860,-666.185348,-1991.848295,9326.594869
28463.582188,-370.102971,-842.705048,9178.553681
28463.582517,-148.041188,-153.219100,8956.491898
28463.582845,222.061783,-459.657299,8586.388927
28463.583173,296.082377,-306.438199,9252.574275
28463.583502,0.000000,153.219100,9474.636058
28463.583830,-666.185348,995.924147,8808.450710
28463.584159,370.102971,306.438199,9252.574275
28463.584487,148.041188,-229.828649,9622.677246
28463.584816,-962.267725,842.705048,9326.594869
28463.585144,-444.123565,1302.362347,8586.388927
28463.585473,148.041188,1915.238745,9030.512492
28463.585801,222.061783,1455.581446,9474.636058
28463.586130,296.082377,2221.676944,9622.677246
28463.586458,592.164754,3447.429741,9178.553681
28463.586786,1554.432478,3524.039291,8882.471304
28463.587115,2368.659014,3370.820191,9400.615463
28463.587443,1480.411884,3600.648841,9474.636058
28463.587772,740.205942,4213.525239,8586.388927
28463.588100,1998.556043,3140.991542,8882.471304
28463.588429,1850.514855,2911.162892,8956.491898
28463.588757,296.082377,3370.820191,9104.533087
28463.589086,74.020594,4136.915689,8660.409521
28463.589414,666.185348,2987.772442,8882.471304
28463.589743,740.205942,3064.381992,8882.471304
28463.590071,74.020594,3294.210641,8956.491898
28463.590400,518.144159,3447.429741,9548.656652
28463.590728,1110.308913,2911.162892,8290.306550
28463.591056,1480.411884,2528.115143,8956.491898
28463.591385,962.267725,2451.505594,9696.697840
28463.591713,0.000000,2681.334243,9178.553681
28463.592042,222.061783,2374.896044,8734.430116
28463.592370,666.185348,689.485948,9400.615463
28463.592699,148.041188,153.219100,9696.697840
28463.593027,-1184.329507,995.924147,9030.512492
28463.593356,-518.144159,229.828649,9474.636058
28463.593684,-296.082377,-1072.533697,9622.677246
28463.594013,-592.164754,-919.314598,9474.636058
28463.594341,148.041188,0.000000,10584.944971
28463.594669,148.041188,0.000000,9030.512492
28463.594998,444.123565,-536.266849,9178.553681
28463.595326,592.164754,-1302.362347,9844.739029
28463.595655,-592.164754,-459.657299,9548.656652
28463.595983,-888.247130,-612.876398,8882.471304
28463.596312,74.020594,-2604.724693,9548.656652
28463.596640,-444.123565,-3140.991542,9918.759623
28463.596969,-1924.535449,-919.314598,8956.491898
28463.597297,-1258.350101,-1915.238745,8512.368333
28463.597626,-814.226536,-2987.772442,9030.512492
28463.597954,-1184.329507,-2911.162892,9400.615463
28463.598283,-1480.411884,-1915.238745,9474.636058
28463.598611,-1480.411884,-1762.019645,9030.512492
28463.598939,-888.247130,-2834.553343,8882.471304
28463.599268,-296.082377,-2834.553343,9622.677246
28463.599596,-1628.453072,-2451.505594,9622.677246
28463.599925,-2220.617826,-1455.581446,9252.574275
28463.600253,-962.267725,-2528.115143,9400.615463
28463.600582,-1184.329507,-3217.601092,10214.842000
28463.600910,-2072.576638,-2298.286494,9992.780217
28463.601239,-1702.473667,-1991.848295,9030.512492
28463.601567,-444.123565,-1455.581446,9622.677246
28463.601896,-666.185348,-1915.238745,10214.842000
28463.602224,-370.102971,-536.266849,10214.842000
28463.602552,0.000000,459.657299,9622.677246
28463.602881,888.247130,612.876398,9474.636058
28463.603209,1924.535449,612.876398,9770.718434
28463.603538,1480.411884,1378.971896,9918.759623
28463.603866,518.144159,2374.896044,8956.491898
28463.604195,1628.453072,1378.971896,9252.574275
28463.604523,1924.535449,1225.752797,9770.718434
28463.604852,666.185348,1838.629195,9548.656652
28463.605180,148.041188,2681.334243,8882.471304
28463.605509,1036.288319,2298.286494,8956.491898
28463.605837,1184.329507,2145.067394,9030.512492
28463.606166,1258.350101,2757.943793,9622.677246
28463.606494,888.247130,4213.525239,8882.471304
28463.606822,1998.556043,4213.525239,8438.347739
28463.607151,2590.720797,3294.210641,9030.512492
28463.607479,2146.597232,3600.648841,9474.636058
28463.607808,1258.350101,4749.792088,8882.471304
28463.608136,1480.411884,4290.134789,8290.306550
28463.608465,1702.473667,3064.381992,8734.430116
28463.608793,1036.288319,3217.601092,9474.636058
28463.609122,74.020594,3524.039291,8512.368333
28463.609450,370.102971,3370.820191,8660.409521
28463.609779,296.082377,2145.067394,9252.574275
28463.610107,0.000000,1915.238745,9252.574275
28463.610435,-370.102971,3217.601092,9326.594869
28463.610764,0.000000,2528.115143,8808.450710
28463.611092,148.041188,1838.629195,8956.491898
28463.611421,0.000000,1302.362347,9326.594869
28463.611749,-1110.308913,1762.019645,9252.574275
28463.612078,-962.267725,1532.190996,8660.409521
28463.612406,-296.082377,-306.438199,9030.512492
28463.612735,-1184.329507,-995.924147,9178.553681
28463.613063,-1850.514855,-1072.533697,8882.471304
28463.613392,-1258.350101,-229.828649,8734.430116
28463.613720,-1332.370696,-1455.581446,9178.553681
28463.614048,-1184.329507,-2221.676944,9474.636058
28463.614377,-1184.329507,-1378.971896,10214.842000
28463.614705,-1332.370696,-842.705048,9030.512492
28463.615034,0.000000,-1072.533697,8808.450710
28463.615362,444.123565,-2528.115143,9696.697840
28463.615691,-296.082377,-1149.143247,9696.697840
28463.616019,-592.164754,-1302.362347,9252.574275
28463.616348,592.164754,-2604.724693,9548.656652
28463.616676,296.082377,-3140.991542,10214.842000
28463.617005,-814.226536,-1838.629195,9770.718434
28463.617333,-666.185348,-1838.629195,9252.574275
28463.617662,0.000000,-2834.553343,9030.512492
28463.617990,-296.082377,-2911.162892,9400.615463
28463.618318,-518.144159,-2451.505594,10140.821405
28463.618647,-370.102971,-1225.752797,9474.636058
28463.618975,222.061783,-1225.752797,8956.491898
28463.619304,888.247130,-2068.457845,10140.821405
28463.619632,-222.061783,-1378.971896,9696.697840
28463.619961,-814.226536,-229.828649,9252.574275
28463.620289,0.000000,-1302.362347,9030.512492
28463.620618,0.000000,-1915.238745,10214.842000
28463.620946,-1110.308913,-919.314598,9844.739029
28463.621275,-1184.329507,-229.828649,9918.759623
28463.621603,-666.185348,-383.047749,9696.697840
28463.621931,148.041188,0.000000,9622.677246
28463.622260,296.082377,0.000000,10510.924376
28463.622588,0.000000,1225.752797,9918.759623
28463.622917,740.205942,2068.457845,8586.388927
28463.623245,1924.535449,1378.971896,9400.615463
28463.623574,1406.391290,2145.067394,9696.697840
28463.623902,74.020594,3524.039291,8956.491898
28463.624231,1332.370696,3600.648841,8586.388927
28463.624559,1850.514855,1455.581446,8734.430116
28463.624888,666.185348,2298.286494,8512.368333
28463.625216,148.041188,3677.258390,8586.388927
28463.625545,740.205942,3370.820191,8290.306550
28463.625873,740.205942,2451.505594,8512.368333
28463.626201,888.247130,2451.505594,9030.512492
28463.626530,888.247130,3753.867940,8882.471304
28463.626858,1258.350101,4596.572988,8216.285956
28463.627187,1480.411884,3983.696590,7698.141797
28463.627515,1480.411884,2911.162892,8882.471304
28463.627844,444.123565,3677.258390,8882.471304
28463.628172,370.102971,3830.477490,8142.265362
28463.628501,1554.432478,2528.115143,8808.450710
28463.628829,592.164754,1532.190996,9400.615463
28463.629158,-962.267725,2681.334243,8364.327145
28463.629486,74.020594,2145.067394,8586.388927
28463.629814,518.144159,919.314598,9104.533087
28463.630143,-148.041188,1302.362347,9326.594869
28463.630471,-296.082377,1532.190996,9252.574275
28463.630800,518.144159,1532.190996,9474.636058
28463.631128,814.226536,1072.533697,8660.409521
28463.631457,814.226536,-766.095498,9252.574275
28463.631785,0.000000,459.657299,9326.594869
28463.632114,-592.164754,459.657299,8808.450710
28463.632442,74.020594,-766.095498,9030.512492
28463.632771,-222.061783,-1685.410096,10066.800811
28463.633099,-1702.473667,-1302.362347,9548.656652
28463.633427,-1184.329507,-1915.238745,9474.636058
28463.633756,-518.144159,-3064.381992,9992.780217
28463.634084,-814.226536,-2528.115143,9992.780217
28463.634413,-1480.411884,-2451.505594,10140.821405
28463.634741,-1332.370696,-1915.238745,9844.739029
28463.635070,-518.144159,-2221.676944,9400.615463
28463.635398,148.041188,-2911.162892,9474.636058
28463.635727,-740.205942,-1915.238745,10066.800811
28463.636055,-1036.288319,-612.876398,9622.677246
28463.636384,-888.247130,-2528.115143,9252.574275
28463.636712,-740.205942,-3677.258390,10140.821405
28463.637041,-2146.597232,-3140.991542,9844.739029
28463.637369,-2220.617826,-2298.286494,9474.636058
28463.637697,-1258.350101,-2068.457845,9696.697840
28463.638026,-1332.370696,-3064.381992,9474.636058
28463.638354,-1406.391290,-1991.848295,10584.944971
28463.638683,-1332.370696,-1302.362347,9918.759623
28463.639011,-814.226536,-1072.533697,9178.553681
28463.639340,296.082377,-1302.362347,9474.636058
28463.639668,222.061783,-612.876398,10436.903782
28463.639997,-148.041188,612.876398,9622.677246
28463.640325,0.000000,306.438199,8956.491898
28463.640654,888.247130,-1072.533697,10288.862594
28463.640982,0.000000,0.000000,9474.636058
28463.641310,-444.123565,689.485948,9178.553681
28463.641639,370.102971,919.314598,9030.512492
28463.641967,370.102971,612.876398,9030.512492
28463.642296,444.123565,995.924147,9030.512492
28463.642624,1110.308913,2374.896044,9696.697840
28463.642953,1184.329507,3217.601092,8586.388927
28463.643281,1924.535449,2757.943793,8216.285956
28463.643610,2368.659014,2757.943793,9104.533087
28463.643938,1406.391290,3907.087040,8882.471304
28463.644267,1776.494261,4290.134789,8216.285956
28463.644595,2368.659014,2987.772442,8290.306550
28463.644924,2368.659014,2681.334243,8882.471304
28463.645252,1110.308913,3294.210641,8364.327145
28463.645580,1110.308913,3983.696590,7920.203579
28463.645909,1628.453072,3370.820191,8364.327145
28463.646237,1184.329507,3064.381992,9030.512492
28463.646566,666.185348,3983.696590,8734.430116
28463.646894,518.144159,4366.744339,8364.327145
28463.647223,1258.350101,3983.696590,7994.224174
28463.647551,1480.411884,3294.210641,9252.574275
28463.647880,-296.082377,3524.039291,8808.450710
28463.648208,-1110.308913,2987.772442,8216.285956
28463.648537,0.000000,1455.581446,8586.388927
28463.648865,-370.102971,842.705048,9474.636058
28463.649193,-1776.494261,1915.238745,9030.512492
28463.649522,-1628.453072,1378.971896,8734.430116
28463.649850,-666.185348,0.000000,9326.594869
28463.650179,-1406.391290,-459.657299,9622.677246
28463.650507,-1406.391290,153.219100,9992.780217
28463.650836,-1184.329507,612.876398,9696.697840
28463.651164,-296.082377,-383.047749,9326.594869
28463.651493,222.061783,-459.657299,9992.780217
28463.651821,-296.082377,-612.876398,10510.924376
28463.652150,-814.226536,0.000000,10066.800811
28463.652478,-370.102971,-1302.362347,9770.718434
28463.652806,74.020594,-2911.162892,10214.842000
28463.653135,-666.185348,-2451.505594,10510.924376
28463.653463,-1258.350101,-1762.019645,9770.718434
28463.653792,-444.123565,-2374.896044,9474.636058
28463.654120,74.020594,-2834.553343,9918.759623
28463.654449,0.000000,-2911.162892,9992.780217
28463.654777,0.000000,-1302.362347,9770.718434
28463.655106,370.102971,-1225.752797,9178.553681
28463.655434,666.185348,-2145.067394,9474.636058
28463.655763,296.082377,-2604.724693,10066.800811
28463.656091,-370.102971,-1532.190996,9548.656652
28463.656420,-370.102971,-1532.190996,8512.368333
28463.656748,518.144159,-2604.724693,9770.718434
28463.657076,-740.205942,-2528.115143,9918.759623
28463.657405,-1554.432478,-1225.752797,9474.636058
28463.657733,-888.247130,-1608.800546,9104.533087
28463.658062,-370.102971,-1991.848295,9548.656652
28463.658390,-666.185348,-1378.971896,9918.759623
28463.658719,-1110.308913,-459.657299,9474.636058
28463.659047,0.000000,229.828649,9252.574275
28463.659376,370.102971,0.000000,8956.491898
28463.659704,1036.288319,0.000000,9844.739029
28463.660033,-222.061783,1685.410096,9326.594869
28463.660361,-296.082377,1838.629195,8586.388927
28463.660689,1184.329507,612.876398,8808.450710
28463.661018,814.226536,1378.971896,9474.636058
28463.661346,-222.061783,2298.286494,8734.430116
28463.661675,0.000000,2681.334243,8364.327145
28463.662003,666.185348,2145.067394,8438.347739
28463.662332,814.226536,2145.067394,8882.471304
28463.662660,444.123565,3217.601092,8808.450710
28463.662989,592.164754,4290.134789,7550.100608
28463.663317,1332.370696,4136.915689,8068.244768
28463.663646,2294.638420,3140.991542,8956.491898
28463.663974,814.226536,4136.915689,9104.533087
28463.664303,518.144159,4749.792088,8364.327145
28463.664631,1554.432478,3140.991542,8364.327145
28463.664959,1258.350101,2374.896044,8956.491898
28463.665288,296.082377,3370.820191,9326.594869
28463.665616,296.082377,3294.210641,9104.533087
28463.665945,962.267725,2451.505594,8808.450710
28463.666273,888.247130,1991.848295,9400.615463
28463.666602,444.123565,2681.334243,9918.759623
28463.666930,222.061783,3447.429741,9178.553681
28463.667259,740.205942,2604.724693,8734.430116
28463.667587,1776.494261,1302.362347,9474.636058
28463.667916,444.123565,2298.286494,9622.677246
28463.668244,0.000000,2298.286494,9696.697840
28463.668572,370.102971,1072.533697,9326.594869
28463.668901,296.082377,-459.657299,9622.677246
28463.669229,-1036.288319,0.000000,9696.697840
28463.669558,-1332.370696,229.828649,9178.553681
28463.669886,-518.144159,-919.314598,9252.574275
28463.670215,-444.123565,-1762.019645,9400.615463
28463.670543,-370.102971,-2374.896044,10214.842000
28463.670872,-1036.288319,-689.485948,9992.780217
28463.671200,-592.164754,-1225.752797,9474.636058
28463.671529,148.041188,-2068.457845,9992.780217
28463.671857,-666.185348,-1762.019645,10066.800811
28463.672185,-1184.329507,-1685.410096,9548.656652
28463.672514,-1258.350101,-1685.410096,8734.430116
28463.672842,-296.082377,-3217.601092,9252.574275
28463.673171,-1332.370696,-3447.429741,9770.718434
28463.673499,-2220.617826,-2068.457845,9030.512492
28463.673828,-1258.350101,-2451.505594,9104.533087
28463.674156,-1110.308913,-3524.039291,9178.553681
28463.674485,-1480.411884,-3524.039291,9400.615463
28463.674813,-1998.556043,-1915.238745,9252.574275
28463.675142,-1776.494261,-2145.067394,8808.450710
28463.675470,-444.123565,-2681.334243,9326.594869
28463.675799,-518.144159,-2681.334243,10066.800811
28463.676127,-1776.494261,-1225.752797,9622.677246
28463.676455,-1184.329507,-1915.238745,9104.533087
28463.676784,0.000000,-3370.820191,9474.636058
28463.677112,-814.226536,-2298.286494,9992.780217
28463.677441,-1628.453072,-995.924147,9178.553681
28463.677769,-1184.329507,-459.657299,8956.491898
28463.678098,-148.041188,-1302.362347,9252.574275
28463.678426,0.000000,-766.095498,9622.677246
28463.678755,222.061783,153.219100,9548.656652
28463.679083,518.144159,1838.629195,9326.594869
28463.679412,1554.432478,1532.190996,8586.388927
28463.679740,2442.679609,1225.752797,9696.697840
28463.680068,1480.411884,2681.334243,9400.615463
28463.680397,1036.288319,3600.648841,8660.409521
28463.680725,1776.494261,2604.724693,8660.409521
28463.681054,1924.535449,1991.848295,9326.594869
28463.681382,1110.308913,3294.210641,9474.636058
28463.681711,296.082377,3907.087040,8586.388927
28463.682039,1924.535449,3524.039291,9030.512492
28463.682367,1776.494261,2834.553343,9104.533087
28463.682696,1628.453072,3830.477490,9474.636058
28463.683024,1776.494261,4673.182538,8956.491898
28463.683353,2146.597232,4749.792088,8142.265362
28463.683681,2294.638420,4060.306139,9104.533087
28463.684009,1776.494261,3830.477490,9178.553681
28463.684338,814.226536,4749.792088,8808.450710
28463.684666,888.247130,4136.915689,8438.347739
28463.684994,1036.288319,2451.505594,9548.656652
28463.685323,-296.082377,2451.505594,9474.636058
28463.685651,-814.226536,2834.553343,9252.574275
28463.685980,-592.164754,2528.115143,8882.471304
28463.686308,-666.185348,1302.362347,9326.594869
28463.686636,-1110.308913,1225.752797,9918.759623
28463.686965,-888.247130,1915.238745,9696.697840
28463.687293,-296.082377,1378.971896,9030.512492
28463.687622,518.144159,842.705048,9326.594869
28463.687950,74.020594,919.314598,9844.739029
28463.688278,-518.144159,1455.581446,9474.636058
28463.688607,-888.247130,229.828649,8660.409521
28463.688935,0.000000,-1378.971896,9474.636058
28463.689264,-1184.329507,-1532.190996,9622.677246
28463.689592,-2072.576638,-1378.971896,9104.533087
28463.689920,-1258.350101,-1991.848295,9252.574275
28463.690249,-888.247130,-2451.505594,9622.677246
28463.690577,-1850.514855,-2298.286494,9474.636058
28463.690905,-740.205942,-1915.238745,10510.924376
28463.691234,-1184.329507,-1608.800546,9030.512492
28463.691562,0.000000,-2451.505594,9030.512492
28463.691891,740.205942,-2757.943793,9844.739029
28463.692219,-666.185348,-2068.457845,9622.677246
28463.692547,-1332.370696,-1149.143247,8734.430116
28463.692876,222.061783,-3064.381992,8956.491898
28463.693204,222.061783,-3447.429741,10214.842000
28463.693533,-1480.411884,-2145.067394,9252.574275
28463.693861,-1036.288319,-2221.676944,9030.512492
28463.694189,-296.082377,-3064.381992,9400.615463
28463.694518,-444.123565,-2757.943793,9696.697840
28463.694846,-444.123565,-1838.629195,9770.718434
28463.695174,-148.041188,-1072.533697,9326.594869
28463.695503,444.123565,-1072.533697,8882.471304
28463.695831,1258.350101,-1455.581446,9844.739029
28463.696160,370.102971,0.000000,9992.780217
28463.696488,-518.144159,842.705048,9326.594869
28463.696816,74.020594,-153.219100,9326.594869
28463.697145,592.164754,-689.485948,9622.677246
28463.697473,-296.082377,306.438199,9622.677246
28463.697802,-666.185348,1838.629195,8956.491898
28463.698130,222.061783,1149.143247,9474.636058
28463.698458,296.082377,689.485948,9474.636058
28463.698787,222.061783,1378.971896,9696.697840
28463.699115,370.102971,2987.772442,9474.636058
28463.699444,888.247130,3064.381992,8438.347739
28463.699772,1554.432478,2681.334243,9104.533087
28463.700100,1554.432478,3447.429741,9474.636058
28463.700429,592.164754,3907.087040,8808.450710
28463.700757,1184.329507,4136.915689,8882.471304
28463.701085,1702.473667,2987.772442,9178.553681
28463.701414,962.267725,3064.381992,9400.615463
28463.701742,518.144159,4136.915689,8808.450710
28463.702071,814.226536,4519.963438,8512.368333
28463.702399,1628.453072,2911.162892,9104.533087
28463.702727,666.185348,2911.162892,8956.491898
28463.703056,740.205942,3983.696590,9104.533087
28463.703384,1332.370696,3983.696590,8364.327145
28463.703713,1776.494261,3294.210641,8512.368333
28463.704041,1258.350101,3524.039291,9400.615463
28463.704369,592.164754,3907.087040,9178.553681
28463.704698,444.123565,3064.381992,7772.162391
28463.705026,666.185348,1378.971896,8808.450710
28463.705354,0.000000,842.705048,9696.697840
28463.705683,-1480.411884,1455.581446,8808.450710
28463.706011,-888.247130,1302.362347,8882.471304
28463.706340,-444.123565,-153.219100,8882.471304
28463.706668,-962.267725,0.000000,9178.553681
28463.706996,-1110.308913,459.657299,8808.450710
28463.707325,-666.185348,153.219100,8956.491898
28463.707653,0.000000,-459.657299,8734.430116
28463.707982,222.061783,-1149.143247,9548.656652
28463.708310,0.000000,0.000000,10362.883188
28463.708638,-740.205942,0.000000,9178.553681
28463.708967,148.041188,-1838.629195,9104.533087
28463.709295,148.041188,-3140.991542,9992.780217
28463.709624,-1258.350101,-1915.238745,9992.780217
28463.709952,-1406.391290,-1762.019645,9400.615463
28463.710280,-444.123565,-2757.943793,9474.636058
28463.710609,-296.082377,-2834.553343,9844.739029
28463.710937,-1110.308913,-1915.238745,9622.677246
28463.711265,-1258.350101,-1532.190996,9400.615463
28463.711594,-222.061783,-2145.067394,8882.471304
28463.711922,0.000000,-2757.943793,9548.656652
28463.712251,-1258.350101,-2374.896044,9992.780217
28463.712579,-1998.556043,-1608.800546,9252.574275
28463.712907,-1258.350101,-2451.505594,9474.636058
28463.713236,-1628.453072,-3447.429741,9696.697840
28463.713564,-1702.473667,-2987.772442,10362.883188
28463.713893,-2220.617826,-2374.896044,9918.759623
28463.714221,-1702.473667,-2451.505594,9622.677246
28463.714549,-1184.329507,-2604.724693,10066.800811
28463.714878,-1184.329507,-1685.410096,10362.883188
28463.715206,-740.205942,153.219100,10214.842000
28463.715534,148.041188,229.828649,9178.553681
28463.715863,1332.370696,0.000000,10214.842000
28463.716191,1332.370696,306.438199,10066.800811
28463.716520,444.123565,1685.410096,9474.636058
28463.716848,1258.350101,1685.410096,9178.553681
28463.717176,1998.556043,842.705048,9474.636058
28463.717505,962.267725,1455.581446,9770.718434
28463.717833,592.164754,2374.896044,8734.430116
28463.718162,1332.370696,1991.848295,8882.471304
28463.718490,1258.350101,1685.410096,8734.430116
28463.718818,1036.288319,2298.286494,8660.409521
28463.719147,1258.350101,3217.601092,9030.512492
28463.719475,1480.411884,3907.087040,8142.265362
28463.719804,2294.638420,3600.648841,8438.347739
28463.720132,2516.700203,3294.210641,8882.471304
28463.720460,1332.370696,4443.353888,8290.306550
28463.720789,1258.350101,4519.963438,7772.162391
28463.721117,2368.659014,2987.772442,8364.327145
28463.721445,1554.432478,2911.162892,9030.512492
28463.721774,-148.041188,3907.087040,8586.388927
28463.722102,370.102971,3983.696590,8142.265362
28463.722431,888.247130,2374.896044,8734.430116
28463.722759,222.061783,2834.553343,8956.491898
28463.723087,222.061783,3524.039291,9178.553681
28463.723416,-148.041188,3447.429741,8438.347739
28463.723744,592.164754,2145.067394,8438.347739
28463.724073,888.247130,1685.410096,9474.636058
28463.724401,-518.144159,2451.505594,8882.471304
28463.724729,-740.205942,2604.724693,8512.368333
28463.725058,296.082377,536.266849,9030.512492
28463.725386,-666.185348,-612.876398,9326.594869
28463.725714,-1554.432478,383.047749,9474.636058
28463.726043,-1628.453072,689.485948,8956.491898
28463.726371,-592.164754,-612.876398,9252.574275
28463.726700,-740.205942,-1455.581446,9474.636058
28463.727028,-1036.288319,-1685.410096,10140.821405
28463.727356,-1924.535449,-459.657299,9844.739029
28463.727685,-666.185348,-1072.533697,9252.574275
28463.728013,222.061783,-2528.115143,10214.842000
28463.728342,-296.082377,-2145.067394,10881.027347
28463.728670,-1258.350101,-995.924147,9696.697840
28463.728998,-296.082377,-2221.676944,9474.636058
28463.729327,74.020594,-3600.648841,10584.944971
28463.729655,-962.267725,-3064.381992,9918.759623
28463.729984,-518.144159,-2528.115143,9918.759623
28463.730312,-296.082377,-2604.724693,9622.677246
28463.730640,0.000000,-3370.820191,9844.739029
28463.730969,-148.041188,-2834.553343,10510.924376
28463.731297,-148.041188,-1838.629195,9918.759623
28463.731625,74.020594,-1455.581446,9400.615463
28463.731954,444.123565,-1685.410096,8882.471304
28463.732282,814.226536,-2068.457845,10436.903782
28463.732611,-814.226536,-383.047749,9400.615463
28463.732939,-222.061783,-995.924147,9030.512492
28463.733267,222.061783,-2221.676944,9474.636058
28463.733596,-888.247130,-1608.800546,9770.718434
28463.733924,-1480.411884,-306.438199,9104.533087
28463.734253,-666.185348,-229.828649,9252.574275
28463.734581,-222.061783,-1072.533697,9252.574275
28463.734909,-666.185348,-689.485948,9548.656652
28463.735238,-592.164754,689.485948,9770.718434
28463.735566,0.000000,1378.971896,8660.409521
28463.735894,740.205942,1685.410096,9030.512492
28463.736223,1406.391290,1378.971896,9770.718434
28463.736551,296.082377,2604.724693,8882.471304
28463.736880,444.123565,2911.162892,8438.347739
28463.737208,1480.411884,1915.238745,8734.430116
28463.737536,1332.370696,1838.629195,9326.594869
28463.737865,370.102971,3140.991542,8882.471304
28463.738193,518.144159,3524.039291,8142.265362
28463.738522,592.164754,3064.381992,7920.203579
28463.738850,1702.473667,2604.724693,8882.471304
28463.739178,1036.288319,3524.039291,9178.553681
28463.739507,518.144159,4519.963438,8216.285956
28463.739835,1776.494261,4213.525239,8068.244768
28463.740164,2368.659014,2987.772442,9104.533087
28463.740492,1184.329507,3983.696590,8438.347739
28463.740820,1110.308913,3983.696590,8364.327145
28463.741149,1110.308913,2911.162892,8142.265362
28463.741477,1036.288319,2068.457845,8808.450710
28463.741805,0.000000,2528.115143,9104.533087
28463.742134,-370.102971,2834.553343,9030.512492
28463.742462,-296.082377,1991.848295,8734.430116
28463.742791,-148.041188,1302.362347,8882.471304
28463.743119,-296.082377,1302.362347,9770.718434
28463.743447,-518.144159,2911.162892,9030.512492
28463.743776,222.061783,1685.410096,8882.471304
28463.744104,814.226536,229.828649,9622.677246
28463.744433,0.000000,153.219100,10140.821405
28463.744761,-814.226536,1149.143247,9326.594869
28463.745089,518.144159,459.657299,9548.656652
28463.745418,296.082377,-1455.581446,10362.883188
28463.745746,-1110.308913,-1149.143247,10214.842000
28463.746074,-1406.391290,-919.314598,9474.636058
28463.746403,-814.226536,-1455.581446,9770.718434
28463.746731,-740.205942,-2451.505594,10140.821405
28463.747060,-814.226536,-2451.505594,10436.903782
28463.747388,-1036.288319,-1378.971896,10066.800811
28463.747716,-296.082377,-919.314598,9104.533087
28463.748045,148.041188,-1838.629195,9474.636058
28463.748373,-296.082377,-2068.457845,10140.821405
28463.748702,-1628.453072,-1302.362347,9326.594869
28463.749030,-1184.329507,-2068.457845,8734.430116
28463.749358,-296.082377,-3524.039291,9474.636058
28463.749687,-1924.535449,-3447.429741,9474.636058
28463.750015,-2442.679609,-2374.896044,9918.759623
28463.750344,-1850.514855,-2681.334243,9252.574275
28463.750672,-1554.432478,-3983.696590,9474.636058
28463.751000,-1850.514855,-2834.553343,9992.780217
28463.751329,-1332.370696,-1762.019645,10066.800811
28463.751657,-1258.350101,-1378.971896,9252.574275
28463.751985,0.000000,-1915.238745,9400.615463
28463.752314,888.247130,-2298.286494,10436.903782
28463.752642,-444.123565,229.828649,9696.697840
28463.752971,-444.123565,229.828649,9030.512492
28463.753299,814.226536,-919.314598,9252.574275
28463.753627,592.164754,-1225.752797,9992.780217
28463.753956,-370.102971,536.266849,9326.594869
28463.754284,0.000000,1532.190996,8808.450710
28463.754613,444.123565,153.219100,8660.409521
28463.754941,740.205942,612.876398,9252.574275
28463.755269,666.185348,1532.190996,9400.615463
28463.755598,592.164754,2987.772442,8808.450710
28463.755926,1332.370696,2757.943793,8290.306550
28463.756254,2220.617826,1991.848295,9178.553681
28463.756583,1480.411884,3600.648841,9252.574275
28463.756911,1036.288319,4290.134789,8438.347739
28463.757240,2220.617826,3907.087040,8882.471304
28463.757568,1998.556043,2451.505594,9252.574275
28463.757896,1184.329507,3294.210641,9252.574275
28463.758225,814.226536,3907.087040,8586.388927
28463.758553,1554.432478,3907.087040,8808.450710
28463.758882,1702.473667,3370.820191,8882.471304
28463.759210,1406.391290,3294.210641,9400.615463
28463.759538,1036.288319,5515.887586,8956.491898
28463.759867,1332.370696,4519.963438,8216.285956
28463.760195,2146.597232,3524.039291,9030.512492
28463.760524,1110.308913,3294.210641,9770.718434
28463.760852,-296.082377,3753.867940,8956.491898
28463.761180,0.000000,2757.943793,8586.388927
28463.761509,518.144159,1685.410096,9474.636058
28463.761837,-814.226536,1225.752797,9918.759623
28463.762165,-1554.432478,1762.019645,9252.574275
28463.762494,-1036.288319,1072.533697,9178.553681
28463.762822,-1110.308913,0.000000,9252.574275
28463.763151,-1332.370696,0.000000,9474.636058
28463.763479,-1628.453072,766.095498,9400.615463
28463.763807,-888.247130,1072.533697,8808.450710
28463.764136,148.041188,-306.438199,8956.491898
28463.764464,0.000000,-842.705048,9918.759623
28463.764793,-1258.350101,-153.219100,9548.656652
28463.765121,-814.226536,-842.705048,9104.533087
28463.765449,0.000000,-2757.943793,9844.739029
28463.765778,-814.226536,-2221.676944,10140.821405
28463.766106,-1998.556043,-2221.676944,9030.512492
28463.766434,-666.185348,-2298.286494,9474.636058
28463.766763,-296.082377,-3064.381992,9622.677246
28463.767091,-666.185348,-2681.334243,9696.697840
28463.767420,-592.164754,-1915.238745,9474.636058
28463.767748,-296.082377,-1149.143247,8734.430116
28463.768076,592.164754,-1608.800546,8586.388927
28463.768405,518.144159,-1608.800546,9400.615463
28463.768733,-222.061783,-1149.143247,9474.636058
28463.769062,-740.205942,-1455.581446,8660.409521
28463.769390,148.041188,-3064.381992,8956.491898
28463.769718,-222.061783,-2911.162892,9918.759623
28463.770047,-1480.411884,-1072.533697,9474.636058
28463.770375,-1850.514855,-919.314598,8438.347739
28463.770704,-296.082377,-1991.848295,9326.594869
28463.771032,-666.185348,-2451.505594,9400.615463
28463.771360,-740.205942,-689.485948,10066.800811
28463.771689,-740.205942,229.828649,9326.594869
28463.772017,148.041188,76.609550,8956.491898
28463.772345,1184.329507,153.219100,9918.759623
28463.772674,296.082377,766.095498,10214.842000
28463.773002,0.000000,1455.581446,9400.615463
28463.773331,666.185348,1378.971896,8956.491898
28463.773659,1036.288319,459.657299,9770.718434
28463.773987,74.020594,1762.019645,9770.718434
28463.774316,74.020594,2451.505594,9252.574275
28463.774644,962.267725,1915.238745,8956.491898
28463.774973,814.226536,2068.457845,8956.491898
28463.775301,1406.391290,2987.772442,9474.636058
28463.775629,1036.288319,4136.915689,9326.594869
28463.775958,1406.391290,4290.134789,8512.368333
28463.776286,1998.556043,3294.210641,8734.430116
28463.776614,1628.453072,3370.820191,9400.615463
28463.776943,518.144159,4596.572988,8586.388927
28463.777271,814.226536,4673.182538,7698.141797
28463.777600,1850.514855,2911.162892,8956.491898
28463.777928,296.082377,2987.772442,9474.636058
28463.778256,0.000000,3447.429741,8882.471304
28463.778585,370.102971,2987.772442,8882.471304
28463.778913,592.164754,2374.896044,8882.471304
28463.779242,444.123565,2834.553343,9400.615463
28463.779570,222.061783,3677.258390,9400.615463
28463.779896,592.164754,2911.162892,8808.450710
28463.780225,1332.370696,1915.238745,8882.471304
28463.780553,1036.288319,1378.971896,9696.697840
28463.780882,-370.102971,2451.505594,9178.553681
28463.781210,-148.041188,2145.067394,8734.430116
28463.781538,1036.288319,383.047749,9030.512492
28463.781867,-370.102971,0.000000,9474.636058
28463.782195,-1998.556043,612.876398,8512.368333
28463.782524,-962.267725,0.000000,8808.450710
28463.782852,-740.205942,-1149.143247,9178.553681
28463.783181,-1036.288319,-1302.362347,9474.636058
28463.783509,-1184.329507,-766.095498,9622.677246
28463.783838,-1184.329507,-459.657299,9030.512492
28463.784166,-148.041188,-766.095498,8660.409521
28463.784494,0.000000,-1991.848295,9696.697840
28463.784823,-592.164754,-1838.629195,9918.759623
28463.785151,-1480.411884,-1302.362347,9252.574275
28463.785480,-740.205942,-2528.115143,9326.594869
28463.785808,-666.185348,-3600.648841,9992.780217
28463.786137,-2146.597232,-2374.896044,9548.656652
28463.786465,-1702.473667,-2451.505594,9548.656652
28463.786794,-1258.350101,-2757.943793,9474.636058
28463.787122,-888.247130,-2987.772442,9844.739029
28463.787451,-1332.370696,-2451.505594,9992.780217
28463.787779,-1332.370696,-1991.848295,9326.594869
28463.788107,-666.185348,-2145.067394,9326.594869
28463.788436,-296.082377,-2221.676944,9844.739029
28463.788764,-740.205942,-1532.190996,10214.842000
28463.789093,-1702.473667,-306.438199,9474.636058
28463.789421,-518.144159,-1685.410096,9770.718434
28463.789750,-74.020594,-2604.724693,10214.842000
28463.790078,-1184.329507,-1455.581446,9992.780217
28463.790407,-1110.308913,-689.485948,9770.718434
28463.790735,-592.164754,-612.876398,9474.636058
28463.791063,-518.144159,-1302.362347,9844.739029
28463.791392,-296.082377,0.000000,10288.862594
28463.791720,74.020594,842.705048,9992.780217
28463.792049,518.144159,1455.581446,8882.471304
28463.792377,1776.494261,1225.752797,9326.594869
28463.792706,1332.370696,1455.581446,10066.800811
28463.793034,370.102971,2911.162892,9252.574275
28463.793363,1258.350101,2604.724693,8882.471304
28463.793691,1628.453072,1762.019645,8956.491898
28463.794019,518.144159,2145.067394,9252.574275
28463.794348,296.082377,2911.162892,8512.368333
28463.794676,1628.453072,2834.553343,8956.491898
28463.795005,1924.535449,2528.115143,9252.574275
28463.795333,1406.391290,3370.820191,9252.574275
28463.795662,1998.556043,3447.429741,9030.512492
28463.795990,1776.494261,4596.572988,7624.121203
28463.796319,2220.617826,3983.696590,8068.244768
28463.796647,2368.659014,3753.867940,9178.553681
28463.796975,1406.391290,4443.353888,8808.450710
28463.797304,592.164754,4136.915689,7994.224174
28463.797632,1480.411884,2987.772442,7772.162391
28463.797961,1036.288319,2298.286494,9104.533087
28463.798289,-592.164754,3830.477490,8216.285956
28463.798618,-888.247130,2834.553343,8216.285956
28463.798946,-666.185348,1455.581446,8734.430116
28463.799275,-888.247130,919.314598,9178.553681
28463.799603,-1258.350101,1455.581446,9252.574275
28463.799931,-814.226536,2298.286494,8290.306550
28463.800260,222.061783,1455.581446,9030.512492
28463.800588,148.041188,842.705048,9326.594869
28463.800917,-962.267725,1149.143247,9548.656652
28463.801245,-962.267725,1072.533697,8882.471304
28463.801574,-148.041188,-536.266849,9252.574275
28463.801902,-148.041188,-1302.362347,9844.739029
28463.802231,-962.267725,-459.657299,9548.656652
28463.802559,-1480.411884,-766.095498,9104.533087
28463.802887,-740.205942,-1302.362347,9770.718434
28463.803216,-740.205942,-2145.067394,9992.780217
28463.803544,-666.185348,-1915.238745,10362.883188
28463.803873,-592.164754,-1149.143247,9696.697840
28463.804201,74.020594,-1378.971896,9474.636058
28463.804530,814.226536,-1915.238745,10214.842000
28463.804858,0.000000,-1378.971896,10066.800811
28463.805187,-444.123565,-1302.362347,9474.636058
28463.805515,74.020594,-1991.848295,9326.594869
28463.805843,296.082377,-2834.553343,10140.821405
28463.806172,-962.267725,-2451.505594,9844.739029
28463.806500,-1036.288319,-2221.676944,9474.636058
28463.806829,-888.247130,-2374.896044,9696.697840
28463.807157,-370.102971,-3370.820191,9622.677246
28463.807486,-518.144159,-2451.505594,9770.718434
28463.807814,-962.267725,-1225.752797,9844.739029
28463.808143,-518.144159,-1149.143247,9104.533087
28463.808471,740.205942,-1455.581446,9770.718434
28463.808799,222.061783,-1072.533697,10955.047942
28463.809128,-962.267725,459.657299,9474.636058
28463.809456,148.041188,0.000000,8956.491898
28463.809785,666.185348,-995.924147,9474.636058
28463.810113,-370.102971,-612.876398,9844.739029
28463.810442,-1332.370696,995.924147,9104.533087
28463.810770,-370.102971,612.876398,9030.512492
28463.811099,370.102971,306.438199,9474.636058
28463.811427,148.041188,1378.971896,9030.512492
28463.811756,592.164754,2145.067394,9326.594869
28463.812084,666.185348,3294.210641,8290.306550
28463.812412,1406.391290,2451.505594,8068.244768
28463.812741,1776.494261,2451.505594,9326.594869
28463.813069,962.267725,3524.039291,9104.533087
28463.813398,518.144159,3600.648841,8068.244768
28463.813726,1628.453072,2451.505594,8068.244768
28463.814055,1036.288319,2298.286494,9030.512492
28463.814383,296.082377,2987.772442,8808.450710
28463.814712,370.102971,3753.867940,8290.306550
28463.815040,1110.308913,2911.162892,8586.388927
28463.815368,814.226536,2451.505594,8882.471304
28463.815697,666.185348,3600.648841,8808.450710
28463.816025,740.205942,4979.620737,8068.244768
28463.816354,1702.473667,3370.820191,8438.347739
28463.816682,2146.597232,2604.724693,8956.491898
28463.817011,1184.329507,3217.601092,9400.615463
28463.817339,518.144159,3983.696590,8956.491898
28463.817668,1406.391290,2528.115143,8956.491898
28463.817996,814.226536,1149.143247,8808.450710
28463.818324,-296.082377,1149.143247,8882.471304
28463.818653,-962.267725,2451.505594,8882.471304
28463.818981,-518.144159,612.876398,8956.491898
28463.819310,-444.123565,76.609550,9474.636058
28463.819638,-962.267725,0.000000,9992.780217
28463.819967,-962.267725,842.705048,9400.615463
28463.820295,0.000000,229.828649,8808.450710
28463.820624,740.205942,-459.657299,9400.615463
28463.820952,-518.144159,0.000000,9992.780217
28463.821280,-1110.308913,0.000000,9696.697840
28463.821609,-740.205942,-1532.190996,9548.656652
28463.821937,0.000000,-2681.334243,10436.903782
28463.822266,-1406.391290,-2221.676944,10436.903782
28463.822594,-1480.411884,-1991.848295,10140.821405
28463.822923,-814.226536,-2298.286494,9992.780217
28463.823251,-962.267725,-2757.943793,10214.842000
28463.823580,-1184.329507,-2451.505594,10140.821405
28463.823908,-1184.329507,-1685.410096,9770.718434
28463.824236,-888.247130,-1532.190996,8808.450710
28463.824565,0.000000,-2604.724693,9326.594869
28463.824893,-296.082377,-2298.286494,9918.759623
28463.825222,-1776.494261,-1608.800546,9252.574275
28463.825550,-1850.514855,-1838.629195,8734.430116
28463.825879,-444.123565,-3677.258390,9770.718434
28463.826207,-1702.473667,-3064.381992,9770.718434
28463.826536,-2442.679609,-1838.629195,9400.615463
28463.826864,-1554.432478,-1991.848295,9400.615463
28463.827192,-1110.308913,-2987.772442,9104.533087
28463.827521,-1110.308913,-2528.115143,9844.739029
28463.827849,-962.267725,-766.095498,9326.594869
28463.828178,0.000000,-383.047749,8956.491898
28463.828506,888.247130,-612.876398,9252.574275
28463.828835,1554.432478,-306.438199,10140.821405
28463.829163,444.123565,995.924147,9622.677246
28463.829492,296.082377,1608.800546,8734.430116
28463.829820,1184.329507,459.657299,8882.471304
28463.830148,1036.288319,536.266849,9400.615463
28463.830477,370.102971,1608.800546,9400.615463
28463.830805,592.164754,2068.457845,8808.450710
28463.831134,814.226536,1838.629195,8808.450710
28463.831462,1036.288319,1685.410096,9326.594869
28463.831791,1332.370696,2987.772442,9326.594869
28463.832119,1406.391290,2834.553343,8808.450710
28463.832448,1924.535449,4366.744339,7920.203579
28463.832776,2516.700203,3294.210641,8882.471304
28463.833104,1776.494261,3983.696590,9252.574275
28463.833433,962.267725,5132.839837,8216.285956
28463.833761,1850.514855,3753.867940,8364.327145
28463.834090,1998.556043,2757.943793,9178.553681
28463.834418,592.164754,3983.696590,8512.368333
28463.834747,296.082377,5132.839837,8142.265362
28463.835075,518.144159,3217.601092,8586.388927
28463.835404,444.123565,2451.505594,8956.491898
28463.835732,148.041188,2834.553343,9474.636058
28463.836061,0.000000,3983.696590,9770.718434
28463.836389,370.102971,3677.258390,8734.430116
28463.836717,888.247130,2068.457845,9326.594869
28463.837046,74.020594,1991.848295,9844.739029
28463.837374,-1628.453072,2987.772442,9030.512492
28463.837703,-518.144159,1991.848295,9326.594869
28463.838031,74.020594,0.000000,9918.759623
28463.838360,-1332.370696,76.609550,9918.759623
28463.838688,-1998.556043,1072.533697,9326.594869
28463.839017,-1110.308913,-383.047749,8808.450710
28463.839345,-370.102971,-1072.533697,9548.656652
28463.839673,-814.226536,-689.485948,9918.759623
28463.840002,-814.226536,-306.438199,9844.739029
28463.840330,-666.185348,-306.438199,8882.471304
28463.840659,444.123565,-1455.581446,9474.636058
28463.840987,222.061783,-2681.334243,10066.800811
28463.841316,-592.164754,-1378.971896,9548.656652
28463.841644,-814.226536,-1608.800546,9104.533087
28463.841973,222.061783,-3064.381992,9622.677246
28463.842301,-444.123565,-3294.210641,10140.821405
28463.842629,-1258.350101,-2374.896044,9474.636058
28463.842958,-740.205942,-2604.724693,9030.512492
28463.843286,-370.102971,-3217.601092,9030.512492
28463.843615,-592.164754,-3677.258390,9474.636058
28463.843943,-444.123565,-2221.676944,9696.697840
28463.844272,-518.144159,-1608.800546,9030.512492
28463.844600,148.041188,-2068.457845,8734.430116
28463.844929,592.164754,-2451.505594,9770.718434
28463.845257,-74.020594,-1072.533697,9844.739029
28463.845585,-370.102971,0.000000,8956.491898
28463.845914,0.000000,-1915.238745,9030.512492
28463.846242,0.000000,-1991.848295,9622.677246
28463.846571,-1110.308913,-1072.533697,9400.615463
28463.846899,-888.247130,-153.219100,9104.533087
28463.847228,-666.185348,-919.314598,9400.615463
28463.847556,-370.102971,-1072.533697,9548.656652
28463.847885,-296.082377,229.828649,9400.615463
28463.848213,-222.061783,919.314598,9400.615463
28463.848541,666.185348,1608.800546,8660.409521
28463.848870,1036.288319,1225.752797,9400.615463
28463.849198,444.123565,1991.848295,9622.677246
28463.849527,-222.061783,2681.334243,8882.471304
28463.849855,1110.308913,2298.286494,9030.512492
28463.850184,1110.308913,2068.457845,9474.636058
28463.850512,0.000000,2681.334243,9104.533087
28463.850841,222.061783,3370.820191,8734.430116
28463.851169,814.226536,3217.601092,8882.471304
28463.851497,1036.288319,2681.334243,9474.636058
28463.851826,962.267725,3370.820191,9474.636058
28463.852154,962.267725,4673.182538,8956.491898
28463.852483,1628.453072,4826.401637,8290.306550
28463.852811,2442.679609,3830.477490,9178.553681
28463.853140,1998.556043,3753.867940,9474.636058
28463.853468,888.247130,4519.963438,9030.512492
28463.853797,1110.308913,4136.915689,8660.409521
28463.854125,1998.556043,2681.334243,9252.574275
28463.854453,592.164754,2757.943793,9178.553681
28463.854782,0.000000,3447.429741,8882.471304
28463.855110,0.000000,2221.676944,8808.450710
28463.855439,518.144159,1302.362347,9474.636058
28463.855767,0.000000,1072.533697,9474.636058
28463.856096,-370.102971,1915.238745,9400.615463
28463.856424,0.000000,1762.019645,8586.388927
28463.856753,592.164754,1072.533697,8660.409521
28463.857081,370.102971,766.095498,9400.615463
28463.857409,-518.144159,1225.752797,9104.533087
28463.857738,-222.061783,-306.438199,8956.491898
28463.858066,74.020594,-1225.752797,9326.594869
28463.858395,-444.123565,-1838.629195,9770.718434
28463.858723,-1480.411884,-1072.533697,9400.615463
28463.859052,-814.226536,-1225.752797,9326.594869
28463.859380,-888.247130,-2451.505594,9548.656652
28463.859709,-1258.350101,-2451.505594,9474.636058
28463.860037,-888.247130,-1838.629195,10214.842000
28463.860366,-740.205942,-1225.752797,9474.636058
28463.860694,-444.123565,-2221.676944,8734.430116
28463.861022,222.061783,-2757.943793,9770.718434
28463.861351,-666.185348,-1532.190996,9770.718434
28463.861679,-666.185348,-919.314598,8808.450710
28463.862008,-592.164754,-2221.676944,8660.409521
28463.862336,-518.144159,-3600.648841,9622.677246
28463.862665,-2146.597232,-2451.505594,9252.574275
28463.862993,-2146.597232,-2221.676944,8734.430116
28463.863322,-1480.411884,-3294.210641,9030.512492
28463.863650,-1406.391290,-4060.306139,9696.697840
28463.863978,-1554.432478,-2451.505594,9696.697840
28463.864307,-1406.391290,-1149.143247,9252.574275
28463.864635,-222.061783,-1302.362347,9326.594869
28463.864964,74.020594,-1532.190996,9992.780217
28463.865292,-740.205942,-1225.752797,10214.842000
28463.865621,-740.205942,-383.047749,9474.636058
28463.865949,0.000000,-842.705048,9622.677246
28463.866278,444.123565,-1225.752797,10288.862594
28463.866606,-592.164754,0.000000,9770.718434
28463.866934,-370.102971,459.657299,10066.800811
28463.867263,370.102971,306.438199,9548.656652
28463.867591,740.205942,306.438199,9622.677246
28463.867920,592.164754,1685.410096,10140.821405
28463.868248,592.164754,2374.896044,9178.553681
28463.868577,1554.432478,2757.943793,8808.450710
28463.868905,2294.638420,2374.896044,9252.574275
28463.869234,1998.556043,3140.991542,9770.718434
28463.869562,1110.308913,3907.087040,8808.450710
28463.869890,1702.473667,3140.991542,8512.368333
28463.870219,2220.617826,2221.676944,9178.553681
28463.870547,1702.473667,2757.943793,9400.615463
28463.870876,888.247130,3600.648841,8734.430116
28463.871204,1036.288319,3907.087040,8438.347739
28463.871533,1110.308913,2681.334243,8586.388927
28463.871861,1406.391290,2987.772442,9030.512492
28463.872190,1184.329507,4136.915689,9030.512492
28463.872518,888.247130,4443.353888,8438.347739
28463.872846,1850.514855,3370.820191,8216.285956
28463.873175,1998.556043,2834.553343,9400.615463
28463.873503,296.082377,4136.915689,9178.553681
28463.873832,0.000000,3677.258390,8512.368333
28463.874160,592.164754,1608.800546,8586.388927
28463.874489,148.041188,919.314598,9474.636058
28463.874817,-1406.391290,1455.581446,8956.491898
28463.875146,-1332.370696,1532.190996,8660.409521
28463.875474,-518.144159,459.657299,8956.491898
28463.875802,-1110.308913,76.609550,8956.491898
28463.876131,-740.205942,842.705048,9474.636058
28463.876459,-666.185348,1378.971896,8956.491898
28463.876788,-222.061783,306.438199,8438.347739
28463.877116,370.102971,-612.876398,9400.615463
28463.877445,-1258.350101,153.219100,9400.615463
28463.877773,-814.226536,76.609550,9400.615463
28463.878102,-296.082377,-1225.752797,9252.574275
28463.878430,-518.144159,-2528.115143,9918.759623
28463.878758,-1924.535449,-2068.457845,9696.697840
28463.879087,-1480.411884,-1762.019645,9474.636058
28463.879415,-740.205942,-2681.334243,9696.697840
28463.879744,-1036.288319,-2681.334243,9770.718434
28463.880072,-666.185348,-2834.553343,10288.862594
28463.880401,-222.061783,-1685.410096,9400.615463
28463.880729,296.082377,-1532.190996,9178.553681
28463.881058,1036.288319,-2374.896044,9918.759623
28463.881386,370.102971,-1762.019645,10214.842000
28463.881714,-518.144159,-842.705048,9400.615463
28463.882043,518.144159,-1915.238745,9548.656652
28463.882371,444.123565,-3447.429741,9844.739029
28463.882700,-666.185348,-1762.019645,9770.718434
28463.883028,-1184.329507,-1608.800546,9474.636058
28463.883356,-666.185348,-1915.238745,9400.615463
28463.883685,-296.082377,-1762.019645,9622.677246
28463.884013,-518.144159,-1685.410096,10288.862594
28463.884341,-962.267725,0.000000,9400.615463
28463.884670,-370.102971,153.219100,8808.450710
28463.884998,888.247130,-229.828649,9622.677246
28463.885326,518.144159,0.000000,10362.883188
28463.885655,-370.102971,919.314598,9548.656652
28463.885983,0.000000,689.485948,9030.512492
28463.886312,666.185348,0.000000,9548.656652
28463.886640,370.102971,536.266849,10066.800811
28463.886968,-666.185348,1991.848295,9178.553681
28463.887297,222.061783,2145.067394,8956.491898
28463.887625,518.144159,1608.800546,8882.471304
28463.887953,666.185348,1838.629195,9474.636058
28463.888282,592.164754,3447.429741,9178.553681
28463.888610,1036.288319,3830.477490,8068.244768
28463.888939,1776.494261,3140.991542,7920.203579
28463.889267,2368.659014,3370.820191,9178.553681
28463.889595,1258.350101,4060.306139,8808.450710
28463.889924,1110.308913,4749.792088,8216.285956
28463.890252,1850.514855,2911.162892,8364.327145
28463.890580,1184.329507,2451.505594,9030.512492
28463.890909,296.082377,3753.867940,8438.347739
28463.891237,0.000000,3524.039291,7846.182985
28463.891566,666.185348,2834.553343,8142.265362
28463.891894,666.185348,2221.676944,8142.265362
28463.892222,518.144159,2987.772442,9178.553681
28463.892551,666.185348,3830.477490,8586.388927
28463.892879,1258.350101,2987.772442,8586.388927
28463.893207,1406.391290,1838.629195,9178.553681
28463.893536,222.061783,1991.848295,9252.574275
28463.893864,148.041188,2451.505594,8734.430116
28463.894192,592.164754,919.314598,8956.491898
28463.894521,0.000000,229.828649,9474.636058
28463.894849,-888.247130,229.828649,9474.636058
28463.895178,-1406.391290,459.657299,9178.553681
28463.895506,-666.185348,0.000000,9030.512492
28463.895834,-666.185348,-459.657299,9474.636058
28463.896163,-888.247130,-536.266849,9474.636058
28463.896491,-1110.308913,0.000000,9474.636058
28463.896819,-296.082377,-612.876398,9178.553681
28463.897148,148.041188,-1685.410096,9992.780217
28463.897476,-666.185348,-1302.362347,10362.883188
28463.897805,-1258.350101,-689.485948,9696.697840
28463.898133,-370.102971,-2068.457845,9400.615463
28463.898461,0.000000,-2911.162892,10288.862594
28463.898790,-1480.411884,-2451.505594,9992.780217
28463.899118,-2146.597232,-2068.457845,9400.615463
28463.899446,-1258.350101,-2834.553343,9474.636058
28463.899775,-1184.329507,-3294.210641,9918.759623
28463.900103,-2072.576638,-2451.505594,9844.739029
28463.900431,-1406.391290,-2068.457845,9844.739029
28463.900760,-1110.308913,-1532.190996,8808.450710
28463.901088,0.000000,-2911.162892,9696.697840
28463.901417,-518.144159,-2374.896044,10362.883188
28463.901745,-1480.411884,-1608.800546,9844.739029
28463.902073,-1110.308913,-1838.629195,9474.636058
28463.902402,0.000000,-3064.381992,9844.739029
28463.902730,-1110.308913,-2068.457845,9918.759623
28463.903058,-1776.494261,-995.924147,9400.615463
28463.903387,-1036.288319,-1225.752797,9326.594869
28463.903715,0.000000,-1762.019645,9622.677246
28463.904044,0.000000,-612.876398,9622.677246
28463.904372,-296.082377,229.828649,9474.636058
28463.904700,740.205942,919.314598,8882.471304
28463.905029,1480.411884,1608.800546,8512.368333
28463.905357,1332.370696,1072.533697,9548.656652
28463.905685,740.205942,2451.505594,9252.574275
28463.906014,888.247130,2298.286494,8586.388927
28463.906342,1480.411884,1302.362347,8660.409521
28463.906671,1110.308913,1532.190996,9178.553681
28463.906999,296.082377,2757.943793,8734.430116
28463.907327,592.164754,3370.820191,8290.306550
28463.907656,1184.329507,1838.629195,8438.347739
28463.907984,1554.432478,2374.896044,8882.471304
28463.908312,1184.329507,3830.477490,9178.553681
28463.908641,1480.411884,4673.182538,8142.265362
28463.908969,2220.617826,3983.696590,7994.224174
28463.909297,3034.844362,3600.648841,8882.471304
28463.909626,1332.370696,4749.792088,8956.491898
28463.909954,370.102971,5209.449386,7920.203579
28463.910283,1628.453072,3294.210641,8808.450710
28463.910611,1184.329507,2298.286494,9030.512492
28463.910939,-296.082377,3064.381992,8882.471304
28463.911268,-148.041188,3524.039291,8808.450710
28463.911596,0.000000,2145.067394,8734.430116
28463.911924,-148.041188,2145.067394,9178.553681
28463.912253,-962.267725,2374.896044,9474.636058
28463.912581,-888.247130,2451.505594,9030.512492
28463.912910,-740.205942,2145.067394,8660.409521
28463.913238,222.061783,1225.752797,9622.677246
28463.913566,-444.123565,842.705048,9844.739029
28463.913895,-1406.391290,1378.971896,9474.636058
28463.914223,-148.041188,536.266849,10436.903782
28463.914551,-296.082377,-842.705048,9622.677246
28463.914880,-962.267725,-1149.143247,9992.780217
28463.915208,-1406.391290,-612.876398,9770.718434
28463.915536,-962.267725,-1225.752797,9622.677246
28463.915865,-592.164754,-2068.457845,9770.718434
28463.916193,-296.082377,-1762.019645,10732.986159
28463.916522,-296.082377,-2145.067394,10362.883188
28463.916850,0.000000,-1072.533697,9104.533087
28463.917178,814.226536,-2221.676944,9622.677246
28463.917507,518.144159,-2068.457845,10584.944971
28463.917835,-148.041188,-1072.533697,9622.677246
28463.918163,0.000000,-1302.362347,9252.574275
28463.918492,296.082377,-3064.381992,9622.677246
28463.918820,-370.102971,-2681.334243,9696.697840
28463.919149,-814.226536,-1685.410096,9252.574275
28463.919477,-740.205942,-1991.848295,9400.615463
28463.919805,-888.247130,-2757.943793,9252.574275
28463.920134,-814.226536,-2834.553343,9474.636058
28463.920462,-518.144159,-1915.238745,9770.718434
28463.920790,-296.082377,-1378.971896,8882.471304
28463.921119,0.000000,-1149.143247,8586.388927
28463.921447,222.061783,-1532.190996,9474.636058
28463.921775,-666.185348,-766.095498,9474.636058
28463.922104,-888.247130,-153.219100,8882.471304
28463.922432,222.061783,-766.095498,9400.615463
28463.922761,-148.041188,-536.266849,9696.697840
28463.923089,-814.226536,536.266849,9326.594869
28463.923417,-518.144159,612.876398,8956.491898
28463.923746,0.000000,306.438199,9104.533087
28463.924074,0.000000,459.657299,9400.615463
28463.924402,74.020594,1685.410096,9622.677246
28463.924731,74.020594,2374.896044,8808.450710
28463.925059,1184.329507,2374.896044,8586.388927
28463.925388,1702.473667,2221.676944,9178.553681
28463.925716,296.082377,2987.772442,8956.491898
28463.926044,592.164754,3983.696590,8586.388927
28463.926373,1406.391290,2681.334243,8808.450710
28463.926701,1332.370696,2145.067394,9326.594869
28463.927029,0.000000,3140.991542,8808.450710
28463.927358,148.041188,3677.258390,8438.347739
28463.927686,518.144159,3064.381992,8364.327145
28463.928015,1406.391290,2451.505594,9252.574275
28463.928343,962.267725,3677.258390,9474.636058
28463.928671,666.185348,4213.525239,9030.512492
28463.929000,1258.350101,3753.867940,8438.347739
28463.929328,2294.638420,2987.772442,9400.615463
28463.929656,1480.411884,3600.648841,9622.677246
28463.929985,444.123565,4673.182538,8882.471304
28463.930313,1036.288319,2681.334243,8734.430116
28463.930641,1480.411884,1532.190996,9548.656652
28463.930970,148.041188,1915.238745,9770.718434
28463.931298,-666.185348,2374.896044,9252.574275
28463.931627,0.000000,1149.143247,9030.512492
28463.931955,0.000000,612.876398,9178.553681
28463.932283,-74.020594,919.314598,9474.636058
28463.932612,-1184.329507,1302.362347,9326.594869
28463.932940,-148.041188,919.314598,8734.430116
28463.933268,74.020594,-459.657299,9030.512492
28463.933597,0.000000,-766.095498,10066.800811
28463.933925,-1110.308913,76.609550,9548.656652
28463.934254,-814.226536,-76.609550,9178.553681
28463.934582,-518.144159,-2451.505594,9622.677246
28463.934910,-1110.308913,-2681.334243,10288.862594
28463.935239,-1554.432478,-2451.505594,9844.739029
28463.935567,-1332.370696,-2221.676944,9622.677246
28463.935895,-962.267725,-2681.334243,9770.718434
28463.936224,-1184.329507,-2681.334243,9844.739029
28463.936552,-444.123565,-1608.800546,10140.821405
28463.936880,-518.144159,-1608.800546,9252.574275
28463.937209,74.020594,-2298.286494,8882.471304
28463.937537,148.041188,-2528.115143,9770.718434
28463.937866,-1110.308913,-1762.019645,9474.636058
28463.938194,-1258.350101,-1608.800546,8734.430116
28463.938522,-592.164754,-2834.553343,9326.594869
28463.938851,-1406.391290,-3447.429741,9992.780217
28463.939179,-2368.659014,-2298.286494,8660.409521
28463.939507,-1924.535449,-1762.019645,8512.368333
28463.939836,-1184.329507,-2374.896044,9400.615463
28463.940164,-1628.453072,-2068.457845,9474.636058
28463.940493,-1332.370696,-1455.581446,9548.656652
28463.940821,-1110.308913,-689.485948,8956.491898
28463.941149,0.000000,-766.095498,9030.512492
28463.941478,370.102971,-612.876398,9400.615463
28463.941806,296.082377,0.000000,10066.800811
28463.942134,-370.102971,689.485948,9178.553681
28463.942463,1036.288319,229.828649,9474.636058
28463.942791,962.267725,0.000000,10066.800811
28463.943120,0.000000,1225.752797,9474.636058
28463.943448,0.000000,1762.019645,8808.450710
28463.943776,1184.329507,1838.629195,9326.594869
28463.944105,962.267725,1455.581446,9474.636058
28463.944433,740.205942,2681.334243,9844.739029
28463.944761,1036.288319,3294.210641,9326.594869
28463.945090,1628.453072,3064.381992,8734.430116
28463.945418,2738.761985,2757.943793,9622.677246
28463.945746,2368.659014,3830.477490,9474.636058
28463.946075,1258.350101,4749.792088,8956.491898
28463.946403,1628.453072,3524.039291,8290.306550
28463.946732,2072.576638,2451.505594,9400.615463
28463.947060,1110.308913,3294.210641,9104.533087
28463.947388,444.123565,4213.525239,8808.450710
28463.947717,1036.288319,3677.258390,8586.388927
28463.948045,1036.288319,2604.724693,8438.347739
28463.948373,296.082377,2834.553343,8956.491898
28463.948702,0.000000,3983.696590,9030.512492
28463.949030,518.144159,3140.991542,8364.327145
28463.949359,888.247130,2451.505594,8660.409521
28463.949687,74.020594,2068.457845,9622.677246
28463.950015,-814.226536,2528.115143,9178.553681
28463.950344,-518.144159,1838.629195,8956.491898
28463.950672,0.000000,689.485948,10066.800811
28463.951000,-962.267725,536.266849,9622.677246
28463.951329,-1258.350101,459.657299,9326.594869
28463.951657,-962.267725,229.828649,9178.553681
28463.951985,-962.267725,-459.657299,9104.533087
28463.952314,-962.267725,-689.485948,9400.615463
28463.952642,-1036.288319,0.000000,9548.656652
28463.952971,-518.144159,459.657299,8956.491898
28463.953299,0.000000,-459.657299,8882.471304
28463.953627,444.123565,-1378.971896,10140.821405
28463.953956,-962.267725,-842.705048,9918.759623
28463.954284,-1184.329507,-766.095498,8586.388927
28463.954612,74.020594,-2528.115143,9326.594869
28463.954941,-666.185348,-2757.943793,9844.739029
28463.955269,-2072.576638,-2145.067394,9252.574275
28463.955598,-888.247130,-1838.629195,8882.471304
28463.955926,-370.102971,-2987.772442,9326.594869
28463.956254,-666.185348,-2451.505594,9474.636058
28463.956583,-666.185348,-1915.238745,9696.697840
28463.956911,-740.205942,-1302.362347,8808.450710
28463.957239,74.020594,-995.924147,8216.285956
28463.957568,1406.391290,-2757.943793,9918.759623
28463.957896,0.000000,-1302.362347,9844.739029
28463.958225,-666.185348,-995.924147,9104.533087
28463.958553,370.102971,-1838.629195,9474.636058
28463.958881,296.082377,-2604.724693,10214.842000
28463.959210,-962.267725,-1225.752797,10214.842000
28463.959538,-1258.350101,-459.657299,9474.636058
28463.959866,0.000000,-1685.410096,9252.574275
28463.960195,0.000000,-1225.752797,9252.574275
28463.960523,0.000000,0.000000,10436.903782
28463.960851,-370.102971,1302.362347,9548.656652
28463.961180,0.000000,995.924147,9030.512492
28463.961508,1184.329507,306.438199,9548.656652
28463.961837,740.205942,1378.971896,10436.903782
28463.962165,-296.082377,2834.553343,9252.574275
28463.962493,222.061783,2221.676944,8734.430116
28463.962822,740.205942,842.705048,9400.615463
28463.963150,0.000000,1685.410096,9400.615463
28463.963478,-370.102971,2911.162892,8956.491898
28463.963807,296.082377,2757.943793,8882.471304
28463.964135,740.205942,2221.676944,8660.409521
28463.964464,888.247130,2298.286494,9252.574275
28463.964792,814.226536,3830.477490,9178.553681
28463.965120,1184.329507,4443.353888,8512.368333
28463.965449,2368.659014,3447.429741,8882.471304
28463.965777,2220.617826,2911.162892,9696.697840
28463.966105,1184.329507,4060.306139,9252.574275
28463.966434,1480.411884,4290.134789,8364.327145
28463.966762,1924.535449,2757.943793,9326.594869
28463.967090,1184.329507,2681.334243,9178.553681
28463.967419,148.041188,2987.772442,8882.471304
28463.967747,666.185348,2834.553343,8734.430116
28463.968076,740.205942,2221.676944,9104.533087
28463.968404,222.061783,1762.019645,8734.430116
28463.968732,0.000000,2221.676944,8808.450710
28463.969061,-592.164754,1991.848295,8216.285956
28463.969389,666.185348,1455.581446,8216.285956
28463.969717,518.144159,766.095498,9474.636058
28463.970046,-592.164754,1225.752797,9326.594869
28463.970374,-962.267725,1072.533697,8438.347739
28463.970703,222.061783,0.000000,8956.491898
28463.971031,-518.144159,-612.876398,9104.533087
28463.971359,-2072.576638,-459.657299,8808.450710
28463.971688,-814.226536,-766.095498,9030.512492
28463.972016,-962.267725,-1455.581446,9252.574275
28463.972344,-962.267725,-1685.410096,9696.697840
28463.972673,-666.185348,-1378.971896,10362.883188
28463.973001,-888.247130,-306.438199,9844.739029
28463.973330,-740.205942,-1225.752797,9178.553681
28463.973658,592.164754,-2298.286494,10066.800811
28463.973986,-296.082377,-1455.581446,10362.883188
28463.974315,-1406.391290,-766.095498,9252.574275
28463.974643,-370.102971,-2374.896044,9178.553681
28463.974971,-444.123565,-3064.381992,9696.697840
28463.975300,-1406.391290,-1838.629195,9770.718434
28463.975628,-1480.411884,-2068.457845,9326.594869
28463.975956,-1480.411884,-2068.457845,8586.388927
28463.976285,-1480.411884,-3294.210641,9474.636058
28463.976613,-1702.473667,-2604.724693,10140.821405
28463.976942,-1554.432478,-1685.410096,9844.739029
28463.977270,-1258.350101,-1302.362347,9104.533087
28463.977598,0.000000,-2528.115143,10288.862594
28463.977927,-740.205942,-1378.971896,9696.697840
28463.978255,-1332.370696,-766.095498,9770.718434
28463.978583,-444.123565,-1302.362347,9770.718434
28463.978912,0.000000,-1685.410096,10140.821405
28463.979240,-814.226536,-1302.362347,10140.821405
28463.979569,-666.185348,0.000000,9696.697840
28463.979897,0.000000,0.000000,9400.615463
28463.980225,666.185348,306.438199,9770.718434
28463.980554,370.102971,0.000000,9622.677246
28463.980882,222.061783,1532.190996,9696.697840
28463.981210,1258.350101,2374.896044,9104.533087
28463.981539,2294.638420,1915.238745,9252.574275
28463.981867,2220.617826,1838.629195,9844.739029
28463.982196,1110.308913,3217.601092,9104.533087
28463.982524,1406.391290,3524.039291,8068.244768
28463.982852,2664.741391,2451.505594,9104.533087
28463.983181,1184.329507,2528.115143,9400.615463
28463.983509,666.185348,3294.210641,8512.368333
28463.983838,1258.350101,3064.381992,8660.409521
28463.984166,1258.350101,2681.334243,8512.368333
28463.984494,1332.370696,2834.553343,8364.327145
28463.984823,1110.308913,3830.477490,8512.368333
28463.985151,1332.370696,4519.963438,8068.244768
28463.985479,1924.535449,3677.258390,7698.141797
28463.985808,1924.535449,2911.162892,9104.533087
28463.986136,518.144159,3600.648841,8956.491898
28463.986465,0.000000,3753.867940,8142.265362
28463.986793,1184.329507,2145.067394,9030.512492
28463.987121,222.061783,2298.286494,9474.636058
28463.987450,-1332.370696,2451.505594,8808.450710
28463.987778,-444.123565,1762.019645,8956.491898
28463.988107,-592.164754,995.924147,9104.533087
28463.988435,-962.267725,612.876398,9252.574275
28463.988763,-888.247130,919.314598,9474.636058
28463.989092,-740.205942,1455.581446,9252.574275
28463.989420,-444.123565,1149.143247,8586.388927
28463.989749,-148.041188,306.438199,9178.553681
28463.990077,-222.061783,229.828649,9992.780217
28463.990405,-1036.288319,689.485948,9252.574275
28463.990734,-370.102971,-383.047749,9030.512492
28463.991062,-444.123565,-1762.019645,9844.739029
28463.991390,-1554.432478,-1378.971896,9696.697840
28463.991719,-1850.514855,-1378.971896,9474.636058
28463.992047,-962.267725,-2298.286494,9622.677246
28463.992376,-740.205942,-3064.381992,9770.718434
28463.992704,-814.226536,-2068.457845,10436.903782
28463.993032,-518.144159,-1455.581446,10214.842000
28463.993361,0.000000,-1302.362347,9400.615463
28463.993689,592.164754,-1915.238745,9844.739029
28463.994018,296.082377,-2221.676944,10066.800811
28463.994346,-370.102971,-1762.019645,9474.636058
28463.994674,222.061783,-1762.019645,9770.718434
28463.995003,518.144159,-2757.943793,10436.903782
28463.995331,-666.185348,-2451.505594,9918.759623
28463.995659,-1258.350101,-1915.238745,9326.594869
28463.995988,0.000000,-2298.286494,9770.718434
28463.996316,-222.061783,-1532.190996,9548.656652
28463.996645,-370.102971,-1225.752797,9844.739029
28463.996973,-592.164754,-1072.533697,9992.780217
28463.997301,-74.020594,-536.266849,9178.553681
28463.997630,518.144159,-612.876398,9252.574275
28463.997958,518.144159,0.000000,10214.842000
28463.998287,-370.102971,383.047749,9474.636058
28463.998615,0.000000,459.657299,8808.450710
28463.998943,740.205942,-612.876398,9622.677246
28463.999272,0.000000,0.000000,9696.697840
28463.999600,-1332.370696,1149.143247,8808.450710
28463.999929,-148.041188,1149.143247,9178.553681
28464.000257,444.123565,612.876398,9326.594869
28464.000585,0.000000,1532.190996,8734.430116
28464.000914,444.123565,3064.381992,9400.615463
28464.001242,444.123565,3370.820191,8808.450710
28464.001570,1554.432478,2911.162892,8290.306550
28464.001899,1924.535449,2757.943793,9252.574275
28464.002227,1110.308913,3677.258390,9030.512492
28464.002556,592.164754,4136.915689,7994.224174
28464.002884,1480.411884,2681.334243,8364.327145
28464.003212,814.226536,2834.553343,9178.553681
28464.003541,0.000000,3370.820191,8216.285956
28464.003869,444.123565,3830.477490,8438.347739
28464.004198,888.247130,2834.553343,8586.388927
28464.004526,444.123565,2298.286494,8512.368333
28464.004854,740.205942,3064.381992,9030.512492
28464.005183,1110.308913,3907.087040,8438.347739
28464.005511,1184.329507,3830.477490,7920.203579
28464.005840,1776.494261,2911.162892,8956.491898
28464.006168,740.205942,2451.505594,9252.574275
28464.006496,0.000000,2987.772442,8660.409521
28464.006825,592.164754,2068.457845,8586.388927
28464.007153,296.082377,1532.190996,9474.636058
28464.007481,-962.267725,842.705048,9252.574275
28464.007810,-1036.288319,689.485948,8882.471304
28464.008138,-814.226536,0.000000,9400.615463
28464.008467,-1036.288319,-383.047749,9548.656652
28464.008795,-814.226536,-383.047749,9696.697840
28464.009123,-518.144159,-306.438199,9918.759623
28464.009452,-296.082377,0.000000,9474.636058
28464.009780,444.123565,-766.095498,10214.842000
28464.010109,0.000000,-995.924147,10140.821405
28464.010437,-592.164754,-1685.410096,9844.739029
28464.010765,0.000000,-1532.190996,9844.739029
28464.011094,0.000000,-2604.724693,10658.965565
28464.011422,-1332.370696,-2451.505594,10066.800811
28464.011750,-1554.432478,-2528.115143,9622.677246
28464.012079,-888.247130,-2681.334243,9474.636058
28464.012407,-888.247130,-2298.286494,9622.677246
28464.012736,-1628.453072,-1762.019645,9178.553681
28464.013064,-888.247130,-1838.629195,9622.677246
28464.013392,-592.164754,-2068.457845,9030.512492
28464.013721,-370.102971,-2298.286494,9326.594869
28464.014049,0.000000,-2221.676944,10140.821405
28464.014378,-1332.370696,-1608.800546,9030.512492
28464.014706,-1110.308913,-1378.971896,9030.512492
28464.015034,-518.144159,-2298.286494,9918.759623
28464.015363,-1628.453072,-2451.505594,10288.862594
28464.015691,-2294.638420,-1915.238745,9474.636058
28464.016020,-1110.308913,-2068.457845,9474.636058
28464.016348,-814.226536,-2145.067394,9844.739029
28464.016676,-888.247130,-1302.362347,9844.739029
28464.017005,-222.061783,0.000000,9548.656652
28464.017333,0.000000,383.047749,9030.512492
28464.017661,814.226536,0.000000,8956.491898
28464.017990,1332.370696,383.047749,9696.697840
28464.018318,296.082377,1608.800546,9400.615463
28464.018647,370.102971,1915.238745,8438.347739
28464.018975,1258.350101,612.876398,8364.327145
28464.019303,1406.391290,1302.362347,9326.594869
28464.019632,0.000000,2068.457845,8586.388927
28464.019960,222.061783,2911.162892,8364.327145
28464.020289,814.226536,2145.067394,8512.368333
28464.020617,1184.329507,1685.410096,8660.409521
28464.020945,888.247130,2987.772442,8882.471304
28464.021274,1184.329507,4060.306139,8290.306550
28464.021602,1702.473667,4519.963438,8142.265362
28464.021931,2664.741391,3217.601092,8808.450710
28464.022259,1702.473667,3907.087040,9104.533087
28464.022587,1258.350101,4826.401637,8586.388927
28464.022916,1850.514855,3677.258390,8438.347739
28464.023244,1406.391290,2757.943793,9030.512492
28464.023572,0.000000,2757.943793,8808.450710
28464.023901,296.082377,3447.429741,8216.285956
28464.024229,962.267725,3370.820191,8660.409521
28464.024558,444.123565,2298.286494,9400.615463
28464.024886,-222.061783,2528.115143,9474.636058
28464.025214,-370.102971,2604.724693,9178.553681
28464.025543,222.061783,2451.505594,9030.512492
28464.025871,814.226536,1532.190996,9030.512492
28464.026200,-148.041188,1838.629195,9548.656652
28464.026528,-962.267725,1149.143247,8956.491898
28464.026856,-444.123565,689.485948,9252.574275
28464.027185,-222.061783,-383.047749,9696.697840
28464.027513,-1184.329507,-229.828649,9770.718434
28464.027841,-1924.535449,306.438199,9178.553681
28464.028170,-592.164754,-536.266849,9548.656652
28464.028498,-222.061783,-1762.019645,9622.677246
28464.028827,-740.205942,-1532.190996,10214.842000
28464.029155,-962.267725,-536.266849,10066.800811
28464.029483,-148.041188,-1225.752797,9400.615463
28464.029812,888.247130,-2221.676944,9918.759623
28464.030140,370.102971,-1915.238745,10288.862594
28464.030469,-222.061783,-536.266849,9622.677246
28464.030797,148.041188,-1072.533697,9030.512492
28464.031125,296.082377,-2757.943793,9326.594869
28464.031454,-222.061783,-2604.724693,9992.780217
28464.031782,-962.267725,-1685.410096,9474.636058
28464.032111,-592.164754,-1915.238745,9178.553681
28464.032439,-370.102971,-2451.505594,9252.574275
28464.032767,-592.164754,-3140.991542,9844.739029
28464.033096,-592.164754,-1608.800546,9474.636058
28464.033424,-1036.288319,-1378.971896,8660.409521
28464.033752,0.000000,-1915.238745,8956.491898
28464.034081,0.000000,-2298.286494,9770.718434
28464.034409,-1184.329507,-689.485948,9622.677246
28464.034738,-1184.329507,-459.657299,8734.430116
28464.035066,0.000000,-1302.362347,8734.430116
28464.035394,-518.144159,-1915.238745,9548.656652
28464.035723,-1480.411884,-536.266849,9400.615463
28464.036051,-1184.329507,459.657299,9030.512492
28464.036380,-222.061783,-383.047749,9178.553681
28464.036708,0.000000,-459.657299,9696.697840
28464.037036,0.000000,1072.533697,9474.636058
28464.037365,74.020594,1838.629195,9178.553681
28464.037693,1628.453072,1685.410096,8660.409521
28464.038022,1924.535449,1378.971896,9622.677246
28464.038350,666.185348,2451.505594,9474.636058
28464.038678,296.082377,3447.429741,8438.347739
28464.039007,1480.411884,2604.724693,8882.471304
28464.039335,1480.411884,2528.115143,9178.553681
28464.039663,296.082377,2911.162892,8882.471304
28464.039992,222.061783,3830.477490,8364.327145
28464.040320,1036.288319,2757.943793,8290.306550
28464.040649,888.247130,2374.896044,8956.491898
28464.040977,518.144159,2911.162892,9252.574275
28464.041305,592.164754,3983.696590,8956.491898
28464.041634,1702.473667,4366.744339,8438.347739
28464.041962,2220.617826,2834.553343,9030.512492
28464.042291,1332.370696,3907.087040,9474.636058
28464.042619,592.164754,3907.087040,8734.430116
28464.042947,1702.473667,3217.601092,8956.491898
28464.043276,1628.453072,1838.629195,9622.677246
28464.043604,74.020594,2298.286494,9622.677246
28464.043932,-148.041188,2757.943793,9104.533087
28464.044261,592.164754,1455.581446,9030.512492
28464.044589,518.144159,995.924147,9844.739029
28464.044918,-222.061783,1225.752797,9770.718434
28464.045246,-370.102971,1838.629195,9696.697840
28464.045574,0.000000,1532.190996,8808.450710
28464.045903,518.144159,229.828649,9326.594869
28464.046231,74.020594,0.000000,9992.780217
28464.046560,-962.267725,1149.143247,9696.697840
28464.046888,-740.205942,229.828649,8882.471304
28464.047216,-370.102971,-1378.971896,9252.574275
28464.047545,-1332.370696,-1762.019645,9992.780217
28464.047873,-2072.576638,-1302.362347,9474.636058
28464.048202,-1702.473667,-1378.971896,9326.594869
28464.048530,-1258.350101,-2911.162892,9548.656652
28464.048858,-888.247130,-3140.991542,9770.718434
28464.049187,-888.247130,-1762.019645,9770.718434
28464.049515,-962.267725,-1302.362347,9030.512492
28464.049843,74.020594,-1915.238745,9252.574275
28464.050172,222.061783,-2604.724693,10066.800811
28464.050500,-1036.288319,-1455.581446,9474.636058
28464.050829,-1332.370696,-1072.533697,9252.574275
28464.051157,-518.144159,-2604.724693,9252.574275
28464.051485,-1184.329507,-2987.772442,9400.615463
28464.051814,-2072.576638,-2374.896044,9252.574275
28464.052142,-1628.453072,-2298.286494,9252.574275
28464.052471,-1480.411884,-2757.943793,9252.574275
28464.052799,-1258.350101,-2757.943793,9770.718434
28464.053127,-962.267725,-1685.410096,9474.636058
28464.053456,-962.267725,-919.314598,8956.491898
28464.053784,-74.020594,-919.314598,8882.471304
28464.054113,148.041188,-1302.362347,9474.636058
28464.054441,-296.082377,-459.657299,9844.739029
28464.054769,-666.185348,536.266849,9178.553681
28464.055098,592.164754,-536.266849,9326.594869
28464.055426,1036.288319,-612.876398,9918.759623
28464.055754,-296.082377,612.876398,9474.636058
28464.056083,-666.185348,1455.581446,9030.512492
28464.056411,814.226536,842.705048,9178.553681
28464.056740,592.164754,612.876398,9400.615463
28464.057068,814.226536,1685.410096,9770.718434
28464.057396,1036.288319,2528.115143,9474.636058
28464.057725,1850.514855,3370.820191,8586.388927
28464.058053,2590.720797,2451.505594,9104.533087
28464.058382,1776.494261,3370.820191,9548.656652
28464.058710,1332.370696,4060.306139,9104.533087
28464.059038,1998.556043,3447.429741,8882.471304
28464.059367,2146.597232,2374.896044,9400.615463
28464.059695,814.226536,3064.381992,9474.636058
28464.060023,518.144159,4673.182538,8364.327145
28464.060352,1258.350101,2911.162892,8660.409521
28464.060680,1776.494261,2911.162892,9178.553681
28464.061009,666.185348,3294.210641,9474.636058
28464.061337,666.185348,4136.915689,9178.553681
28464.061665,888.247130,4060.306139,8142.265362
28464.061994,1406.391290,3294.210641,8882.471304
28464.062322,666.185348,3294.210641,9474.636058
