#time,accel_x,accel_y,accel_z
5776.969799,-444.123565,459.657299,8586.388927
5776.970122,-1036.288319,76.609550,9030.512492
5776.970446,-962.267725,0.000000,9622.677246
5776.970769,-592.164754,229.828649,9400.615463
5776.971092,-592.164754,689.485948,8956.491898
5776.971416,-962.267725,612.876398,9178.553681
5776.971739,0.000000,766.095498,9918.759623
5776.972063,296.082377,689.485948,9474.636058
5776.972386,444.123565,1072.533697,8586.388927
5776.972709,518.144159,919.314598,9030.512492
5776.973033,74.020594,153.219100,9326.594869
5776.973356,592.164754,612.876398,9548.656652
5776.973680,296.082377,1149.143247,9104.533087
5776.974003,-296.082377,612.876398,8734.430116
5776.974326,-444.123565,76.609550,9844.739029
5776.974650,-222.061783,153.219100,10066.800811
5776.974973,-222.061783,612.876398,9400.615463
5776.975296,-370.102971,1072.533697,8438.347739
5776.975620,-370.102971,536.266849,9252.574275
5776.975943,0.000000,306.438199,9992.780217
5776.976267,518.144159,919.314598,9252.574275
5776.976590,148.041188,995.924147,8660.409521
5776.976913,-148.041188,919.314598,9104.533087
5776.977237,-370.102971,689.485948,9622.677246
5776.977560,-444.123565,766.095498,9400.615463
5776.977883,-148.041188,1225.752797,9030.512492
5776.978207,-740.205942,689.485948,9474.636058
5776.978530,-1332.370696,459.657299,10214.842000
5776.978854,-814.226536,459.657299,9918.759623
5776.979177,-222.061783,689.485948,9326.594869
5776.979500,-740.205942,766.095498,8882.471304
5776.979824,-1258.350101,995.924147,9696.697840
5776.980147,74.020594,766.095498,9548.656652
5776.980470,814.226536,1455.581446,8660.409521
5776.980794,-222.061783,1532.190996,8216.285956
5776.981117,-666.185348,919.314598,9400.615463
5776.981441,-518.144159,919.314598,10066.800811
5776.981764,-444.123565,1762.019645,9178.553681
5776.982087,0.000000,1685.410096,9104.533087
5776.982411,-1628.453072,995.924147,9474.636058
5776.982734,-1554.432478,1455.581446,10288.862594
5776.983057,-1480.411884,1302.362347,10214.842000
5776.983381,-1554.432478,2298.286494,9326.594869
5776.983704,-2368.659014,1991.848295,9844.739029
5776.984028,-2368.659014,2145.067394,9992.780217
5776.984351,-1702.473667,2528.115143,10362.883188
5776.984674,-1924.535449,3064.381992,8956.491898
5776.984998,-2664.741391,3217.601092,8956.491898
5776.985321,-2812.782580,2604.724693,9696.697840
5776.985644,-3701.029710,2911.162892,9992.780217
5776.985968,-3923.091493,3524.039291,9326.594869
5776.986291,-4145.153275,3370.820191,8882.471304
5776.986615,-4811.338623,3217.601092,9400.615463
5776.986938,-5181.441594,2681.334243,9178.553681
5776.987261,-4441.235652,3064.381992,8364.327145
5776.987585,-4293.194464,3677.258390,7550.100608
5776.987908,-4145.153275,3677.258390,7624.121203
5776.988231,-3330.926739,3447.429741,7772.162391
5776.988555,-2294.638420,3677.258390,7402.059420
5776.988878,-2220.617826,3907.087040,6291.750507
5776.989202,-1998.556043,3064.381992,7254.018232
5776.989525,-2072.576638,3370.820191,8216.285956
5776.989848,-2442.679609,2834.553343,8512.368333
5776.990172,-2368.659014,3294.210641,8882.471304
5776.990495,-3034.844362,2987.772442,9400.615463
5776.990818,-3478.967927,2681.334243,10436.903782
5776.991142,-3108.864956,3294.210641,10881.027347
5776.991465,-2664.741391,3830.477490,10510.924376
5776.991789,-2664.741391,4443.353888,9844.739029
5776.992112,-2442.679609,4596.572988,10436.903782
5776.992435,-148.041188,4443.353888,10214.842000
5776.992759,518.144159,4673.182538,8586.388927
5776.993082,296.082377,4519.963438,7698.141797
5776.993406,74.020594,3447.429741,8512.368333
5776.993729,-666.185348,2068.457845,9326.594869
5776.994052,-962.267725,2528.115143,8734.430116
5776.994376,-2368.659014,1225.752797,9104.533087
5776.994699,-4071.132681,459.657299,9548.656652
5776.995022,-4293.194464,76.609550,11177.109724
5776.995346,-3034.844362,383.047749,11029.068536
5776.995669,-1850.514855,1532.190996,10436.903782
5776.995993,-1924.535449,1991.848295,10436.903782
5776.996316,-1258.350101,2068.457845,10881.027347
5776.996639,0.000000,2604.724693,10732.986159
5776.996963,-444.123565,3064.381992,9622.677246
5776.997286,-1628.453072,3140.991542,9252.574275
5776.997609,-1776.494261,2221.676944,9548.656652
5776.997933,-1036.288319,2145.067394,8660.409521
5776.998256,-666.185348,2834.553343,7402.059420
5776.998580,-1776.494261,1762.019645,6439.791695
5776.998903,-3256.906145,1225.752797,8216.285956
5776.999226,-3775.050304,536.266849,8512.368333
5776.999550,-2960.823768,1225.752797,8438.347739
5776.999873,-2516.700203,1762.019645,7402.059420
5777.000196,-2960.823768,1225.752797,8364.327145
5777.000520,-2590.720797,1149.143247,9252.574275
5777.000843,-2442.679609,1455.581446,9548.656652
5777.001167,-3182.885551,1685.410096,9622.677246
5777.001490,-3775.050304,1378.971896,10362.883188
5777.001813,-4589.276840,1149.143247,11325.150913
5777.002137,-3404.947333,1915.238745,10658.965565
5777.002460,-2664.741391,2528.115143,9400.615463
5777.002783,-2960.823768,2528.115143,9474.636058
5777.003107,-3627.009116,3140.991542,9696.697840
5777.003430,-2368.659014,3524.039291,10658.965565
5777.003754,-592.164754,3447.429741,8734.430116
5777.004077,-1924.535449,3524.039291,8512.368333
5777.004400,-2886.803174,2528.115143,9178.553681
5777.004724,-2738.761985,2451.505594,10140.821405
5777.005047,-3330.926739,2298.286494,9326.594869
5777.005370,-3404.947333,1532.190996,8956.491898
5777.005694,-5699.585753,1072.533697,9326.594869
5777.006017,-6439.791695,1149.143247,10288.862594
5777.006341,-5847.626942,2374.896044,10066.800811
5777.006664,-4293.194464,3370.820191,9326.594869
5777.006987,-2812.782580,3447.429741,8586.388927
5777.007311,-2072.576638,4136.915689,8734.430116
5777.007634,-1258.350101,4903.011187,8808.450710
5777.007957,444.123565,5669.106685,7550.100608
5777.008281,0.000000,5898.935335,7624.121203
5777.008604,222.061783,5286.058936,9252.574275
5777.008928,74.020594,4673.182538,9252.574275
5777.009251,592.164754,4290.134789,7698.141797
5777.009574,1184.329507,4443.353888,6883.915261
5777.009898,444.123565,3524.039291,8956.491898
5777.010221,-1184.329507,2604.724693,10214.842000
5777.010545,-2072.576638,3677.258390,9918.759623
5777.010868,-1776.494261,3600.648841,8808.450710
5777.011191,-2886.803174,3447.429741,9400.615463
5777.011515,-4145.153275,3370.820191,10288.862594
5777.011838,-3404.947333,3524.039291,10436.903782
5777.012161,-2368.659014,3753.867940,8216.285956
5777.012485,-2664.741391,3064.381992,7550.100608
5777.012808,-2442.679609,2451.505594,8438.347739
5777.013132,-2590.720797,2834.553343,8364.327145
5777.013455,-1332.370696,3064.381992,7624.121203
5777.013778,-2072.576638,2834.553343,8142.265362
5777.014102,-1702.473667,2451.505594,9696.697840
5777.014425,-518.144159,2298.286494,8808.450710
5777.014748,740.205942,2451.505594,9252.574275
5777.015072,-1850.514855,2451.505594,10436.903782
5777.015395,-2886.803174,1608.800546,12879.583391
5777.015719,-2072.576638,1378.971896,12213.398043
5777.016042,-2220.617826,1532.190996,11251.130318
5777.016365,-2812.782580,1838.629195,10510.924376
5777.016689,-2812.782580,1532.190996,10214.842000
5777.017012,-1628.453072,1225.752797,9252.574275
5777.017335,-2368.659014,1455.581446,8808.450710
5777.017659,-3701.029710,1532.190996,8142.265362
5777.017982,-3923.091493,919.314598,8438.347739
5777.018306,-3997.112087,1072.533697,9030.512492
5777.018629,-3182.885551,1455.581446,8364.327145
5777.018952,-2960.823768,1455.581446,8364.327145
5777.019276,-4515.256246,919.314598,8882.471304
5777.019599,-4663.297435,1378.971896,10288.862594
5777.019922,-4367.215058,842.705048,10362.883188
5777.020246,-4293.194464,842.705048,9474.636058
5777.020569,-3552.988522,1302.362347,8586.388927
5777.020893,-2960.823768,1149.143247,9178.553681
5777.021216,-2738.761985,1685.410096,9992.780217
5777.021539,-2146.597232,1685.410096,9622.677246
5777.021863,-2590.720797,2374.896044,9474.636058
5777.022186,-3701.029710,1378.971896,9474.636058
5777.022509,-2220.617826,1915.238745,9400.615463
5777.022833,-2072.576638,2757.943793,9104.533087
5777.023156,-2812.782580,3140.991542,9326.594869
5777.023480,-2442.679609,2987.772442,9844.739029
5777.023803,-2960.823768,2604.724693,10584.944971
5777.024126,-1924.535449,3677.258390,9474.636058
5777.024450,-518.144159,3677.258390,8586.388927
5777.024773,-2294.638420,3600.648841,8512.368333
5777.025096,-2146.597232,3294.210641,9474.636058
5777.025420,-1110.308913,3140.991542,9548.656652
5777.025743,-1850.514855,3907.087040,9474.636058
5777.026067,-1480.411884,3983.696590,8734.430116
5777.026390,-1850.514855,2834.553343,8956.491898
5777.026713,-1480.411884,3140.991542,9030.512492
5777.027037,-296.082377,5132.839837,8660.409521
5777.027360,-666.185348,4749.792088,9178.553681
5777.027683,-962.267725,4673.182538,9474.636058
5777.028007,-518.144159,4443.353888,8956.491898
5777.028330,0.000000,3983.696590,8142.265362
5777.028653,518.144159,4979.620737,7179.997637
5777.028977,-888.247130,4749.792088,8438.347739
5777.029300,-1332.370696,3524.039291,9104.533087
5777.029623,-814.226536,3294.210641,8216.285956
5777.029946,-1628.453072,2757.943793,6957.935855
5777.030269,-1628.453072,2757.943793,7476.080014
5777.030593,-2664.741391,2911.162892,9252.574275
5777.030916,-2368.659014,2221.676944,9030.512492
5777.031239,-1776.494261,3140.991542,8734.430116
5777.031562,-2220.617826,2451.505594,7994.224174
5777.031885,-2146.597232,2298.286494,9918.759623
5777.032208,-1036.288319,3370.820191,10362.883188
5777.032532,-962.267725,2528.115143,9622.677246
5777.032855,-1480.411884,2451.505594,8956.491898
5777.033178,-1628.453072,1608.800546,9622.677246
5777.033501,-148.041188,1838.629195,9844.739029
5777.033824,518.144159,1225.752797,8142.265362
5777.034148,-1110.308913,306.438199,9104.533087
5777.034471,-1480.411884,-229.828649,9474.636058
5777.034794,-2368.659014,-459.657299,10658.965565
5777.035117,-1184.329507,-229.828649,9992.780217
5777.035440,-814.226536,-1302.362347,9252.574275
5777.035764,-3256.906145,-995.924147,9992.780217
5777.036087,-2072.576638,-995.924147,10436.903782
5777.036410,-1406.391290,-1149.143247,10288.862594
5777.036733,-296.082377,-383.047749,8882.471304
5777.037056,0.000000,-766.095498,9474.636058
5777.037379,-814.226536,-1685.410096,8808.450710
5777.037703,-2516.700203,-1685.410096,11991.336260
5777.038026,222.061783,-536.266849,6957.935855
5777.038349,518.144159,-1608.800546,9548.656652
5777.038672,1110.308913,-1532.190996,7772.162391
5777.038995,-592.164754,-1762.019645,10658.965565
5777.039319,740.205942,-1225.752797,8956.491898
5777.039642,1776.494261,-842.705048,9474.636058
5777.039965,740.205942,-229.828649,9918.759623
5777.040288,-666.185348,-1991.848295,11177.109724
5777.040611,148.041188,-1302.362347,12139.377449
5777.040935,1036.288319,0.000000,10214.842000
5777.041258,888.247130,-229.828649,9992.780217
5777.041581,0.000000,-919.314598,10955.047942
5777.041904,-222.061783,153.219100,11103.089130
5777.042227,-592.164754,536.266849,9326.594869
5777.042550,444.123565,459.657299,8290.306550
5777.042874,-518.144159,-76.609550,9252.574275
5777.043197,370.102971,842.705048,8438.347739
5777.043520,-666.185348,536.266849,8660.409521
5777.043843,-888.247130,766.095498,7920.203579
5777.044166,-2072.576638,459.657299,9622.677246
5777.044490,-2294.638420,0.000000,8956.491898
5777.044813,-2220.617826,-229.828649,8586.388927
5777.045136,-2146.597232,1455.581446,7254.018232
5777.045459,-1258.350101,1685.410096,9030.512492
5777.045782,1258.350101,1149.143247,8364.327145
5777.046105,740.205942,1991.848295,9030.512492
5777.046429,0.000000,2911.162892,8586.388927
5777.046752,1110.308913,2757.943793,8956.491898
5777.047075,2072.576638,2757.943793,8512.368333
5777.047398,2368.659014,3907.087040,8438.347739
5777.047721,2368.659014,3753.867940,8290.306550
5777.048045,1776.494261,2987.772442,7402.059420
5777.048368,2812.782580,2987.772442,8438.347739
5777.048691,1406.391290,2528.115143,8882.471304
5777.049014,0.000000,2528.115143,9548.656652
5777.049337,-1776.494261,1915.238745,8734.430116
5777.049661,-962.267725,1149.143247,9844.739029
5777.049984,-666.185348,1302.362347,9918.759623
5777.050307,-1184.329507,1838.629195,9474.636058
5777.050630,-2664.741391,1302.362347,10214.842000
5777.050953,-2368.659014,1225.752797,10510.924376
5777.051276,-2294.638420,229.828649,10658.965565
5777.051600,-1924.535449,1149.143247,9844.739029
5777.051923,-1702.473667,689.485948,9474.636058
5777.052246,-1998.556043,612.876398,8142.265362
5777.052569,-222.061783,995.924147,7994.224174
5777.052892,740.205942,766.095498,7550.100608
5777.053216,74.020594,1225.752797,7476.080014
5777.053539,-1258.350101,459.657299,8586.388927
5777.053862,370.102971,-612.876398,8956.491898
5777.054185,740.205942,0.000000,10436.903782
5777.054508,740.205942,689.485948,9770.718434
5777.054832,74.020594,-306.438199,10510.924376
5777.055155,-444.123565,-919.314598,10807.006753
5777.055478,1332.370696,229.828649,10214.842000
5777.055801,592.164754,0.000000,9992.780217
5777.056124,296.082377,-306.438199,8586.388927
5777.056447,148.041188,-459.657299,9030.512492
5777.056771,1332.370696,-612.876398,8956.491898
5777.057094,1850.514855,153.219100,8734.430116
5777.057417,592.164754,-383.047749,7550.100608
5777.057740,-222.061783,-689.485948,9474.636058
5777.058063,-444.123565,-689.485948,10214.842000
5777.058387,296.082377,-1455.581446,9622.677246
5777.058710,-814.226536,-1455.581446,8586.388927
5777.059033,-1258.350101,-1455.581446,10140.821405
5777.059356,-2072.576638,-1608.800546,11695.253884
5777.059679,-1184.329507,-1225.752797,10732.986159
5777.060002,-1258.350101,-1608.800546,11029.068536
5777.060326,-1924.535449,-1608.800546,10362.883188
5777.060649,-2812.782580,-1915.238745,11325.150913
5777.060972,-740.205942,-919.314598,9992.780217
5777.061295,222.061783,-766.095498,9178.553681
5777.061618,-518.144159,-766.095498,8068.244768
5777.061942,-740.205942,-1302.362347,9474.636058
5777.062265,370.102971,-229.828649,9992.780217
5777.062588,1184.329507,0.000000,8956.491898
5777.062911,370.102971,0.000000,8808.450710
5777.063234,592.164754,0.000000,10288.862594
5777.063558,518.144159,0.000000,10140.821405
5777.063881,1850.514855,1225.752797,9770.718434
5777.064204,666.185348,2068.457845,9326.594869
5777.064527,-518.144159,1378.971896,10214.842000
5777.064850,-222.061783,1072.533697,9622.677246
5777.065173,1702.473667,1991.848295,7994.224174
5777.065497,2368.659014,3294.210641,6735.874072
5777.065820,1480.411884,2757.943793,7698.141797
5777.066143,296.082377,1915.238745,9030.512492
5777.066466,814.226536,2911.162892,8216.285956
5777.066789,962.267725,2757.943793,7031.956449
5777.067113,-888.247130,2145.067394,7846.182985
5777.067436,-2294.638420,1455.581446,9400.615463
5777.067759,-2368.659014,1225.752797,9622.677246
5777.068082,-1110.308913,2604.724693,8660.409521
5777.068405,-370.102971,1915.238745,8956.491898
5777.068729,-2590.720797,1149.143247,8956.491898
5777.069052,-2960.823768,1762.019645,9918.759623
5777.069375,-1332.370696,2604.724693,10436.903782
5777.069698,148.041188,2528.115143,7031.956449
5777.070021,888.247130,1915.238745,8216.285956
5777.070344,888.247130,1685.410096,7994.224174
5777.070668,1258.350101,2374.896044,9622.677246
5777.070991,1628.453072,2528.115143,7179.997637
5777.071314,1406.391290,2145.067394,9252.574275
5777.071637,2146.597232,766.095498,9400.615463
5777.071960,444.123565,612.876398,10288.862594
5777.072284,74.020594,842.705048,8956.491898
5777.072607,666.185348,689.485948,9622.677246
5777.072930,-1184.329507,153.219100,11695.253884
5777.073253,-592.164754,76.609550,10584.944971
5777.073576,-1258.350101,0.000000,11473.192101
5777.073899,-814.226536,536.266849,9104.533087
5777.074223,-444.123565,0.000000,9844.739029
5777.074546,814.226536,-689.485948,8068.244768
5777.074869,888.247130,0.000000,9400.615463
5777.075192,0.000000,842.705048,7698.141797
5777.075515,0.000000,0.000000,9400.615463
5777.075839,-1184.329507,-1378.971896,9918.759623
5777.076162,-962.267725,-766.095498,9622.677246
5777.076485,-1184.329507,-919.314598,10214.842000
5777.076808,-1628.453072,-1532.190996,9770.718434
5777.077131,-2294.638420,-2068.457845,11399.171507
5777.077455,-2738.761985,-2221.676944,10288.862594
5777.077778,-2960.823768,-1838.629195,10436.903782
5777.078101,-2368.659014,-1532.190996,9474.636058
5777.078424,-1036.288319,-1685.410096,10807.006753
5777.078747,0.000000,-1685.410096,9992.780217
5777.079070,518.144159,-612.876398,8956.491898
5777.079394,296.082377,-383.047749,9030.512492
5777.079717,518.144159,0.000000,9400.615463
5777.080040,222.061783,-995.924147,10288.862594
5777.080363,1036.288319,0.000000,9030.512492
5777.080686,888.247130,0.000000,8808.450710
5777.081010,222.061783,459.657299,9326.594869
5777.081333,518.144159,229.828649,9918.759623
5777.081656,518.144159,0.000000,9474.636058
5777.081979,-592.164754,689.485948,9178.553681
5777.082302,-1036.288319,995.924147,9474.636058
5777.082626,518.144159,1455.581446,9252.574275
5777.082949,1258.350101,1072.533697,9326.594869
5777.083272,1184.329507,1685.410096,8660.409521
5777.083595,-222.061783,1225.752797,9548.656652
5777.083918,222.061783,1915.238745,8956.491898
5777.084241,296.082377,1762.019645,10214.842000
5777.084565,-1258.350101,1378.971896,9252.574275
5777.084888,-1332.370696,1685.410096,9474.636058
5777.085211,-1110.308913,1838.629195,9326.594869
5777.085534,888.247130,2145.067394,8364.327145
5777.085857,1184.329507,2834.553343,7179.997637
5777.086181,1184.329507,3370.820191,7772.162391
5777.086504,0.000000,3064.381992,9178.553681
5777.086827,888.247130,3140.991542,9252.574275
5777.087150,1036.288319,2911.162892,9178.553681
5777.087473,518.144159,3217.601092,7920.203579
5777.087796,148.041188,1915.238745,8882.471304
5777.088120,518.144159,1608.800546,9030.512492
5777.088443,1258.350101,1762.019645,8438.347739
5777.088766,1332.370696,1608.800546,8438.347739
5777.089089,-740.205942,1455.581446,8586.388927
5777.089412,-296.082377,459.657299,9474.636058
5777.089736,1850.514855,689.485948,9326.594869
5777.090059,592.164754,1685.410096,8734.430116
5777.090382,0.000000,1302.362347,9326.594869
5777.090705,-1332.370696,766.095498,10658.965565
5777.091028,-222.061783,842.705048,10658.965565
5777.091352,148.041188,536.266849,8586.388927
5777.091675,-888.247130,0.000000,8290.306550
5777.091998,-1776.494261,-459.657299,9696.697840
5777.092321,-2220.617826,-612.876398,9696.697840
5777.092644,-444.123565,-842.705048,7698.141797
5777.092967,-1554.432478,-1149.143247,8512.368333
5777.093291,-3478.967927,-1608.800546,9252.574275
5777.093614,-2812.782580,-1685.410096,10807.006753
5777.093937,-1332.370696,-1225.752797,9178.553681
5777.094260,222.061783,-612.876398,9252.574275
5777.094583,-1110.308913,-536.266849,9918.759623
5777.094907,-1554.432478,-1302.362347,11843.295072
5777.095230,-518.144159,-229.828649,11769.274478
5777.095553,0.000000,459.657299,10066.800811
5777.095876,-222.061783,-459.657299,10214.842000
5777.096199,-444.123565,-919.314598,10436.903782
5777.096523,-888.247130,-383.047749,11029.068536
5777.096846,296.082377,-229.828649,8660.409521
5777.097169,-666.185348,-536.266849,8660.409521
5777.097492,-1998.556043,-1302.362347,8512.368333
5777.097815,-1258.350101,-1149.143247,10140.821405
5777.098138,-370.102971,0.000000,8956.491898
5777.098462,148.041188,153.219100,7846.182985
5777.098785,-2664.741391,-1072.533697,10288.862594
5777.099108,-370.102971,-612.876398,8216.285956
5777.099431,148.041188,383.047749,9326.594869
5777.099754,1036.288319,1302.362347,7402.059420
5777.100078,370.102971,842.705048,9992.780217
5777.100401,370.102971,766.095498,10066.800811
5777.100724,1406.391290,842.705048,9474.636058
5777.101047,3108.864956,1915.238745,7994.224174
5777.101370,2072.576638,1838.629195,8290.306550
5777.101693,740.205942,1532.190996,10214.842000
5777.102017,2220.617826,1455.581446,9474.636058
5777.102340,2590.720797,2298.286494,9030.512492
5777.102663,3256.906145,2911.162892,7476.080014
5777.102986,2146.597232,1762.019645,9844.739029
5777.103309,1850.514855,1685.410096,9770.718434
5777.103633,1480.411884,2528.115143,10140.821405
5777.103956,1702.473667,2451.505594,7254.018232
5777.104279,962.267725,1991.848295,9622.677246
5777.104602,-666.185348,1225.752797,9030.512492
5777.104925,-1406.391290,1378.971896,10955.047942
5777.105249,-666.185348,1991.848295,7550.100608
5777.105572,-444.123565,1685.410096,9622.677246
5777.105895,-1258.350101,306.438199,8512.368333
5777.106218,-666.185348,383.047749,8808.450710
5777.106541,-1480.411884,842.705048,7476.080014
5777.106864,-1332.370696,1685.410096,8438.347739
5777.107188,-1036.288319,919.314598,9548.656652
5777.107511,0.000000,536.266849,9104.533087
5777.107834,-518.144159,1532.190996,8734.430116
5777.108157,0.000000,459.657299,8142.265362
5777.108480,-740.205942,229.828649,9992.780217
5777.108804,-1258.350101,536.266849,10955.047942
5777.109127,-592.164754,229.828649,9622.677246
5777.109450,-888.247130,-153.219100,9696.697840
5777.109773,-1036.288319,-229.828649,8586.388927
5777.110096,-1036.288319,-459.657299,9992.780217
5777.110420,-1480.411884,-229.828649,9326.594869
5777.110743,-592.164754,0.000000,8364.327145
5777.111066,-1184.329507,-153.219100,8882.471304
5777.111389,222.061783,-229.828649,9548.656652
5777.111712,0.000000,-306.438199,10214.842000
5777.112035,-1036.288319,0.000000,9326.594869
5777.112359,-1406.391290,-76.609550,10510.924376
5777.112682,0.000000,-919.314598,10140.821405
5777.113005,-814.226536,-995.924147,11251.130318
5777.113328,-2590.720797,383.047749,9696.697840
5777.113651,-2590.720797,-536.266849,11695.253884
5777.113975,-3034.844362,-1072.533697,10362.883188
5777.114298,-1406.391290,-383.047749,9992.780217
5777.114621,-1184.329507,-459.657299,8808.450710
5777.114944,-2368.659014,0.000000,9400.615463
5777.115267,-2294.638420,383.047749,9844.739029
5777.115590,-222.061783,76.609550,9622.677246
5777.115914,-666.185348,383.047749,9104.533087
5777.116237,-666.185348,306.438199,7698.141797
5777.116560,-2294.638420,-995.924147,9326.594869
5777.116883,296.082377,-306.438199,8290.306550
5777.117206,1480.411884,842.705048,8956.491898
5777.117530,2294.638420,1072.533697,7402.059420
5777.117853,1332.370696,1149.143247,8734.430116
5777.118176,1480.411884,1685.410096,8216.285956
5777.118499,3034.844362,2221.676944,9770.718434
5777.118822,3182.885551,3064.381992,8734.430116
5777.119146,2886.803174,2681.334243,9326.594869
5777.119469,3849.070898,2681.334243,9548.656652
5777.119792,3775.050304,3217.601092,10955.047942
5777.120115,3182.885551,3370.820191,8586.388927
5777.120438,1702.473667,1838.629195,8660.409521
5777.120761,1184.329507,1225.752797,9326.594869
5777.121085,592.164754,919.314598,9030.512492
5777.121408,296.082377,842.705048,9252.574275
5777.121731,-1406.391290,766.095498,8956.491898
5777.122054,-3182.885551,76.609550,9548.656652
5777.122377,-2960.823768,-1149.143247,9178.553681
5777.122701,-2294.638420,229.828649,8882.471304
5777.123024,-3478.967927,383.047749,9622.677246
5777.123347,-3182.885551,153.219100,9844.739029
5777.123670,-2146.597232,459.657299,11029.068536
5777.123993,148.041188,1685.410096,8734.430116
5777.124317,0.000000,919.314598,7698.141797
5777.124640,-666.185348,1455.581446,8364.327145
5777.124963,-888.247130,383.047749,9104.533087
5777.125286,592.164754,842.705048,9474.636058
5777.125609,2886.803174,1532.190996,7772.162391
5777.125932,1554.432478,229.828649,8586.388927
5777.126256,370.102971,-229.828649,9326.594869
5777.126579,666.185348,-536.266849,10214.842000
5777.126902,1184.329507,536.266849,9178.553681
5777.127225,148.041188,1225.752797,9474.636058
5777.127548,-1036.288319,-383.047749,10584.944971
5777.127872,-814.226536,-689.485948,10807.006753
5777.128195,-148.041188,0.000000,8438.347739
5777.128518,370.102971,229.828649,7476.080014
5777.128841,-518.144159,-76.609550,9252.574275
5777.129164,-1924.535449,-536.266849,10362.883188
5777.129487,-814.226536,0.000000,9474.636058
5777.129811,-1110.308913,0.000000,8216.285956
5777.130134,-2886.803174,-383.047749,9992.780217
5777.130457,-3404.947333,-1685.410096,9326.594869
5777.130780,-2960.823768,-1532.190996,10732.986159
5777.131103,-962.267725,-306.438199,9178.553681
5777.131427,-1998.556043,0.000000,9104.533087
5777.131750,-2664.741391,-383.047749,10510.924376
5777.132073,-1184.329507,-1378.971896,11473.192101
5777.132396,-370.102971,0.000000,10066.800811
5777.132719,592.164754,689.485948,9178.553681
5777.133043,-518.144159,0.000000,11399.171507
5777.133366,296.082377,536.266849,10436.903782
5777.133689,814.226536,536.266849,9622.677246
5777.134012,1850.514855,995.924147,7920.203579
5777.134335,1110.308913,995.924147,8956.491898
5777.134659,1110.308913,689.485948,9474.636058
5777.134982,1258.350101,995.924147,8956.491898
5777.135305,1850.514855,1838.629195,8142.265362
5777.135628,1332.370696,1838.629195,7328.038826
5777.135951,0.000000,2068.457845,10066.800811
5777.136274,296.082377,1302.362347,9400.615463
5777.136598,740.205942,2221.676944,8142.265362
5777.136921,2368.659014,2374.896044,7254.018232
5777.137244,1702.473667,1991.848295,9252.574275
5777.137567,148.041188,1532.190996,9696.697840
5777.137890,0.000000,1991.848295,9326.594869
5777.138214,0.000000,1378.971896,8142.265362
5777.138537,0.000000,1838.629195,8068.244768
5777.138860,-296.082377,1072.533697,9178.553681
5777.139183,-740.205942,919.314598,8586.388927
5777.139506,-962.267725,1915.238745,9104.533087
5777.139830,-148.041188,2221.676944,8364.327145
5777.140153,296.082377,1149.143247,9992.780217
5777.140476,0.000000,1455.581446,8142.265362
5777.140799,-444.123565,1762.019645,8882.471304
5777.141122,-444.123565,1455.581446,8438.347739
5777.141445,888.247130,1455.581446,10288.862594
5777.141769,518.144159,1149.143247,9770.718434
5777.142092,-296.082377,1149.143247,9918.759623
5777.142415,-1998.556043,766.095498,10214.842000
5777.142738,-1036.288319,536.266849,9474.636058
5777.143061,-370.102971,306.438199,9992.780217
5777.143385,74.020594,229.828649,8808.450710
5777.143708,-2072.576638,76.609550,9474.636058
5777.144031,-962.267725,-306.438199,9474.636058
5777.144354,592.164754,-76.609550,8956.491898
5777.144677,0.000000,-842.705048,7920.203579
5777.145001,-1850.514855,-689.485948,8808.450710
5777.145324,-2072.576638,-536.266849,10066.800811
5777.145647,-148.041188,-383.047749,9474.636058
5777.145970,0.000000,0.000000,9104.533087
5777.146293,-296.082377,0.000000,8956.491898
5777.146616,-444.123565,-612.876398,8882.471304
5777.146940,-518.144159,-842.705048,9030.512492
5777.147263,444.123565,0.000000,9770.718434
5777.147586,0.000000,153.219100,9400.615463
5777.147909,-1184.329507,0.000000,10288.862594
5777.148232,444.123565,-612.876398,9992.780217
5777.148556,1554.432478,-1072.533697,9252.574275
5777.148879,814.226536,-306.438199,9252.574275
5777.149202,-370.102971,76.609550,10288.862594
5777.149525,-1332.370696,-919.314598,12213.398043
5777.149848,-1480.411884,-1225.752797,11177.109724
5777.150172,0.000000,-1072.533697,10362.883188
5777.150495,-1258.350101,-766.095498,9030.512492
5777.150818,-2146.597232,-766.095498,8956.491898
5777.151141,-888.247130,0.000000,9326.594869
5777.151464,1258.350101,1149.143247,8882.471304
5777.151788,0.000000,1378.971896,8290.306550
5777.152111,-1702.473667,0.000000,8956.491898
5777.152434,-888.247130,842.705048,9030.512492
5777.152757,1258.350101,1149.143247,8364.327145
5777.153080,1258.350101,1685.410096,8216.285956
5777.153403,518.144159,1225.752797,9844.739029
5777.153727,0.000000,459.657299,10881.027347
5777.154050,1850.514855,1455.581446,9252.574275
5777.154373,1554.432478,995.924147,8734.430116
5777.154696,592.164754,1608.800546,8882.471304
5777.155019,222.061783,1532.190996,10807.006753
5777.155343,1998.556043,2374.896044,9844.739029
5777.155666,2812.782580,2374.896044,8586.388927
5777.155989,888.247130,2451.505594,8956.491898
5777.156312,74.020594,2298.286494,9474.636058
5777.156635,-444.123565,1455.581446,10510.924376
5777.156959,1702.473667,2911.162892,8216.285956
5777.157282,148.041188,2374.896044,8734.430116
5777.157605,-592.164754,1838.629195,8734.430116
5777.157928,-1850.514855,1225.752797,9918.759623
5777.158251,-1998.556043,1608.800546,8512.368333
5777.158574,-1110.308913,1838.629195,8068.244768
5777.158898,-3182.885551,842.705048,8586.388927
5777.159221,-3034.844362,766.095498,8438.347739
5777.159544,-2368.659014,536.266849,9400.615463
5777.159867,-370.102971,1302.362347,6291.750507
5777.160190,-296.082377,1149.143247,8068.244768
5777.160514,-962.267725,612.876398,8512.368333
5777.160837,444.123565,612.876398,9918.759623
5777.161160,1406.391290,1915.238745,8290.306550
5777.161483,1480.411884,1991.848295,8364.327145
5777.161806,2146.597232,459.657299,10362.883188
5777.162130,1036.288319,536.266849,9918.759623
5777.162453,666.185348,689.485948,9622.677246
5777.162776,2072.576638,995.924147,7402.059420
5777.163099,-444.123565,153.219100,10436.903782
5777.163422,-1036.288319,-536.266849,9252.574275
5777.163746,-592.164754,-1378.971896,10140.821405
5777.164069,0.000000,-842.705048,7254.018232
5777.164392,-592.164754,-306.438199,9252.574275
5777.164715,-1406.391290,-1532.190996,10584.944971
5777.165038,-1776.494261,-995.924147,11251.130318
5777.165361,-518.144159,-229.828649,9992.780217
5777.165685,-1110.308913,-1072.533697,9696.697840
5777.166008,-1406.391290,-1455.581446,11251.130318
5777.166331,-1702.473667,-383.047749,11843.295072
5777.166654,-1184.329507,-612.876398,10362.883188
5777.166977,-1332.370696,-1225.752797,10140.821405
5777.167301,-2368.659014,-1225.752797,10140.821405
5777.167624,-2220.617826,-1532.190996,10807.006753
5777.167947,-370.102971,-1455.581446,9104.533087
5777.168270,-518.144159,-766.095498,9104.533087
5777.168593,296.082377,-76.609550,9326.594869
5777.168917,-148.041188,-1225.752797,10510.924376
5777.169240,74.020594,-766.095498,9400.615463
5777.169563,0.000000,153.219100,8216.285956
5777.169886,814.226536,536.266849,9104.533087
5777.170209,444.123565,612.876398,10140.821405
5777.170532,148.041188,536.266849,9178.553681
5777.170856,222.061783,536.266849,7920.203579
5777.171179,296.082377,919.314598,8142.265362
5777.171502,222.061783,919.314598,8438.347739
5777.171825,-148.041188,689.485948,9252.574275
5777.172148,0.000000,1225.752797,8364.327145
5777.172472,74.020594,1532.190996,8216.285956
5777.172795,592.164754,1532.190996,8216.285956
5777.173118,1332.370696,1455.581446,8882.471304
5777.173441,1184.329507,1915.238745,8512.368333
5777.173764,0.000000,2298.286494,9622.677246
5777.174088,740.205942,2068.457845,9992.780217
5777.174411,1110.308913,1838.629195,10288.862594
5777.174734,814.226536,2068.457845,9252.574275
5777.175057,370.102971,1685.410096,9104.533087
5777.175380,-148.041188,383.047749,9104.533087
5777.175704,296.082377,1991.848295,10066.800811
5777.176027,740.205942,1149.143247,9474.636058
5777.176350,-1036.288319,1532.190996,9178.553681
5777.176673,-1036.288319,1838.629195,8216.285956
5777.176996,0.000000,1685.410096,9400.615463
5777.177319,1554.432478,2681.334243,8586.388927
5777.177643,1036.288319,1762.019645,8068.244768
5777.177966,518.144159,1685.410096,7772.162391
5777.178289,962.267725,1225.752797,8660.409521
5777.178612,518.144159,1838.629195,9844.739029
5777.178935,-370.102971,1149.143247,9474.636058
5777.179259,-1110.308913,0.000000,8512.368333
5777.179582,-1184.329507,-306.438199,8660.409521
5777.179905,370.102971,0.000000,8364.327145
5777.180228,0.000000,153.219100,10436.903782
5777.180551,-2368.659014,612.876398,8586.388927
5777.180875,-2220.617826,-612.876398,9844.739029
5777.181198,148.041188,-612.876398,8068.244768
5777.181521,296.082377,459.657299,9696.697840
5777.181844,-518.144159,536.266849,8438.347739
5777.182167,-1332.370696,-306.438199,10288.862594
5777.182490,-592.164754,-766.095498,10288.862594
5777.182814,444.123565,-995.924147,9918.759623
5777.183137,0.000000,-766.095498,9474.636058
5777.183460,-1480.411884,-1072.533697,10658.965565
5777.183783,-888.247130,-1608.800546,10658.965565
5777.184106,222.061783,-995.924147,10436.903782
5777.184430,592.164754,1072.533697,9622.677246
5777.184753,-1332.370696,-689.485948,9992.780217
5777.185076,-2072.576638,-919.314598,10955.047942
5777.185399,-962.267725,-842.705048,10584.944971
5777.185722,0.000000,0.000000,9474.636058
5777.186046,-1110.308913,0.000000,9400.615463
5777.186369,-2146.597232,-1455.581446,10584.944971
5777.186692,-3256.906145,-1762.019645,9844.739029
5777.187015,-1554.432478,-689.485948,8290.306550
5777.187338,-1776.494261,-766.095498,8142.265362
5777.187661,-1850.514855,-766.095498,8216.285956
5777.187985,-1998.556043,-995.924147,9696.697840
5777.188308,370.102971,-383.047749,8068.244768
5777.188631,1036.288319,766.095498,8512.368333
5777.188954,-222.061783,1838.629195,8438.347739
5777.189277,-666.185348,995.924147,10436.903782
5777.189601,1554.432478,1685.410096,9770.718434
5777.189924,2812.782580,2221.676944,8512.368333
5777.190247,2294.638420,2451.505594,8956.491898
5777.190570,1184.329507,1685.410096,10140.821405
5777.190893,1110.308913,1838.629195,9844.739029
5777.191217,1924.535449,2145.067394,8068.244768
5777.191540,2886.803174,2834.553343,7328.038826
5777.191863,74.020594,1455.581446,8734.430116
5777.192186,-370.102971,1149.143247,8586.388927
5777.192509,1258.350101,1532.190996,8882.471304
5777.192833,1258.350101,2528.115143,8068.244768
5777.193156,-370.102971,2068.457845,9326.594869
5777.193479,-444.123565,1838.629195,9104.533087
5777.193802,-962.267725,1838.629195,9548.656652
5777.194125,74.020594,3140.991542,8512.368333
5777.194448,-592.164754,2528.115143,8586.388927
5777.194772,-740.205942,1455.581446,9918.759623
5777.195095,-370.102971,1302.362347,9104.533087
5777.195418,222.061783,1532.190996,8660.409521
5777.195741,370.102971,2221.676944,7476.080014
5777.196064,-666.185348,1455.581446,9770.718434
5777.196388,0.000000,76.609550,9400.615463
5777.196711,0.000000,689.485948,8956.491898
5777.197034,814.226536,842.705048,8142.265362
5777.197357,666.185348,1149.143247,9992.780217
5777.197680,888.247130,76.609550,10288.862594
5777.198004,1332.370696,229.828649,9992.780217
5777.198327,444.123565,1225.752797,9400.615463
5777.198650,0.000000,459.657299,10362.883188
5777.198973,-666.185348,536.266849,10658.965565
5777.199296,-444.123565,0.000000,9474.636058
5777.199619,74.020594,0.000000,7846.182985
5777.199943,-888.247130,-383.047749,8290.306550
5777.200266,-2368.659014,-689.485948,9770.718434
5777.200589,-1258.350101,-1608.800546,9474.636058
5777.200912,-1850.514855,-766.095498,8808.450710
5777.201235,-2516.700203,-306.438199,8586.388927
5777.201559,-2146.597232,-1455.581446,9770.718434
5777.201882,-2294.638420,-1378.971896,10955.047942
5777.202205,-1628.453072,-612.876398,9992.780217
5777.202528,-1998.556043,-919.314598,9696.697840
5777.202851,-1036.288319,-842.705048,10140.821405
5777.203175,-1036.288319,-1149.143247,10955.047942
5777.203498,-1184.329507,0.000000,9252.574275
5777.203821,-1554.432478,-1225.752797,9696.697840
5777.204144,-1110.308913,-842.705048,8290.306550
5777.204467,-1850.514855,-689.485948,10658.965565
5777.204791,-1332.370696,-306.438199,9474.636058
5777.205114,-1554.432478,0.000000,10140.821405
5777.205437,-1850.514855,229.828649,8068.244768
5777.205760,444.123565,612.876398,8882.471304
5777.206083,888.247130,229.828649,8956.491898
5777.206406,0.000000,536.266849,8660.409521
5777.206730,-518.144159,689.485948,9400.615463
5777.207053,592.164754,689.485948,9326.594869
5777.207376,1554.432478,1915.238745,9696.697840
5777.207699,1480.411884,1532.190996,8660.409521
5777.208022,1628.453072,1378.971896,8808.450710
5777.208346,1776.494261,1762.019645,9474.636058
5777.208669,2664.741391,2451.505594,10066.800811
5777.208992,2368.659014,2374.896044,9622.677246
5777.209315,1628.453072,2298.286494,9030.512492
5777.209638,1406.391290,1915.238745,9400.615463
5777.209962,2442.679609,1991.848295,8808.450710
5777.210285,2516.700203,2374.896044,8882.471304
5777.210608,1998.556043,2911.162892,8364.327145
5777.210931,814.226536,1302.362347,9326.594869
5777.211254,518.144159,1072.533697,9696.697840
5777.211577,74.020594,1608.800546,9252.574275
5777.211901,-888.247130,1608.800546,9104.533087
5777.212224,-2146.597232,1072.533697,8882.471304
5777.212547,-2146.597232,536.266849,9326.594869
5777.212870,-370.102971,919.314598,9104.533087
5777.213193,-1554.432478,1149.143247,8438.347739
5777.213517,-2590.720797,1225.752797,8142.265362
5777.213840,-2738.761985,229.828649,9400.615463
5777.214163,0.000000,536.266849,7846.182985
5777.214486,1776.494261,1608.800546,7624.121203
5777.214809,222.061783,1838.629195,7846.182985
5777.215133,0.000000,995.924147,9992.780217
5777.215456,1036.288319,766.095498,9474.636058
5777.215779,1628.453072,1455.581446,8956.491898
5777.216102,1184.329507,1455.581446,8882.471304
5777.216425,-222.061783,536.266849,9770.718434
5777.216748,148.041188,0.000000,10584.944971
5777.217072,1480.411884,689.485948,9252.574275
5777.217395,296.082377,1149.143247,8956.491898
5777.217718,-1850.514855,76.609550,9178.553681
5777.218041,-2812.782580,-612.876398,10584.944971
5777.218364,-1258.350101,-459.657299,9474.636058
5777.218688,-1554.432478,-153.219100,9030.512492
5777.219011,-3330.926739,-459.657299,9400.615463
5777.219334,-3923.091493,-1608.800546,10807.006753
5777.219657,-3701.029710,-1378.971896,10066.800811
5777.219980,-2368.659014,-766.095498,9326.594869
5777.220304,-3849.070898,-1378.971896,10140.821405
5777.220627,-4293.194464,-2068.457845,10658.965565
5777.220950,-3478.967927,-1915.238745,10881.027347
5777.221273,-1036.288319,-919.314598,9474.636058
5777.221596,-222.061783,459.657299,7698.141797
5777.221920,-740.205942,612.876398,9400.615463
5777.222243,518.144159,153.219100,9104.533087
5777.222566,1702.473667,689.485948,9400.615463
5777.222889,2738.761985,1302.362347,6809.894666
5777.223212,1480.411884,306.438199,9474.636058
5777.223535,814.226536,0.000000,10436.903782
5777.223859,1184.329507,229.828649,10881.027347
5777.224182,2368.659014,153.219100,8068.244768
5777.224505,2812.782580,306.438199,8882.471304
5777.224828,444.123565,76.609550,10362.883188
5777.225151,1258.350101,459.657299,10288.862594
5777.225475,1776.494261,995.924147,9326.594869
5777.225798,2886.803174,1685.410096,7105.977043
5777.226121,2590.720797,766.095498,9252.574275
5777.226444,1702.473667,919.314598,9326.594869
5777.226767,1850.514855,2221.676944,8956.491898
5777.227091,1924.535449,1991.848295,7698.141797
5777.227414,1184.329507,1302.362347,9622.677246
5777.227737,-296.082377,1149.143247,10140.821405
5777.228060,-888.247130,842.705048,9474.636058
5777.228383,814.226536,612.876398,7920.203579
5777.228706,-148.041188,995.924147,8734.430116
5777.229030,-962.267725,842.705048,9696.697840
5777.229353,-666.185348,612.876398,10140.821405
5777.229676,-740.205942,1378.971896,9548.656652
5777.229999,-222.061783,1838.629195,8512.368333
5777.230323,-666.185348,1532.190996,10140.821405
5777.230646,444.123565,1991.848295,9992.780217
5777.230969,1332.370696,2681.334243,10362.883188
5777.231292,740.205942,2145.067394,8364.327145
5777.231615,1258.350101,1685.410096,9252.574275
5777.231939,74.020594,1762.019645,9474.636058
5777.232262,0.000000,2068.457845,8438.347739
5777.232585,-962.267725,1532.190996,8808.450710
5777.232908,-1184.329507,842.705048,7846.182985
5777.233231,-1406.391290,995.924147,9696.697840
5777.233555,-1258.350101,153.219100,8438.347739
5777.233878,-2220.617826,766.095498,8290.306550
5777.234201,-1702.473667,536.266849,7550.100608
5777.234524,-2738.761985,536.266849,10214.842000
5777.234848,-1628.453072,689.485948,9104.533087
5777.235171,-2516.700203,459.657299,8438.347739
5777.235494,-1850.514855,459.657299,7920.203579
5777.235817,-1628.453072,0.000000,9844.739029
5777.236140,-1628.453072,459.657299,9400.615463
5777.236464,-1036.288319,459.657299,8956.491898
5777.236787,-1036.288319,-459.657299,8734.430116
5777.237110,-1554.432478,-766.095498,8734.430116
5777.237433,-592.164754,-689.485948,10288.862594
5777.237756,-888.247130,0.000000,9696.697840
5777.238080,-962.267725,-306.438199,10658.965565
5777.238403,0.000000,-459.657299,10436.903782
5777.238726,1406.391290,-689.485948,10436.903782
5777.239049,1036.288319,-76.609550,10436.903782
5777.239372,-962.267725,229.828649,11251.130318
5777.239696,-296.082377,-842.705048,10955.047942
5777.240019,1628.453072,-766.095498,10584.944971
5777.240342,1776.494261,0.000000,8734.430116
5777.240665,888.247130,229.828649,9696.697840
5777.240989,-814.226536,-919.314598,9770.718434
5777.241312,0.000000,-689.485948,9474.636058
5777.241635,1036.288319,-766.095498,8512.368333
5777.241958,-592.164754,-536.266849,8734.430116
5777.242281,-888.247130,0.000000,9104.533087
5777.242605,-814.226536,0.000000,10584.944971
5777.242928,1332.370696,459.657299,9252.574275
5777.243251,1110.308913,919.314598,9104.533087
5777.243574,666.185348,689.485948,8438.347739
5777.243897,592.164754,306.438199,9918.759623
5777.244221,1924.535449,1455.581446,8956.491898
5777.244544,1998.556043,1991.848295,9770.718434
5777.244867,1628.453072,1378.971896,8216.285956
5777.245190,148.041188,1072.533697,8660.409521
5777.245513,370.102971,1455.581446,8216.285956
5777.245837,444.123565,1608.800546,9178.553681
5777.246160,296.082377,2221.676944,8068.244768
5777.246483,-1776.494261,1225.752797,9178.553681
5777.246806,-1184.329507,689.485948,10066.800811
5777.247130,0.000000,1762.019645,8734.430116
5777.247453,-814.226536,2068.457845,8438.347739
5777.247776,-1332.370696,2604.724693,9104.533087
5777.248099,-1998.556043,1455.581446,10288.862594
5777.248422,-296.082377,1762.019645,9104.533087
5777.248746,1036.288319,2834.553343,8660.409521
5777.249069,-444.123565,2145.067394,8438.347739
5777.249392,-888.247130,1378.971896,8956.491898
5777.249715,-444.123565,1455.581446,10288.862594
5777.250038,1628.453072,2221.676944,8364.327145
5777.250362,-666.185348,1378.971896,8882.471304
5777.250685,-1850.514855,383.047749,8882.471304
5777.251008,-1702.473667,0.000000,10955.047942
5777.251331,74.020594,842.705048,7772.162391
5777.251655,962.267725,1072.533697,7402.059420
5777.251978,-740.205942,1149.143247,8734.430116
5777.252301,-888.247130,536.266849,9696.697840
5777.252624,296.082377,612.876398,9844.739029
5777.252947,370.102971,1149.143247,7846.182985
5777.253271,-370.102971,689.485948,10066.800811
5777.253594,-1776.494261,0.000000,9770.718434
5777.253917,-1258.350101,-383.047749,10066.800811
5777.254240,962.267725,459.657299,7402.059420
5777.254563,740.205942,1072.533697,7772.162391
5777.254887,-444.123565,383.047749,10066.800811
5777.255210,0.000000,-536.266849,9696.697840
5777.255533,1036.288319,-766.095498,8956.491898
5777.255856,518.144159,153.219100,8364.327145
5777.256179,-1036.288319,-229.828649,11399.171507
5777.256503,-1480.411884,-689.485948,11325.150913
5777.256826,-1258.350101,-842.705048,11843.295072
5777.257149,148.041188,-1149.143247,8956.491898
5777.257472,-370.102971,-1225.752797,9622.677246
5777.257796,-1184.329507,-919.314598,9548.656652
5777.258119,-444.123565,-919.314598,9992.780217
5777.258442,-370.102971,-766.095498,8512.368333
5777.258765,0.000000,153.219100,8808.450710
5777.259088,-148.041188,0.000000,9178.553681
5777.259412,-148.041188,-229.828649,8956.491898
5777.259735,518.144159,-153.219100,8216.285956
5777.260058,370.102971,0.000000,8142.265362
5777.260381,148.041188,-306.438199,9918.759623
5777.260704,0.000000,0.000000,10732.986159
5777.261028,0.000000,76.609550,10510.924376
5777.261351,814.226536,536.266849,8438.347739
5777.261674,962.267725,76.609550,8956.491898
5777.261997,74.020594,459.657299,10214.842000
5777.262321,740.205942,1072.533697,9992.780217
5777.262644,740.205942,1302.362347,8660.409521
5777.262967,1480.411884,1302.362347,9252.574275
5777.263290,1702.473667,919.314598,9104.533087
5777.263613,1258.350101,1838.629195,9474.636058
5777.263937,592.164754,1915.238745,8956.491898
5777.264260,814.226536,1378.971896,8438.347739
5777.264583,0.000000,995.924147,9992.780217
5777.264906,-962.267725,1302.362347,9548.656652
5777.265229,-1036.288319,1532.190996,9474.636058
5777.265553,-814.226536,1149.143247,8808.450710
5777.265876,-740.205942,1149.143247,9178.553681
5777.266199,-296.082377,1225.752797,9030.512492
5777.266522,-444.123565,1378.971896,8586.388927
5777.266845,-888.247130,1915.238745,8808.450710
5777.267169,-222.061783,1915.238745,8956.491898
5777.267492,370.102971,1302.362347,9992.780217
5777.267815,592.164754,2068.457845,8142.265362
5777.268138,-740.205942,1302.362347,8068.244768
5777.268462,0.000000,1149.143247,8586.388927
5777.268785,666.185348,1149.143247,9252.574275
5777.269108,222.061783,689.485948,8660.409521
5777.269431,-592.164754,766.095498,7772.162391
5777.269754,-2072.576638,383.047749,8808.450710
5777.270078,-962.267725,229.828649,9104.533087
5777.270401,-518.144159,612.876398,8956.491898
5777.270724,-1184.329507,383.047749,8586.388927
5777.271047,-1628.453072,689.485948,9104.533087
5777.271370,-592.164754,383.047749,10140.821405
5777.271694,0.000000,459.657299,9844.739029
5777.272017,-222.061783,612.876398,8734.430116
5777.272340,-888.247130,-229.828649,9696.697840
5777.272663,74.020594,76.609550,10066.800811
5777.272987,592.164754,76.609550,10436.903782
5777.273310,222.061783,612.876398,9548.656652
5777.273633,-666.185348,0.000000,9474.636058
5777.273956,-1998.556043,-919.314598,9992.780217
5777.274279,-296.082377,-383.047749,9474.636058
5777.274603,148.041188,0.000000,10584.944971
5777.274926,-2294.638420,-306.438199,9474.636058
5777.275249,-1332.370696,-383.047749,10362.883188
5777.275572,-1184.329507,-995.924147,9326.594869
5777.275895,0.000000,0.000000,9474.636058
5777.276219,-962.267725,153.219100,8586.388927
5777.276542,-1776.494261,-689.485948,9622.677246
5777.276865,-1480.411884,-919.314598,10658.965565
5777.277188,74.020594,306.438199,9474.636058
5777.277511,222.061783,-153.219100,8956.491898
5777.277835,-888.247130,153.219100,8808.450710
5777.278158,-1258.350101,-229.828649,10436.903782
5777.278481,518.144159,229.828649,9400.615463
5777.278804,444.123565,919.314598,9992.780217
5777.279128,0.000000,842.705048,7920.203579
5777.279451,148.041188,536.266849,9400.615463
5777.279774,1850.514855,995.924147,9252.574275
5777.280097,2812.782580,1838.629195,9104.533087
5777.280420,2294.638420,2298.286494,7698.141797
5777.280744,1184.329507,1378.971896,9326.594869
5777.281067,1258.350101,1378.971896,9696.697840
5777.281390,1628.453072,2145.067394,8882.471304
5777.281713,1924.535449,2681.334243,8660.409521
5777.282036,74.020594,1915.238745,9178.553681
5777.282360,-370.102971,1532.190996,9400.615463
5777.282683,370.102971,1378.971896,8586.388927
5777.283006,444.123565,2451.505594,9104.533087
5777.283329,-962.267725,1455.581446,8808.450710
5777.283652,-1702.473667,612.876398,10288.862594
5777.283976,-370.102971,1302.362347,9548.656652
5777.284299,148.041188,1225.752797,7994.224174
5777.284622,592.164754,1378.971896,8660.409521
5777.284945,-1110.308913,919.314598,10140.821405
5777.285269,-1554.432478,-306.438199,10510.924376
5777.285592,148.041188,842.705048,9030.512492
5777.285915,444.123565,1455.581446,8216.285956
5777.286238,-296.082377,842.705048,8512.368333
5777.286561,-592.164754,306.438199,8882.471304
5777.286885,74.020594,459.657299,8586.388927
5777.287208,740.205942,1685.410096,6439.791695
5777.287531,-370.102971,1072.533697,8882.471304
5777.287854,-814.226536,459.657299,9844.739029
5777.288177,-1184.329507,0.000000,10288.862594
5777.288501,-370.102971,153.219100,7920.203579
5777.288824,-296.082377,229.828649,9178.553681
5777.289147,-1480.411884,-229.828649,9770.718434
5777.289470,-1332.370696,-612.876398,10658.965565
5777.289794,-518.144159,-153.219100,9178.553681
5777.290117,370.102971,0.000000,8956.491898
5777.290440,-1184.329507,0.000000,9918.759623
5777.290763,-962.267725,-383.047749,11325.150913
5777.291086,-1628.453072,-766.095498,10066.800811
5777.291410,-1036.288319,-383.047749,8882.471304
5777.291733,-1850.514855,76.609550,9622.677246
5777.292056,-1258.350101,-919.314598,10881.027347
5777.292379,-888.247130,-459.657299,10214.842000
5777.292702,-1332.370696,0.000000,9474.636058
5777.293026,-962.267725,-306.438199,9400.615463
5777.293349,-962.267725,-766.095498,10214.842000
5777.293672,-1850.514855,-229.828649,9178.553681
5777.293995,0.000000,-306.438199,9104.533087
5777.294318,-962.267725,76.609550,7994.224174
5777.294642,0.000000,-76.609550,9326.594869
5777.294965,666.185348,76.609550,8956.491898
5777.295288,-296.082377,306.438199,8808.450710
5777.295611,148.041188,919.314598,8882.471304
5777.295935,814.226536,459.657299,8660.409521
5777.296258,1480.411884,919.314598,9844.739029
5777.296581,2664.741391,1838.629195,8586.388927
5777.296904,1554.432478,1762.019645,10140.821405
5777.297227,2072.576638,1685.410096,9844.739029
5777.297551,1924.535449,1455.581446,10066.800811
5777.297874,3108.864956,1685.410096,8364.327145
5777.298197,2294.638420,919.314598,8586.388927
5777.298520,1110.308913,1455.581446,9104.533087
5777.298843,1776.494261,1838.629195,9474.636058
5777.299167,592.164754,1302.362347,9548.656652
5777.299490,-370.102971,1455.581446,8290.306550
5777.299813,-1036.288319,1225.752797,8586.388927
5777.300136,-444.123565,1455.581446,9696.697840
5777.300460,74.020594,1455.581446,9992.780217
5777.300783,-592.164754,1302.362347,8734.430116
5777.301106,-1184.329507,459.657299,8956.491898
5777.301429,-1480.411884,612.876398,9992.780217
5777.301752,-1702.473667,1225.752797,9992.780217
5777.302076,-1258.350101,919.314598,9548.656652
5777.302399,-1406.391290,842.705048,8364.327145
5777.302722,-1480.411884,76.609550,8734.430116
5777.303045,296.082377,76.609550,8586.388927
5777.303368,148.041188,612.876398,8512.368333
5777.303692,-666.185348,1072.533697,8882.471304
5777.304015,-1258.350101,229.828649,9178.553681
5777.304338,1258.350101,459.657299,8956.491898
5777.304661,1406.391290,1072.533697,9178.553681
5777.304984,-296.082377,1455.581446,9400.615463
5777.305308,-370.102971,0.000000,9770.718434
5777.305631,-666.185348,76.609550,9326.594869
5777.305954,1110.308913,459.657299,8438.347739
5777.306277,518.144159,612.876398,8734.430116
5777.306601,-1184.329507,153.219100,9178.553681
5777.306924,-2146.597232,-383.047749,9770.718434
5777.307247,-592.164754,-229.828649,9104.533087
5777.307570,-296.082377,383.047749,8586.388927
5777.307893,-1628.453072,0.000000,8364.327145
5777.308217,-2516.700203,-612.876398,11251.130318
5777.308540,-1036.288319,-689.485948,10288.862594
5777.308863,222.061783,-459.657299,8882.471304
5777.309186,-1184.329507,-153.219100,8956.491898
5777.309509,-2590.720797,-842.705048,11325.150913
5777.309833,-1850.514855,-1608.800546,11473.192101
5777.310156,-592.164754,0.000000,9770.718434
5777.310479,-222.061783,153.219100,9326.594869
5777.310802,-2220.617826,-995.924147,10066.800811
5777.311125,-2220.617826,-1149.143247,10658.965565
5777.311449,148.041188,-306.438199,9918.759623
5777.311772,1110.308913,689.485948,9178.553681
5777.312095,-666.185348,766.095498,9918.759623
5777.312418,0.000000,306.438199,9918.759623
5777.312742,1110.308913,612.876398,10140.821405
5777.313065,1850.514855,2374.896044,8512.368333
5777.313388,444.123565,2068.457845,9474.636058
5777.313711,888.247130,1378.971896,8956.491898
5777.314034,1036.288319,1532.190996,9326.594869
5777.314358,1406.391290,2221.676944,6661.853478
5777.314681,1184.329507,1838.629195,7402.059420
5777.315004,0.000000,1302.362347,8142.265362
5777.315327,814.226536,1532.190996,9474.636058
5777.315650,1924.535449,1685.410096,8068.244768
5777.315974,2072.576638,2298.286494,8142.265362
5777.316297,222.061783,2221.676944,8660.409521
5777.316620,0.000000,1915.238745,9770.718434
5777.316943,1258.350101,2451.505594,8808.450710
5777.317267,2072.576638,1685.410096,7624.121203
5777.317590,1702.473667,2374.896044,8882.471304
5777.317913,-666.185348,1838.629195,10510.924376
5777.318236,-1332.370696,1762.019645,10140.821405
5777.318559,-222.061783,1685.410096,8512.368333
5777.318883,-1258.350101,689.485948,8290.306550
5777.319206,-2812.782580,842.705048,9844.739029
5777.319529,-2812.782580,612.876398,11103.089130
5777.319852,-1480.411884,306.438199,9548.656652
5777.320175,0.000000,842.705048,8142.265362
5777.320499,-962.267725,-229.828649,8808.450710
5777.320822,-74.020594,536.266849,9844.739029
5777.321145,444.123565,766.095498,9030.512492
5777.321468,740.205942,995.924147,8660.409521
5777.321791,1924.535449,919.314598,8734.430116
5777.322115,962.267725,306.438199,10288.862594
5777.322438,592.164754,153.219100,9252.574275
5777.322761,518.144159,153.219100,9030.512492
5777.323084,296.082377,-383.047749,8956.491898
5777.323408,148.041188,-766.095498,9252.574275
5777.323731,-370.102971,-1149.143247,9400.615463
5777.324054,-1480.411884,-689.485948,9474.636058
5777.324377,-1258.350101,-383.047749,9178.553681
5777.324700,-962.267725,-1378.971896,9770.718434
5777.325024,-1110.308913,-1762.019645,9844.739029
5777.325347,-1110.308913,-1302.362347,9548.656652
5777.325670,-1110.308913,-1838.629195,8438.347739
5777.325993,-1184.329507,-1225.752797,9696.697840
5777.326316,-1850.514855,-383.047749,9844.739029
5777.326640,-1480.411884,-766.095498,8882.471304
5777.326963,-1480.411884,-612.876398,8438.347739
5777.327286,-1480.411884,-612.876398,9178.553681
5777.327609,-2886.803174,-689.485948,10214.842000
5777.327933,-1554.432478,-306.438199,10066.800811
5777.328256,-2738.761985,-612.876398,9474.636058
5777.328579,-1036.288319,-536.266849,8660.409521
5777.328902,444.123565,-689.485948,9252.574275
5777.329226,148.041188,153.219100,10881.027347
5777.329549,-148.041188,1072.533697,10288.862594
5777.329872,222.061783,306.438199,10510.924376
5777.330196,1776.494261,306.438199,10066.800811
5777.330519,1258.350101,766.095498,10066.800811
5777.330843,962.267725,383.047749,9252.574275
5777.331166,370.102971,1762.019645,9178.553681
5777.331490,814.226536,1685.410096,9104.533087
5777.331813,1702.473667,1455.581446,8142.265362
5777.332136,1406.391290,1455.581446,8660.409521
5777.332460,0.000000,2145.067394,7846.182985
5777.332783,222.061783,2221.676944,9844.739029
5777.333107,1110.308913,2068.457845,9400.615463
5777.333430,1406.391290,2298.286494,8586.388927
5777.333754,740.205942,2604.724693,8068.244768
5777.334077,-370.102971,2068.457845,9400.615463
5777.334400,148.041188,1991.848295,9178.553681
5777.334724,1036.288319,2757.943793,8882.471304
5777.335047,1036.288319,2987.772442,8808.450710
5777.335371,-888.247130,2068.457845,9474.636058
5777.335694,-814.226536,995.924147,10066.800811
5777.336018,-222.061783,2374.896044,9400.615463
5777.336341,-666.185348,2221.676944,9696.697840
5777.336664,-1702.473667,2451.505594,9030.512492
5777.336988,-1332.370696,1838.629195,10732.986159
5777.337311,518.144159,2298.286494,8660.409521
5777.337635,1036.288319,2451.505594,8364.327145
5777.337958,-296.082377,1302.362347,7402.059420
5777.338282,-592.164754,842.705048,8660.409521
5777.338605,-1036.288319,842.705048,8660.409521
5777.338928,222.061783,1072.533697,7846.182985
5777.339252,-888.247130,766.095498,8142.265362
5777.339575,-1998.556043,229.828649,8956.491898
5777.339899,-2368.659014,0.000000,9548.656652
5777.340222,0.000000,459.657299,8142.265362
5777.340546,296.082377,919.314598,8438.347739
5777.340869,-296.082377,612.876398,8660.409521
5777.341193,-1258.350101,-459.657299,10510.924376
5777.341516,592.164754,153.219100,9326.594869
5777.341839,1554.432478,766.095498,8512.368333
5777.342163,222.061783,-612.876398,9104.533087
5777.342486,-370.102971,-919.314598,11103.089130
5777.342810,-370.102971,-1149.143247,10658.965565
5777.343133,1702.473667,0.000000,9104.533087
5777.343457,888.247130,-689.485948,9326.594869
5777.343780,-962.267725,-1838.629195,11029.068536
5777.344103,-592.164754,-1608.800546,11399.171507
5777.344427,0.000000,-1608.800546,9548.656652
5777.344750,-1776.494261,-1225.752797,9992.780217
5777.345074,-2664.741391,-1915.238745,10807.006753
5777.345397,-2664.741391,-2604.724693,11177.109724
5777.345721,-2220.617826,-2145.067394,10288.862594
5777.346044,-1776.494261,-1225.752797,8586.388927
5777.346367,-1628.453072,-1149.143247,10436.903782
5777.346691,-2590.720797,-1149.143247,9696.697840
5777.347014,-2220.617826,-689.485948,8586.388927
5777.347338,0.000000,-1072.533697,6587.832884
5777.347661,-444.123565,0.000000,8216.285956
5777.347985,-666.185348,-306.438199,9918.759623
5777.348308,888.247130,0.000000,9992.780217
5777.348631,1628.453072,919.314598,8882.471304
5777.348955,2738.761985,1302.362347,8068.244768
5777.349278,1702.473667,1532.190996,11251.130318
5777.349602,1702.473667,1302.362347,11103.089130
5777.349925,2738.761985,1072.533697,9622.677246
5777.350249,2886.803174,1532.190996,8216.285956
5777.350572,2072.576638,1762.019645,9474.636058
5777.350895,962.267725,1991.848295,9844.739029
5777.351219,592.164754,2068.457845,9252.574275
5777.351542,1406.391290,2604.724693,7846.182985
5777.351866,0.000000,1838.629195,6883.915261
5777.352189,-962.267725,1149.143247,9104.533087
5777.352513,-1258.350101,1532.190996,8882.471304
5777.352836,-1554.432478,1225.752797,8956.491898
5777.353159,-1702.473667,1225.752797,8808.450710
5777.353483,-1406.391290,995.924147,10214.842000
5777.353806,-1110.308913,1685.410096,9844.739029
5777.354130,-740.205942,1762.019645,9474.636058
5777.354453,-962.267725,2145.067394,8956.491898
5777.354777,666.185348,1838.629195,9326.594869
5777.355100,444.123565,1838.629195,9696.697840
5777.355423,1110.308913,2298.286494,9030.512492
5777.355747,148.041188,2528.115143,8734.430116
5777.356070,-962.267725,1762.019645,9030.512492
5777.356394,0.000000,1838.629195,9548.656652
5777.356717,666.185348,919.314598,8734.430116
5777.357041,518.144159,1302.362347,7994.224174
5777.357364,0.000000,1532.190996,8438.347739
5777.357687,592.164754,536.266849,9252.574275
5777.358011,370.102971,919.314598,8734.430116
5777.358334,-1110.308913,1149.143247,8808.450710
5777.358658,-1184.329507,612.876398,9030.512492
5777.358981,0.000000,0.000000,10140.821405
5777.359305,-518.144159,229.828649,8882.471304
5777.359628,962.267725,919.314598,7846.182985
5777.359951,-296.082377,536.266849,8808.450710
5777.360275,-444.123565,612.876398,8734.430116
5777.360598,-518.144159,-612.876398,9622.677246
5777.360922,-888.247130,229.828649,6957.935855
5777.361245,-2442.679609,-612.876398,7994.224174
5777.361569,-1998.556043,-1149.143247,9400.615463
5777.361892,-962.267725,-1608.800546,10510.924376
5777.362215,-1332.370696,-1455.581446,10288.862594
5777.362539,-1628.453072,-1225.752797,9548.656652
5777.362862,-2886.803174,-2145.067394,11991.336260
5777.363186,-518.144159,-1378.971896,10510.924376
5777.363509,-666.185348,-383.047749,11843.295072
5777.363833,518.144159,-459.657299,9104.533087
5777.364156,-222.061783,-1072.533697,10658.965565
5777.364479,666.185348,-383.047749,9474.636058
5777.364803,814.226536,76.609550,11251.130318
5777.365126,1036.288319,306.438199,9770.718434
5777.365450,0.000000,76.609550,9844.739029
5777.365773,666.185348,-459.657299,9770.718434
5777.366097,1924.535449,0.000000,9992.780217
5777.366420,740.205942,383.047749,10436.903782
5777.366743,148.041188,153.219100,9992.780217
5777.367067,-222.061783,0.000000,10658.965565
5777.367390,148.041188,0.000000,9104.533087
5777.367714,740.205942,76.609550,9178.553681
5777.368037,-222.061783,842.705048,8364.327145
5777.368361,-1850.514855,383.047749,9104.533087
5777.368684,-1036.288319,229.828649,8364.327145
5777.369008,-370.102971,1378.971896,8216.285956
5777.369331,-888.247130,2145.067394,7254.018232
5777.369654,-1998.556043,1455.581446,7698.141797
5777.369978,-1184.329507,1685.410096,8808.450710
5777.370301,296.082377,1991.848295,8290.306550
5777.370625,-296.082377,2374.896044,7698.141797
5777.370948,-1850.514855,2374.896044,8068.244768
5777.371272,-1406.391290,1608.800546,9400.615463
5777.371595,0.000000,2221.676944,8290.306550
5777.371918,962.267725,2834.553343,8438.347739
5777.372242,74.020594,2451.505594,8586.388927
5777.372565,-444.123565,2374.896044,9696.697840
5777.372889,148.041188,1991.848295,9474.636058
5777.373212,2146.597232,2374.896044,8734.430116
5777.373536,370.102971,2604.724693,9548.656652
5777.373859,-444.123565,2068.457845,9918.759623
5777.374182,1184.329507,1838.629195,10807.006753
5777.374506,3182.885551,2528.115143,8586.388927
5777.374829,2220.617826,2221.676944,8660.409521
5777.375153,962.267725,919.314598,8512.368333
5777.375476,-444.123565,306.438199,11029.068536
5777.375800,296.082377,995.924147,9326.594869
5777.376123,592.164754,995.924147,8586.388927
5777.376446,-1628.453072,0.000000,8956.491898
5777.376770,-2368.659014,-1072.533697,10140.821405
5777.377093,-1998.556043,-1532.190996,9622.677246
5777.377417,-962.267725,-153.219100,8068.244768
5777.377740,-1036.288319,-612.876398,8660.409521
5777.378064,-2368.659014,-1302.362347,9992.780217
5777.378387,-1184.329507,-1302.362347,9548.656652
5777.378710,814.226536,-842.705048,8586.388927
5777.379034,518.144159,76.609550,9326.594869
5777.379357,-814.226536,-842.705048,10436.903782
5777.379681,-370.102971,-2145.067394,10436.903782
5777.380004,962.267725,-536.266849,8438.347739
5777.380328,1332.370696,0.000000,8956.491898
5777.380651,-666.185348,-842.705048,9770.718434
5777.380974,-888.247130,-1455.581446,10658.965565
5777.381298,-148.041188,-1608.800546,9696.697840
5777.381621,814.226536,-766.095498,8512.368333
5777.381945,-518.144159,-1302.362347,10362.883188
5777.382268,-1110.308913,-766.095498,11325.150913
5777.382592,74.020594,-766.095498,11843.295072
5777.382915,-222.061783,0.000000,9770.718434
5777.383238,222.061783,0.000000,9326.594869
5777.383562,-1258.350101,-612.876398,10436.903782
5777.383885,-2368.659014,-306.438199,10214.842000
5777.384209,-1036.288319,-612.876398,9696.697840
5777.384532,-1036.288319,689.485948,8586.388927
5777.384856,-2220.617826,-229.828649,8734.430116
5777.385179,-3034.844362,-536.266849,9622.677246
5777.385502,-1480.411884,-536.266849,8290.306550
5777.385826,-1184.329507,842.705048,7920.203579
5777.386149,-666.185348,1455.581446,8068.244768
5777.386473,0.000000,1455.581446,9844.739029
5777.386796,0.000000,1532.190996,9178.553681
5777.387120,888.247130,2681.334243,8068.244768
5777.387443,1554.432478,2528.115143,8438.347739
5777.387766,1998.556043,2298.286494,9844.739029
5777.388090,2072.576638,2451.505594,9992.780217
5777.388413,2146.597232,2604.724693,8734.430116
5777.388737,1924.535449,2681.334243,8808.450710
5777.389060,1480.411884,2911.162892,9252.574275
5777.389384,1776.494261,2681.334243,9252.574275
5777.389707,1702.473667,2451.505594,8512.368333
5777.390030,888.247130,2757.943793,8438.347739
5777.390354,1776.494261,3370.820191,9474.636058
5777.390677,2590.720797,2911.162892,10955.047942
5777.391001,888.247130,1608.800546,9548.656652
5777.391324,370.102971,1532.190996,8882.471304
5777.391648,0.000000,1608.800546,8956.491898
5777.391971,592.164754,1302.362347,8808.450710
5777.392294,962.267725,1685.410096,8882.471304
5777.392618,0.000000,995.924147,8068.244768
5777.392941,-1184.329507,306.438199,7624.121203
5777.393265,-1776.494261,76.609550,6661.853478
5777.393588,-1850.514855,459.657299,8660.409521
5777.393912,-2368.659014,459.657299,8438.347739
5777.394235,-3182.885551,-306.438199,9030.512492
5777.394559,-1480.411884,-306.438199,9474.636058
5777.394882,-740.205942,0.000000,9844.739029
5777.395205,-222.061783,0.000000,8956.491898
5777.395529,0.000000,-612.876398,9030.512492
5777.395852,0.000000,229.828649,10658.965565
5777.396176,1184.329507,306.438199,9918.759623
5777.396499,2368.659014,306.438199,9474.636058
5777.396823,592.164754,-536.266849,9400.615463
5777.397146,-444.123565,-842.705048,9844.739029
5777.397469,740.205942,-1225.752797,10066.800811
5777.397793,1110.308913,-919.314598,10436.903782
5777.398116,-222.061783,-1225.752797,9844.739029
5777.398440,-2368.659014,-2298.286494,10807.006753
5777.398763,-2368.659014,-1915.238745,10807.006753
5777.399087,-1628.453072,-1072.533697,10658.965565
5777.399410,-2664.741391,-995.924147,9548.656652
5777.399733,-3923.091493,-1762.019645,9992.780217
5777.400057,-3701.029710,-1762.019645,10140.821405
5777.400380,-3034.844362,-1838.629195,9252.574275
5777.400704,-3256.906145,-689.485948,9326.594869
5777.401027,-2442.679609,-1378.971896,7772.162391
5777.401351,-3701.029710,-2374.896044,9770.718434
5777.401674,-1924.535449,-689.485948,8734.430116
5777.401997,-444.123565,0.000000,9474.636058
5777.402321,-1258.350101,229.828649,8438.347739
5777.402644,-666.185348,0.000000,9252.574275
5777.402968,1776.494261,0.000000,9770.718434
5777.403291,2590.720797,1685.410096,9474.636058
5777.403615,2368.659014,2451.505594,9104.533087
5777.403938,2442.679609,1378.971896,9400.615463
5777.404261,1776.494261,1378.971896,10362.883188
5777.404585,3701.029710,2451.505594,8216.285956
5777.404908,3182.885551,3064.381992,8512.368333
5777.405232,2590.720797,3447.429741,8364.327145
5777.405555,2368.659014,2221.676944,8808.450710
5777.405879,2812.782580,2145.067394,8660.409521
5777.406202,2516.700203,3217.601092,8068.244768
5777.406525,666.185348,2987.772442,9474.636058
5777.406849,148.041188,1608.800546,9918.759623
5777.407172,1110.308913,2451.505594,10362.883188
5777.407496,1258.350101,3294.210641,7994.224174
5777.407819,0.000000,3217.601092,9770.718434
5777.408143,-1554.432478,2068.457845,9548.656652
5777.408466,-592.164754,995.924147,9548.656652
5777.408789,-370.102971,2068.457845,8438.347739
5777.409113,74.020594,2528.115143,7698.141797
5777.409436,-1480.411884,1225.752797,9030.512492
5777.409760,-1258.350101,1072.533697,9992.780217
5777.410083,-592.164754,1072.533697,9548.656652
5777.410407,-814.226536,1685.410096,7476.080014
5777.410730,-1184.329507,1378.971896,9474.636058
5777.411053,-1184.329507,766.095498,10288.862594
5777.411377,296.082377,536.266849,9030.512492
5777.411700,814.226536,689.485948,7476.080014
5777.412024,222.061783,1072.533697,7846.182985
5777.412347,-518.144159,919.314598,9696.697840
5777.412671,-1110.308913,153.219100,9104.533087
5777.412994,296.082377,0.000000,7402.059420
5777.413317,518.144159,-383.047749,7254.018232
5777.413641,-2368.659014,-1225.752797,9844.739029
5777.413964,-2146.597232,-1225.752797,10584.944971
5777.414288,-2146.597232,-1532.190996,10362.883188
5777.414611,-444.123565,-459.657299,7402.059420
5777.414935,-888.247130,-995.924147,10362.883188
5777.415258,-962.267725,-995.924147,10214.842000
5777.415581,592.164754,-842.705048,10955.047942
5777.415905,-296.082377,-766.095498,8734.430116
5777.416228,-296.082377,-1225.752797,9696.697840
5777.416552,-1776.494261,-1838.629195,12065.356855
5777.416875,-2368.659014,-1762.019645,10658.965565
5777.417199,-1480.411884,-1838.629195,9992.780217
5777.417522,-1850.514855,-1762.019645,9770.718434
5777.417845,-2368.659014,-2221.676944,11695.253884
5777.418169,-2590.720797,-2451.505594,11621.233289
5777.418492,-2886.803174,-1991.848295,10214.842000
5777.418816,-2072.576638,-1302.362347,10214.842000
5777.419139,-666.185348,-536.266849,9622.677246
5777.419463,-370.102971,-536.266849,11621.233289
5777.419786,0.000000,459.657299,8734.430116
5777.420110,0.000000,153.219100,9178.553681
5777.420433,1184.329507,536.266849,7698.141797
5777.420756,1924.535449,1072.533697,8438.347739
5777.421080,1924.535449,1455.581446,8438.347739
5777.421403,2442.679609,1455.581446,8290.306550
5777.421727,2960.823768,842.705048,7550.100608
5777.422050,1850.514855,0.000000,8586.388927
5777.422374,1406.391290,1762.019645,9992.780217
5777.422697,74.020594,2145.067394,9474.636058
5777.423020,518.144159,2145.067394,9474.636058
5777.423344,2738.761985,2451.505594,9030.512492
5777.423667,3478.967927,2604.724693,8734.430116
5777.423991,1998.556043,3524.039291,9104.533087
5777.424314,1258.350101,3217.601092,8438.347739
5777.424638,1406.391290,2604.724693,9326.594869
5777.424961,1776.494261,2987.772442,8216.285956
5777.425284,888.247130,3524.039291,7698.141797
5777.425608,370.102971,2528.115143,7105.977043
5777.425931,-1480.411884,1991.848295,8438.347739
5777.426255,-296.082377,2145.067394,8216.285956
5777.426578,-814.226536,1455.581446,9474.636058
5777.426902,-2886.803174,1302.362347,8734.430116
5777.427225,-3182.885551,919.314598,9474.636058
5777.427548,-2072.576638,766.095498,9844.739029
5777.427872,-962.267725,1608.800546,9770.718434
5777.428195,-1332.370696,1608.800546,8290.306550
5777.428519,-2146.597232,459.657299,8216.285956
5777.428842,-370.102971,459.657299,9326.594869
5777.429166,-666.185348,995.924147,9400.615463
5777.429489,0.000000,919.314598,9030.512492
5777.429812,-1480.411884,536.266849,9326.594869
5777.430136,-296.082377,-229.828649,9918.759623
5777.430459,1332.370696,229.828649,9474.636058
5777.430783,1628.453072,1225.752797,10140.821405
5777.431106,814.226536,1225.752797,10214.842000
5777.431430,592.164754,612.876398,11251.130318
5777.431753,1924.535449,-306.438199,10362.883188
5777.432077,2146.597232,459.657299,9400.615463
5777.432400,666.185348,0.000000,9104.533087
5777.432724,0.000000,-995.924147,9844.739029
5777.433047,-1258.350101,-1915.238745,9548.656652
5777.433371,-296.082377,-919.314598,8808.450710
5777.433694,-1850.514855,-995.924147,9326.594869
5777.434017,-3701.029710,-1915.238745,9400.615463
5777.434341,-4219.173869,-2757.943793,9622.677246
5777.434664,-2812.782580,-2451.505594,9030.512492
5777.434988,-2960.823768,-842.705048,9326.594869
5777.435311,-4293.194464,-1225.752797,9030.512492
5777.435635,-3997.112087,-1915.238745,10732.986159
5777.435958,-2220.617826,-1608.800546,9178.553681
5777.436282,-666.185348,-919.314598,8290.306550
5777.436605,-1702.473667,-459.657299,9326.594869
5777.436929,-1628.453072,-689.485948,10214.842000
5777.437252,-592.164754,-1302.362347,9918.759623
5777.437576,1554.432478,383.047749,7994.224174
5777.437899,2516.700203,383.047749,9474.636058
5777.438222,1110.308913,76.609550,9104.533087
5777.438546,1554.432478,995.924147,11473.192101
5777.438869,4145.153275,1378.971896,9844.739029
5777.439193,3849.070898,1991.848295,9400.615463
5777.439516,2072.576638,3064.381992,10140.821405
5777.439840,2886.803174,2451.505594,10732.986159
5777.440163,3256.906145,2681.334243,9992.780217
5777.440487,3478.967927,2757.943793,7328.038826
5777.440810,3108.864956,2604.724693,8734.430116
5777.441134,1184.329507,1838.629195,9104.533087
5777.441457,444.123565,1762.019645,9548.656652
5777.441780,296.082377,1915.238745,7624.121203
5777.442104,-1110.308913,1838.629195,8216.285956
5777.442427,-2664.741391,1915.238745,9400.615463
5777.442751,-2738.761985,1378.971896,9548.656652
5777.443074,-2960.823768,1072.533697,9622.677246
5777.443398,-2442.679609,1838.629195,7254.018232
5777.443721,-2886.803174,1762.019645,9252.574275
5777.444045,-2072.576638,1455.581446,8364.327145
5777.444368,-814.226536,2451.505594,8290.306550
5777.444692,-148.041188,2681.334243,6513.812290
5777.445015,0.000000,2221.676944,7994.224174
5777.445339,518.144159,2221.676944,9622.677246
5777.445662,0.000000,2145.067394,9548.656652
5777.445985,1406.391290,1915.238745,8438.347739
5777.446309,2072.576638,2068.457845,8216.285956
5777.446632,1184.329507,1762.019645,10362.883188
5777.446956,2072.576638,1225.752797,9844.739029
5777.447279,1184.329507,306.438199,8956.491898
5777.447603,1184.329507,0.000000,8438.347739
5777.447926,148.041188,689.485948,11177.109724
5777.448250,-592.164754,153.219100,10881.027347
5777.448573,-518.144159,153.219100,10436.903782
5777.448897,-1406.391290,-536.266849,9844.739029
5777.449220,-518.144159,-536.266849,9400.615463
5777.449544,-1036.288319,-995.924147,10732.986159
5777.449867,-1480.411884,-1532.190996,9622.677246
5777.450190,-1258.350101,-766.095498,9030.512492
5777.450514,-1406.391290,-1225.752797,8660.409521
5777.450837,-1998.556043,-1149.143247,9918.759623
5777.451161,-1184.329507,-995.924147,8586.388927
5777.451484,-1554.432478,-1762.019645,9252.574275
5777.451808,-1110.308913,-1378.971896,8216.285956
5777.452131,-888.247130,-1225.752797,10436.903782
5777.452455,-1702.473667,-1455.581446,10658.965565
5777.452778,-2664.741391,-919.314598,10066.800811
5777.453102,-2442.679609,-1685.410096,9474.636058
5777.453425,-2146.597232,-1455.581446,10436.903782
5777.453749,-1702.473667,-842.705048,9770.718434
5777.454072,-1332.370696,-766.095498,9030.512492
5777.454395,-1332.370696,76.609550,8734.430116
5777.454719,-740.205942,0.000000,8882.471304
5777.455042,148.041188,306.438199,8882.471304
5777.455366,1110.308913,842.705048,9548.656652
5777.455689,0.000000,919.314598,9030.512492
5777.456013,148.041188,-612.876398,9696.697840
5777.456336,2590.720797,76.609550,9104.533087
5777.456660,2442.679609,1378.971896,9918.759623
5777.456983,3108.864956,1685.410096,8660.409521
5777.457307,2590.720797,1072.533697,10658.965565
5777.457630,3256.906145,1991.848295,10732.986159
5777.457953,3034.844362,2298.286494,10658.965565
5777.458277,2442.679609,1378.971896,9474.636058
5777.458600,1628.453072,1838.629195,9178.553681
5777.458924,0.000000,2145.067394,10140.821405
5777.459247,1110.308913,2221.676944,9474.636058
5777.459571,0.000000,2298.286494,9474.636058
5777.459894,-1628.453072,1991.848295,7994.224174
5777.460218,-1924.535449,1225.752797,8956.491898
5777.460541,-814.226536,1685.410096,7698.141797
5777.460865,-444.123565,2298.286494,7772.162391
5777.461188,-1628.453072,2528.115143,7105.977043
5777.461512,-1554.432478,1762.019645,7994.224174
5777.461835,-1850.514855,1915.238745,8364.327145
5777.462158,-370.102971,2681.334243,7550.100608
5777.462482,-740.205942,2681.334243,8882.471304
5777.462805,-2368.659014,1915.238745,8438.347739
5777.463129,-740.205942,1838.629195,9252.574275
5777.463452,1850.514855,2145.067394,8364.327145
5777.463776,1332.370696,2911.162892,8734.430116
5777.464099,1998.556043,2911.162892,8290.306550
5777.464423,2368.659014,2145.067394,10140.821405
5777.464746,3775.050304,2068.457845,8882.471304
5777.465070,3552.988522,2145.067394,8438.347739
5777.465393,888.247130,2604.724693,8956.491898
5777.465717,222.061783,919.314598,10658.965565
5777.466040,-518.144159,0.000000,9918.759623
5777.466363,-148.041188,0.000000,8142.265362
5777.466687,-1480.411884,-995.924147,9326.594869
5777.467010,-4367.215058,-2451.505594,9030.512492
5777.467334,-3997.112087,-3294.210641,8808.450710
5777.467657,-3034.844362,-2604.724693,7624.121203
5777.467981,-4367.215058,-1685.410096,8512.368333
5777.468304,-4367.215058,-3217.601092,9474.636058
5777.468628,-3627.009116,-3217.601092,10362.883188
5777.468951,-1406.391290,-2451.505594,9474.636058
5777.469275,-370.102971,-2221.676944,8364.327145
5777.469598,-666.185348,-2298.286494,11029.068536
5777.469922,-888.247130,-2068.457845,12879.583391
5777.470245,222.061783,-1455.581446,12583.501014
5777.470568,2072.576638,-995.924147,10881.027347
5777.470892,1480.411884,-1378.971896,11843.295072
5777.471215,740.205942,-1838.629195,12583.501014
5777.471539,962.267725,-1915.238745,12065.356855
5777.471862,2368.659014,-1838.629195,10510.924376
5777.472186,1776.494261,-1608.800546,9474.636058
5777.472509,0.000000,-919.314598,10584.944971
5777.472833,-1184.329507,-1378.971896,11473.192101
5777.473156,-444.123565,-842.705048,9178.553681
5777.473480,444.123565,-229.828649,7476.080014
5777.473803,-370.102971,76.609550,8438.347739
5777.474126,-1036.288319,689.485948,9992.780217
5777.474450,-1258.350101,1762.019645,9474.636058
5777.474773,518.144159,2757.943793,8438.347739
5777.475097,0.000000,2298.286494,7920.203579
5777.475420,-592.164754,2681.334243,9622.677246
5777.475744,0.000000,3064.381992,8882.471304
5777.476067,1406.391290,3217.601092,7846.182985
5777.476391,2072.576638,3907.087040,6143.709319
5777.476714,1406.391290,4826.401637,8586.388927
5777.477038,1184.329507,4596.572988,8142.265362
5777.477361,1036.288319,4596.572988,8216.285956
5777.477685,1776.494261,4673.182538,5921.647536
5777.478008,962.267725,3983.696590,7550.100608
5777.478331,-370.102971,4060.306139,7624.121203
5777.478655,-1628.453072,4290.134789,7920.203579
5777.478978,-2442.679609,3600.648841,6735.874072
5777.479302,-3256.906145,3447.429741,7254.018232
5777.479625,-2368.659014,3370.820191,7402.059420
5777.479949,-2516.700203,3983.696590,7994.224174
5777.480272,-2072.576638,3907.087040,7031.956449
5777.480596,-814.226536,3294.210641,7105.977043
5777.480919,296.082377,3370.820191,9030.512492
5777.481243,666.185348,3370.820191,9474.636058
5777.481566,518.144159,3217.601092,9252.574275
5777.481890,1850.514855,1685.410096,9252.574275
5777.482213,2368.659014,612.876398,10584.944971
5777.482536,2368.659014,1072.533697,11177.109724
5777.482860,1924.535449,766.095498,11177.109724
5777.483183,888.247130,-459.657299,10732.986159
5777.483507,1406.391290,-1302.362347,11029.068536
5777.483830,1036.288319,-1378.971896,11177.109724
5777.484154,370.102971,-1149.143247,10732.986159
5777.484477,-888.247130,-2145.067394,10584.944971
5777.484801,-740.205942,-3140.991542,10584.944971
5777.485124,-814.226536,-3983.696590,10436.903782
5777.485448,-1702.473667,-3140.991542,9474.636058
5777.485771,-3330.926739,-3370.820191,9030.512492
5777.486094,-2960.823768,-4596.572988,9474.636058
5777.486418,-2368.659014,-5056.230287,9992.780217
5777.486741,-1628.453072,-4826.401637,8216.285956
5777.487065,-1258.350101,-4749.792088,9252.574275
5777.487388,-2220.617826,-4903.011187,10140.821405
5777.487712,-1702.473667,-4826.401637,10881.027347
5777.488035,-370.102971,-4213.525239,11399.171507
5777.488359,370.102971,-2987.772442,11029.068536
5777.488682,888.247130,-2528.115143,10955.047942
5777.489006,1184.329507,-2451.505594,11251.130318
5777.489329,2220.617826,-1762.019645,12287.418637
5777.489653,3182.885551,-1149.143247,9622.677246
5777.489976,962.267725,-1072.533697,10214.842000
5777.490299,1628.453072,-1302.362347,9474.636058
5777.490623,1036.288319,-612.876398,9400.615463
5777.490946,1332.370696,229.828649,8586.388927
5777.491270,-370.102971,689.485948,8956.491898
5777.491593,-1406.391290,-383.047749,7772.162391
5777.491917,-1480.411884,0.000000,7624.121203
5777.492240,-1184.329507,1149.143247,8216.285956
5777.492564,-1480.411884,2451.505594,8290.306550
5777.492887,-2590.720797,2451.505594,8438.347739
5777.493211,-2590.720797,2757.943793,9252.574275
5777.493534,444.123565,2911.162892,8290.306550
5777.493858,-666.185348,3830.477490,7698.141797
5777.494181,-1258.350101,3983.696590,7031.956449
5777.494504,-1628.453072,3677.258390,8586.388927
5777.494828,0.000000,3677.258390,8290.306550
5777.495151,148.041188,4903.011187,8364.327145
5777.495475,-296.082377,4903.011187,9030.512492
5777.495798,-1258.350101,4060.306139,9252.574275
5777.496122,592.164754,4596.572988,9178.553681
5777.496445,2886.803174,4903.011187,8438.347739
5777.496769,1480.411884,5745.716235,9400.615463
5777.497092,370.102971,5822.325785,9992.780217
5777.497416,1850.514855,5056.230287,9992.780217
5777.497739,2886.803174,4826.401637,7179.997637
5777.498063,1480.411884,5132.839837,7624.121203
5777.498386,962.267725,4366.744339,7846.182985
5777.498709,0.000000,2681.334243,9622.677246
5777.499033,518.144159,2987.772442,7698.141797
5777.499356,1184.329507,2451.505594,7698.141797
5777.499680,-1110.308913,1838.629195,8512.368333
5777.500003,-2812.782580,1455.581446,10584.944971
5777.500327,-2516.700203,-536.266849,8956.491898
5777.500650,370.102971,-1149.143247,6883.915261
5777.500974,-518.144159,0.000000,7920.203579
5777.501297,-1554.432478,0.000000,10436.903782
5777.501621,-1036.288319,-1378.971896,11103.089130
5777.501944,666.185348,-612.876398,10362.883188
5777.502267,1036.288319,-153.219100,8956.491898
5777.502591,666.185348,-1378.971896,10436.903782
5777.502914,222.061783,-1072.533697,11621.233289
5777.503238,888.247130,-2068.457845,9992.780217
5777.503561,2368.659014,-1915.238745,9178.553681
5777.503885,0.000000,-1915.238745,10510.924376
5777.504208,-1850.514855,-3294.210641,10658.965565
5777.504532,-1184.329507,-3753.867940,11473.192101
5777.504855,-740.205942,-2987.772442,8364.327145
5777.505179,-740.205942,-3370.820191,8808.450710
5777.505502,-2738.761985,-3907.087040,10584.944971
5777.505826,-3330.926739,-2911.162892,11473.192101
5777.506149,-2072.576638,-3294.210641,9696.697840
5777.506472,-2960.823768,-3064.381992,9400.615463
5777.506796,-3108.864956,-2757.943793,9918.759623
5777.507119,-2738.761985,-3907.087040,9844.739029
5777.507443,-1924.535449,-2528.115143,8882.471304
5777.507766,-370.102971,-1915.238745,8364.327145
5777.508090,-1554.432478,-2145.067394,9326.594869
5777.508413,-2146.597232,-1762.019645,10436.903782
5777.508737,-444.123565,-536.266849,9474.636058
5777.509060,1406.391290,-306.438199,8660.409521
5777.509384,1850.514855,995.924147,8808.450710
5777.509707,2516.700203,689.485948,11325.150913
5777.510031,3256.906145,919.314598,10214.842000
5777.510354,3034.844362,1762.019645,9474.636058
5777.510677,3256.906145,1532.190996,8956.491898
5777.511001,1998.556043,1608.800546,11325.150913
5777.511324,1924.535449,2068.457845,10732.986159
5777.511648,1776.494261,2451.505594,9918.759623
5777.511971,1850.514855,2374.896044,8438.347739
5777.512295,296.082377,2298.286494,10140.821405
5777.512618,222.061783,2451.505594,9622.677246
5777.512942,-740.205942,2911.162892,9252.574275
5777.513265,-1184.329507,2834.553343,7920.203579
5777.513589,-740.205942,3140.991542,8142.265362
5777.513912,-444.123565,2987.772442,8438.347739
5777.514236,-444.123565,3217.601092,7254.018232
5777.514559,-1850.514855,3524.039291,7105.977043
5777.514882,-888.247130,3370.820191,7698.141797
5777.515206,-296.082377,3524.039291,8956.491898
5777.515529,0.000000,3524.039291,8216.285956
5777.515853,74.020594,3600.648841,8364.327145
5777.516176,-444.123565,3600.648841,8068.244768
5777.516500,1480.411884,3447.429741,7994.224174
5777.516823,1628.453072,4673.182538,9474.636058
5777.517147,962.267725,4596.572988,8808.450710
5777.517470,888.247130,3600.648841,8142.265362
5777.517794,1924.535449,3217.601092,7698.141797
5777.518117,2664.741391,3447.429741,8512.368333
5777.518440,1406.391290,3524.039291,8142.265362
5777.518764,-222.061783,2911.162892,7698.141797
5777.519087,148.041188,1608.800546,8586.388927
5777.519411,74.020594,1149.143247,8438.347739
5777.519734,-1850.514855,689.485948,9474.636058
5777.520058,-2368.659014,153.219100,8142.265362
5777.520381,-3552.988522,-1455.581446,9474.636058
5777.520705,-2294.638420,-1762.019645,8660.409521
5777.521028,-2442.679609,-1455.581446,9844.739029
5777.521352,-3108.864956,-995.924147,9178.553681
5777.521675,-3478.967927,-1991.848295,10140.821405
5777.521999,-2220.617826,-2757.943793,10732.986159
5777.522322,-1628.453072,-2604.724693,11769.274478
5777.522645,-2368.659014,-2298.286494,10955.047942
5777.522969,-2442.679609,-2681.334243,11399.171507
5777.523292,-1332.370696,-3600.648841,11991.336260
5777.523616,148.041188,-2528.115143,10807.006753
5777.523939,0.000000,-1302.362347,10658.965565
5777.524263,222.061783,-1378.971896,9992.780217
5777.524586,-962.267725,-3217.601092,9992.780217
5777.524910,-222.061783,-2757.943793,9030.512492
5777.525233,296.082377,-1915.238745,8808.450710
5777.525557,-1332.370696,-1838.629195,9696.697840
5777.525880,-2442.679609,-2068.457845,10510.924376
5777.526204,-814.226536,-3447.429741,10584.944971
5777.526527,1110.308913,-2451.505594,8808.450710
5777.526850,0.000000,-1608.800546,8882.471304
5777.527174,-1036.288319,-2221.676944,9918.759623
5777.527497,-222.061783,-1991.848295,10807.006753
5777.527821,1924.535449,-306.438199,9844.739029
5777.528144,3108.864956,1225.752797,9030.512492
5777.528468,2664.741391,1302.362347,9844.739029
5777.528791,2886.803174,1149.143247,10140.821405
5777.529115,4515.256246,1225.752797,9474.636058
5777.529438,5403.503377,2604.724693,8660.409521
5777.529761,2664.741391,2451.505594,10140.821405
5777.530085,1332.370696,1838.629195,10214.842000
5777.530408,888.247130,536.266849,9696.697840
5777.530731,1480.411884,2068.457845,7105.977043
5777.531055,0.000000,2298.286494,8512.368333
5777.531378,-1554.432478,1838.629195,9178.553681
5777.531701,-3034.844362,842.705048,9400.615463
5777.532025,-2368.659014,1455.581446,7254.018232
5777.532348,-2960.823768,3907.087040,7846.182985
5777.532671,-4885.359217,2834.553343,8290.306550
5777.532995,-5551.544565,1991.848295,8512.368333
5777.533318,-3034.844362,2987.772442,7254.018232
5777.533641,-1406.391290,3907.087040,6735.874072
5777.533965,-2072.576638,4290.134789,7624.121203
5777.534288,-2738.761985,4519.963438,9474.636058
5777.534611,-444.123565,4213.525239,9474.636058
5777.534935,1480.411884,4519.963438,7328.038826
5777.535258,2590.720797,4903.011187,7402.059420
5777.535581,2590.720797,4673.182538,9696.697840
5777.535905,2146.597232,3983.696590,10066.800811
5777.536228,3182.885551,3983.696590,9400.615463
5777.536551,3923.091493,3447.429741,7698.141797
5777.536875,1554.432478,2911.162892,9992.780217
5777.537198,0.000000,2451.505594,9696.697840
5777.537521,148.041188,1072.533697,9992.780217
5777.537845,-518.144159,766.095498,7772.162391
5777.538168,-518.144159,1225.752797,8142.265362
5777.538491,-1924.535449,0.000000,9696.697840
5777.538815,-2294.638420,-229.828649,9400.615463
5777.539138,-3108.864956,-612.876398,8512.368333
5777.539461,-2664.741391,-1532.190996,7624.121203
5777.539785,-4589.276840,-2298.286494,9918.759623
5777.540108,-4589.276840,-2451.505594,9326.594869
5777.540431,-2738.761985,-2298.286494,9696.697840
5777.540755,-2146.597232,-3140.991542,8290.306550
5777.541078,-2368.659014,-3064.381992,11177.109724
5777.541401,-1776.494261,-2987.772442,11621.233289
5777.541725,-1702.473667,-2987.772442,11325.150913
5777.542048,370.102971,-3140.991542,9622.677246
5777.542371,1850.514855,-2374.896044,11621.233289
5777.542695,3182.885551,-2221.676944,12435.459826
5777.543018,3404.947333,-1072.533697,11843.295072
5777.543341,3775.050304,-842.705048,10732.986159
5777.543665,4219.173869,-1149.143247,10584.944971
5777.543988,3404.947333,-1072.533697,11251.130318
5777.544312,2220.617826,-1302.362347,9622.677246
5777.544635,2368.659014,-1378.971896,9770.718434
5777.544958,1332.370696,-2068.457845,8956.491898
5777.545282,222.061783,-1532.190996,9474.636058
5777.545605,-370.102971,-1991.848295,9104.533087
5777.545928,-2072.576638,-1225.752797,8882.471304
5777.546252,-1776.494261,-919.314598,8586.388927
5777.546575,-1480.411884,-459.657299,9030.512492
5777.546898,-296.082377,-306.438199,8882.471304
5777.547222,-296.082377,459.657299,8068.244768
5777.547545,-1406.391290,229.828649,7476.080014
5777.547868,-1406.391290,229.828649,8290.306550
5777.548192,-814.226536,1072.533697,8808.450710
5777.548515,222.061783,1378.971896,8882.471304
5777.548838,-222.061783,1915.238745,8660.409521
5777.549162,-666.185348,1455.581446,9104.533087
5777.549485,-962.267725,1302.362347,8660.409521
5777.549808,444.123565,2221.676944,9400.615463
5777.550132,-148.041188,3064.381992,8660.409521
5777.550455,-1702.473667,2681.334243,9992.780217
5777.550778,296.082377,2911.162892,9622.677246
5777.551102,2368.659014,3830.477490,9622.677246
5777.551425,1184.329507,4519.963438,9326.594869
5777.551748,-222.061783,3447.429741,9992.780217
5777.552072,518.144159,3064.381992,10881.027347
5777.552395,814.226536,3524.039291,10584.944971
5777.552718,1702.473667,4366.744339,9400.615463
5777.553042,518.144159,3140.991542,8734.430116
5777.553365,-1258.350101,2604.724693,9178.553681
5777.553688,1628.453072,2604.724693,7920.203579
5777.554012,1184.329507,2068.457845,8438.347739
5777.554335,-444.123565,2911.162892,7031.956449
5777.554658,-1110.308913,2451.505594,8660.409521
5777.554982,-296.082377,1149.143247,8882.471304
5777.555305,296.082377,1225.752797,8068.244768
5777.555628,-1998.556043,1532.190996,8290.306550
5777.555952,-1628.453072,383.047749,7254.018232
5777.556275,-814.226536,459.657299,10140.821405
5777.556598,888.247130,1532.190996,7105.977043
5777.556922,0.000000,1685.410096,8068.244768
5777.557245,-1036.288319,1302.362347,8364.327145
5777.557568,-1554.432478,229.828649,8438.347739
5777.557892,222.061783,-536.266849,7254.018232
5777.558215,444.123565,-383.047749,7550.100608
5777.558538,-1332.370696,0.000000,9326.594869
5777.558862,-1850.514855,-1608.800546,11251.130318
5777.559185,-1258.350101,-2145.067394,11917.315666
5777.559508,-148.041188,-1915.238745,10214.842000
5777.559832,-1332.370696,-2221.676944,11473.192101
5777.560155,-1850.514855,-2068.457845,12361.439231
5777.560478,-74.020594,-1915.238745,12731.542202
5777.560802,888.247130,-1532.190996,10362.883188
5777.561125,962.267725,-1149.143247,10658.965565
5777.561448,-962.267725,-1838.629195,10288.862594
5777.561772,-1702.473667,-1991.848295,10436.903782
5777.562095,-222.061783,-1072.533697,9548.656652
5777.562418,296.082377,-766.095498,8586.388927
5777.562742,-1036.288319,-919.314598,9622.677246
5777.563065,-1258.350101,-1149.143247,9770.718434
5777.563388,-1924.535449,-1608.800546,10140.821405
5777.563712,-1406.391290,-1149.143247,8290.306550
5777.564035,-2220.617826,-1149.143247,9918.759623
5777.564358,-1998.556043,-1378.971896,9252.574275
5777.564682,-1554.432478,-842.705048,9844.739029
5777.565005,222.061783,689.485948,7698.141797
5777.565328,518.144159,995.924147,8808.450710
5777.565652,-222.061783,766.095498,9548.656652
5777.565975,666.185348,612.876398,8956.491898
5777.566298,2368.659014,1608.800546,8808.450710
5777.566622,3404.947333,2834.553343,7402.059420
5777.566945,3108.864956,3217.601092,9474.636058
5777.567268,2886.803174,2911.162892,10214.842000
5777.567592,3849.070898,3524.039291,9474.636058
5777.567915,3923.091493,2374.896044,6513.812290
5777.568238,2590.720797,2528.115143,9474.636058
5777.568562,370.102971,1991.848295,10807.006753
5777.568885,-518.144159,1762.019645,10510.924376
5777.569208,-148.041188,1991.848295,9918.759623
5777.569532,-814.226536,2374.896044,8364.327145
5777.569855,-2368.659014,1072.533697,9770.718434
5777.570178,-1184.329507,1378.971896,8142.265362
5777.570502,-1480.411884,2298.286494,9178.553681
5777.570825,-1628.453072,2374.896044,6735.874072
5777.571148,-1850.514855,2068.457845,9474.636058
5777.571472,-962.267725,1762.019645,8216.285956
5777.571795,-740.205942,1991.848295,7328.038826
5777.572118,-518.144159,2451.505594,5995.668130
5777.572442,592.164754,1685.410096,8068.244768
5777.572765,1036.288319,1378.971896,8586.388927
5777.573088,740.205942,919.314598,8512.368333
5777.573412,666.185348,1225.752797,9104.533087
5777.573735,666.185348,766.095498,9252.574275
5777.574058,-518.144159,766.095498,11029.068536
5777.574382,1036.288319,1225.752797,9548.656652
5777.574705,1480.411884,1378.971896,9918.759623
5777.575028,1332.370696,1149.143247,9178.553681
5777.575352,1332.370696,1072.533697,10288.862594
5777.575675,962.267725,153.219100,10214.842000
5777.575998,666.185348,0.000000,8734.430116
5777.576322,-962.267725,0.000000,9030.512492
5777.576645,-1480.411884,-995.924147,9400.615463
5777.576968,-2368.659014,-536.266849,11177.109724
5777.577292,-3627.009116,-1685.410096,9400.615463
5777.577615,-3404.947333,-2834.553343,8660.409521
5777.577938,-4737.318029,-3064.381992,9400.615463
5777.578262,-4737.318029,-2528.115143,10510.924376
5777.578585,-3701.029710,-2604.724693,11251.130318
5777.578908,-4663.297435,-1838.629195,9918.759623
5777.579232,-3034.844362,-1302.362347,10732.986159
5777.579555,-1480.411884,-1532.190996,10658.965565
5777.579878,-888.247130,-536.266849,11547.212695
5777.580202,592.164754,306.438199,9252.574275
5777.580525,814.226536,-612.876398,9474.636058
5777.580848,2294.638420,0.000000,9992.780217
5777.581172,2516.700203,459.657299,10362.883188
5777.581495,2812.782580,459.657299,9474.636058
5777.581818,1850.514855,459.657299,9548.656652
5777.582142,2072.576638,-1225.752797,9844.739029
5777.582465,3034.844362,229.828649,8512.368333
5777.582788,2072.576638,1378.971896,9622.677246
5777.583112,888.247130,1991.848295,9474.636058
5777.583435,296.082377,995.924147,9992.780217
5777.583758,2072.576638,1762.019645,8142.265362
5777.584082,2590.720797,2145.067394,7772.162391
5777.584405,1184.329507,2681.334243,6217.729913
5777.584728,74.020594,2374.896044,8142.265362
5777.585052,814.226536,1532.190996,7846.182985
5777.585375,296.082377,1762.019645,7550.100608
5777.585698,0.000000,1838.629195,7550.100608
5777.586022,-1628.453072,1762.019645,9178.553681
5777.586345,-2146.597232,1455.581446,10140.821405
5777.586668,-592.164754,1378.971896,9178.553681
5777.586992,-592.164754,1762.019645,9104.533087
5777.587315,-1850.514855,1915.238745,9400.615463
5777.587638,-1776.494261,1225.752797,10436.903782
5777.587962,1258.350101,1455.581446,9474.636058
5777.588285,2294.638420,2374.896044,7994.224174
5777.588608,888.247130,3447.429741,8068.244768
5777.588932,666.185348,2451.505594,9696.697840
5777.589255,1184.329507,2145.067394,10140.821405
5777.589578,2738.761985,2451.505594,7624.121203
5777.589902,1998.556043,2145.067394,9178.553681
5777.590225,518.144159,1072.533697,8734.430116
5777.590548,-370.102971,229.828649,10584.944971
5777.590872,518.144159,459.657299,9104.533087
5777.591195,-370.102971,229.828649,8660.409521
5777.591518,-1480.411884,229.828649,8660.409521
5777.591842,-2072.576638,383.047749,10214.842000
5777.592165,-370.102971,459.657299,10362.883188
5777.592488,814.226536,689.485948,8438.347739
5777.592812,-1110.308913,-306.438199,9252.574275
5777.593135,-3552.988522,-1225.752797,10881.027347
5777.593458,-3627.009116,-919.314598,10140.821405
5777.593782,-2886.803174,-229.828649,9474.636058
5777.594105,-2442.679609,-612.876398,9326.594869
5777.594428,-3552.988522,-1762.019645,9400.615463
5777.594752,-3108.864956,-1915.238745,8956.491898
5777.595075,-2220.617826,-689.485948,9474.636058
5777.595398,-2368.659014,-229.828649,8364.327145
5777.595722,-3478.967927,-1762.019645,9844.739029
5777.596045,-2590.720797,-1072.533697,8882.471304
5777.596368,-1776.494261,-842.705048,10807.006753
5777.596692,-592.164754,0.000000,7994.224174
5777.597015,-1406.391290,-459.657299,10955.047942
5777.597338,-1258.350101,-842.705048,10658.965565
5777.597662,-740.205942,0.000000,11251.130318
5777.597985,592.164754,153.219100,9104.533087
5777.598308,1776.494261,306.438199,9548.656652
5777.598632,740.205942,229.828649,10288.862594
5777.598955,1406.391290,76.609550,10362.883188
5777.599278,2368.659014,459.657299,8660.409521
5777.599602,1998.556043,1455.581446,8290.306550
5777.599925,1776.494261,2221.676944,9992.780217
5777.600248,2590.720797,1149.143247,9844.739029
5777.600572,2294.638420,995.924147,8068.244768
5777.600895,1850.514855,1838.629195,6661.853478
5777.601218,962.267725,842.705048,9622.677246
5777.601542,0.000000,995.924147,9474.636058
5777.601865,0.000000,1455.581446,9326.594869
5777.602188,222.061783,1149.143247,7105.977043
5777.602512,-296.082377,1455.581446,7624.121203
5777.602835,-222.061783,76.609550,7772.162391
5777.603158,296.082377,2145.067394,7624.121203
5777.603482,592.164754,2298.286494,9030.512492
5777.603805,1184.329507,2451.505594,7846.182985
5777.604128,1258.350101,2221.676944,10436.903782
5777.604452,1184.329507,2451.505594,10066.800811
5777.604775,1332.370696,2528.115143,9104.533087
5777.605098,2072.576638,2145.067394,9326.594869
5777.605422,1702.473667,2374.896044,10140.821405
5777.605745,0.000000,2068.457845,11251.130318
5777.606068,74.020594,1762.019645,9474.636058
5777.606392,518.144159,1378.971896,9844.739029
5777.606715,0.000000,1149.143247,8586.388927
5777.607038,-1036.288319,1072.533697,11029.068536
5777.607362,-962.267725,842.705048,10510.924376
5777.607685,-592.164754,536.266849,9770.718434
5777.608008,-962.267725,536.266849,8290.306550
5777.608332,-1036.288319,153.219100,8882.471304
5777.608655,-444.123565,153.219100,9844.739029
5777.608978,-1406.391290,766.095498,7698.141797
5777.609302,-814.226536,-612.876398,8290.306550
5777.609625,148.041188,-689.485948,7550.100608
5777.609948,-1554.432478,0.000000,8364.327145
5777.610272,-1258.350101,-229.828649,7476.080014
5777.610595,-2220.617826,-919.314598,8808.450710
5777.610918,-2146.597232,-1608.800546,8438.347739
5777.611242,444.123565,-1915.238745,8142.265362
5777.611565,0.000000,-1608.800546,8364.327145
5777.611888,0.000000,-1149.143247,8586.388927
5777.612212,518.144159,-2451.505594,9622.677246
5777.612535,2368.659014,-1915.238745,9844.739029
5777.612858,3478.967927,-842.705048,9770.718434
5777.613182,1184.329507,-1685.410096,9918.759623
5777.613505,-740.205942,-2451.505594,11843.295072
5777.613828,370.102971,-3447.429741,10362.883188
5777.614152,592.164754,-2528.115143,11103.089130
5777.614475,74.020594,-2298.286494,9918.759623
5777.614798,-1258.350101,-2911.162892,11325.150913
5777.615122,-2368.659014,-3294.210641,11621.233289
5777.615445,148.041188,-2604.724693,10955.047942
5777.615768,666.185348,-2604.724693,9104.533087
5777.616092,0.000000,-2145.067394,9474.636058
5777.616415,592.164754,-1915.238745,10584.944971
5777.616738,2368.659014,-1991.848295,9992.780217
5777.617062,3701.029710,-536.266849,9104.533087
5777.617385,2812.782580,-306.438199,9252.574275
5777.617708,2220.617826,-1378.971896,10288.862594
5777.618032,2590.720797,-1532.190996,9918.759623
5777.618355,5033.400406,-383.047749,8660.409521
5777.618678,5477.523971,229.828649,8364.327145
5777.619002,3627.009116,-229.828649,9326.594869
5777.619325,3108.864956,-306.438199,8734.430116
5777.619648,3627.009116,-76.609550,7624.121203
5777.619972,4737.318029,842.705048,6069.688724
5777.620295,4145.153275,842.705048,7105.977043
5777.620618,2812.782580,229.828649,9326.594869
5777.620942,3330.926739,689.485948,9030.512492
5777.621265,2664.741391,842.705048,7550.100608
5777.621588,2812.782580,689.485948,7402.059420
5777.621912,2590.720797,0.000000,9104.533087
5777.622235,1480.411884,-383.047749,9548.656652
5777.622558,1776.494261,0.000000,9252.574275
5777.622882,1480.411884,-612.876398,9326.594869
5777.623205,0.000000,-459.657299,9696.697840
5777.623528,296.082377,-919.314598,10807.006753
5777.623852,814.226536,-1225.752797,10955.047942
5777.624175,888.247130,76.609550,10288.862594
5777.624498,2368.659014,-153.219100,10807.006753
5777.624822,2738.761985,-229.828649,11177.109724
5777.625145,3478.967927,459.657299,10066.800811
5777.625468,3182.885551,306.438199,8808.450710
5777.625792,2886.803174,-612.876398,9030.512492
5777.626115,3256.906145,-459.657299,8956.491898
5777.626438,3108.864956,-306.438199,8882.471304
5777.626762,1998.556043,-689.485948,9252.574275
5777.627085,-518.144159,-1915.238745,9992.780217
5777.627408,-814.226536,-2757.943793,9770.718434
5777.627732,-518.144159,-2604.724693,9548.656652
5777.628055,-370.102971,-2221.676944,9400.615463
5777.628378,-740.205942,-2451.505594,9030.512492
5777.628702,-1332.370696,-2757.943793,8956.491898
5777.629025,740.205942,-2681.334243,8882.471304
5777.629348,2072.576638,-1455.581446,6587.832884
5777.629672,2072.576638,-1685.410096,5773.606348
5777.629995,1702.473667,-2451.505594,7624.121203
5777.630318,1998.556043,-2911.162892,7476.080014
5777.630642,3034.844362,-2528.115143,7476.080014
5777.630965,2886.803174,-2987.772442,8882.471304
5777.631288,1850.514855,-3064.381992,10584.944971
5777.631612,2072.576638,-4443.353888,10510.924376
5777.631935,2072.576638,-3907.087040,11769.274478
5777.632258,2442.679609,-2604.724693,11621.233289
5777.632581,2664.741391,-3140.991542,11991.336260
5777.632905,2220.617826,-3447.429741,12953.603985
5777.633228,3182.885551,-2911.162892,12213.398043
5777.633551,5255.462188,-2451.505594,9696.697840
5777.633875,4811.338623,-2451.505594,8512.368333
5777.634198,3034.844362,-2451.505594,10732.986159
5777.634521,1776.494261,-2911.162892,10140.821405
5777.634844,2368.659014,-3140.991542,8956.491898
5777.635168,1406.391290,-3064.381992,9104.533087
5777.635491,-296.082377,-2987.772442,11399.171507
5777.635814,-1258.350101,-2911.162892,10732.986159
5777.636138,740.205942,-2987.772442,9696.697840
5777.636461,814.226536,-1991.848295,9326.594869
5777.636784,370.102971,-1838.629195,9474.636058
5777.637107,740.205942,-1685.410096,10955.047942
5777.637431,2516.700203,-842.705048,9992.780217
5777.637754,2664.741391,-76.609550,8734.430116
5777.638077,3034.844362,-536.266849,7772.162391
5777.638401,4515.256246,-153.219100,7846.182985
5777.638724,5625.565159,306.438199,7031.956449
5777.639047,5255.462188,612.876398,7698.141797
5777.639371,3923.091493,383.047749,8290.306550
5777.639694,2368.659014,76.609550,8068.244768
5777.640017,2590.720797,0.000000,8512.368333
5777.640340,2220.617826,-689.485948,8438.347739
5777.640664,74.020594,-689.485948,8734.430116
5777.640987,-592.164754,-153.219100,9474.636058
5777.641310,962.267725,-306.438199,9400.615463
5777.641634,1406.391290,-306.438199,9030.512492
5777.641957,-296.082377,-459.657299,8216.285956
5777.642280,-1258.350101,-689.485948,8734.430116
5777.642603,0.000000,-766.095498,8512.368333
5777.642927,1332.370696,-536.266849,7994.224174
5777.643250,1702.473667,0.000000,8068.244768
5777.643573,148.041188,-612.876398,9474.636058
5777.643897,-592.164754,-1378.971896,9770.718434
5777.644220,1628.453072,-1302.362347,9696.697840
5777.644543,2664.741391,-1225.752797,9252.574275
5777.644866,2738.761985,-383.047749,9918.759623
5777.645190,2960.823768,-1378.971896,11769.274478
5777.645513,3775.050304,-1991.848295,11473.192101
5777.645836,3552.988522,-1225.752797,10140.821405
5777.646160,2812.782580,-1378.971896,9918.759623
5777.646483,2738.761985,-2298.286494,11547.212695
5777.646806,2368.659014,-1608.800546,11325.150913
5777.647130,2960.823768,-1762.019645,9030.512492
5777.647453,2886.803174,-842.705048,8586.388927
5777.647776,1850.514855,-1149.143247,9178.553681
5777.648099,1924.535449,-1915.238745,9030.512492
5777.648423,2738.761985,-1915.238745,7476.080014
5777.648746,3627.009116,-2145.067394,6439.791695
5777.649069,2886.803174,-2374.896044,7550.100608
5777.649393,1702.473667,-2834.553343,8956.491898
5777.649716,1258.350101,-3447.429741,9696.697840
5777.650039,0.000000,-3524.039291,9326.594869
5777.650362,-296.082377,-3447.429741,10658.965565
5777.650686,0.000000,-3370.820191,12139.377449
5777.651009,814.226536,-2451.505594,12065.356855
5777.651332,2442.679609,-1838.629195,10436.903782
5777.651656,2220.617826,-2145.067394,9400.615463
5777.651979,2146.597232,-2528.115143,9622.677246
5777.652302,2516.700203,-1149.143247,9326.594869
5777.652625,3627.009116,-766.095498,7550.100608
5777.652949,3701.029710,-995.924147,6809.894666
5777.653272,3775.050304,-1608.800546,6883.915261
5777.653595,3404.947333,-2451.505594,7772.162391
5777.653919,3849.070898,-2451.505594,7920.203579
5777.654242,1850.514855,-3064.381992,8586.388927
5777.654565,0.000000,-2528.115143,10881.027347
5777.654889,-1184.329507,-3217.601092,13175.665768
5777.655212,-814.226536,-2451.505594,12657.521608
5777.655535,0.000000,-1532.190996,12065.356855
5777.655858,-370.102971,-919.314598,11695.253884
5777.656182,0.000000,-995.924147,11695.253884
5777.656505,1702.473667,689.485948,9400.615463
5777.656828,3478.967927,995.924147,7698.141797
5777.657152,3256.906145,1072.533697,5699.585753
5777.657475,2442.679609,229.828649,6439.791695
5777.657798,3256.906145,0.000000,6439.791695
5777.658121,3404.947333,-612.876398,6217.729913
5777.658445,1776.494261,-766.095498,7105.977043
5777.658768,444.123565,-1532.190996,9548.656652
5777.659091,-814.226536,-2145.067394,11399.171507
5777.659415,-592.164754,-1532.190996,11177.109724
5777.659738,74.020594,-1072.533697,11029.068536
5777.660061,-148.041188,-842.705048,11399.171507
5777.660384,814.226536,-689.485948,10807.006753
5777.660708,2886.803174,229.828649,8734.430116
5777.661031,3701.029710,1225.752797,6291.750507
5777.661354,4663.297435,1149.143247,5551.544565
5777.661678,4663.297435,0.000000,6217.729913
5777.662001,5625.565159,-459.657299,6291.750507
5777.662324,4959.379811,-766.095498,6661.853478
5777.662648,3108.864956,-1532.190996,8438.347739
5777.662971,1628.453072,-2221.676944,10807.006753
5777.663294,888.247130,-2757.943793,11917.315666
5777.663617,888.247130,-2451.505594,12139.377449
5777.663941,370.102971,-3140.991542,11843.295072
5777.664264,-666.185348,-2528.115143,12731.542202
5777.664587,814.226536,-2068.457845,11991.336260
5777.664911,1554.432478,-1685.410096,10288.862594
5777.665234,1184.329507,-1225.752797,8438.347739
5777.665557,2146.597232,-612.876398,8586.388927
5777.665880,2220.617826,-842.705048,8216.285956
5777.666204,2812.782580,-842.705048,8808.450710
5777.666527,814.226536,-1225.752797,8882.471304
5777.666850,0.000000,-1762.019645,10066.800811
5777.667174,-370.102971,-1915.238745,11917.315666
5777.667497,-370.102971,-995.924147,11621.233289
5777.667820,-148.041188,-689.485948,11621.233289
5777.668143,-1702.473667,-995.924147,10955.047942
5777.668467,-2368.659014,-1302.362347,11103.089130
5777.668790,-1036.288319,-1685.410096,8882.471304
5777.669113,-592.164754,-995.924147,7254.018232
5777.669437,-370.102971,-689.485948,5921.647536
5777.669760,-370.102971,-689.485948,6291.750507
5777.670083,1258.350101,-995.924147,5995.668130
5777.670407,2738.761985,0.000000,5477.523971
5777.670730,1702.473667,0.000000,5551.544565
5777.671053,1110.308913,-766.095498,8438.347739
5777.671376,888.247130,-536.266849,10732.986159
5777.671700,1628.453072,76.609550,10066.800811
5777.672023,2368.659014,0.000000,9400.615463
5777.672346,1332.370696,0.000000,10658.965565
5777.672670,666.185348,306.438199,10584.944971
5777.672993,2368.659014,0.000000,9474.636058
5777.673316,3923.091493,842.705048,6883.915261
5777.673639,4515.256246,0.000000,6957.935855
5777.673963,4293.194464,-383.047749,8216.285956
5777.674286,5551.544565,-459.657299,8808.450710
5777.674609,7031.956449,0.000000,8068.244768
5777.674933,6661.853478,-995.924147,8438.347739
5777.675256,6661.853478,-1608.800546,10066.800811
5777.675579,6587.832884,-1991.848295,10955.047942
5777.675902,7105.977043,-2068.457845,10807.006753
5777.676226,7105.977043,-1915.238745,10955.047942
5777.676549,4737.318029,-2681.334243,11621.233289
5777.676872,4145.153275,-3217.601092,11917.315666
5777.677196,3923.091493,-3140.991542,11103.089130
5777.677519,3330.926739,-2834.553343,10214.842000
5777.677842,2368.659014,-2757.943793,9918.759623
5777.678166,2294.638420,-3830.477490,9918.759623
5777.678489,3108.864956,-3830.477490,8882.471304
5777.678812,2516.700203,-3830.477490,7698.141797
5777.679135,1332.370696,-4519.963438,7920.203579
5777.679459,148.041188,-5592.497135,9844.739029
5777.679782,-962.267725,-4979.620737,9844.739029
5777.680105,-1184.329507,-5362.668486,10362.883188
5777.680429,-2516.700203,-4673.182538,10436.903782
5777.680752,-3701.029710,-5209.449386,11843.295072
5777.681075,-2220.617826,-4213.525239,11843.295072
5777.681398,-518.144159,-3064.381992,11177.109724
5777.681722,518.144159,-2604.724693,9918.759623
5777.682045,962.267725,-2221.676944,9622.677246
5777.682368,2368.659014,-2604.724693,9696.697840
5777.682692,3701.029710,-1225.752797,8364.327145
5777.683015,3849.070898,-995.924147,7105.977043
5777.683338,3552.988522,-1302.362347,7772.162391
5777.683661,3404.947333,-1991.848295,8660.409521
5777.683985,2590.720797,-1302.362347,8808.450710
5777.684308,1480.411884,-1225.752797,9400.615463
5777.684631,-518.144159,-1225.752797,10214.842000
5777.684955,-2812.782580,-1225.752797,11843.295072
5777.685278,-2590.720797,-842.705048,11843.295072
5777.685601,-2072.576638,76.609550,10214.842000
5777.685925,-1702.473667,229.828649,8068.244768
5777.686248,-1332.370696,306.438199,8290.306550
5777.686571,148.041188,536.266849,7476.080014
5777.686894,1554.432478,842.705048,5625.565159
5777.687218,1480.411884,842.705048,4663.297435
5777.687541,1924.535449,229.828649,5921.647536
5777.687864,1776.494261,-76.609550,7179.997637
5777.688188,1776.494261,-153.219100,8142.265362
5777.688511,1776.494261,306.438199,9400.615463
5777.688834,1036.288319,612.876398,11177.109724
5777.689157,740.205942,919.314598,12657.521608
5777.689481,3478.967927,2068.457845,12805.562797
5777.689804,4737.318029,2987.772442,11621.233289
5777.690127,5625.565159,3370.820191,10214.842000
5777.690451,7179.997637,3370.820191,9474.636058
5777.690774,9252.574275,2911.162892,6735.874072
5777.691097,9844.739029,2604.724693,4737.318029
5777.691420,7476.080014,1685.410096,4737.318029
5777.691744,5551.544565,0.000000,6809.894666
5777.692067,3849.070898,-612.876398,7698.141797
5777.692390,4071.132681,-1072.533697,8216.285956
5777.692714,2590.720797,-2221.676944,9548.656652
5777.693037,296.082377,-2987.772442,11621.233289
5777.693360,370.102971,-2604.724693,12731.542202
5777.693683,1628.453072,-1762.019645,11251.130318
5777.694007,1480.411884,-1608.800546,9696.697840
5777.694330,-222.061783,-2451.505594,10066.800811
5777.694653,592.164754,-2987.772442,9622.677246
5777.694977,2368.659014,-2834.553343,7772.162391
5777.695300,2664.741391,-2604.724693,6439.791695
5777.695623,2072.576638,-3370.820191,8364.327145
5777.695947,1110.308913,-5515.887586,10658.965565
5777.696270,1480.411884,-5209.449386,10881.027347
5777.696593,1628.453072,-4979.620737,10658.965565
5777.696916,-370.102971,-5822.325785,13249.686362
5777.697240,-2368.659014,-6052.154434,14508.036463
5777.697563,-740.205942,-5669.106685,14137.933492
5777.697886,666.185348,-4673.182538,11103.089130
5777.698210,740.205942,-3370.820191,9696.697840
5777.698533,666.185348,-3677.258390,9474.636058
5777.698856,1776.494261,-3907.087040,8882.471304
5777.699179,2516.700203,-2911.162892,7698.141797
5777.699503,740.205942,-1915.238745,7624.121203
5777.699826,444.123565,-2451.505594,8586.388927
5777.700149,1036.288319,-2528.115143,9400.615463
5777.700473,148.041188,-2451.505594,9178.553681
5777.700796,1258.350101,-1378.971896,8808.450710
5777.701119,888.247130,-2451.505594,8586.388927
5777.701442,0.000000,-2911.162892,10140.821405
5777.701766,-592.164754,-2451.505594,10066.800811
5777.702089,74.020594,-2221.676944,8660.409521
5777.702412,444.123565,-2145.067394,7402.059420
5777.702736,814.226536,-1149.143247,8660.409521
5777.703059,1924.535449,-1378.971896,8660.409521
5777.703382,2368.659014,-689.485948,7698.141797
5777.703706,1480.411884,0.000000,8586.388927
5777.704029,1184.329507,306.438199,10214.842000
5777.704352,1702.473667,612.876398,10584.944971
5777.704675,2516.700203,995.924147,9770.718434
5777.704999,4145.153275,1378.971896,9104.533087
5777.705322,3849.070898,536.266849,8808.450710
5777.705645,3404.947333,0.000000,9400.615463
5777.705969,3478.967927,995.924147,9770.718434
5777.706292,4441.235652,919.314598,7476.080014
5777.706615,4515.256246,459.657299,7994.224174
5777.706938,4367.215058,459.657299,9400.615463
5777.707262,5625.565159,383.047749,9474.636058
5777.707585,5329.482782,229.828649,8438.347739
5777.707908,4219.173869,1302.362347,9178.553681
5777.708232,3552.988522,0.000000,11547.212695
5777.708555,3256.906145,-1072.533697,10140.821405
5777.708878,3478.967927,-229.828649,10288.862594
5777.709201,3330.926739,0.000000,8956.491898
5777.709525,1554.432478,-1302.362347,9770.718434
5777.709848,1628.453072,-612.876398,8808.450710
5777.710171,2516.700203,-995.924147,7772.162391
5777.710495,1850.514855,-1608.800546,6291.750507
5777.710818,1406.391290,-1608.800546,7698.141797
5777.711141,1480.411884,-1915.238745,8364.327145
5777.711465,1702.473667,-2221.676944,8660.409521
5777.711788,666.185348,-2451.505594,8586.388927
5777.712111,-296.082377,-3217.601092,9178.553681
5777.712434,148.041188,-3064.381992,11325.150913
5777.712758,222.061783,-1838.629195,10955.047942
5777.713081,592.164754,-1762.019645,11029.068536
5777.713404,222.061783,-3140.991542,11029.068536
5777.713728,0.000000,-3064.381992,11029.068536
5777.714051,888.247130,-2757.943793,10362.883188
5777.714374,1036.288319,-2451.505594,10510.924376
5777.714697,592.164754,-1302.362347,9474.636058
5777.715021,222.061783,-1915.238745,10436.903782
5777.715344,1776.494261,-1685.410096,9474.636058
5777.715667,1184.329507,-1915.238745,9178.553681
5777.715991,148.041188,-1608.800546,8586.388927
5777.716314,0.000000,-2374.896044,9548.656652
5777.716637,-592.164754,-2834.553343,9992.780217
5777.716960,-740.205942,-2374.896044,9326.594869
5777.717284,-1702.473667,-1762.019645,9326.594869
5777.717607,-1998.556043,-1915.238745,9326.594869
5777.717930,-2220.617826,-2374.896044,9918.759623
5777.718254,-888.247130,-2145.067394,9474.636058
5777.718577,444.123565,-842.705048,8586.388927
5777.718900,74.020594,306.438199,9400.615463
5777.719224,1628.453072,383.047749,9622.677246
5777.719547,3923.091493,536.266849,8660.409521
5777.719870,4589.276840,1762.019645,7254.018232
5777.720193,4367.215058,1762.019645,7698.141797
5777.720517,3849.070898,919.314598,10214.842000
5777.720840,4071.132681,1225.752797,9474.636058
5777.721163,5033.400406,766.095498,9326.594869
5777.721487,3404.947333,612.876398,8438.347739
5777.721810,74.020594,306.438199,11251.130318
5777.722133,-370.102971,459.657299,10955.047942
5777.722456,296.082377,766.095498,10288.862594
5777.722780,296.082377,1455.581446,9104.533087
5777.723103,-370.102971,1378.971896,8660.409521
5777.723426,-1998.556043,1302.362347,11103.089130
5777.723750,-740.205942,2604.724693,8438.347739
5777.724073,0.000000,2451.505594,7105.977043
5777.724396,-518.144159,1608.800546,7476.080014
5777.724719,-1480.411884,1532.190996,9918.759623
5777.725043,-1628.453072,2068.457845,9326.594869
5777.725366,592.164754,2451.505594,7624.121203
5777.725689,518.144159,1838.629195,7624.121203
5777.726013,-1480.411884,919.314598,8882.471304
5777.726336,-1850.514855,842.705048,9918.759623
5777.726659,-888.247130,689.485948,7179.997637
5777.726983,296.082377,1225.752797,8364.327145
5777.727306,-962.267725,1149.143247,8956.491898
5777.727629,-1036.288319,766.095498,11029.068536
5777.727952,148.041188,766.095498,8734.430116
5777.728276,222.061783,1225.752797,7698.141797
5777.728599,0.000000,153.219100,8734.430116
5777.728922,-1036.288319,689.485948,9918.759623
5777.729246,-2146.597232,383.047749,10955.047942
5777.729569,-814.226536,459.657299,7846.182985
5777.729892,-1258.350101,-612.876398,9104.533087
5777.730214,-2072.576638,-536.266849,8956.491898
5777.730538,-2664.741391,-689.485948,10955.047942
5777.730861,-2664.741391,-995.924147,8068.244768
5777.731185,-1480.411884,-1225.752797,9252.574275
5777.731508,-2220.617826,-766.095498,10658.965565
5777.731831,-2368.659014,-919.314598,11251.130318
5777.732155,-962.267725,-229.828649,11177.109724
5777.732478,-666.185348,383.047749,9474.636058
5777.732802,296.082377,0.000000,11769.274478
5777.733125,1036.288319,995.924147,11325.150913
5777.733448,814.226536,1072.533697,12287.418637
5777.733772,1702.473667,536.266849,8512.368333
5777.734095,1702.473667,-689.485948,8808.450710
5777.734419,2072.576638,229.828649,8512.368333
5777.734742,2960.823768,1838.629195,9252.574275
5777.735066,1628.453072,1838.629195,8956.491898
5777.735389,2294.638420,2451.505594,7920.203579
5777.735712,3182.885551,1072.533697,8734.430116
5777.736036,2812.782580,1225.752797,7772.162391
5777.736359,1776.494261,2604.724693,8216.285956
5777.736683,814.226536,1685.410096,8142.265362
5777.737006,1036.288319,689.485948,9548.656652
5777.737329,222.061783,689.485948,9104.533087
5777.737653,-444.123565,1072.533697,8068.244768
5777.737976,-222.061783,1072.533697,8142.265362
5777.738300,-888.247130,306.438199,8068.244768
5777.738623,1110.308913,995.924147,8586.388927
5777.738946,666.185348,1149.143247,8660.409521
5777.739270,-1480.411884,1532.190996,10066.800811
5777.739593,-1702.473667,1225.752797,9178.553681
5777.739917,1776.494261,1378.971896,9030.512492
5777.740240,1924.535449,1991.848295,9474.636058
5777.740563,0.000000,2145.067394,9548.656652
5777.740887,-1776.494261,995.924147,9696.697840
5777.741210,-444.123565,76.609550,10140.821405
5777.741534,-1850.514855,612.876398,11251.130318
5777.741857,-2590.720797,306.438199,9622.677246
5777.742180,-4071.132681,-306.438199,9844.739029
5777.742504,-2960.823768,536.266849,9770.718434
5777.742827,-1998.556043,536.266849,10807.006753
5777.743151,-1702.473667,842.705048,9548.656652
5777.743474,-3923.091493,612.876398,9992.780217
5777.743797,-3034.844362,383.047749,8882.471304
5777.744121,-1332.370696,536.266849,9252.574275
5777.744444,666.185348,1608.800546,7772.162391
5777.744768,-888.247130,1991.848295,7624.121203
5777.745091,-1406.391290,0.000000,8512.368333
5777.745414,-1036.288319,-1149.143247,8660.409521
5777.745738,-444.123565,0.000000,7698.141797
5777.746061,-444.123565,612.876398,8290.306550
5777.746385,-2294.638420,-383.047749,9548.656652
5777.746708,-2442.679609,-995.924147,9992.780217
5777.747031,-370.102971,-842.705048,9178.553681
5777.747355,-740.205942,689.485948,9030.512492
5777.747678,-1332.370696,459.657299,9548.656652
5777.748002,-1480.411884,0.000000,10732.986159
5777.748325,888.247130,-383.047749,9622.677246
5777.748649,2146.597232,229.828649,8216.285956
5777.748972,740.205942,995.924147,8364.327145
5777.749295,0.000000,0.000000,11399.171507
5777.749619,296.082377,0.000000,10066.800811
5777.749942,2220.617826,536.266849,8734.430116
5777.750266,2516.700203,842.705048,7994.224174
5777.750589,-518.144159,306.438199,10955.047942
5777.750912,-148.041188,229.828649,11325.150913
5777.751236,1628.453072,0.000000,10362.883188
5777.751559,1998.556043,842.705048,9178.553681
5777.751883,2072.576638,1378.971896,9770.718434
5777.752206,2220.617826,1685.410096,11695.253884
5777.752529,3775.050304,2374.896044,8956.491898
5777.752853,4737.318029,2451.505594,8142.265362
5777.753176,2960.823768,1991.848295,8512.368333
5777.753500,1628.453072,2145.067394,10881.027347
5777.753823,3478.967927,2221.676944,7476.080014
5777.754146,2442.679609,1302.362347,9252.574275
5777.754470,2590.720797,1838.629195,5477.523971
5777.754793,-1184.329507,0.000000,9474.636058
5777.755117,-1258.350101,842.705048,7328.038826
5777.755440,-888.247130,919.314598,9178.553681
5777.755763,-1036.288319,459.657299,6661.853478
5777.756087,-2664.741391,-383.047749,9030.512492
5777.756410,-1628.453072,536.266849,8586.388927
5777.756734,-1258.350101,612.876398,8956.491898
5777.757057,-1554.432478,1302.362347,8068.244768
5777.757380,-2220.617826,536.266849,9844.739029
5777.757704,-2442.679609,76.609550,10066.800811
5777.758027,-1554.432478,766.095498,9474.636058
5777.758351,-666.185348,995.924147,8956.491898
5777.758674,-1628.453072,689.485948,9844.739029
5777.758997,-2960.823768,995.924147,11103.089130
5777.759321,-2590.720797,0.000000,10732.986159
5777.759644,-1776.494261,0.000000,8956.491898
5777.759968,-2516.700203,459.657299,9844.739029
5777.760291,-2294.638420,459.657299,10732.986159
5777.760615,-2368.659014,-153.219100,11547.212695
5777.760938,-1480.411884,229.828649,8882.471304
5777.761261,-1184.329507,536.266849,8586.388927
5777.761585,-1110.308913,612.876398,10732.986159
5777.761908,-2368.659014,306.438199,10140.821405
5777.762232,-2146.597232,842.705048,9770.718434
5777.762555,-148.041188,383.047749,7254.018232
5777.762878,-666.185348,0.000000,8142.265362
5777.763202,-1258.350101,229.828649,8956.491898
5777.763525,-1628.453072,689.485948,9104.533087
5777.763849,-1406.391290,0.000000,6883.915261
5777.764172,370.102971,0.000000,6661.853478
5777.764495,1924.535449,919.314598,8438.347739
5777.764819,1628.453072,995.924147,10288.862594
5777.765142,1110.308913,306.438199,9474.636058
5777.765466,888.247130,0.000000,9326.594869
5777.765789,2368.659014,0.000000,9548.656652
5777.766112,962.267725,0.000000,11029.068536
5777.766436,518.144159,-306.438199,10140.821405
5777.766759,666.185348,-995.924147,9252.574275
5777.767083,1628.453072,-1302.362347,8808.450710
5777.767406,2590.720797,0.000000,9474.636058
5777.767729,1776.494261,689.485948,9696.697840
5777.768053,1258.350101,536.266849,8808.450710
5777.768376,1998.556043,995.924147,8808.450710
5777.768700,3478.967927,1225.752797,9770.718434
5777.769023,3256.906145,1838.629195,9992.780217
5777.769346,1998.556043,1685.410096,9918.759623
5777.769670,1036.288319,919.314598,9844.739029
5777.769993,1554.432478,229.828649,10584.944971
5777.770317,2220.617826,1149.143247,9104.533087
5777.770640,1924.535449,1072.533697,8808.450710
5777.770963,296.082377,76.609550,9178.553681
5777.771287,0.000000,-995.924147,10658.965565
5777.771610,740.205942,0.000000,10584.944971
5777.771934,0.000000,766.095498,9992.780217
5777.772257,-592.164754,919.314598,9844.739029
5777.772580,-1036.288319,383.047749,10066.800811
5777.772904,-592.164754,1072.533697,9030.512492
5777.773227,592.164754,1072.533697,6883.915261
5777.773551,-1036.288319,919.314598,7994.224174
5777.773874,-2368.659014,383.047749,7994.224174
5777.774198,-2590.720797,-153.219100,8734.430116
5777.774521,-1998.556043,612.876398,6439.791695
5777.774844,-3108.864956,1455.581446,7328.038826
5777.775168,-4219.173869,0.000000,8660.409521
5777.775491,-4219.173869,-612.876398,9178.553681
5777.775815,-3552.988522,0.000000,10288.862594
5777.776138,-2960.823768,1225.752797,9918.759623
5777.776461,-2590.720797,1302.362347,10584.944971
5777.776785,-1924.535449,1072.533697,11325.150913
5777.777108,740.205942,1225.752797,9918.759623
5777.777432,740.205942,2145.067394,7920.203579
5777.777755,-518.144159,1915.238745,9030.512492
5777.778078,-148.041188,995.924147,10658.965565
