#time,accel_x,accel_y,accel_z
2054.867854,-814.226536,689.485948,9178.553681
2054.868175,74.020594,459.657299,9548.656652
2054.868497,740.205942,536.266849,9104.533087
2054.868819,74.020594,459.657299,8586.388927
2054.869141,0.000000,689.485948,9918.759623
2054.869463,0.000000,689.485948,9918.759623
2054.869785,370.102971,459.657299,9474.636058
2054.870106,740.205942,459.657299,9696.697840
2054.870428,-740.205942,306.438199,8882.471304
2054.870750,-592.164754,153.219100,10362.883188
2054.871072,0.000000,0.000000,9770.718434
2054.871394,-518.144159,0.000000,9252.574275
2054.871715,-370.102971,612.876398,9252.574275
2054.872037,-888.247130,995.924147,9548.656652
2054.872359,1332.370696,459.657299,10066.800811
2054.872681,740.205942,1302.362347,8068.244768
2054.873003,-666.185348,919.314598,8142.265362
2054.873325,74.020594,689.485948,9548.656652
2054.873646,-296.082377,536.266849,9548.656652
2054.873968,222.061783,612.876398,9030.512492
2054.874290,-592.164754,153.219100,8068.244768
2054.874612,-1850.514855,689.485948,8734.430116
2054.874934,-814.226536,612.876398,9770.718434
2054.875255,148.041188,459.657299,9104.533087
2054.875577,-518.144159,766.095498,9030.512492
2054.875899,-888.247130,612.876398,9326.594869
2054.876221,-222.061783,842.705048,10066.800811
2054.876543,1998.556043,1608.800546,9548.656652
2054.876865,1184.329507,1608.800546,8956.491898
2054.877186,0.000000,1302.362347,9326.594869
2054.877508,1258.350101,1378.971896,10140.821405
2054.877830,1332.370696,1455.581446,9400.615463
2054.878152,1332.370696,1378.971896,9252.574275
2054.878474,444.123565,1455.581446,9400.615463
2054.878796,0.000000,919.314598,9548.656652
2054.879117,1258.350101,2068.457845,9030.512492
2054.879439,1776.494261,1149.143247,9326.594869
2054.879761,1036.288319,2298.286494,9104.533087
2054.880083,592.164754,2374.896044,8956.491898
2054.880405,2442.679609,2451.505594,9104.533087
2054.880726,3404.947333,2681.334243,9178.553681
2054.881048,2368.659014,2528.115143,9252.574275
2054.881370,1776.494261,3064.381992,9918.759623
2054.881692,2664.741391,2604.724693,9104.533087
2054.882014,2886.803174,2757.943793,9474.636058
2054.882336,3182.885551,3140.991542,9918.759623
2054.882657,1628.453072,2911.162892,9548.656652
2054.882979,2294.638420,3370.820191,9400.615463
2054.883301,3627.009116,3294.210641,9178.553681
2054.883623,2812.782580,3294.210641,8956.491898
2054.883945,2442.679609,4213.525239,9030.512492
2054.884266,2664.741391,3983.696590,8956.491898
2054.884588,4071.132681,3907.087040,8734.430116
2054.884910,3404.947333,3447.429741,8512.368333
2054.885232,1850.514855,3524.039291,8660.409521
2054.885554,2368.659014,3524.039291,9030.512492
2054.885876,2368.659014,3677.258390,8512.368333
2054.886197,2368.659014,3677.258390,8512.368333
2054.886519,1628.453072,2987.772442,9918.759623
2054.886841,222.061783,2911.162892,8956.491898
2054.887163,1480.411884,2604.724693,9548.656652
2054.887485,1110.308913,2451.505594,9178.553681
2054.887806,0.000000,2374.896044,9548.656652
2054.888128,-444.123565,2451.505594,9696.697840
2054.888450,518.144159,2451.505594,9178.553681
2054.888772,2738.761985,2987.772442,9400.615463
2054.889094,2368.659014,3294.210641,8290.306550
2054.889416,1702.473667,3753.867940,9548.656652
2054.889737,2812.782580,3677.258390,9622.677246
2054.890059,3775.050304,3524.039291,9030.512492
2054.890381,3701.029710,3294.210641,9622.677246
2054.890703,1776.494261,2911.162892,9918.759623
2054.891025,-370.102971,2298.286494,9844.739029
2054.891347,814.226536,306.438199,9326.594869
2054.891668,-814.226536,0.000000,9474.636058
2054.891990,-2146.597232,-306.438199,9918.759623
2054.892312,-2812.782580,0.000000,9696.697840
2054.892634,0.000000,612.876398,9252.574275
2054.892956,1924.535449,1225.752797,9030.512492
2054.893277,1924.535449,1378.971896,8734.430116
2054.893599,2442.679609,2681.334243,9474.636058
2054.893921,4219.173869,3370.820191,8438.347739
2054.894243,4959.379811,3140.991542,8586.388927
2054.894565,4219.173869,2604.724693,8956.491898
2054.894887,2664.741391,2834.553343,9104.533087
2054.895208,3034.844362,2681.334243,9104.533087
2054.895530,3404.947333,1991.848295,9548.656652
2054.895852,1036.288319,1149.143247,10140.821405
2054.896174,0.000000,536.266849,10510.924376
2054.896496,-592.164754,766.095498,10066.800811
2054.896817,888.247130,229.828649,9918.759623
2054.897139,518.144159,536.266849,10510.924376
2054.897461,-814.226536,919.314598,10140.821405
2054.897783,370.102971,1378.971896,9474.636058
2054.898105,1628.453072,1685.410096,7994.224174
2054.898427,2368.659014,2451.505594,7624.121203
2054.898748,3627.009116,3140.991542,7920.203579
2054.899070,4145.153275,4903.011187,8586.388927
2054.899392,6143.709319,5132.839837,8956.491898
2054.899714,6143.709319,4903.011187,8734.430116
2054.900036,4589.276840,5592.497135,9030.512492
2054.900357,3256.906145,4443.353888,8586.388927
2054.900679,3256.906145,4749.792088,9252.574275
2054.901001,2960.823768,3524.039291,10584.944971
2054.901323,222.061783,2298.286494,10658.965565
2054.901645,-1924.535449,1072.533697,9696.697840
2054.901967,-1850.514855,919.314598,9030.512492
2054.902288,-814.226536,1685.410096,9400.615463
2054.902610,-370.102971,2911.162892,9474.636058
2054.902932,296.082377,3370.820191,9992.780217
2054.903254,1998.556043,4673.182538,8512.368333
2054.903576,4071.132681,5132.839837,7624.121203
2054.903898,4441.235652,5439.278036,7550.100608
2054.904219,3256.906145,5669.106685,9326.594869
2054.904541,2664.741391,4979.620737,8438.347739
2054.904863,4071.132681,4443.353888,8808.450710
2054.905185,3997.112087,3524.039291,8142.265362
2054.905507,1702.473667,3140.991542,9252.574275
2054.905828,-296.082377,2374.896044,10288.862594
2054.906150,0.000000,1838.629195,9918.759623
2054.906472,74.020594,1072.533697,9326.594869
2054.906794,-148.041188,1302.362347,9622.677246
2054.907116,-1776.494261,1608.800546,9918.759623
2054.907438,-370.102971,2298.286494,9474.636058
2054.907759,2368.659014,2604.724693,9770.718434
2054.908081,2886.803174,3677.258390,9696.697840
2054.908403,2960.823768,4903.011187,9844.739029
2054.908725,4589.276840,5898.935335,8438.347739
2054.909047,6883.915261,5592.497135,7846.182985
2054.909368,5329.482782,4903.011187,7624.121203
2054.909690,2442.679609,2911.162892,9104.533087
2054.910012,1924.535449,2298.286494,8512.368333
2054.910334,2368.659014,1455.581446,9474.636058
2054.910656,740.205942,76.609550,10436.903782
2054.910978,-1184.329507,-383.047749,10955.047942
2054.911299,-1554.432478,-306.438199,9992.780217
2054.911621,-444.123565,306.438199,9918.759623
2054.911943,888.247130,536.266849,8364.327145
2054.912265,1406.391290,1608.800546,9400.615463
2054.912587,2738.761985,3753.867940,9992.780217
2054.912908,3849.070898,3907.087040,9400.615463
2054.913230,5033.400406,3600.648841,8808.450710
2054.913552,4071.132681,4290.134789,8512.368333
2054.913874,2960.823768,4519.963438,9104.533087
2054.914196,2220.617826,3677.258390,7105.977043
2054.914518,2886.803174,1991.848295,6883.915261
2054.914839,2368.659014,2068.457845,8586.388927
2054.915161,-740.205942,919.314598,10658.965565
2054.915483,-1554.432478,-612.876398,10881.027347
2054.915805,-222.061783,-612.876398,10955.047942
2054.916127,-592.164754,-612.876398,10658.965565
2054.916449,-148.041188,76.609550,10955.047942
2054.916770,1110.308913,2068.457845,10066.800811
2054.917092,3775.050304,2604.724693,8956.491898
2054.917414,4811.338623,3983.696590,9844.739029
2054.917736,3404.947333,4519.963438,8882.471304
2054.918058,2886.803174,4290.134789,9104.533087
2054.918379,4737.318029,4213.525239,7698.141797
2054.918701,4441.235652,4136.915689,8438.347739
2054.919023,1998.556043,3677.258390,9178.553681
2054.919345,-814.226536,2604.724693,9326.594869
2054.919667,-1702.473667,612.876398,7994.224174
2054.919989,-1924.535449,-306.438199,7846.182985
2054.920310,-2960.823768,-306.438199,9696.697840
2054.920632,-3330.926739,306.438199,10658.965565
2054.920954,-1480.411884,995.924147,10066.800811
2054.921276,1776.494261,1762.019645,10807.006753
2054.921598,2146.597232,2451.505594,8586.388927
2054.921919,1998.556043,2911.162892,8364.327145
2054.922241,3923.091493,4903.011187,10214.842000
2054.922563,5773.606348,4826.401637,8956.491898
2054.922885,5773.606348,4213.525239,8660.409521
2054.923207,4145.153275,4519.963438,8142.265362
2054.923529,2590.720797,3753.867940,6587.832884
2054.923850,2960.823768,2834.553343,6957.935855
2054.924172,3627.009116,3217.601092,8660.409521
2054.924494,2368.659014,2834.553343,9474.636058
2054.924816,1480.411884,2298.286494,10140.821405
2054.925138,2294.638420,2298.286494,8586.388927
2054.925459,3849.070898,2221.676944,9252.574275
2054.925781,2368.659014,3294.210641,11843.295072
2054.926103,814.226536,3064.381992,11695.253884
2054.926425,2886.803174,2834.553343,11769.274478
2054.926747,4441.235652,3064.381992,9622.677246
2054.927069,3701.029710,4060.306139,9178.553681
2054.927390,2146.597232,4060.306139,9474.636058
2054.927712,2072.576638,4290.134789,8068.244768
2054.928034,3775.050304,3600.648841,7476.080014
2054.928355,3775.050304,3907.087040,7179.997637
2054.928677,2812.782580,3677.258390,9178.553681
2054.928999,1628.453072,4749.792088,9252.574275
2054.929321,1924.535449,2834.553343,7920.203579
2054.929642,1850.514855,2528.115143,8882.471304
2054.929964,222.061783,2068.457845,7920.203579
2054.930286,0.000000,2987.772442,10066.800811
2054.930607,74.020594,3064.381992,10584.944971
2054.930929,-444.123565,1532.190996,8808.450710
2054.931251,0.000000,2374.896044,10214.842000
2054.931572,-1628.453072,2451.505594,9844.739029
2054.931894,296.082377,2451.505594,10066.800811
2054.932216,814.226536,2911.162892,9104.533087
2054.932537,1480.411884,3907.087040,9474.636058
2054.932859,1628.453072,3524.039291,8364.327145
2054.933181,2072.576638,3830.477490,8290.306550
2054.933503,3034.844362,2987.772442,7698.141797
2054.933824,2294.638420,2604.724693,7105.977043
2054.934146,1184.329507,2528.115143,9030.512492
2054.934468,1036.288319,1685.410096,10658.965565
2054.934789,-370.102971,995.924147,10436.903782
2054.935111,-888.247130,0.000000,9104.533087
2054.935433,-814.226536,-229.828649,9548.656652
2054.935754,-1850.514855,-306.438199,9252.574275
2054.936076,0.000000,0.000000,9844.739029
2054.936398,-444.123565,153.219100,8068.244768
2054.936719,592.164754,842.705048,8438.347739
2054.937041,888.247130,919.314598,9178.553681
2054.937363,2886.803174,1762.019645,10066.800811
2054.937684,3627.009116,2068.457845,9030.512492
2054.938006,4367.215058,842.705048,8290.306550
2054.938328,3701.029710,536.266849,7920.203579
2054.938650,3849.070898,1685.410096,9992.780217
2054.938971,2664.741391,1685.410096,10288.862594
2054.939293,3182.885551,0.000000,8808.450710
2054.939615,1258.350101,-612.876398,10807.006753
2054.939936,518.144159,-1149.143247,11251.130318
2054.940258,-814.226536,-1149.143247,11991.336260
2054.940580,-222.061783,-2451.505594,9918.759623
2054.940901,-666.185348,-1685.410096,9770.718434
2054.941223,-3330.926739,-1225.752797,9474.636058
2054.941545,-888.247130,-1455.581446,7920.203579
2054.941866,-370.102971,-306.438199,8660.409521
2054.942188,0.000000,536.266849,9178.553681
2054.942510,-1924.535449,-689.485948,10732.986159
2054.942832,0.000000,1378.971896,8364.327145
2054.943153,2220.617826,1225.752797,7402.059420
2054.943475,2294.638420,1838.629195,8734.430116
2054.943797,-962.267725,1225.752797,9696.697840
2054.944118,592.164754,1225.752797,10214.842000
2054.944440,2812.782580,1302.362347,9844.739029
2054.944762,666.185348,766.095498,10362.883188
2054.945083,-1628.453072,689.485948,11029.068536
2054.945405,-1554.432478,1225.752797,10140.821405
2054.945727,2072.576638,2068.457845,10658.965565
2054.946048,888.247130,1532.190996,9252.574275
2054.946370,-1776.494261,2221.676944,8882.471304
2054.946692,-1628.453072,2834.553343,7624.121203
2054.947013,1628.453072,2834.553343,6365.771101
2054.947335,740.205942,3447.429741,7179.997637
2054.947657,-962.267725,2068.457845,8660.409521
2054.947979,-3108.864956,2528.115143,8216.285956
2054.948300,-1184.329507,1532.190996,6069.688724
2054.948622,-2072.576638,1225.752797,7846.182985
2054.948944,-4145.153275,842.705048,9178.553681
2054.949265,-3849.070898,919.314598,9474.636058
2054.949587,-2146.597232,1762.019645,8290.306550
2054.949909,0.000000,766.095498,8512.368333
2054.950230,-2664.741391,-383.047749,9918.759623
2054.950552,-3108.864956,536.266849,10807.006753
2054.950874,-1258.350101,842.705048,11621.233289
2054.951195,-370.102971,612.876398,10955.047942
2054.951517,740.205942,0.000000,9992.780217
2054.951839,1776.494261,1762.019645,10288.862594
2054.952161,1924.535449,2374.896044,9992.780217
2054.952482,2072.576638,766.095498,8068.244768
2054.952804,2738.761985,153.219100,8956.491898
2054.953126,2664.741391,2298.286494,9844.739029
2054.953447,2072.576638,1149.143247,8512.368333
2054.953769,3256.906145,-995.924147,8734.430116
2054.954091,3627.009116,536.266849,8142.265362
2054.954412,2664.741391,536.266849,10584.944971
2054.954734,1110.308913,-383.047749,9400.615463
2054.955056,0.000000,-2451.505594,9474.636058
2054.955377,1110.308913,-842.705048,9326.594869
2054.955699,0.000000,-995.924147,11547.212695
2054.956021,-2368.659014,-2451.505594,9104.533087
2054.956342,-2368.659014,-3600.648841,9992.780217
2054.956664,-1036.288319,-842.705048,9770.718434
2054.956986,-2146.597232,-1608.800546,10436.903782
2054.957308,-3108.864956,-3140.991542,8142.265362
2054.957629,-1702.473667,-1915.238745,8290.306550
2054.957951,592.164754,459.657299,9548.656652
2054.958273,-296.082377,-1378.971896,8364.327145
2054.958594,-2072.576638,-1762.019645,8734.430116
2054.958916,1036.288319,0.000000,9400.615463
2054.959238,1850.514855,1225.752797,10140.821405
2054.959559,1628.453072,306.438199,8956.491898
2054.959881,0.000000,-919.314598,9992.780217
2054.960203,0.000000,536.266849,10362.883188
2054.960524,1480.411884,1378.971896,9622.677246
2054.960846,1480.411884,842.705048,9844.739029
2054.961168,-148.041188,459.657299,9844.739029
2054.961489,-370.102971,1149.143247,9548.656652
2054.961811,962.267725,2298.286494,10214.842000
2054.962133,666.185348,1838.629195,9030.512492
2054.962455,-1110.308913,76.609550,8734.430116
2054.962776,-2072.576638,2145.067394,8512.368333
2054.963098,-666.185348,3140.991542,9474.636058
2054.963420,-222.061783,1532.190996,8956.491898
2054.963741,-2146.597232,1072.533697,8956.491898
2054.964063,-3478.967927,1915.238745,7846.182985
2054.964385,-3478.967927,2068.457845,7476.080014
2054.964706,-3701.029710,76.609550,7031.956449
2054.965028,-5329.482782,-766.095498,8142.265362
2054.965350,-4145.153275,1915.238745,9178.553681
2054.965671,-4071.132681,1762.019645,8808.450710
2054.965993,-3256.906145,306.438199,8956.491898
2054.966315,-2294.638420,-536.266849,7476.080014
2054.966637,-1406.391290,1762.019645,7698.141797
2054.966958,-444.123565,2451.505594,10658.965565
2054.967280,740.205942,1302.362347,10140.821405
2054.967602,2738.761985,766.095498,9400.615463
2054.967923,4737.318029,3677.258390,9622.677246
2054.968245,2590.720797,3064.381992,9474.636058
2054.968567,3552.988522,1455.581446,10510.924376
2054.968888,5181.441594,1915.238745,10066.800811
2054.969210,5625.565159,2374.896044,10288.862594
2054.969532,2886.803174,1608.800546,11399.171507
2054.969853,1036.288319,0.000000,10066.800811
2054.970175,3108.864956,-306.438199,9252.574275
2054.970497,2812.782580,383.047749,9844.739029
2054.970818,-518.144159,-536.266849,9400.615463
2054.971140,-592.164754,-919.314598,9622.677246
2054.971462,1332.370696,-383.047749,8290.306550
2054.971784,-370.102971,-612.876398,8882.471304
2054.972105,-3182.885551,-2374.896044,8586.388927
2054.972427,-4515.256246,-2604.724693,7994.224174
2054.972749,-2368.659014,-1915.238745,6957.935855
2054.973070,-1702.473667,-612.876398,9400.615463
2054.973392,-2220.617826,-1532.190996,8660.409521
2054.973714,-2220.617826,-1378.971896,9474.636058
2054.974035,518.144159,842.705048,8512.368333
2054.974357,1110.308913,-229.828649,8586.388927
2054.974679,0.000000,-383.047749,9030.512492
2054.975000,370.102971,153.219100,9474.636058
2054.975322,2368.659014,1608.800546,11029.068536
2054.975644,1998.556043,536.266849,9400.615463
2054.975966,1036.288319,-229.828649,10288.862594
2054.976287,222.061783,842.705048,9622.677246
2054.976609,0.000000,1378.971896,11029.068536
2054.976931,1036.288319,919.314598,9326.594869
2054.977252,962.267725,306.438199,9178.553681
2054.977574,-148.041188,2298.286494,9548.656652
2054.977896,148.041188,919.314598,6735.874072
2054.978217,-962.267725,995.924147,8364.327145
2054.978539,74.020594,1455.581446,9474.636058
2054.978861,-2442.679609,459.657299,8882.471304
2054.979182,-2812.782580,1225.752797,9844.739029
2054.979504,-3627.009116,383.047749,9548.656652
2054.979826,-3701.029710,-689.485948,8660.409521
2054.980147,-4145.153275,0.000000,8956.491898
2054.980469,-4737.318029,-459.657299,7402.059420
2054.980791,-3923.091493,-689.485948,8586.388927
2054.981113,-2664.741391,1072.533697,10066.800811
2054.981434,-3627.009116,306.438199,8882.471304
2054.981756,-2516.700203,-306.438199,8438.347739
2054.982078,-3330.926739,919.314598,8882.471304
2054.982399,-592.164754,306.438199,8438.347739
2054.982721,962.267725,689.485948,8882.471304
2054.983043,222.061783,612.876398,8734.430116
2054.983364,1258.350101,306.438199,9326.594869
2054.983686,2738.761985,1455.581446,9030.512492
2054.984008,3108.864956,1608.800546,10658.965565
2054.984329,2886.803174,76.609550,9844.739029
2054.984651,1924.535449,0.000000,9474.636058
2054.984973,4293.194464,1762.019645,8068.244768
2054.985295,4515.256246,536.266849,9770.718434
2054.985616,2664.741391,0.000000,10807.006753
2054.985938,1184.329507,-306.438199,11917.315666
2054.986260,3034.844362,612.876398,10658.965565
2054.986581,3849.070898,0.000000,10140.821405
2054.986903,1036.288319,-1378.971896,10362.883188
2054.987225,-1036.288319,-995.924147,10732.986159
2054.987546,370.102971,-306.438199,9844.739029
2054.987868,-444.123565,-1685.410096,9252.574275
2054.988190,-3034.844362,-1991.848295,9474.636058
2054.988511,-3627.009116,-1608.800546,8808.450710
2054.988833,-1998.556043,-766.095498,8956.491898
2054.989155,-1554.432478,-995.924147,8660.409521
2054.989476,-2516.700203,-1378.971896,7920.203579
2054.989798,-3182.885551,-306.438199,7846.182985
2054.990120,-222.061783,919.314598,7402.059420
2054.990442,592.164754,689.485948,9178.553681
2054.990763,1554.432478,1149.143247,10584.944971
2054.991085,1776.494261,1378.971896,10288.862594
2054.991407,2368.659014,919.314598,9030.512492
2054.991728,2886.803174,2145.067394,9400.615463
2054.992050,2812.782580,1762.019645,10214.842000
2054.992372,2590.720797,2681.334243,10584.944971
2054.992693,2294.638420,2528.115143,9030.512492
2054.993015,1406.391290,2528.115143,9252.574275
2054.993337,1924.535449,2451.505594,9474.636058
2054.993658,1776.494261,3370.820191,9696.697840
2054.993980,-740.205942,2834.553343,8734.430116
2054.994302,-2220.617826,1991.848295,9178.553681
2054.994624,-2516.700203,1762.019645,8808.450710
2054.994945,-3330.926739,919.314598,8808.450710
2054.995267,-6069.688724,0.000000,7698.141797
2054.995589,-6957.935855,-842.705048,7846.182985
2054.995910,-5995.668130,-76.609550,7476.080014
2054.996232,-4367.215058,-842.705048,7920.203579
2054.996554,-5329.482782,-1302.362347,8216.285956
2054.996875,-5551.544565,-766.095498,9104.533087
2054.997197,-2812.782580,153.219100,8142.265362
2054.997519,-222.061783,842.705048,9178.553681
2054.997840,0.000000,995.924147,10362.883188
2054.998162,1110.308913,1532.190996,10066.800811
2054.998484,4441.235652,3064.381992,8956.491898
2054.998805,5847.626942,2834.553343,10214.842000
2054.999127,3627.009116,1302.362347,9474.636058
2054.999449,2294.638420,383.047749,10362.883188
2054.999771,4959.379811,2068.457845,10510.924376
2055.000092,4589.276840,766.095498,10288.862594
2055.000414,2590.720797,229.828649,11029.068536
2055.000736,1628.453072,-842.705048,9548.656652
2055.001057,2886.803174,1302.362347,9696.697840
2055.001379,2220.617826,0.000000,9992.780217
2055.001701,0.000000,-1455.581446,9918.759623
2055.002022,-888.247130,-1225.752797,9104.533087
2055.002344,518.144159,459.657299,8660.409521
2055.002666,0.000000,-306.438199,8438.347739
2055.002987,-1776.494261,-2145.067394,8438.347739
2055.003309,-2368.659014,-1072.533697,8290.306550
2055.003631,-2294.638420,-995.924147,8660.409521
2055.003952,-2368.659014,-2451.505594,8438.347739
2055.004274,-2886.803174,-2451.505594,8586.388927
2055.004596,-2294.638420,-2145.067394,9104.533087
2055.004918,-2516.700203,-766.095498,9548.656652
2055.005239,-2368.659014,-2068.457845,9400.615463
2055.005561,-962.267725,-2528.115143,8808.450710
2055.005883,0.000000,0.000000,8586.388927
2055.006204,0.000000,1685.410096,11473.192101
2055.006526,222.061783,919.314598,11695.253884
2055.006848,1628.453072,766.095498,10732.986159
2055.007169,3701.029710,2145.067394,7772.162391
2055.007491,3552.988522,3447.429741,8438.347739
2055.007813,1998.556043,3524.039291,9844.739029
2055.008134,2886.803174,2757.943793,9770.718434
2055.008456,2294.638420,1838.629195,8290.306550
2055.008778,148.041188,1762.019645,9770.718434
2055.009100,-3997.112087,0.000000,9400.615463
2055.009421,-2738.761985,0.000000,9252.574275
2055.009743,-1702.473667,1455.581446,10510.924376
2055.010065,-3478.967927,689.485948,9030.512492
2055.010386,-5329.482782,-612.876398,9548.656652
2055.010708,-4145.153275,1455.581446,7105.977043
2055.011030,-2146.597232,1685.410096,7476.080014
2055.011351,-3552.988522,995.924147,8956.491898
2055.011673,-5107.421000,0.000000,10288.862594
2055.011995,-1554.432478,1532.190996,9844.739029
2055.012316,222.061783,1915.238745,7846.182985
2055.012638,-888.247130,919.314598,8438.347739
2055.012960,-2516.700203,306.438199,8586.388927
2055.013281,-592.164754,2068.457845,7402.059420
2055.013603,2072.576638,1532.190996,9252.574275
2055.013925,1184.329507,842.705048,9326.594869
2055.014247,1184.329507,536.266849,11103.089130
2055.014568,2442.679609,1915.238745,9622.677246
2055.014890,4589.276840,1532.190996,9992.780217
2055.015212,3552.988522,383.047749,9918.759623
2055.015533,2664.741391,689.485948,10436.903782
2055.015855,4663.297435,1762.019645,10584.944971
2055.016177,4367.215058,995.924147,9178.553681
2055.016498,2368.659014,153.219100,9400.615463
2055.016820,2220.617826,153.219100,8882.471304
2055.017142,666.185348,306.438199,9252.574275
2055.017463,296.082377,-1072.533697,8660.409521
2055.017785,-814.226536,-1685.410096,9474.636058
2055.018107,-1776.494261,-536.266849,9474.636058
2055.018429,-2738.761985,-995.924147,9770.718434
2055.018750,-3701.029710,-2681.334243,8808.450710
2055.019072,-2664.741391,-2604.724693,8956.491898
2055.019394,-1998.556043,-995.924147,8364.327145
2055.019715,-2738.761985,-612.876398,9844.739029
2055.020037,-2294.638420,-1072.533697,9474.636058
2055.020359,-666.185348,-1838.629195,8808.450710
2055.020680,148.041188,306.438199,8660.409521
2055.021002,-814.226536,536.266849,9030.512492
2055.021324,-962.267725,-153.219100,8660.409521
2055.021645,2220.617826,1378.971896,8808.450710
2055.021967,3775.050304,2757.943793,8956.491898
2055.022289,2368.659014,1762.019645,9400.615463
2055.022610,1110.308913,1532.190996,9104.533087
2055.022932,2738.761985,2451.505594,9104.533087
2055.023254,4219.173869,3370.820191,9548.656652
2055.023576,1258.350101,1302.362347,10288.862594
2055.023897,-888.247130,919.314598,10066.800811
2055.024219,370.102971,2221.676944,10510.924376
2055.024541,0.000000,1455.581446,9474.636058
2055.024862,-3034.844362,76.609550,9400.615463
2055.025184,-5255.462188,-1225.752797,8734.430116
2055.025506,-5107.421000,459.657299,8660.409521
2055.025827,-4293.194464,76.609550,7624.121203
2055.026149,-5107.421000,-1225.752797,8660.409521
2055.026471,-6587.832884,0.000000,8956.491898
2055.026792,-5107.421000,153.219100,6883.915261
2055.027114,-2368.659014,-612.876398,7402.059420
2055.027436,-2664.741391,459.657299,7031.956449
2055.027757,-2072.576638,612.876398,7846.182985
2055.028079,0.000000,1991.848295,8956.491898
2055.028400,222.061783,1455.581446,9252.574275
2055.028722,1702.473667,-229.828649,8438.347739
2055.029043,962.267725,1149.143247,9918.759623
2055.029365,1184.329507,1225.752797,10732.986159
2055.029686,1850.514855,842.705048,10658.965565
2055.030008,3108.864956,0.000000,10658.965565
2055.030329,3108.864956,459.657299,10436.903782
2055.030651,3701.029710,2298.286494,11251.130318
2055.030972,2738.761985,1149.143247,10140.821405
2055.031294,3775.050304,383.047749,8808.450710
2055.031615,4367.215058,1302.362347,8364.327145
2055.031936,3256.906145,1685.410096,9178.553681
2055.032258,1110.308913,459.657299,11177.109724
2055.032579,370.102971,-536.266849,9992.780217
2055.032901,518.144159,-766.095498,8364.327145
2055.033222,-2072.576638,-919.314598,8142.265362
2055.033544,-3256.906145,-2451.505594,8290.306550
2055.033865,-2886.803174,-1532.190996,8660.409521
2055.034187,-1480.411884,-1225.752797,8438.347739
2055.034508,-2516.700203,-1455.581446,9474.636058
2055.034830,-2516.700203,-1225.752797,10436.903782
2055.035151,74.020594,-919.314598,9474.636058
2055.035473,3478.967927,459.657299,9252.574275
2055.035794,1184.329507,1072.533697,10510.924376
2055.036116,444.123565,536.266849,10510.924376
2055.036437,3627.009116,1838.629195,8956.491898
2055.036759,4219.173869,2068.457845,7624.121203
2055.037080,3775.050304,2681.334243,8216.285956
2055.037402,-1036.288319,1072.533697,9400.615463
2055.037723,888.247130,2068.457845,9474.636058
2055.038045,1332.370696,2374.896044,9400.615463
2055.038366,0.000000,2451.505594,9030.512492
2055.038688,-2220.617826,76.609550,10436.903782
2055.039009,-1998.556043,1838.629195,6661.853478
2055.039331,0.000000,1685.410096,8734.430116
2055.039652,-518.144159,2221.676944,8882.471304
2055.039974,-4145.153275,0.000000,9104.533087
2055.040295,-2368.659014,1378.971896,8956.491898
2055.040617,-2294.638420,1608.800546,9474.636058
2055.040938,-3256.906145,153.219100,8808.450710
2055.041260,-4219.173869,-1149.143247,9992.780217
2055.041581,-4811.338623,842.705048,8808.450710
2055.041903,-3775.050304,306.438199,9548.656652
2055.042224,-3330.926739,-1225.752797,8734.430116
2055.042546,-3478.967927,-995.924147,9474.636058
2055.042867,-2220.617826,1302.362347,9326.594869
2055.043189,-1554.432478,76.609550,10214.842000
2055.043510,-370.102971,-229.828649,10436.903782
2055.043832,-296.082377,0.000000,10140.821405
2055.044153,444.123565,1378.971896,9474.636058
2055.044475,1554.432478,1302.362347,9400.615463
2055.044796,1702.473667,0.000000,8660.409521
2055.045118,3182.885551,766.095498,9326.594869
2055.045439,2294.638420,1455.581446,9326.594869
2055.045761,1110.308913,306.438199,8512.368333
2055.046082,2146.597232,-1991.848295,8068.244768
2055.046404,3404.947333,-76.609550,8364.327145
2055.046725,2442.679609,766.095498,10362.883188
2055.047047,1480.411884,-306.438199,10288.862594
2055.047368,1924.535449,-1378.971896,9992.780217
2055.047689,4515.256246,0.000000,7772.162391
2055.048011,1850.514855,459.657299,11769.274478
2055.048332,-740.205942,-1149.143247,11177.109724
2055.048654,-592.164754,-2528.115143,10140.821405
2055.048975,888.247130,-1302.362347,9844.739029
2055.049297,-1258.350101,-1149.143247,10584.944971
2055.049618,-4293.194464,-3064.381992,10362.883188
2055.049940,-3404.947333,-3600.648841,8068.244768
2055.050261,-1850.514855,-842.705048,8142.265362
2055.050583,-2146.597232,-1455.581446,8956.491898
2055.050904,-3478.967927,-1532.190996,10436.903782
2055.051226,-1258.350101,-536.266849,8734.430116
2055.051547,2590.720797,1762.019645,7994.224174
2055.051869,3034.844362,2374.896044,9326.594869
2055.052190,1850.514855,1762.019645,8438.347739
2055.052512,2368.659014,2681.334243,9252.574275
2055.052833,5625.565159,3983.696590,8438.347739
2055.053155,3627.009116,3447.429741,9622.677246
2055.053476,2220.617826,2374.896044,10732.986159
2055.053798,666.185348,2604.724693,9992.780217
2055.054119,1702.473667,2604.724693,8956.491898
2055.054441,518.144159,1915.238745,9844.739029
2055.054762,-2072.576638,766.095498,8734.430116
2055.055084,-1998.556043,3140.991542,9918.759623
2055.055405,-1554.432478,3294.210641,9326.594869
2055.055727,-2368.659014,1149.143247,9548.656652
2055.056048,-3478.967927,536.266849,8882.471304
2055.056370,-4441.235652,1915.238745,8438.347739
2055.056691,-3701.029710,2145.067394,8586.388927
2055.057013,-3849.070898,459.657299,7994.224174
2055.057334,-4219.173869,536.266849,7476.080014
2055.057656,-3330.926739,2068.457845,9178.553681
2055.057977,-4959.379811,1225.752797,7994.224174
2055.058299,-3701.029710,-995.924147,6809.894666
2055.058620,-1998.556043,-306.438199,7328.038826
2055.058942,-1480.411884,2068.457845,10140.821405
2055.059263,-1554.432478,842.705048,9548.656652
2055.059585,592.164754,-612.876398,9548.656652
2055.059906,3997.112087,1838.629195,9548.656652
2055.060228,3034.844362,1915.238745,10362.883188
2055.060549,2220.617826,919.314598,10584.944971
2055.060871,3775.050304,536.266849,10288.862594
2055.061192,5921.647536,1608.800546,9326.594869
2055.061514,5107.421000,1991.848295,11843.295072
2055.061835,1702.473667,229.828649,10955.047942
2055.062157,1850.514855,-1302.362347,10732.986159
2055.062478,3552.988522,689.485948,9030.512492
2055.062800,1554.432478,-612.876398,9104.533087
2055.063121,-666.185348,-1991.848295,9178.553681
2055.063443,-666.185348,-2145.067394,9400.615463
2055.063764,1036.288319,-1225.752797,9474.636058
2055.064085,74.020594,-2221.676944,9696.697840
2055.064407,-2960.823768,-3600.648841,9030.512492
2055.064728,-1776.494261,-2298.286494,10288.862594
2055.065050,0.000000,-459.657299,9770.718434
2055.065371,-2294.638420,-1991.848295,7772.162391
2055.065693,-2146.597232,-2911.162892,9696.697840
2055.066014,-3478.967927,-1225.752797,7772.162391
2055.066336,-1554.432478,-689.485948,8660.409521
2055.066657,-222.061783,-766.095498,9770.718434
2055.066979,-1480.411884,-1225.752797,9696.697840
2055.067300,148.041188,1072.533697,9918.759623
2055.067622,1406.391290,1608.800546,8808.450710
2055.067943,2738.761985,1072.533697,9326.594869
2055.068265,1702.473667,766.095498,9104.533087
2055.068586,1258.350101,2451.505594,8512.368333
2055.068908,2812.782580,2528.115143,9844.739029
2055.069229,3182.885551,2221.676944,10214.842000
2055.069551,1554.432478,2221.676944,10510.924376
2055.069872,1628.453072,2757.943793,9622.677246
2055.070194,-592.164754,1762.019645,9326.594869
2055.070515,370.102971,842.705048,8216.285956
2055.070837,-518.144159,1455.581446,9474.636058
2055.071158,-2220.617826,3217.601092,10362.883188
2055.071480,-3849.070898,1072.533697,8956.491898
2055.071801,-3775.050304,-459.657299,6957.935855
2055.072123,-3330.926739,1455.581446,7772.162391
2055.072444,-4663.297435,2298.286494,8956.491898
2055.072766,-5995.668130,0.000000,9474.636058
2055.073087,-5403.503377,-919.314598,8808.450710
2055.073409,-3923.091493,383.047749,8438.347739
2055.073730,-3404.947333,1685.410096,8956.491898
2055.074052,-4367.215058,0.000000,8956.491898
2055.074373,-3034.844362,0.000000,8882.471304
2055.074695,1036.288319,2221.676944,8364.327145
2055.075016,1924.535449,2145.067394,9474.636058
2055.075338,1332.370696,1455.581446,10066.800811
2055.075659,1924.535449,1991.848295,9992.780217
2055.075981,6069.688724,2068.457845,7624.121203
2055.076302,5403.503377,2298.286494,9104.533087
2055.076624,3108.864956,2145.067394,10288.862594
2055.076945,4071.132681,1915.238745,11177.109724
2055.077267,5329.482782,2681.334243,9400.615463
2055.077588,4367.215058,1225.752797,8068.244768
2055.077910,1850.514855,-1225.752797,8734.430116
2055.078231,-888.247130,-383.047749,9548.656652
2055.078553,814.226536,689.485948,10955.047942
2055.078874,1110.308913,-1225.752797,10881.027347
2055.079196,-1924.535449,-2298.286494,10066.800811
2055.079517,-2368.659014,-1685.410096,8808.450710
2055.079839,-1924.535449,-306.438199,9400.615463
2055.080160,-370.102971,-919.314598,9548.656652
2055.080481,-3849.070898,-2604.724693,10436.903782
2055.080803,-2664.741391,-1685.410096,8512.368333
2055.081124,0.000000,-1225.752797,8586.388927
2055.081446,-740.205942,-536.266849,8512.368333
2055.081767,-666.185348,-1532.190996,9548.656652
2055.082089,-962.267725,0.000000,10066.800811
2055.082410,74.020594,153.219100,7624.121203
2055.082732,1628.453072,-1455.581446,7772.162391
2055.083053,1480.411884,612.876398,9696.697840
2055.083375,1406.391290,1225.752797,10362.883188
2055.083696,1924.535449,1072.533697,10658.965565
2055.084018,2886.803174,1072.533697,8734.430116
2055.084339,3478.967927,1532.190996,9622.677246
2055.084661,2812.782580,3524.039291,9178.553681
2055.084982,1702.473667,2374.896044,9992.780217
2055.085304,1776.494261,1302.362347,8882.471304
2055.085625,1258.350101,1455.581446,9696.697840
2055.085947,-370.102971,1762.019645,9844.739029
2055.086268,-2294.638420,0.000000,9030.512492
2055.086590,-4219.173869,306.438199,9918.759623
2055.086911,-3627.009116,0.000000,9326.594869
2055.087233,-5403.503377,383.047749,9400.615463
2055.087554,-5477.523971,-459.657299,7846.182985
2055.087876,-6809.894666,-2145.067394,7698.141797
2055.088197,-5107.421000,-229.828649,7994.224174
2055.088519,-4515.256246,-229.828649,9252.574275
2055.088840,-5255.462188,-383.047749,8142.265362
2055.089162,-4071.132681,0.000000,8216.285956
2055.089483,-2220.617826,1685.410096,8808.450710
2055.089805,-74.020594,1838.629195,9030.512492
2055.090126,-296.082377,459.657299,8142.265362
2055.090448,-370.102971,459.657299,7920.203579
2055.090769,1480.411884,2604.724693,8882.471304
2055.091091,3108.864956,1838.629195,9992.780217
2055.091412,2368.659014,842.705048,9252.574275
2055.091734,2886.803174,1455.581446,9622.677246
2055.092055,4737.318029,2451.505594,8808.450710
2055.092377,5995.668130,1532.190996,10066.800811
2055.092698,2960.823768,0.000000,11325.150913
2055.093020,1998.556043,-153.219100,11029.068536
2055.093341,4885.359217,2068.457845,11473.192101
2055.093663,4515.256246,689.485948,9400.615463
2055.093984,1998.556043,-612.876398,10732.986159
2055.094306,74.020594,-766.095498,9474.636058
2055.094627,-1332.370696,-383.047749,8438.347739
2055.094949,-1480.411884,-1838.629195,8808.450710
2055.095270,-4293.194464,-3370.820191,8068.244768
2055.095592,-5107.421000,-2911.162892,9474.636058
2055.095913,-6513.812290,-3064.381992,9178.553681
2055.096234,-4811.338623,-3983.696590,8438.347739
2055.096556,-4145.153275,-3753.867940,9326.594869
2055.096877,-3182.885551,-2374.896044,8142.265362
2055.097199,-1776.494261,-1532.190996,9696.697840
2055.097520,296.082377,-689.485948,9030.512492
2055.097842,2146.597232,-153.219100,9918.759623
2055.098163,3701.029710,2451.505594,9844.739029
2055.098485,3849.070898,2374.896044,9992.780217
2055.098806,4145.153275,1915.238745,9474.636058
2055.099128,6587.832884,2374.896044,8882.471304
2055.099449,5699.585753,3064.381992,9548.656652
2055.099771,4071.132681,3064.381992,9326.594869
2055.100092,2442.679609,1762.019645,10066.800811
2055.100414,3256.906145,2298.286494,9548.656652
2055.100735,2516.700203,1838.629195,8882.471304
2055.101057,0.000000,2068.457845,8660.409521
2055.101378,-1184.329507,1302.362347,9030.512492
2055.101700,-1850.514855,1838.629195,8956.491898
2055.102021,-2516.700203,995.924147,9474.636058
2055.102343,-4441.235652,842.705048,9252.574275
2055.102664,-6365.771101,-76.609550,7994.224174
2055.102986,-6143.709319,536.266849,9104.533087
2055.103307,-4663.297435,536.266849,8586.388927
2055.103629,-5403.503377,-153.219100,8882.471304
2055.103950,-5921.647536,459.657299,8734.430116
2055.104272,-4885.359217,995.924147,7476.080014
2055.104593,-1258.350101,612.876398,8364.327145
2055.104915,-2072.576638,689.485948,9326.594869
2055.105236,-2294.638420,1072.533697,10140.821405
2055.105558,1184.329507,2221.676944,9992.780217
2055.105879,2516.700203,1991.848295,8290.306550
2055.106201,3404.947333,1532.190996,8290.306550
2055.106522,2368.659014,1915.238745,9770.718434
2055.106844,2590.720797,2911.162892,9696.697840
2055.107165,3849.070898,2451.505594,10140.821405
2055.107487,3849.070898,766.095498,7846.182985
2055.107808,3330.926739,1225.752797,9104.533087
2055.108130,2664.741391,2451.505594,9770.718434
2055.108451,3256.906145,1838.629195,10288.862594
2055.108773,2590.720797,0.000000,8660.409521
2055.109094,1776.494261,536.266849,8438.347739
2055.109416,814.226536,536.266849,10436.903782
2055.109737,-814.226536,-1072.533697,10288.862594
2055.110059,-1628.453072,-2681.334243,9918.759623
2055.110380,-1184.329507,-1838.629195,9622.677246
2055.110702,-3627.009116,-2298.286494,10510.924376
2055.111023,-4737.318029,-3753.867940,10288.862594
2055.111345,-3701.029710,-3753.867940,8068.244768
2055.111666,-3404.947333,-2757.943793,9104.533087
2055.111988,-3552.988522,-2374.896044,10066.800811
2055.112309,-4145.153275,-3600.648841,9548.656652
2055.112630,-1702.473667,-2298.286494,9252.574275
2055.112952,1998.556043,-842.705048,8808.450710
2055.113273,-518.144159,-1302.362347,8660.409521
2055.113595,444.123565,-612.876398,9178.553681
2055.113916,2146.597232,153.219100,9030.512492
2055.114238,4145.153275,1302.362347,8660.409521
2055.114559,2590.720797,536.266849,10066.800811
2055.114881,1184.329507,0.000000,8586.388927
2055.115202,3404.947333,1225.752797,9252.574275
2055.115524,4219.173869,2451.505594,10362.883188
2055.115845,1406.391290,612.876398,9696.697840
2055.116167,148.041188,536.266849,10807.006753
2055.116488,1110.308913,2528.115143,8808.450710
2055.116810,2664.741391,2681.334243,9474.636058
2055.117131,-148.041188,1225.752797,9030.512492
2055.117453,-3108.864956,306.438199,9474.636058
2055.117774,-1554.432478,2298.286494,9696.697840
2055.118096,-2442.679609,1838.629195,8882.471304
2055.118417,-4663.297435,612.876398,8364.327145
2055.118739,-5255.462188,-306.438199,7846.182985
2055.119060,-5551.544565,1072.533697,7772.162391
2055.119382,-4145.153275,766.095498,7624.121203
2055.119703,-4367.215058,153.219100,8438.347739
2055.120025,-4293.194464,995.924147,8956.491898
2055.120346,-3182.885551,1915.238745,7920.203579
2055.120668,-814.226536,2451.505594,7846.182985
2055.120989,888.247130,2221.676944,9178.553681
2055.121311,1258.350101,2528.115143,9104.533087
2055.121632,2664.741391,3983.696590,9992.780217
2055.121954,2886.803174,2681.334243,8438.347739
2055.122275,2738.761985,1762.019645,9992.780217
2055.122597,2886.803174,2298.286494,9252.574275
2055.122918,2960.823768,2911.162892,10214.842000
2055.123240,3256.906145,1762.019645,11251.130318
2055.123561,3627.009116,995.924147,11177.109724
2055.123883,3775.050304,1532.190996,9030.512492
2055.124204,3923.091493,2298.286494,9992.780217
2055.124526,2220.617826,1532.190996,10658.965565
2055.124847,2886.803174,612.876398,9178.553681
2055.125169,2368.659014,1455.581446,8660.409521
2055.125490,148.041188,383.047749,9326.594869
2055.125812,-1850.514855,-1532.190996,9400.615463
2055.126133,-2590.720797,-1991.848295,8142.265362
2055.126455,-1776.494261,-1378.971896,8216.285956
2055.126776,-4515.256246,-2374.896044,8660.409521
2055.127097,-6217.729913,-4213.525239,9400.615463
2055.127419,-4293.194464,-3983.696590,8438.347739
2055.127740,-2146.597232,-1378.971896,9474.636058
2055.128062,-3627.009116,-1608.800546,10510.924376
2055.128383,-3627.009116,-2451.505594,9918.759623
2055.128705,0.000000,-1225.752797,9474.636058
2055.129026,3478.967927,1455.581446,9770.718434
2055.129347,1924.535449,383.047749,9548.656652
2055.129669,148.041188,-306.438199,10214.842000
2055.129990,2886.803174,1149.143247,10436.903782
2055.130312,4737.318029,995.924147,8956.491898
2055.130633,3627.009116,689.485948,8586.388927
2055.130954,666.185348,459.657299,10955.047942
2055.131276,962.267725,1915.238745,10807.006753
2055.131597,2812.782580,842.705048,9400.615463
2055.131919,666.185348,0.000000,8290.306550
2055.132240,-2590.720797,229.828649,9252.574275
2055.132562,-2516.700203,1685.410096,8290.306550
2055.132883,-1998.556043,-383.047749,6809.894666
2055.133204,-1850.514855,153.219100,9696.697840
2055.133526,-4515.256246,842.705048,10658.965565
2055.133847,-4885.359217,1915.238745,10807.006753
2055.134169,-2812.782580,-76.609550,7254.018232
2055.134490,-3182.885551,-919.314598,6143.709319
2055.134811,-4219.173869,1302.362347,8956.491898
2055.135133,-4219.173869,2374.896044,8808.450710
2055.135454,-2664.741391,536.266849,7994.224174
2055.135776,-444.123565,0.000000,7105.977043
2055.136097,-666.185348,1302.362347,7994.224174
2055.136418,0.000000,2834.553343,9622.677246
2055.136740,0.000000,1991.848295,9696.697840
2055.137061,3256.906145,0.000000,8142.265362
2055.137383,3775.050304,1685.410096,10140.821405
2055.137704,2146.597232,2834.553343,10807.006753
2055.138026,2220.617826,1378.971896,10140.821405
2055.138347,3478.967927,612.876398,8734.430116
2055.138668,4959.379811,2911.162892,8660.409521
2055.138990,2960.823768,2298.286494,10658.965565
2055.139311,1332.370696,306.438199,9474.636058
2055.139633,2368.659014,0.000000,9548.656652
2055.139954,2738.761985,842.705048,10140.821405
2055.140275,-518.144159,0.000000,10288.862594
2055.140597,-2590.720797,-1302.362347,11103.089130
2055.140918,-2072.576638,-1072.533697,9252.574275
2055.141240,1184.329507,-383.047749,8660.409521
2055.141561,-2072.576638,-1378.971896,8734.430116
2055.141883,-4071.132681,-1991.848295,9474.636058
2055.142204,-1924.535449,-1455.581446,9622.677246
2055.142525,0.000000,-536.266849,9770.718434
2055.142847,-370.102971,-306.438199,10955.047942
2055.143168,-1776.494261,-1302.362347,8956.491898
2055.143490,-518.144159,766.095498,9474.636058
2055.143811,1924.535449,1225.752797,7698.141797
2055.144132,1110.308913,842.705048,7846.182985
2055.144454,0.000000,0.000000,9104.533087
2055.144775,-370.102971,1225.752797,9252.574275
2055.145097,1406.391290,1685.410096,8734.430116
2055.145418,1850.514855,689.485948,8290.306550
2055.145739,-444.123565,612.876398,8734.430116
2055.146061,296.082377,1915.238745,9474.636058
2055.146382,740.205942,2221.676944,9992.780217
2055.146704,962.267725,689.485948,8512.368333
2055.147025,222.061783,459.657299,9104.533087
2055.147347,-814.226536,2374.896044,9770.718434
2055.147668,-1850.514855,1532.190996,10288.862594
2055.147989,-1110.308913,459.657299,10066.800811
2055.148311,-1628.453072,689.485948,9104.533087
2055.148632,-1480.411884,1608.800546,8512.368333
2055.148954,-4219.173869,1072.533697,9104.533087
2055.149275,-1776.494261,0.000000,7846.182985
2055.149596,-1776.494261,229.828649,8068.244768
2055.149918,-1332.370696,1225.752797,8734.430116
2055.150239,-3552.988522,0.000000,9178.553681
2055.150561,-2664.741391,-1149.143247,6883.915261
2055.150882,-1702.473667,76.609550,9770.718434
2055.151204,-814.226536,0.000000,10510.924376
2055.151525,-3404.947333,-1072.533697,10214.842000
2055.151846,-962.267725,383.047749,11399.171507
2055.152168,1406.391290,612.876398,8290.306550
2055.152489,1998.556043,612.876398,8364.327145
2055.152811,814.226536,1225.752797,9770.718434
2055.153132,1480.411884,2528.115143,9252.574275
2055.153453,5329.482782,2374.896044,9178.553681
2055.153775,4515.256246,919.314598,7920.203579
2055.154096,1258.350101,612.876398,11177.109724
2055.154418,2368.659014,1072.533697,10658.965565
2055.154739,3182.885551,459.657299,8956.491898
2055.155060,3701.029710,-229.828649,8586.388927
2055.155382,74.020594,-1838.629195,9252.574275
2055.155703,-814.226536,-612.876398,11177.109724
2055.156025,666.185348,-459.657299,11029.068536
2055.156346,-444.123565,-2221.676944,10510.924376
2055.156668,-2812.782580,-2834.553343,9548.656652
2055.156989,-3034.844362,-1838.629195,8512.368333
2055.157310,-740.205942,-842.705048,8586.388927
2055.157632,444.123565,-306.438199,8290.306550
2055.157953,-1924.535449,-1455.581446,8956.491898
2055.158275,-2442.679609,0.000000,9918.759623
2055.158596,-1406.391290,995.924147,10510.924376
2055.158917,0.000000,-1532.190996,6439.791695
2055.159239,-444.123565,-995.924147,9178.553681
2055.159560,-814.226536,2451.505594,10066.800811
2055.159882,-592.164754,1149.143247,10658.965565
2055.160203,296.082377,0.000000,9030.512492
2055.160525,296.082377,-229.828649,8956.491898
2055.160846,444.123565,2221.676944,10510.924376
2055.161167,1036.288319,2528.115143,9992.780217
2055.161489,3034.844362,1455.581446,9770.718434
2055.161810,3552.988522,2604.724693,9770.718434
2055.162132,2220.617826,3600.648841,8734.430116
2055.162453,444.123565,2757.943793,9992.780217
2055.162774,592.164754,2145.067394,7105.977043
2055.163096,370.102971,2068.457845,8216.285956
2055.163417,0.000000,3294.210641,9474.636058
2055.163739,-2886.803174,2145.067394,9696.697840
2055.164060,-3627.009116,536.266849,8068.244768
2055.164381,-3182.885551,689.485948,6587.832884
2055.164703,-4441.235652,1532.190996,7624.121203
2055.165024,-5625.565159,1072.533697,9474.636058
2055.165346,-5847.626942,-229.828649,9622.677246
2055.165667,-1628.453072,842.705048,8364.327145
2055.165989,-1036.288319,2068.457845,9474.636058
2055.166310,-3256.906145,919.314598,9400.615463
2055.166631,-2368.659014,306.438199,9844.739029
2055.166953,296.082377,1455.581446,8882.471304
2055.167274,1628.453072,2068.457845,9770.718434
2055.167596,666.185348,1149.143247,8882.471304
2055.167917,740.205942,766.095498,8364.327145
2055.168238,4145.153275,2528.115143,8290.306550
2055.168560,3330.926739,1608.800546,9474.636058
2055.168881,2368.659014,0.000000,11029.068536
2055.169203,2220.617826,0.000000,10807.006753
2055.169524,3701.029710,1685.410096,10066.800811
2055.169846,3997.112087,689.485948,10436.903782
2055.170167,1258.350101,-1149.143247,9696.697840
2055.170488,814.226536,-1302.362347,9622.677246
2055.170810,1480.411884,536.266849,10288.862594
2055.171131,0.000000,-842.705048,10584.944971
2055.171453,-444.123565,-3140.991542,9770.718434
2055.171774,-1850.514855,-2528.115143,8438.347739
2055.172095,-1850.514855,-1608.800546,9474.636058
2055.172417,-2738.761985,-2528.115143,9696.697840
2055.172738,-2516.700203,-3447.429741,8512.368333
2055.173060,-2072.576638,-1685.410096,9400.615463
2055.173381,-2146.597232,-536.266849,8956.491898
2055.173702,-1184.329507,-2221.676944,7772.162391
2055.174024,74.020594,-2221.676944,8956.491898
2055.174345,-370.102971,-383.047749,8882.471304
2055.174667,-444.123565,-995.924147,9696.697840
2055.174988,-592.164754,-1915.238745,9252.574275
2055.175310,-222.061783,-1072.533697,9696.697840
2055.175631,1184.329507,1685.410096,10732.986159
2055.175952,-592.164754,-229.828649,9474.636058
2055.176274,740.205942,-919.314598,8734.430116
2055.176595,1850.514855,842.705048,9474.636058
2055.176917,888.247130,2528.115143,9992.780217
2055.177238,1184.329507,1149.143247,10214.842000
2055.177559,1184.329507,1072.533697,8734.430116
2055.177881,3108.864956,2834.553343,9326.594869
2055.178202,3108.864956,4673.182538,9400.615463
2055.178524,296.082377,2604.724693,9030.512492
2055.178845,-148.041188,1762.019645,10214.842000
2055.179167,-1184.329507,1532.190996,8586.388927
2055.179488,-2368.659014,995.924147,7698.141797
2055.179809,-4367.215058,-1302.362347,7994.224174
2055.180131,-7105.977043,-383.047749,10362.883188
2055.180452,-4737.318029,995.924147,9252.574275
2055.180774,-3701.029710,995.924147,9104.533087
2055.181095,-4145.153275,-153.219100,7031.956449
2055.181416,-3552.988522,689.485948,7550.100608
2055.181738,-666.185348,3830.477490,7772.162391
2055.182059,1332.370696,2911.162892,9252.574275
2055.182381,0.000000,1455.581446,8290.306550
2055.182702,444.123565,2374.896044,9104.533087
2055.183023,2960.823768,4826.401637,9104.533087
2055.183345,3997.112087,3064.381992,9992.780217
2055.183666,2886.803174,1455.581446,8956.491898
2055.183988,2220.617826,1532.190996,8956.491898
2055.184309,2368.659014,3217.601092,10140.821405
2055.184631,2664.741391,1225.752797,9770.718434
2055.184952,1406.391290,-306.438199,9844.739029
2055.185273,666.185348,1302.362347,9474.636058
2055.185595,1702.473667,1378.971896,9992.780217
2055.185916,2442.679609,612.876398,10288.862594
2055.186238,2220.617826,-842.705048,11177.109724
2055.186559,0.000000,0.000000,9252.574275
2055.186880,296.082377,459.657299,9178.553681
2055.187202,-370.102971,-536.266849,9252.574275
2055.187523,-1332.370696,-1532.190996,8290.306550
2055.187845,-962.267725,-459.657299,8586.388927
2055.188166,-2220.617826,-1302.362347,8882.471304
2055.188488,-2368.659014,-2221.676944,9104.533087
2055.188809,-2368.659014,-2528.115143,9992.780217
2055.189130,-2294.638420,-1455.581446,9770.718434
2055.189452,-2368.659014,-1149.143247,10140.821405
2055.189773,-1480.411884,-1149.143247,10584.944971
2055.190095,0.000000,-536.266849,9252.574275
2055.190416,1628.453072,995.924147,8364.327145
2055.190737,148.041188,612.876398,9400.615463
2055.191059,1036.288319,0.000000,9326.594869
2055.191380,2368.659014,0.000000,8882.471304
2055.191702,3256.906145,1762.019645,9030.512492
2055.192023,1480.411884,1149.143247,10362.883188
2055.192344,-296.082377,459.657299,9622.677246
2055.192666,1258.350101,-229.828649,7550.100608
2055.192987,1258.350101,383.047749,7920.203579
2055.193309,-1036.288319,1378.971896,9548.656652
2055.193630,-1628.453072,0.000000,9178.553681
2055.193952,-222.061783,306.438199,9326.594869
2055.194273,0.000000,1532.190996,10362.883188
2055.194594,-3034.844362,-229.828649,10658.965565
2055.194916,-4219.173869,-766.095498,9992.780217
2055.195237,-2516.700203,76.609550,9104.533087
2055.195559,-3108.864956,0.000000,8586.388927
2055.195880,-4737.318029,-689.485948,9252.574275
2055.196201,-6217.729913,-1608.800546,8290.306550
2055.196523,-4441.235652,-383.047749,7772.162391
2055.196844,-2590.720797,0.000000,7476.080014
2055.197166,-3108.864956,-842.705048,8438.347739
2055.197487,-2516.700203,919.314598,10955.047942
2055.197809,-592.164754,1762.019645,9474.636058
2055.198130,2368.659014,1378.971896,9474.636058
2055.198451,2146.597232,612.876398,8438.347739
2055.198773,1850.514855,1225.752797,8882.471304
2055.199094,3404.947333,2145.067394,8586.388927
2055.199416,4737.318029,1685.410096,9474.636058
2055.199737,3849.070898,1455.581446,10955.047942
2055.200058,4145.153275,1455.581446,10510.924376
2055.200380,2146.597232,1685.410096,9770.718434
2055.200701,2664.741391,229.828649,7698.141797
2055.201023,2220.617826,-306.438199,9400.615463
2055.201344,1406.391290,383.047749,11029.068536
2055.201665,-1184.329507,766.095498,11769.274478
2055.201987,-962.267725,-1455.581446,8512.368333
2055.202308,1258.350101,-995.924147,7698.141797
2055.202630,-666.185348,306.438199,9844.739029
2055.202951,-1850.514855,-76.609550,9622.677246
2055.203273,-3108.864956,-2145.067394,9178.553681
2055.203594,-1332.370696,-1225.752797,9252.574275
2055.203915,-1924.535449,0.000000,10584.944971
2055.204237,-2664.741391,-459.657299,9992.780217
2055.204558,-2146.597232,-1149.143247,9030.512492
2055.204880,740.205942,306.438199,7105.977043
2055.205201,1554.432478,1302.362347,8808.450710
2055.205522,74.020594,1302.362347,8882.471304
2055.205844,740.205942,1455.581446,9326.594869
2055.206165,3775.050304,2451.505594,8068.244768
2055.206487,3701.029710,2987.772442,9474.636058
2055.206808,1702.473667,2681.334243,9474.636058
2055.207130,1332.370696,2221.676944,10807.006753
2055.207451,2738.761985,2987.772442,8438.347739
2055.207772,1480.411884,1455.581446,9104.533087
2055.208094,-1258.350101,1838.629195,10066.800811
2055.208415,-2886.803174,153.219100,9918.759623
2055.208737,-1406.391290,1685.410096,8956.491898
2055.209058,-518.144159,459.657299,8364.327145
2055.209379,-2590.720797,1378.971896,9770.718434
2055.209701,-3330.926739,1302.362347,9178.553681
2055.210022,-1776.494261,1838.629195,7994.224174
2055.210344,-740.205942,1455.581446,8142.265362
2055.210665,-1702.473667,995.924147,7772.162391
2055.210986,-3182.885551,306.438199,8364.327145
2055.211308,-296.082377,1532.190996,8142.265362
2055.211629,-518.144159,689.485948,9622.677246
2055.211951,-2072.576638,306.438199,9844.739029
2055.212272,-2960.823768,-383.047749,10140.821405
2055.212594,-3256.906145,153.219100,9178.553681
2055.212915,-2220.617826,-1225.752797,8734.430116
2055.213236,-1850.514855,-306.438199,9474.636058
2055.213558,-518.144159,0.000000,10510.924376
2055.213879,-518.144159,383.047749,10288.862594
2055.214201,518.144159,229.828649,9918.759623
2055.214522,2368.659014,689.485948,9474.636058
2055.214843,2368.659014,1608.800546,8956.491898
2055.215165,1628.453072,995.924147,8882.471304
2055.215486,2738.761985,0.000000,9844.739029
2055.215808,2590.720797,-459.657299,8512.368333
2055.216129,2738.761985,229.828649,8956.491898
2055.216451,888.247130,-842.705048,9178.553681
2055.216772,-1258.350101,-2451.505594,9844.739029
2055.217093,0.000000,-2528.115143,10510.924376
2055.217415,296.082377,-1762.019645,10288.862594
2055.217736,-814.226536,-2451.505594,11547.212695
2055.218058,-2368.659014,-2757.943793,9252.574275
2055.218379,-444.123565,-2451.505594,9400.615463
2055.218700,1036.288319,-1378.971896,8512.368333
2055.219022,-962.267725,-1378.971896,9696.697840
2055.219343,-1036.288319,-842.705048,10362.883188
2055.219665,1406.391290,0.000000,9696.697840
2055.219986,2812.782580,306.438199,9474.636058
2055.220307,1110.308913,689.485948,9622.677246
2055.220629,-1184.329507,-383.047749,8438.347739
2055.220950,0.000000,0.000000,8512.368333
2055.221272,962.267725,459.657299,8438.347739
2055.221593,-222.061783,0.000000,10362.883188
2055.221915,-962.267725,76.609550,10436.903782
2055.222236,740.205942,1302.362347,8956.491898
2055.222557,2368.659014,2145.067394,9622.677246
2055.222879,1332.370696,1378.971896,8734.430116
2055.223200,0.000000,1225.752797,8956.491898
2055.223522,814.226536,3524.039291,9548.656652
2055.223843,1110.308913,2987.772442,8438.347739
2055.224164,74.020594,1378.971896,7105.977043
2055.224486,-518.144159,2451.505594,8734.430116
2055.224807,-1776.494261,3830.477490,8216.285956
2055.225129,-1406.391290,2298.286494,8290.306550
2055.225450,-2072.576638,0.000000,7402.059420
2055.225772,-3552.988522,1225.752797,9178.553681
2055.226093,-4515.256246,1915.238745,10066.800811
2055.226414,-3701.029710,995.924147,9918.759623
2055.226736,-2960.823768,-459.657299,9400.615463
2055.227057,-1406.391290,2145.067394,8734.430116
2055.227379,-1924.535449,2834.553343,10140.821405
2055.227700,-592.164754,2451.505594,9474.636058
2055.228022,1110.308913,1149.143247,8290.306550
2055.228343,2146.597232,3064.381992,7994.224174
2055.228665,1480.411884,3907.087040,10436.903782
2055.228986,740.205942,1532.190996,8882.471304
2055.229308,2368.659014,1762.019645,8438.347739
2055.229629,3182.885551,2834.553343,8734.430116
2055.229951,1628.453072,2987.772442,9400.615463
2055.230272,1036.288319,1072.533697,8956.491898
2055.230594,1332.370696,76.609550,9474.636058
2055.230915,2886.803174,1072.533697,8660.409521
2055.231237,592.164754,-229.828649,9622.677246
2055.231558,-1184.329507,-383.047749,11843.295072
2055.231880,-222.061783,-842.705048,11843.295072
2055.232201,1776.494261,-153.219100,9844.739029
2055.232523,740.205942,-766.095498,9548.656652
2055.232844,-1702.473667,-1149.143247,10955.047942
2055.233166,-1258.350101,-1302.362347,9622.677246
2055.233487,370.102971,-612.876398,8734.430116
2055.233809,0.000000,-1149.143247,8216.285956
2055.234130,-1110.308913,-1608.800546,9400.615463
2055.234452,-2220.617826,-842.705048,7772.162391
2055.234774,1702.473667,-306.438199,7920.203579
2055.235095,-222.061783,-1225.752797,8660.409521
2055.235417,-1702.473667,-2145.067394,8660.409521
2055.235738,-2072.576638,-2145.067394,9326.594869
2055.236060,518.144159,-995.924147,8586.388927
2055.236381,0.000000,-1302.362347,9548.656652
2055.236703,-222.061783,-919.314598,11547.212695
2055.237024,-1406.391290,-306.438199,10362.883188
2055.237346,1628.453072,-383.047749,8882.471304
2055.237667,1258.350101,0.000000,9400.615463
2055.237989,1776.494261,612.876398,9770.718434
2055.238310,666.185348,1838.629195,10214.842000
2055.238632,3256.906145,1608.800546,9622.677246
2055.238953,1702.473667,1225.752797,10140.821405
2055.239275,518.144159,0.000000,9252.574275
2055.239596,-1406.391290,0.000000,9992.780217
2055.239918,-2368.659014,0.000000,8512.368333
2055.240239,-3552.988522,-1762.019645,8808.450710
2055.240561,-3775.050304,-919.314598,9400.615463
2055.240882,-5329.482782,-1378.971896,9030.512492
2055.241204,-5847.626942,-995.924147,8068.244768
2055.241525,-6143.709319,-1685.410096,7179.997637
2055.241847,-4885.359217,-1915.238745,8216.285956
2055.242168,-4293.194464,0.000000,8808.450710
2055.242490,-3478.967927,459.657299,9178.553681
2055.242811,-2146.597232,689.485948,8956.491898
2055.243133,74.020594,1991.848295,7179.997637
2055.243454,1036.288319,1762.019645,7254.018232
2055.243776,1776.494261,1991.848295,8216.285956
2055.244097,2442.679609,2145.067394,10658.965565
2055.244419,4663.297435,3064.381992,11325.150913
2055.244740,4589.276840,2757.943793,11547.212695
2055.245062,3997.112087,2221.676944,11103.089130
2055.245383,3330.926739,2221.676944,11991.336260
2055.245705,5625.565159,3294.210641,10807.006753
2055.246026,4367.215058,2451.505594,10658.965565
2055.246348,3404.947333,3294.210641,11103.089130
2055.246669,2368.659014,2145.067394,9992.780217
2055.246991,3256.906145,3140.991542,8364.327145
2055.247312,2812.782580,3370.820191,8956.491898
2055.247634,-962.267725,1838.629195,8660.409521
2055.247955,-2294.638420,383.047749,8364.327145
2055.248277,-1998.556043,306.438199,6217.729913
2055.248598,-2294.638420,306.438199,7031.956449
2055.248920,-5255.462188,-689.485948,7772.162391
2055.249241,-7105.977043,-1762.019645,6883.915261
2055.249563,-4441.235652,-229.828649,7105.977043
2055.249884,-4071.132681,-536.266849,6957.935855
2055.250206,-3330.926739,76.609550,8290.306550
2055.250527,-1036.288319,459.657299,8808.450710
2055.250849,2146.597232,2528.115143,8660.409521
2055.251170,4737.318029,2757.943793,9918.759623
2055.251492,4441.235652,2451.505594,10510.924376
2055.251813,4663.297435,3217.601092,10955.047942
2055.252135,7105.977043,3907.087040,10658.965565
2055.252456,6439.791695,2911.162892,9770.718434
2055.252778,5847.626942,459.657299,9474.636058
2055.253099,4367.215058,2298.286494,11843.295072
2055.253421,2442.679609,1302.362347,11251.130318
2055.253742,2072.576638,-229.828649,10140.821405
2055.254064,-296.082377,-536.266849,10288.862594
2055.254385,-1554.432478,459.657299,10436.903782
2055.254707,-3478.967927,-536.266849,10807.006753
2055.255028,-3775.050304,-1378.971896,9770.718434
2055.255350,-4441.235652,-1608.800546,9326.594869
2055.255671,-5329.482782,-1302.362347,8882.471304
2055.255993,-8068.244768,-2068.457845,9030.512492
2055.256314,-7105.977043,-2987.772442,7772.162391
2055.256636,-6069.688724,-2451.505594,8586.388927
2055.256957,-5921.647536,-1149.143247,8586.388927
2055.257279,-7920.203579,-3140.991542,7920.203579
2055.257600,-6661.853478,-2451.505594,7994.224174
2055.257922,-3256.906145,-1225.752797,8068.244768
2055.258243,-2664.741391,-1378.971896,8290.306550
2055.258565,-1776.494261,-1302.362347,9770.718434
2055.258886,0.000000,-995.924147,8882.471304
2055.259208,3404.947333,1225.752797,9474.636058
2055.259530,4589.276840,1149.143247,10066.800811
2055.259851,3404.947333,-153.219100,9326.594869
2055.260173,3923.091493,153.219100,9104.533087
2055.260494,5995.668130,1991.848295,9252.574275
2055.260816,5477.523971,766.095498,9548.656652
2055.261137,4441.235652,536.266849,10732.986159
2055.261459,2664.741391,229.828649,9696.697840
2055.261780,3923.091493,689.485948,8882.471304
2055.262102,3182.885551,-383.047749,10066.800811
2055.262423,666.185348,-1455.581446,9548.656652
2055.262745,-740.205942,-383.047749,12287.418637
2055.263066,-2072.576638,-612.876398,10881.027347
2055.263388,-1258.350101,-2145.067394,10436.903782
2055.263709,-1110.308913,-2068.457845,9474.636058
2055.264031,-3182.885551,-612.876398,10510.924376
2055.264352,-2368.659014,-995.924147,10510.924376
2055.264674,-2886.803174,-1915.238745,9178.553681
2055.264995,-2072.576638,-689.485948,9474.636058
2055.265317,-2368.659014,-536.266849,8216.285956
2055.265638,-2294.638420,229.828649,8512.368333
2055.265960,-148.041188,995.924147,7105.977043
2055.266281,962.267725,1685.410096,8142.265362
2055.266603,1998.556043,3370.820191,8586.388927
2055.266924,814.226536,3370.820191,8808.450710
2055.267246,2960.823768,1685.410096,6291.750507
2055.267567,4145.153275,2604.724693,7476.080014
2055.267889,2072.576638,4366.744339,9030.512492
2055.268210,2220.617826,3140.991542,11399.171507
2055.268532,2516.700203,2987.772442,10362.883188
2055.268853,3849.070898,3983.696590,10214.842000
2055.269175,2812.782580,4826.401637,10140.821405
2055.269496,592.164754,3753.867940,9474.636058
2055.269818,962.267725,3140.991542,8734.430116
2055.270139,3627.009116,4366.744339,8216.285956
2055.270461,1332.370696,4596.572988,9992.780217
2055.270782,-1406.391290,2681.334243,9178.553681
2055.271104,-3552.988522,1378.971896,8438.347739
2055.271425,-1406.391290,1991.848295,8216.285956
2055.271747,-4515.256246,1378.971896,9178.553681
2055.272068,-6291.750507,-612.876398,9474.636058
2055.272390,-7698.141797,-2145.067394,10288.862594
2055.272711,-6809.894666,-842.705048,8364.327145
2055.273033,-6809.894666,-2374.896044,8956.491898
2055.273354,-7846.182985,-2221.676944,9844.739029
2055.273676,-7920.203579,-1532.190996,9030.512492
2055.273997,-4071.132681,-76.609550,9474.636058
2055.274319,-1036.288319,0.000000,7772.162391
2055.274640,-888.247130,766.095498,8512.368333
2055.274962,296.082377,1762.019645,8142.265362
2055.275283,2664.741391,2528.115143,7402.059420
2055.275605,5699.585753,2374.896044,8290.306550
2055.275926,5477.523971,1762.019645,9178.553681
2055.276248,4589.276840,2528.115143,8882.471304
2055.276569,6587.832884,1915.238745,8808.450710
2055.276891,6439.791695,995.924147,9548.656652
2055.277212,4441.235652,-689.485948,9918.759623
2055.277534,3552.988522,-1149.143247,10362.883188
2055.277855,2590.720797,-1225.752797,11103.089130
2055.278177,2664.741391,-2451.505594,10955.047942
2055.278498,1258.350101,-4136.915689,10214.842000
2055.278820,-1110.308913,-2757.943793,11177.109724
2055.279141,-2516.700203,-2757.943793,12213.398043
2055.279463,-2368.659014,-3524.039291,10584.944971
2055.279784,-1924.535449,-4366.744339,9326.594869
2055.280106,-2368.659014,-3294.210641,7994.224174
2055.280427,-4441.235652,-2911.162892,9918.759623
2055.280749,-2812.782580,-3294.210641,9252.574275
2055.281070,-962.267725,-3447.429741,10066.800811
2055.281392,-814.226536,-1302.362347,9326.594869
2055.281713,-2960.823768,-1685.410096,11325.150913
2055.282035,-2368.659014,-1915.238745,9918.759623
2055.282356,0.000000,-1685.410096,9400.615463
2055.282678,1776.494261,459.657299,9474.636058
2055.282999,518.144159,229.828649,11029.068536
2055.283321,370.102971,919.314598,9696.697840
2055.283642,3775.050304,1685.410096,9030.512492
2055.283964,4589.276840,2604.724693,7402.059420
2055.284286,2294.638420,2681.334243,9326.594869
2055.284607,1258.350101,3064.381992,8882.471304
2055.284929,3034.844362,3294.210641,7550.100608
2055.285250,3627.009116,3524.039291,7254.018232
2055.285572,1406.391290,2681.334243,7920.203579
2055.285893,-2146.597232,2451.505594,9104.533087
2055.286215,-1702.473667,2911.162892,8364.327145
2055.286536,-2072.576638,1455.581446,8142.265362
2055.286858,-5033.400406,1072.533697,8512.368333
2055.287179,-6365.771101,536.266849,9252.574275
2055.287501,-6217.729913,76.609550,7550.100608
2055.287822,-4737.318029,0.000000,8216.285956
2055.288144,-6587.832884,-536.266849,9474.636058
2055.288465,-7772.162391,-689.485948,9770.718434
2055.288787,-4959.379811,229.828649,9622.677246
2055.289108,-2738.761985,76.609550,8882.471304
2055.289430,-2220.617826,536.266849,9474.636058
2055.289751,-444.123565,1532.190996,9326.594869
2055.290073,1184.329507,2451.505594,8512.368333
2055.290394,4737.318029,3140.991542,9474.636058
2055.290716,5847.626942,3600.648841,10288.862594
2055.291037,5847.626942,4673.182538,12065.356855
2055.291359,7402.059420,5132.839837,11251.130318
2055.291680,8808.450710,5132.839837,10807.006753
2055.292002,9252.574275,4826.401637,11843.295072
2055.292323,7920.203579,4213.525239,9844.739029
2055.292645,5847.626942,3447.429741,9770.718434
2055.292966,4515.256246,2451.505594,10436.903782
2055.293288,1924.535449,1608.800546,10140.821405
2055.293609,-518.144159,919.314598,10140.821405
2055.293931,-3108.864956,-306.438199,8068.244768
2055.294252,-5995.668130,-1608.800546,6809.894666
2055.294574,-5181.441594,-1685.410096,7031.956449
2055.294895,-6661.853478,-2374.896044,5921.647536
2055.295217,-8808.450710,-2451.505594,6883.915261
2055.295538,-9918.759623,-2451.505594,5699.585753
2055.295860,-6735.874072,-2911.162892,4959.379811
2055.296181,-2590.720797,-1608.800546,5699.585753
2055.296503,-3775.050304,-229.828649,7994.224174
2055.296824,-1998.556043,-689.485948,7624.121203
2055.297146,1998.556043,-842.705048,7920.203579
2055.297467,4737.318029,1455.581446,9104.533087
2055.297789,4737.318029,766.095498,11325.150913
2055.298110,4145.153275,1149.143247,12583.501014
2055.298432,7846.182985,1302.362347,11103.089130
2055.298753,9696.697840,2068.457845,12731.542202
2055.299075,8364.327145,2145.067394,13397.727550
2055.299396,5255.462188,1455.581446,14434.015869
2055.299718,5773.606348,1302.362347,11769.274478
2055.300039,5107.421000,76.609550,11251.130318
2055.300361,1258.350101,-1072.533697,11621.233289
2055.300682,-2664.741391,-2221.676944,11103.089130
2055.301004,-2886.803174,-689.485948,10732.986159
2055.301325,-3923.091493,-2221.676944,9252.574275
2055.301647,-6587.832884,-2987.772442,9844.739029
2055.301968,-9400.615463,-3830.477490,9030.512492
2055.302290,-9548.656652,-2757.943793,5847.626942
2055.302611,-8586.388927,-2451.505594,4737.318029
2055.302933,-9474.636058,-3447.429741,5551.544565
2055.303254,-9252.574275,-2068.457845,6661.853478
2055.303576,-7698.141797,-1532.190996,6513.812290
2055.303897,-5921.647536,-995.924147,5699.585753
2055.304219,-3108.864956,-1608.800546,6735.874072
2055.304540,-2368.659014,153.219100,10066.800811
2055.304862,-148.041188,995.924147,8586.388927
2055.305183,1850.514855,536.266849,8512.368333
2055.305505,4737.318029,306.438199,6809.894666
2055.305826,4737.318029,2145.067394,9030.512492
2055.306148,4885.359217,3217.601092,11251.130318
2055.306469,6069.688724,1762.019645,11177.109724
2055.306791,7105.977043,689.485948,10584.944971
2055.307112,7254.018232,2298.286494,10732.986159
2055.307434,4885.359217,1991.848295,11325.150913
2055.307755,3552.988522,766.095498,11251.130318
2055.308077,2960.823768,-229.828649,10288.862594
2055.308398,2590.720797,229.828649,9104.533087
2055.308720,-444.123565,229.828649,9844.739029
2055.309041,-1998.556043,-306.438199,11029.068536
2055.309363,-2812.782580,-1532.190996,11547.212695
2055.309685,-2442.679609,-995.924147,9992.780217
2055.310006,-4293.194464,-1685.410096,10436.903782
2055.310328,-5625.565159,-1838.629195,9918.759623
2055.310649,-5107.421000,-1838.629195,9474.636058
2055.310971,-2294.638420,0.000000,8882.471304
2055.311292,-2886.803174,153.219100,9548.656652
2055.311614,-2664.741391,612.876398,9548.656652
2055.311935,-1258.350101,2068.457845,9770.718434
2055.312257,2664.741391,3370.820191,9326.594869
2055.312578,2738.761985,3217.601092,8808.450710
2055.312900,1554.432478,3447.429741,8290.306550
2055.313221,3552.988522,4903.011187,8512.368333
2055.313543,4885.359217,5822.325785,8882.471304
2055.313864,4441.235652,4749.792088,7698.141797
2055.314186,3552.988522,4060.306139,7254.018232
2055.314507,2294.638420,5209.449386,6883.915261
2055.314829,3478.967927,5975.544884,8586.388927
2055.315150,2442.679609,3983.696590,7920.203579
2055.315472,1036.288319,3217.601092,6883.915261
2055.315793,-740.205942,4903.011187,8364.327145
2055.316115,-740.205942,3983.696590,7846.182985
2055.316436,-370.102971,1685.410096,8068.244768
2055.316758,-2664.741391,1762.019645,8586.388927
2055.317079,-3775.050304,2528.115143,10362.883188
2055.317401,-3849.070898,1072.533697,8660.409521
2055.317722,-4589.276840,-1072.533697,7994.224174
2055.318044,-3849.070898,-306.438199,9770.718434
2055.318365,-6513.812290,0.000000,10658.965565
2055.318687,-6217.729913,-1149.143247,9400.615463
2055.319008,-3627.009116,-2374.896044,8142.265362
2055.319330,-2960.823768,-995.924147,9326.594869
2055.319651,-2368.659014,0.000000,10436.903782
2055.319973,-1776.494261,-383.047749,10140.821405
2055.320294,2738.761985,536.266849,10214.842000
2055.320616,4515.256246,919.314598,9622.677246
2055.320937,3997.112087,995.924147,9918.759623
2055.321259,4441.235652,76.609550,9770.718434
2055.321580,5773.606348,766.095498,9696.697840
2055.321902,5995.668130,1225.752797,11251.130318
2055.322223,4811.338623,536.266849,10362.883188
2055.322545,2812.782580,-153.219100,9474.636058
2055.322866,3256.906145,-383.047749,9548.656652
2055.323188,2368.659014,-995.924147,8956.491898
2055.323509,74.020594,-2298.286494,9770.718434
2055.323831,-1924.535449,-2374.896044,9918.759623
2055.324152,-2590.720797,-3753.867940,8586.388927
2055.324474,-1258.350101,-3370.820191,8734.430116
2055.324795,-3034.844362,-2911.162892,10066.800811
2055.325117,-5107.421000,-3983.696590,10214.842000
2055.325438,-3997.112087,-3907.087040,8956.491898
2055.325760,-3034.844362,-3370.820191,7920.203579
2055.326081,-4145.153275,-3753.867940,7846.182985
2055.326403,-4737.318029,-3830.477490,8512.368333
2055.326724,-4663.297435,-3370.820191,8364.327145
2055.327046,-3256.906145,-2145.067394,9622.677246
2055.327367,-2368.659014,-2145.067394,9178.553681
2055.327689,-2294.638420,-2834.553343,8142.265362
2055.328010,-2072.576638,-766.095498,8142.265362
2055.328332,1036.288319,-612.876398,7254.018232
2055.328653,0.000000,-1072.533697,8734.430116
2055.328975,0.000000,-306.438199,10807.006753
2055.329296,-592.164754,-919.314598,9770.718434
2055.329618,1480.411884,153.219100,9844.739029
2055.329940,2368.659014,306.438199,9400.615463
2055.330261,1998.556043,1455.581446,11399.171507
2055.330583,2368.659014,2451.505594,11843.295072
2055.330904,3108.864956,2374.896044,10066.800811
2055.331226,3034.844362,2681.334243,8586.388927
2055.331548,2960.823768,4136.915689,8808.450710
2055.331869,2220.617826,4826.401637,9400.615463
2055.332191,2886.803174,3677.258390,9104.533087
2055.332512,1628.453072,3677.258390,9400.615463
2055.332834,0.000000,3753.867940,9104.533087
2055.333156,-2442.679609,2451.505594,10362.883188
2055.333477,-2294.638420,1915.238745,8882.471304
2055.333799,-4737.318029,1225.752797,10732.986159
2055.334121,-3404.947333,1225.752797,8216.285956
2055.334442,-6069.688724,612.876398,9178.553681
2055.334764,-4737.318029,1991.848295,8142.265362
2055.335085,-3404.947333,1685.410096,9474.636058
2055.335407,-2072.576638,3217.601092,8142.265362
2055.335729,-1850.514855,3983.696590,8660.409521
2055.336050,-1258.350101,5132.839837,8956.491898
2055.336372,1480.411884,4596.572988,9252.574275
2055.336693,4589.276840,5745.716235,7846.182985
2055.337015,4441.235652,6894.859482,6513.812290
2055.337337,5403.503377,6665.030833,6661.853478
2055.337658,5773.606348,6052.154434,7772.162391
2055.337980,7624.121203,5592.497135,6957.935855
2055.338301,6809.894666,4749.792088,8586.388927
2055.338623,4071.132681,4060.306139,9770.718434
2055.338945,2220.617826,2911.162892,10807.006753
2055.339266,4885.359217,2604.724693,9548.656652
2055.339588,4071.132681,1225.752797,8586.388927
2055.339909,296.082377,612.876398,9992.780217
2055.340231,-1850.514855,766.095498,11251.130318
2055.340553,-2072.576638,-459.657299,10584.944971
2055.340874,-444.123565,-1378.971896,9030.512492
2055.341196,-3478.967927,-1838.629195,9326.594869
2055.341517,-5477.523971,-1685.410096,9252.574275
2055.341839,-3182.885551,-2451.505594,9400.615463
2055.342161,-2664.741391,-2451.505594,10214.842000
2055.342482,-2368.659014,-2987.772442,9252.574275
2055.342804,-2812.782580,-2145.067394,10658.965565
2055.343125,-2738.761985,-2068.457845,9696.697840
2055.343447,740.205942,-3140.991542,8660.409521
2055.343769,-444.123565,-2681.334243,10584.944971
2055.344090,370.102971,-1302.362347,11917.315666
2055.344412,666.185348,-2528.115143,10955.047942
2055.344734,2294.638420,-1685.410096,10214.842000
2055.345055,3108.864956,-1838.629195,11029.068536
2055.345377,1036.288319,-1225.752797,10362.883188
2055.345698,962.267725,-1302.362347,10881.027347
2055.346020,1184.329507,-1685.410096,8512.368333
2055.346342,518.144159,-2298.286494,8808.450710
2055.346663,148.041188,-1378.971896,9474.636058
2055.346985,-3330.926739,-1608.800546,8808.450710
2055.347306,-1998.556043,-1378.971896,8956.491898
2055.347628,-2590.720797,-1608.800546,8512.368333
2055.347950,-3997.112087,-1762.019645,7920.203579
2055.348271,-6217.729913,-1838.629195,8808.450710
2055.348593,-5921.647536,-2451.505594,6587.832884
2055.348914,-5033.400406,-2834.553343,6809.894666
2055.349236,-5033.400406,-2298.286494,7476.080014
2055.349558,-7402.059420,-2451.505594,8512.368333
2055.349879,-5699.585753,-2068.457845,9992.780217
2055.350201,-3108.864956,-1608.800546,8586.388927
2055.350522,-1998.556043,-612.876398,8956.491898
2055.350844,-1702.473667,0.000000,9844.739029
2055.351166,-1480.411884,766.095498,9918.759623
2055.351487,1480.411884,1915.238745,8808.450710
2055.351809,2886.803174,1685.410096,9252.574275
2055.352130,1998.556043,2451.505594,9992.780217
2055.352452,2146.597232,2374.896044,11177.109724
2055.352774,4663.297435,2681.334243,10732.986159
2055.353095,5551.544565,2374.896044,11177.109724
2055.353417,3478.967927,2528.115143,10658.965565
2055.353739,1998.556043,3370.820191,11029.068536
2055.354060,2886.803174,2604.724693,9992.780217
2055.354382,3849.070898,1991.848295,8364.327145
2055.354703,2516.700203,2298.286494,8512.368333
2055.355025,1258.350101,3370.820191,9844.739029
2055.355347,148.041188,3064.381992,10362.883188
2055.355668,1332.370696,1072.533697,8142.265362
2055.355990,222.061783,1685.410096,7994.224174
2055.356311,-370.102971,2834.553343,8142.265362
2055.356633,-2294.638420,2145.067394,7254.018232
2055.356955,-1702.473667,306.438199,6661.853478
2055.357276,0.000000,612.876398,6365.771101
2055.357598,-2072.576638,1915.238745,9030.512492
2055.357919,-2368.659014,1225.752797,8364.327145
2055.358241,-1184.329507,0.000000,6735.874072
2055.358563,666.185348,1149.143247,8808.450710
2055.358884,666.185348,2451.505594,11399.171507
2055.359206,0.000000,1991.848295,10955.047942
2055.359527,2294.638420,1915.238745,8882.471304
2055.359849,5625.565159,3677.258390,9770.718434
2055.360171,4885.359217,4596.572988,10881.027347
2055.360492,3997.112087,3600.648841,11325.150913
2055.360814,3997.112087,2604.724693,9548.656652
2055.361135,5625.565159,3524.039291,9992.780217
2055.361457,4219.173869,3447.429741,11399.171507
2055.361779,1628.453072,1072.533697,10807.006753
2055.362100,74.020594,536.266849,11843.295072
2055.362422,0.000000,1302.362347,9474.636058
2055.362743,-2886.803174,153.219100,10362.883188
2055.363065,-4737.318029,-612.876398,9770.718434
2055.363387,-8290.306550,-2451.505594,8364.327145
2055.363708,-6143.709319,-1378.971896,7105.977043
2055.364030,-7031.956449,-1225.752797,8142.265362
2055.364352,-8956.491898,-2068.457845,7550.100608
2055.364673,-9326.594869,-2451.505594,8142.265362
2055.364995,-6661.853478,-383.047749,6143.709319
2055.365316,-4441.235652,0.000000,6365.771101
2055.365638,-4293.194464,-1149.143247,5921.647536
2055.365960,-3923.091493,-919.314598,8068.244768
2055.366281,74.020594,766.095498,7846.182985
2055.366603,1702.473667,-229.828649,7698.141797
2055.366924,2294.638420,-383.047749,8586.388927
2055.367246,2886.803174,995.924147,10658.965565
2055.367568,4737.318029,1072.533697,11103.089130
2055.367889,6069.688724,536.266849,11029.068536
2055.368211,5773.606348,-536.266849,11251.130318
2055.368532,5329.482782,459.657299,12435.459826
2055.368854,5181.441594,459.657299,11177.109724
2055.369176,5477.523971,-1149.143247,10807.006753
2055.369497,4811.338623,-1149.143247,11769.274478
2055.369819,2072.576638,-689.485948,11621.233289
2055.370140,666.185348,-1149.143247,12435.459826
2055.370462,-1332.370696,-2681.334243,10066.800811
2055.370784,-2738.761985,-4060.306139,9770.718434
2055.371105,-4515.256246,-3064.381992,10066.800811
2055.371427,-6217.729913,-3370.820191,9104.533087
2055.371748,-7328.038826,-3447.429741,8734.430116
2055.372070,-5329.482782,-3907.087040,7402.059420
2055.372392,-4663.297435,-1685.410096,8882.471304
2055.372713,-4441.235652,-1378.971896,9252.574275
2055.373035,-3034.844362,-1225.752797,8882.471304
2055.373356,740.205942,-689.485948,7772.162391
2055.373678,1850.514855,1608.800546,9104.533087
2055.374000,962.267725,1532.190996,8956.491898
2055.374321,3330.926739,1685.410096,7920.203579
2055.374643,4441.235652,2374.896044,8734.430116
2055.374965,5477.523971,3830.477490,7105.977043
2055.375286,4071.132681,3294.210641,9992.780217
2055.375608,2590.720797,2604.724693,9400.615463
2055.375929,4441.235652,3140.991542,9696.697840
2055.376251,4071.132681,3524.039291,7698.141797
2055.376573,2072.576638,3447.429741,9178.553681
2055.376894,592.164754,3677.258390,10955.047942
2055.377216,666.185348,3753.867940,10214.842000
2055.377537,1554.432478,3753.867940,9178.553681
2055.377859,-1184.329507,2757.943793,9104.533087
2055.378181,-3849.070898,2298.286494,9696.697840
2055.378502,-2738.761985,2451.505594,9622.677246
2055.378824,-2738.761985,1991.848295,8808.450710
2055.379145,-4293.194464,766.095498,8660.409521
2055.379467,-6365.771101,612.876398,8956.491898
2055.379789,-5699.585753,2068.457845,9252.574275
2055.380110,-4515.256246,1072.533697,8586.388927
2055.380432,-3849.070898,153.219100,7920.203579
2055.380753,-4663.297435,1455.581446,8068.244768
2055.381075,-3108.864956,3064.381992,8808.450710
2055.381397,-1036.288319,2757.943793,8734.430116
2055.381718,1406.391290,2145.067394,7846.182985
2055.382040,1850.514855,2911.162892,7698.141797
2055.382361,1554.432478,4749.792088,10140.821405
2055.382683,2516.700203,2834.553343,8438.347739
2055.383005,2960.823768,1455.581446,8512.368333
2055.383326,3404.947333,3064.381992,8142.265362
2055.383648,2664.741391,2911.162892,8142.265362
2055.383970,2368.659014,1455.581446,7476.080014
2055.384291,4367.215058,229.828649,8068.244768
2055.384613,3478.967927,842.705048,9104.533087
2055.384934,1850.514855,229.828649,9770.718434
2055.385256,962.267725,-1608.800546,10807.006753
2055.385578,2590.720797,-2834.553343,10955.047942
2055.385899,2960.823768,-1532.190996,12435.459826
2055.386221,814.226536,-1838.629195,13397.727550
2055.386542,-1332.370696,-3140.991542,13027.624579
2055.386864,444.123565,-3753.867940,11621.233289
2055.387186,0.000000,-2987.772442,9992.780217
2055.387507,-1554.432478,-3294.210641,11473.192101
2055.387829,-3552.988522,-4519.963438,10658.965565
2055.388150,-2220.617826,-4366.744339,10288.862594
2055.388472,-1036.288319,-2451.505594,10140.821405
2055.388794,-3108.864956,-3140.991542,10288.862594
2055.389115,-4441.235652,-3983.696590,9622.677246
2055.389437,-3478.967927,-2911.162892,7476.080014
2055.389758,-444.123565,-1225.752797,8438.347739
2055.390080,-2146.597232,-2145.067394,8142.265362
2055.390402,-2960.823768,-2604.724693,8068.244768
2055.390723,-592.164754,-689.485948,8438.347739
2055.391045,1480.411884,0.000000,7105.977043
2055.391366,444.123565,-229.828649,7920.203579
2055.391688,592.164754,153.219100,9252.574275
2055.392010,1776.494261,1378.971896,8586.388927
2055.392331,3404.947333,2068.457845,7476.080014
2055.392653,2516.700203,1455.581446,8142.265362
2055.392974,2146.597232,2298.286494,9844.739029
2055.393296,2072.576638,3677.258390,9474.636058
2055.393618,2368.659014,3140.991542,8438.347739
2055.393939,1554.432478,1378.971896,8956.491898
2055.394261,370.102971,2145.067394,10066.800811
2055.394583,-666.185348,2681.334243,10658.965565
2055.394904,-2220.617826,1838.629195,10658.965565
2055.395226,-3775.050304,-229.828649,9252.574275
2055.395547,-5329.482782,995.924147,9770.718434
2055.395869,-6365.771101,1685.410096,10288.862594
2055.396191,-6439.791695,383.047749,8956.491898
2055.396512,-5403.503377,153.219100,8068.244768
2055.396834,-5329.482782,1149.143247,7772.162391
2055.397155,-4737.318029,2604.724693,8882.471304
2055.397477,-3701.029710,2145.067394,7994.224174
2055.397799,-1702.473667,2221.676944,7846.182985
2055.398120,962.267725,3524.039291,5847.626942
2055.398442,1184.329507,4443.353888,7698.141797
2055.398763,2664.741391,3907.087040,8364.327145
2055.399085,4959.379811,3294.210641,8882.471304
2055.399407,6069.688724,4519.963438,8438.347739
2055.399728,5033.400406,4213.525239,10732.986159
2055.400050,2812.782580,3217.601092,10214.842000
2055.400371,4737.318029,1685.410096,8438.347739
2055.400693,7105.977043,2528.115143,9548.656652
2055.401015,4293.194464,2298.286494,10658.965565
2055.401336,2516.700203,689.485948,12509.480420
2055.401658,2812.782580,689.485948,11177.109724
2055.401979,4589.276840,1455.581446,10658.965565
2055.402301,1776.494261,-995.924147,9622.677246
2055.402623,-1998.556043,-1225.752797,8956.491898
2055.402944,-1036.288319,-1302.362347,11251.130318
2055.403266,-592.164754,0.000000,11103.089130
2055.403588,-1480.411884,-2451.505594,9252.574275
2055.403909,-2664.741391,-3217.601092,8068.244768
2055.404231,-3701.029710,-995.924147,8142.265362
2055.404552,-1776.494261,-995.924147,8734.430116
2055.404874,-2738.761985,-2145.067394,9474.636058
2055.405196,-3034.844362,-2604.724693,9030.512492
2055.405517,-1998.556043,-919.314598,7994.224174
2055.405839,-888.247130,-919.314598,7624.121203
2055.406160,962.267725,-1225.752797,7920.203579
2055.406482,148.041188,-536.266849,10288.862594
2055.406804,592.164754,1302.362347,10658.965565
2055.407125,1258.350101,1072.533697,10436.903782
2055.407447,2368.659014,-995.924147,7994.224174
2055.407768,2072.576638,-383.047749,8734.430116
2055.408090,148.041188,842.705048,8438.347739
2055.408412,296.082377,459.657299,9844.739029
2055.408733,444.123565,0.000000,10214.842000
2055.409055,0.000000,-229.828649,8956.491898
2055.409376,-1036.288319,766.095498,9992.780217
2055.409698,-2442.679609,536.266849,8882.471304
2055.410020,-2664.741391,-1072.533697,8882.471304
2055.410341,-1998.556043,-459.657299,9474.636058
2055.410663,-3627.009116,-153.219100,8882.471304
2055.410984,-4145.153275,-1302.362347,8734.430116
2055.411306,-3997.112087,-1455.581446,8364.327145
2055.411628,-4145.153275,0.000000,9104.533087
2055.411949,-2886.803174,612.876398,10362.883188
2055.412271,-3182.885551,0.000000,10288.862594
2055.412592,-2442.679609,0.000000,9770.718434
2055.412914,-592.164754,1455.581446,9252.574275
2055.413236,0.000000,1072.533697,8586.388927
2055.413557,-962.267725,306.438199,9030.512492
2055.413879,-888.247130,1455.581446,10362.883188
2055.414201,2590.720797,2604.724693,9918.759623
2055.414522,3034.844362,1838.629195,9400.615463
2055.414844,1480.411884,1225.752797,7624.121203
2055.415165,1480.411884,2068.457845,9918.759623
2055.415487,2368.659014,2451.505594,10214.842000
2055.415809,2072.576638,612.876398,8808.450710
2055.416130,1702.473667,76.609550,8290.306550
2055.416452,444.123565,995.924147,8734.430116
2055.416773,1998.556043,2298.286494,8660.409521
2055.417095,1702.473667,919.314598,8808.450710
2055.417417,444.123565,-459.657299,8438.347739
2055.417738,740.205942,766.095498,7994.224174
2055.418060,1628.453072,1302.362347,8216.285956
2055.418381,1332.370696,383.047749,7698.141797
2055.418703,444.123565,-919.314598,9104.533087
2055.419025,-962.267725,-383.047749,8882.471304
2055.419346,-1480.411884,-842.705048,11399.171507
2055.419668,-2146.597232,-2145.067394,8956.491898
2055.419989,-2368.659014,-2451.505594,11325.150913
2055.420311,-2368.659014,-2145.067394,10955.047942
2055.420633,-2664.741391,-1991.848295,11917.315666
2055.420954,-1850.514855,-1608.800546,11029.068536
2055.421276,-2960.823768,-995.924147,11103.089130
2055.421597,-2072.576638,-612.876398,9252.574275
2055.421919,-2294.638420,-612.876398,8660.409521
2055.422241,-444.123565,459.657299,9252.574275
2055.422562,-370.102971,-306.438199,8882.471304
2055.422884,-1628.453072,383.047749,8216.285956
2055.423206,-1998.556043,0.000000,8068.244768
2055.423527,-1332.370696,306.438199,7105.977043
2055.423849,-1776.494261,-459.657299,6365.771101
2055.424170,-1554.432478,1072.533697,7624.121203
2055.424492,-2664.741391,383.047749,9474.636058
2055.424814,-666.185348,459.657299,9844.739029
2055.425135,-592.164754,0.000000,9326.594869
2055.425457,-296.082377,459.657299,8216.285956
2055.425778,-740.205942,766.095498,8882.471304
2055.426100,-2072.576638,612.876398,10288.862594
2055.426422,-888.247130,76.609550,10658.965565
2055.426743,-962.267725,-153.219100,8808.450710
2055.427065,-3256.906145,0.000000,9252.574275
2055.427386,-3330.926739,-1072.533697,9992.780217
2055.427708,-4441.235652,-2145.067394,9400.615463
2055.428030,-4145.153275,-1991.848295,8586.388927
2055.428351,-4441.235652,-2374.896044,8586.388927
2055.428673,-6291.750507,-2757.943793,7846.182985
2055.428994,-5403.503377,-2528.115143,8586.388927
2055.429316,-5107.421000,-2834.553343,9104.533087
2055.429638,-4737.318029,-2911.162892,8586.388927
2055.429959,-4145.153275,-2987.772442,8660.409521
2055.430281,-3330.926739,-1225.752797,9918.759623
2055.430602,-2368.659014,-2068.457845,9992.780217
2055.430924,-1776.494261,-2451.505594,9030.512492
2055.431245,-2294.638420,-3140.991542,8808.450710
2055.431567,-814.226536,-2604.724693,9326.594869
2055.431888,-444.123565,-2451.505594,10140.821405
2055.432210,148.041188,-2834.553343,9400.615463
2055.432531,222.061783,-3830.477490,9622.677246
2055.432853,74.020594,-3370.820191,10510.924376
2055.433174,370.102971,-2604.724693,11325.150913
2055.433496,-444.123565,-3600.648841,11251.130318
2055.433818,-74.020594,-4060.306139,10584.944971
2055.434139,-444.123565,-3600.648841,9622.677246
2055.434461,-592.164754,-3064.381992,9622.677246
2055.434782,-1036.288319,-2834.553343,10066.800811
2055.435104,-2812.782580,-4060.306139,9548.656652
2055.435425,-3552.988522,-4443.353888,9622.677246
2055.435747,-3256.906145,-4366.744339,9252.574275
2055.436068,-4737.318029,-3140.991542,9030.512492
2055.436390,-3849.070898,-3447.429741,8216.285956
2055.436711,-5551.544565,-4213.525239,8216.285956
2055.437033,-4885.359217,-3600.648841,7846.182985
2055.437355,-4737.318029,-3830.477490,7772.162391
2055.437676,-4515.256246,-2757.943793,8808.450710
2055.437998,-4219.173869,-1915.238745,10732.986159
2055.438319,-3108.864956,-1378.971896,9918.759623
2055.438641,-518.144159,-1302.362347,9178.553681
2055.438962,-296.082377,-842.705048,8660.409521
2055.439284,-962.267725,153.219100,9474.636058
2055.439605,444.123565,229.828649,10288.862594
2055.439927,444.123565,306.438199,9252.574275
2055.440248,0.000000,76.609550,8734.430116
2055.440570,-962.267725,919.314598,7698.141797
2055.440892,-1184.329507,536.266849,8882.471304
2055.441213,-370.102971,1072.533697,8956.491898
2055.441535,-1702.473667,229.828649,9770.718434
2055.441856,-2886.803174,306.438199,9622.677246
2055.442178,-3627.009116,76.609550,9104.533087
2055.442499,-2812.782580,-306.438199,8290.306550
2055.442821,-1850.514855,383.047749,9252.574275
2055.443142,-3108.864956,1072.533697,10658.965565
2055.443464,-4589.276840,459.657299,10584.944971
2055.443785,-3627.009116,153.219100,9400.615463
2055.444107,-3256.906145,-306.438199,8068.244768
2055.444428,-3701.029710,0.000000,7920.203579
2055.444750,-4219.173869,153.219100,8512.368333
2055.445072,-3997.112087,383.047749,10214.842000
2055.445393,-2442.679609,459.657299,9326.594869
2055.445715,-2294.638420,76.609550,7994.224174
2055.446036,-3849.070898,-383.047749,7994.224174
2055.446358,-4071.132681,-612.876398,7402.059420
2055.446679,-1628.453072,-689.485948,8660.409521
2055.447001,-888.247130,-383.047749,9326.594869
2055.447322,-1776.494261,-766.095498,9104.533087
2055.447644,-1998.556043,-1915.238745,8512.368333
2055.447965,-1480.411884,-919.314598,8068.244768
2055.448287,-1480.411884,-2298.286494,8216.285956
2055.448609,-740.205942,-2298.286494,9622.677246
2055.448930,-962.267725,-1762.019645,10436.903782
2055.449252,0.000000,-1378.971896,10436.903782
2055.449573,296.082377,-2374.896044,9918.759623
2055.449895,-962.267725,-2911.162892,9178.553681
2055.450216,-2220.617826,-3447.429741,10288.862594
2055.450538,-2590.720797,-3217.601092,11029.068536
2055.450859,-1480.411884,-4443.353888,10584.944971
2055.451181,-1184.329507,-4673.182538,9770.718434
2055.451502,-3330.926739,-4519.963438,10288.862594
2055.451824,-3701.029710,-4903.011187,10214.842000
2055.452145,-3775.050304,-5439.278036,9474.636058
2055.452467,-3701.029710,-5132.839837,9622.677246
2055.452789,-4145.153275,-5515.887586,10214.842000
2055.453110,-4811.338623,-4826.401637,9326.594869
2055.453432,-3256.906145,-4290.134789,8364.327145
2055.453753,-2294.638420,-4213.525239,7772.162391
2055.454075,-3108.864956,-2987.772442,9548.656652
2055.454396,-3256.906145,-2834.553343,9548.656652
2055.454718,-1258.350101,-2681.334243,9030.512492
2055.455039,74.020594,-2757.943793,8660.409521
2055.455361,-2368.659014,-3600.648841,8364.327145
2055.455682,-4663.297435,-4060.306139,9622.677246
2055.456004,-3108.864956,-3447.429741,9992.780217
2055.456326,-1702.473667,-3524.039291,9104.533087
2055.456647,-2368.659014,-3140.991542,10066.800811
2055.456969,-3108.864956,-2374.896044,10881.027347
2055.457290,-2368.659014,-1915.238745,9548.656652
2055.457612,148.041188,-1072.533697,9178.553681
2055.457933,296.082377,-689.485948,9178.553681
2055.458255,-962.267725,306.438199,10066.800811
2055.458576,-1332.370696,842.705048,9696.697840
2055.458898,-222.061783,536.266849,7772.162391
2055.459219,444.123565,-459.657299,7920.203579
2055.459541,-2294.638420,536.266849,9030.512492
2055.459863,-3182.885551,0.000000,9844.739029
2055.460184,-2664.741391,-689.485948,8660.409521
2055.460506,-1924.535449,-1149.143247,8660.409521
2055.460827,-2960.823768,-919.314598,9104.533087
2055.461149,-5033.400406,-766.095498,9696.697840
2055.461470,-4959.379811,-383.047749,10140.821405
2055.461792,-3552.988522,-1685.410096,9622.677246
2055.462113,-2960.823768,-459.657299,9770.718434
2055.462435,-2738.761985,919.314598,9548.656652
2055.462756,-2146.597232,1455.581446,8882.471304
2055.463078,740.205942,2068.457845,8586.388927
2055.463399,1184.329507,2451.505594,8660.409521
2055.463721,-518.144159,2298.286494,8364.327145
2055.464043,0.000000,2068.457845,7698.141797
2055.464364,592.164754,1455.581446,7402.059420
2055.464686,296.082377,919.314598,7550.100608
2055.465007,-1554.432478,306.438199,9178.553681
2055.465329,-3849.070898,-689.485948,9326.594869
2055.465650,-3478.967927,-1455.581446,9104.533087
2055.465972,-3256.906145,-2145.067394,8512.368333
2055.466293,-3552.988522,-2221.676944,10066.800811
2055.466615,-3997.112087,-1608.800546,10658.965565
2055.466936,-2368.659014,-766.095498,10510.924376
2055.467258,444.123565,-306.438199,10658.965565
2055.467580,0.000000,-306.438199,10510.924376
2055.467901,-1258.350101,612.876398,10584.944971
2055.468223,-592.164754,-383.047749,9770.718434
2055.468544,-148.041188,-1378.971896,8438.347739
2055.468866,-1184.329507,-1685.410096,8660.409521
2055.469187,-3256.906145,-2681.334243,8808.450710
2055.469509,-4885.359217,-3447.429741,8808.450710
2055.469830,-3775.050304,-3907.087040,8512.368333
2055.470152,-4145.153275,-4290.134789,8882.471304
2055.470473,-4811.338623,-4366.744339,9400.615463
2055.470795,-5107.421000,-4366.744339,10510.924376
2055.471117,-2812.782580,-3600.648841,9918.759623
2055.471438,-888.247130,-2681.334243,9844.739029
2055.471760,-2072.576638,-2681.334243,9770.718434
2055.472081,-2664.741391,-2145.067394,10584.944971
2055.472403,-666.185348,-1378.971896,10214.842000
2055.472724,296.082377,-1915.238745,9104.533087
2055.473046,-740.205942,-1608.800546,8882.471304
2055.473367,-1924.535449,-1915.238745,8660.409521
2055.473689,-2516.700203,-2757.943793,7994.224174
2055.474010,-2072.576638,-3447.429741,8068.244768
2055.474332,-3478.967927,-3983.696590,8734.430116
2055.474653,-4885.359217,-3983.696590,9548.656652
2055.474975,-4737.318029,-4136.915689,9104.533087
2055.475297,-3034.844362,-4060.306139,9252.574275
2055.475618,-1702.473667,-3677.258390,10436.903782
2055.475940,-2960.823768,-2987.772442,10732.986159
2055.476261,-1480.411884,-1838.629195,11177.109724
2055.476583,444.123565,-1225.752797,10288.862594
2055.476904,666.185348,-689.485948,9918.759623
2055.477226,518.144159,-306.438199,10510.924376
2055.477547,-962.267725,383.047749,9252.574275
2055.477869,-888.247130,-459.657299,7698.141797
2055.478190,-962.267725,-842.705048,7328.038826
2055.478512,-2738.761985,-1685.410096,8142.265362
2055.478834,-4811.338623,-2221.676944,8364.327145
2055.479155,-4885.359217,-2834.553343,8290.306550
2055.479477,-3997.112087,-3064.381992,8512.368333
2055.479798,-4737.318029,-2757.943793,8956.491898
2055.480120,-5551.544565,-1991.848295,9992.780217
2055.480441,-3256.906145,-1762.019645,10732.986159
2055.480763,-1776.494261,-459.657299,10066.800811
2055.481084,444.123565,689.485948,9622.677246
2055.481406,518.144159,1455.581446,10732.986159
2055.481727,148.041188,1532.190996,10140.821405
2055.482049,1036.288319,1762.019645,8882.471304
2055.482371,740.205942,1302.362347,8216.285956
2055.482692,-962.267725,919.314598,8364.327145
2055.483014,-1554.432478,1838.629195,7624.121203
2055.483335,74.020594,919.314598,7254.018232
2055.483657,444.123565,919.314598,7772.162391
2055.483978,-962.267725,612.876398,7846.182985
2055.484300,-2516.700203,0.000000,8956.491898
2055.484621,-1628.453072,153.219100,10436.903782
2055.484943,-2146.597232,-229.828649,9918.759623
2055.485264,-2886.803174,-306.438199,10288.862594
2055.485586,-3478.967927,0.000000,11029.068536
2055.485907,-3108.864956,153.219100,10807.006753
2055.486229,-2294.638420,-153.219100,9918.759623
2055.486551,-2220.617826,0.000000,8808.450710
2055.486872,-2516.700203,536.266849,8364.327145
2055.487194,-2294.638420,995.924147,7031.956449
2055.487515,-666.185348,306.438199,7328.038826
2055.487837,-370.102971,383.047749,7994.224174
2055.488158,-1998.556043,0.000000,7920.203579
2055.488480,-2368.659014,-229.828649,7920.203579
2055.488801,-1850.514855,-689.485948,8586.388927
2055.489123,-2516.700203,-1378.971896,8290.306550
2055.489444,-2368.659014,-2834.553343,10066.800811
2055.489766,-3775.050304,-2221.676944,10288.862594
2055.490088,-3552.988522,-2681.334243,10214.842000
2055.490409,-2664.741391,-3217.601092,10436.903782
2055.490731,-3330.926739,-3140.991542,10362.883188
2055.491052,-3923.091493,-3370.820191,10436.903782
2055.491374,-3404.947333,-3600.648841,9474.636058
2055.491695,-1776.494261,-3524.039291,9474.636058
2055.492017,-2738.761985,-4673.182538,9104.533087
2055.492338,-4589.276840,-4749.792088,9030.512492
2055.492660,-4293.194464,-4903.011187,9400.615463
2055.492981,-3775.050304,-5669.106685,9104.533087
2055.493303,-4071.132681,-5515.887586,9770.718434
2055.493624,-4737.318029,-5515.887586,10214.842000
2055.493946,-5255.462188,-5286.058936,10140.821405
2055.494268,-2516.700203,-5362.668486,9696.697840
2055.494589,-2072.576638,-5439.278036,10140.821405
2055.494911,-2664.741391,-5286.058936,11029.068536
2055.495232,-2886.803174,-4673.182538,11325.150913
2055.495554,-1628.453072,-4826.401637,9992.780217
2055.495875,-1258.350101,-4979.620737,9474.636058
2055.496197,-2590.720797,-4673.182538,9252.574275
2055.496518,-3404.947333,-4519.963438,9326.594869
2055.496840,-2368.659014,-4136.915689,8512.368333
2055.497161,-962.267725,-4136.915689,8438.347739
2055.497483,-1184.329507,-3217.601092,8882.471304
2055.497805,-2368.659014,-2604.724693,9696.697840
2055.498126,-1628.453072,-2068.457845,9474.636058
2055.498448,0.000000,-1225.752797,8956.491898
2055.498769,0.000000,-1072.533697,9918.759623
2055.499091,-1850.514855,-919.314598,9400.615463
2055.499412,-1554.432478,-766.095498,8734.430116
2055.499734,-592.164754,-842.705048,8216.285956
2055.500055,-1036.288319,-689.485948,8290.306550
2055.500377,-3182.885551,-1072.533697,8216.285956
2055.500698,-3404.947333,-612.876398,8290.306550
2055.501020,-2738.761985,-612.876398,7772.162391
2055.501342,-2664.741391,-1302.362347,8068.244768
2055.501663,-2738.761985,-536.266849,8956.491898
2055.501985,-3108.864956,459.657299,9992.780217
2055.502306,-1998.556043,766.095498,10140.821405
2055.502628,-666.185348,1378.971896,10584.944971
2055.502949,-1110.308913,2528.115143,10140.821405
2055.503271,-222.061783,2987.772442,9992.780217
2055.503592,-444.123565,3524.039291,8660.409521
2055.503914,1036.288319,3600.648841,9030.512492
2055.504235,-296.082377,3370.820191,8808.450710
2055.504557,-3034.844362,2451.505594,7994.224174
2055.504878,-3478.967927,1685.410096,7105.977043
2055.505200,-4219.173869,-383.047749,5995.668130
2055.505522,-5033.400406,-229.828649,6143.709319
2055.505843,-5403.503377,-995.924147,7402.059420
2055.506165,-6291.750507,-1149.143247,8216.285956
2055.506486,-4071.132681,-995.924147,8364.327145
2055.506808,-2516.700203,-536.266849,9326.594869
2055.507129,-1480.411884,919.314598,11177.109724
2055.507451,-592.164754,919.314598,12065.356855
2055.507772,2442.679609,1608.800546,11843.295072
2055.508094,3775.050304,2145.067394,11399.171507
2055.508415,1776.494261,1532.190996,11251.130318
2055.508737,74.020594,153.219100,10510.924376
2055.509059,-1332.370696,-689.485948,9992.780217
2055.509380,-2072.576638,-2528.115143,7698.141797
2055.509702,-4071.132681,-4060.306139,7772.162391
2055.510023,-5625.565159,-4673.182538,8142.265362
2055.510345,-5773.606348,-5515.887586,8956.491898
2055.510666,-5699.585753,-5822.325785,8216.285956
2055.510988,-6365.771101,-6665.030833,8734.430116
2055.511309,-5773.606348,-5745.716235,10066.800811
2055.511631,-4737.318029,-4979.620737,10732.986159
2055.511952,-2368.659014,-4826.401637,10807.006753
2055.512274,0.000000,-3600.648841,10436.903782
2055.512596,0.000000,-2528.115143,11547.212695
2055.512917,1110.308913,-2374.896044,11769.274478
2055.513239,2442.679609,-2757.943793,11251.130318
2055.513560,2146.597232,-2987.772442,9474.636058
2055.513882,1628.453072,-3600.648841,7772.162391
2055.514203,-962.267725,-4136.915689,8660.409521
2055.514525,-1036.288319,-4596.572988,8142.265362
2055.514846,-148.041188,-4673.182538,8216.285956
2055.515168,-814.226536,-4213.525239,9400.615463
2055.515489,-3478.967927,-4443.353888,9400.615463
2055.515811,-4145.153275,-4979.620737,9918.759623
2055.516132,-1998.556043,-3983.696590,9992.780217
2055.516454,-1998.556043,-3600.648841,10436.903782
2055.516776,-4737.318029,-3677.258390,9992.780217
2055.517097,-3478.967927,-2834.553343,10214.842000
2055.517419,-1924.535449,-1762.019645,9474.636058
2055.517740,-2294.638420,-2145.067394,8216.285956
2055.518062,-3330.926739,-2145.067394,7994.224174
2055.518383,-4737.318029,-1838.629195,7476.080014
2055.518705,-3182.885551,-1072.533697,7402.059420
2055.519026,-2368.659014,-1608.800546,7328.038826
2055.519348,-3552.988522,-1838.629195,7402.059420
2055.519669,-4367.215058,-1072.533697,8438.347739
2055.519991,-4071.132681,-536.266849,9474.636058
2055.520313,-2812.782580,-1608.800546,9474.636058
2055.520634,-3182.885551,-1378.971896,10362.883188
2055.520956,-3256.906145,0.000000,11843.295072
2055.521277,-1850.514855,0.000000,11399.171507
2055.521599,-1184.329507,0.000000,10436.903782
2055.521920,-1406.391290,995.924147,10658.965565
2055.522242,-2146.597232,1378.971896,10362.883188
2055.522563,-2368.659014,995.924147,8216.285956
2055.522885,-1184.329507,1225.752797,7920.203579
2055.523206,-740.205942,1225.752797,7031.956449
2055.523528,-2220.617826,995.924147,7624.121203
2055.523850,-4145.153275,766.095498,7254.018232
2055.524171,-3627.009116,-153.219100,7550.100608
2055.524493,-3034.844362,-919.314598,7105.977043
2055.524814,-4737.318029,-1378.971896,7846.182985
2055.525136,-4219.173869,-1072.533697,9918.759623
2055.525457,-2590.720797,-689.485948,10584.944971
2055.525779,-2294.638420,-842.705048,10584.944971
2055.526100,-1998.556043,-842.705048,10658.965565
2055.526422,-1850.514855,-459.657299,10066.800811
2055.526743,-1184.329507,536.266849,9178.553681
2055.527065,740.205942,536.266849,9474.636058
2055.527386,222.061783,536.266849,9474.636058
2055.527708,-740.205942,0.000000,9622.677246
2055.528030,-740.205942,-842.705048,7624.121203
2055.528351,370.102971,-766.095498,7476.080014
2055.528673,-740.205942,-1072.533697,8216.285956
2055.528995,-1628.453072,-1762.019645,8660.409521
2055.529316,-2220.617826,-2604.724693,9992.780217
2055.529638,-1776.494261,-2834.553343,9104.533087
2055.529959,-1850.514855,-2757.943793,9622.677246
2055.530281,-2886.803174,-2221.676944,10584.944971
2055.530602,-3701.029710,-3140.991542,9622.677246
2055.530924,-2664.741391,-2528.115143,9622.677246
2055.531245,-888.247130,-2451.505594,9548.656652
2055.531567,-1924.535449,-1762.019645,9178.553681
2055.531888,-2590.720797,-1838.629195,9844.739029
2055.532209,-1406.391290,-1302.362347,8290.306550
2055.532531,-296.082377,-1915.238745,8364.327145
2055.532852,-962.267725,-1149.143247,9178.553681
2055.533174,-1924.535449,-1608.800546,9178.553681
2055.533495,-2368.659014,-2145.067394,10584.944971
2055.533817,-740.205942,-2145.067394,8734.430116
2055.534138,-2664.741391,-2987.772442,9400.615463
2055.534460,-4737.318029,-2987.772442,12065.356855
2055.534781,-3404.947333,-2911.162892,10362.883188
2055.535102,-4515.256246,-3217.601092,10066.800811
2055.535424,-2590.720797,-2451.505594,10066.800811
2055.535745,-4885.359217,-2757.943793,8956.491898
2055.536067,-2960.823768,-1225.752797,7476.080014
2055.536388,-1628.453072,-1762.019645,8290.306550
2055.536710,-1998.556043,-1378.971896,7105.977043
2055.537031,-3108.864956,-1608.800546,9770.718434
2055.537353,-2590.720797,-1302.362347,7698.141797
2055.537674,-2220.617826,-2145.067394,8586.388927
2055.537995,-2220.617826,-2145.067394,8068.244768
2055.538317,-3330.926739,-2221.676944,9104.533087
2055.538638,-3997.112087,-2145.067394,10288.862594
2055.538960,-2516.700203,-3677.258390,8586.388927
2055.539281,-2442.679609,-3140.991542,10288.862594
2055.539603,-3997.112087,-2604.724693,11917.315666
2055.539924,-3552.988522,-2528.115143,10807.006753
2055.540245,-1628.453072,-2834.553343,10510.924376
2055.540567,-962.267725,-842.705048,10436.903782
2055.540888,-518.144159,-1225.752797,9400.615463
2055.541210,-1332.370696,-1532.190996,8290.306550
2055.541531,-518.144159,-612.876398,10140.821405
2055.541853,-814.226536,-612.876398,10140.821405
2055.542174,-666.185348,-919.314598,8882.471304
2055.542496,-444.123565,-306.438199,8142.265362
2055.542817,-1184.329507,-612.876398,8142.265362
2055.543138,-1480.411884,-689.485948,9474.636058
2055.543460,-1406.391290,-689.485948,9178.553681
2055.543781,-2738.761985,-1608.800546,7698.141797
2055.544103,-2812.782580,-536.266849,8734.430116
2055.544424,-3034.844362,-229.828649,9474.636058
2055.544746,-962.267725,-306.438199,10066.800811
2055.545067,222.061783,229.828649,10288.862594
2055.545389,-1258.350101,766.095498,7254.018232
2055.545710,0.000000,919.314598,8882.471304
2055.546031,814.226536,1608.800546,7994.224174
2055.546353,1998.556043,1532.190996,7179.997637
2055.546674,1480.411884,2681.334243,9104.533087
2055.546996,518.144159,2757.943793,9178.553681
2055.547317,1036.288319,1685.410096,10214.842000
2055.547639,1184.329507,1302.362347,7402.059420
2055.547960,74.020594,1608.800546,7994.224174
2055.548282,-1554.432478,1225.752797,9326.594869
2055.548603,-2590.720797,689.485948,10732.986159
2055.548924,-370.102971,995.924147,10807.006753
2055.549246,-2220.617826,0.000000,9918.759623
2055.549567,-2812.782580,153.219100,10732.986159
2055.549889,-3256.906145,842.705048,9474.636058
2055.550210,518.144159,1762.019645,9622.677246
2055.550532,962.267725,1915.238745,11029.068536
2055.550853,-1110.308913,1225.752797,10066.800811
2055.551175,-148.041188,1225.752797,8956.491898
2055.551496,1776.494261,3064.381992,8586.388927
2055.551817,1110.308913,2145.067394,9770.718434
2055.552139,1110.308913,1302.362347,8290.306550
2055.552460,740.205942,1762.019645,9474.636058
2055.552782,3478.967927,3370.820191,8068.244768
2055.553103,1998.556043,689.485948,8586.388927
2055.553425,370.102971,0.000000,8142.265362
2055.553746,444.123565,689.485948,10066.800811
2055.554068,814.226536,919.314598,8290.306550
2055.554389,-666.185348,-842.705048,9770.718434
2055.554710,-444.123565,-919.314598,10140.821405
2055.555032,-1258.350101,-383.047749,9548.656652
2055.555353,0.000000,0.000000,8808.450710
2055.555675,-1036.288319,-1072.533697,8808.450710
2055.555996,-1776.494261,-1302.362347,8586.388927
2055.556318,-222.061783,383.047749,8734.430116
2055.556639,0.000000,536.266849,8438.347739
2055.556960,592.164754,-229.828649,10066.800811
2055.557282,-222.061783,-689.485948,9326.594869
2055.557603,0.000000,-383.047749,10436.903782
2055.557925,148.041188,-612.876398,9918.759623
2055.558246,-814.226536,-2068.457845,9400.615463
2055.558568,-888.247130,-1378.971896,11029.068536
2055.558889,-444.123565,-383.047749,11251.130318
2055.559211,-1776.494261,-1608.800546,11177.109724
2055.559532,-2072.576638,-2834.553343,9474.636058
2055.559853,-518.144159,-1532.190996,9622.677246
2055.560175,-148.041188,0.000000,9548.656652
2055.560496,0.000000,383.047749,11325.150913
2055.560818,666.185348,-612.876398,9030.512492
2055.561139,1702.473667,612.876398,8364.327145
2055.561461,592.164754,2374.896044,7846.182985
2055.561782,-1332.370696,689.485948,8734.430116
2055.562104,0.000000,689.485948,8216.285956
2055.562425,444.123565,842.705048,8512.368333
2055.562746,0.000000,2145.067394,8512.368333
2055.563068,-2960.823768,153.219100,9622.677246
2055.563389,-2886.803174,-229.828649,8438.347739
2055.563711,-1110.308913,995.924147,8882.471304
2055.564032,-1628.453072,1532.190996,8438.347739
2055.564354,-3552.988522,-459.657299,8660.409521
2055.564675,-2442.679609,536.266849,9770.718434
2055.564997,740.205942,2068.457845,8216.285956
2055.565318,1036.288319,1608.800546,9252.574275
2055.565639,-1554.432478,1149.143247,8364.327145
2055.565961,-962.267725,1608.800546,9400.615463
2055.566282,3256.906145,2451.505594,8438.347739
2055.566604,2146.597232,2221.676944,10584.944971
2055.566925,0.000000,612.876398,9400.615463
2055.567247,-518.144159,459.657299,9844.739029
2055.567568,2146.597232,1455.581446,8586.388927
2055.567890,2738.761985,0.000000,10436.903782
2055.568211,1702.473667,919.314598,12509.480420
2055.568532,592.164754,995.924147,11917.315666
2055.568854,1924.535449,1762.019645,9252.574275
2055.569175,2146.597232,306.438199,9474.636058
2055.569497,1036.288319,0.000000,7402.059420
2055.569818,296.082377,766.095498,8438.347739
2055.570140,1776.494261,2451.505594,9770.718434
2055.570461,1850.514855,459.657299,9326.594869
2055.570783,1036.288319,459.657299,8512.368333
2055.571104,666.185348,766.095498,8068.244768
2055.571425,-1036.288319,612.876398,6883.915261
2055.571747,-888.247130,-689.485948,6661.853478
2055.572068,-518.144159,229.828649,8660.409521
2055.572390,-370.102971,766.095498,9326.594869
2055.572711,-888.247130,0.000000,9844.739029
2055.573033,-2072.576638,-1455.581446,8660.409521
2055.573354,-370.102971,-612.876398,10807.006753
2055.573675,444.123565,0.000000,9548.656652
2055.573997,-592.164754,689.485948,12065.356855
2055.574318,740.205942,1072.533697,10955.047942
2055.574640,1850.514855,1378.971896,10214.842000
2055.574961,2220.617826,2068.457845,8290.306550
2055.575283,-296.082377,536.266849,9252.574275
2055.575604,-1480.411884,919.314598,9400.615463
2055.575926,74.020594,383.047749,11251.130318
2055.576247,-296.082377,1532.190996,10658.965565
2055.576568,-2368.659014,-689.485948,10362.883188
2055.576890,-4071.132681,-153.219100,8882.471304
2055.577211,-3182.885551,-1149.143247,7402.059420
2055.577533,-2886.803174,0.000000,8142.265362
2055.577854,-4515.256246,-995.924147,9992.780217
2055.578176,-4071.132681,-612.876398,9548.656652
2055.578497,-2072.576638,153.219100,8142.265362
2055.578819,-2812.782580,306.438199,7105.977043
2055.579140,-3849.070898,-766.095498,8290.306550
2055.579461,-3478.967927,229.828649,8586.388927
2055.579783,296.082377,1455.581446,8956.491898
2055.580104,666.185348,2221.676944,8956.491898
2055.580426,296.082377,1378.971896,8808.450710
2055.580747,740.205942,1608.800546,9474.636058
2055.581069,2664.741391,2068.457845,7772.162391
2055.581390,3256.906145,1149.143247,11103.089130
2055.581712,1702.473667,766.095498,10214.842000
2055.582033,2072.576638,459.657299,10955.047942
2055.582354,3404.947333,1072.533697,9252.574275
2055.582676,1850.514855,-383.047749,8956.491898
2055.582997,74.020594,-536.266849,9104.533087
2055.583319,1702.473667,-76.609550,10140.821405
2055.583640,1998.556043,76.609550,9844.739029
2055.583962,1776.494261,-459.657299,10362.883188
2055.584283,1924.535449,0.000000,9474.636058
2055.584605,1850.514855,995.924147,9030.512492
2055.584926,2442.679609,1225.752797,10140.821405
2055.585247,1702.473667,-153.219100,8882.471304
2055.585569,2886.803174,536.266849,8956.491898
2055.585890,3256.906145,2068.457845,9178.553681
2055.586212,222.061783,1149.143247,11029.068536
2055.586533,-74.020594,0.000000,11251.130318
2055.586855,444.123565,-612.876398,9178.553681
2055.587176,740.205942,919.314598,8882.471304
2055.587498,-1258.350101,-306.438199,9770.718434
2055.587819,-3404.947333,-459.657299,10214.842000
2055.588140,-888.247130,0.000000,9622.677246
2055.588462,-1406.391290,306.438199,6735.874072
2055.588783,-2960.823768,0.000000,8364.327145
2055.589105,-2368.659014,536.266849,7920.203579
2055.589426,296.082377,1608.800546,9252.574275
2055.589748,1924.535449,2834.553343,9326.594869
2055.590069,-2368.659014,459.657299,7846.182985
2055.590390,-2442.679609,1149.143247,7698.141797
2055.590712,370.102971,2374.896044,8290.306550
2055.591033,444.123565,1762.019645,8734.430116
2055.591355,-444.123565,1072.533697,10362.883188
2055.591676,-2220.617826,-306.438199,10881.027347
2055.591998,-962.267725,1302.362347,9844.739029
2055.592319,0.000000,153.219100,9178.553681
2055.592641,-2072.576638,-842.705048,10510.924376
2055.592962,-2886.803174,919.314598,11843.295072
2055.593283,-2072.576638,1455.581446,11399.171507
2055.593605,-296.082377,0.000000,9622.677246
2055.593926,-1628.453072,0.000000,9178.553681
2055.594248,-2664.741391,459.657299,7698.141797
2055.594569,-3034.844362,689.485948,8586.388927
2055.594891,-2886.803174,-229.828649,7772.162391
2055.595212,-2368.659014,-536.266849,9770.718434
2055.595534,-2442.679609,0.000000,9844.739029
2055.595855,-3404.947333,689.485948,7402.059420
2055.596176,-1480.411884,-1225.752797,6735.874072
2055.596498,0.000000,-995.924147,7254.018232
2055.596819,74.020594,383.047749,9326.594869
2055.597141,1036.288319,1072.533697,9992.780217
2055.597462,1702.473667,612.876398,10362.883188
2055.597784,2590.720797,306.438199,10362.883188
2055.598105,3552.988522,459.657299,9474.636058
2055.598427,3182.885551,1378.971896,9474.636058
2055.598748,3923.091493,383.047749,10436.903782
2055.599069,3775.050304,612.876398,9474.636058
2055.599391,4145.153275,919.314598,8956.491898
2055.599712,2812.782580,995.924147,9918.759623
2055.600034,1184.329507,0.000000,9400.615463
2055.600355,1628.453072,-1072.533697,8882.471304
2055.600677,2072.576638,383.047749,9622.677246
2055.600998,962.267725,1302.362347,10881.027347
2055.601320,148.041188,-383.047749,9474.636058
2055.601641,148.041188,-995.924147,7920.203579
2055.601962,1776.494261,1072.533697,8438.347739
2055.602284,-740.205942,76.609550,11029.068536
2055.602605,-1702.473667,-842.705048,10214.842000
2055.602927,148.041188,-383.047749,10658.965565
2055.603248,370.102971,1149.143247,11473.192101
2055.603570,-370.102971,459.657299,10955.047942
2055.603891,-3701.029710,-1225.752797,9474.636058
2055.604213,-962.267725,-459.657299,8290.306550
2055.604534,592.164754,1762.019645,8364.327145
2055.604855,-518.144159,1685.410096,10584.944971
2055.605177,-1332.370696,153.219100,10732.986159
2055.605498,-1184.329507,1685.410096,8660.409521
2055.605820,1184.329507,2221.676944,7476.080014
2055.606141,-1110.308913,1532.190996,7328.038826
2055.606463,-2590.720797,689.485948,8068.244768
2055.606784,-1850.514855,1685.410096,8956.491898
2055.607105,-1184.329507,2911.162892,8142.265362
2055.607427,-2368.659014,306.438199,8438.347739
2055.607748,-4219.173869,229.828649,7772.162391
2055.608070,-4071.132681,1072.533697,7698.141797
2055.608391,-2590.720797,842.705048,8364.327145
2055.608713,-2516.700203,-459.657299,8142.265362
2055.609034,-3552.988522,153.219100,9992.780217
2055.609356,-2294.638420,1608.800546,9326.594869
2055.609677,-1554.432478,1225.752797,9400.615463
2055.609998,0.000000,459.657299,9326.594869
2055.610320,0.000000,1532.190996,10066.800811
2055.610641,222.061783,2834.553343,9548.656652
2055.610963,888.247130,919.314598,10288.862594
2055.611284,962.267725,0.000000,8956.491898
2055.611606,1110.308913,-536.266849,8142.265362
2055.611927,444.123565,459.657299,8142.265362
2055.612249,-1332.370696,-383.047749,9622.677246
2055.612570,-222.061783,-383.047749,11325.150913
2055.612891,1110.308913,-459.657299,9622.677246
2055.613213,0.000000,-612.876398,9252.574275
2055.613534,-370.102971,-1149.143247,8734.430116
2055.613856,592.164754,-1302.362347,9104.533087
2055.614177,3775.050304,536.266849,9844.739029
2055.614499,2738.761985,842.705048,10066.800811
2055.614820,1184.329507,-536.266849,10288.862594
2055.615142,2294.638420,459.657299,10584.944971
2055.615463,4145.153275,-306.438199,7624.121203
2055.615784,3182.885551,-612.876398,9326.594869
2055.616106,444.123565,-1072.533697,9770.718434
2055.616427,666.185348,-383.047749,11695.253884
2055.616749,2368.659014,153.219100,8364.327145
2055.617070,814.226536,-1608.800546,8364.327145
2055.617392,-1258.350101,-612.876398,7846.182985
2055.617713,-888.247130,-919.314598,8290.306550
2055.618035,1776.494261,842.705048,9400.615463
2055.618356,1702.473667,-612.876398,9992.780217
2055.618677,-666.185348,-766.095498,10362.883188
2055.618999,-888.247130,76.609550,9622.677246
2055.619320,0.000000,383.047749,8216.285956
2055.619642,0.000000,-306.438199,8216.285956
2055.619963,-370.102971,76.609550,9992.780217
2055.620285,-666.185348,1149.143247,9770.718434
2055.620606,-1110.308913,1149.143247,9622.677246
2055.620928,-2072.576638,-612.876398,9400.615463
2055.621249,-2812.782580,-1072.533697,9178.553681
2055.621570,-1998.556043,1225.752797,10066.800811
2055.621892,-1406.391290,1302.362347,9548.656652
2055.622213,-370.102971,1225.752797,10510.924376
2055.622535,-888.247130,1685.410096,10362.883188
2055.622856,-1110.308913,2298.286494,8068.244768
2055.623178,-1554.432478,1378.971896,7772.162391
2055.623499,-3404.947333,229.828649,6439.791695
2055.623820,-3775.050304,919.314598,9030.512492
2055.624142,-1998.556043,2451.505594,9030.512492
2055.624463,-3478.967927,995.924147,9622.677246
2055.624785,-2516.700203,919.314598,7846.182985
2055.625106,-2664.741391,1149.143247,7994.224174
2055.625428,-1776.494261,3294.210641,7624.121203
2055.625749,-2368.659014,1455.581446,9252.574275
2055.626071,0.000000,1685.410096,7920.203579
2055.626392,1776.494261,2528.115143,6883.915261
2055.626713,296.082377,2757.943793,8808.450710
2055.627035,-1406.391290,689.485948,10066.800811
2055.627356,0.000000,306.438199,11103.089130
2055.627678,2442.679609,1455.581446,9770.718434
2055.627999,1480.411884,1608.800546,10881.027347
2055.628321,-370.102971,153.219100,10214.842000
2055.628642,444.123565,-1072.533697,9326.594869
2055.628964,3182.885551,919.314598,7920.203579
2055.629285,1554.432478,383.047749,9252.574275
2055.629606,814.226536,-306.438199,10288.862594
2055.629928,2368.659014,306.438199,11177.109724
2055.630249,6365.771101,1532.190996,9548.656652
2055.630571,4219.173869,306.438199,9844.739029
2055.630892,1110.308913,153.219100,9548.656652
2055.631214,1924.535449,-383.047749,9400.615463
2055.631535,4515.256246,842.705048,7179.997637
2055.631857,3701.029710,-612.876398,8512.368333
2055.632178,370.102971,-306.438199,10510.924376
2055.632499,-1036.288319,-459.657299,10955.047942
2055.632821,1110.308913,-306.438199,10436.903782
2055.633142,1332.370696,-2145.067394,9844.739029
2055.633464,370.102971,-766.095498,9696.697840
2055.633785,-592.164754,919.314598,9548.656652
2055.634107,370.102971,1225.752797,8956.491898
2055.634428,1184.329507,-536.266849,8364.327145
2055.634750,-1184.329507,-842.705048,8142.265362
2055.635071,-2368.659014,842.705048,9252.574275
2055.635392,-1924.535449,76.609550,10140.821405
2055.635714,-740.205942,-2068.457845,9326.594869
2055.636035,-2368.659014,-1685.410096,8660.409521
2055.636357,-2590.720797,0.000000,8808.450710
2055.636678,-4663.297435,0.000000,8734.430116
2055.637000,-2516.700203,-766.095498,8364.327145
2055.637321,-1406.391290,-612.876398,8586.388927
2055.637642,-666.185348,2451.505594,9622.677246
2055.637964,-2368.659014,2451.505594,11769.274478
2055.638285,-814.226536,229.828649,8660.409521
2055.638607,1036.288319,459.657299,9104.533087
2055.638928,-148.041188,3140.991542,9548.656652
2055.639250,-2516.700203,2068.457845,10955.047942
2055.639571,-2368.659014,612.876398,9770.718434
2055.639893,-740.205942,1072.533697,7179.997637
2055.640214,-1406.391290,1915.238745,7105.977043
2055.640535,-3923.091493,1225.752797,7698.141797
2055.640857,-4367.215058,0.000000,9178.553681
2055.641178,-1924.535449,612.876398,8734.430116
2055.641500,-1628.453072,1608.800546,10288.862594
2055.641821,-3701.029710,383.047749,10288.862594
2055.642143,-3849.070898,0.000000,9104.533087
2055.642464,370.102971,2145.067394,6957.935855
2055.642786,1702.473667,842.705048,7550.100608
2055.643107,0.000000,1072.533697,9696.697840
2055.643428,-962.267725,1149.143247,11177.109724
2055.643750,1332.370696,1532.190996,9622.677246
2055.644071,3034.844362,229.828649,8142.265362
2055.644393,1924.535449,0.000000,8586.388927
2055.644714,740.205942,612.876398,11251.130318
2055.645036,2886.803174,2374.896044,10510.924376
2055.645357,5181.441594,0.000000,10288.862594
2055.645679,3256.906145,0.000000,8808.450710
2055.646000,1554.432478,1225.752797,10140.821405
2055.646321,2960.823768,2221.676944,9178.553681
2055.646643,5477.523971,919.314598,9622.677246
2055.646964,4663.297435,459.657299,9622.677246
2055.647286,2516.700203,1455.581446,9918.759623
2055.647607,2590.720797,2068.457845,9696.697840
2055.647929,2220.617826,-1378.971896,7772.162391
2055.648250,1406.391290,-1302.362347,7846.182985
2055.648572,444.123565,766.095498,10214.842000
2055.648893,-888.247130,1149.143247,10362.883188
2055.649214,518.144159,-842.705048,8660.409521
2055.649536,592.164754,-1915.238745,8586.388927
2055.649857,-2590.720797,536.266849,9770.718434
2055.650179,-2960.823768,-306.438199,10584.944971
2055.650500,-2960.823768,-1302.362347,10140.821405
2055.650822,518.144159,-1149.143247,8956.491898
2055.651143,-1184.329507,842.705048,10436.903782
2055.651465,-3552.988522,995.924147,10584.944971
2055.651786,-3034.844362,-1455.581446,9548.656652
2055.652107,-1036.288319,-1302.362347,7402.059420
2055.652429,-222.061783,1455.581446,8808.450710
2055.652750,-2886.803174,995.924147,10214.842000
2055.653072,-3552.988522,153.219100,8956.491898
2055.653393,0.000000,612.876398,7772.162391
2055.653715,-814.226536,2221.676944,7772.162391
2055.654036,-2886.803174,1072.533697,8956.491898
2055.654357,-3256.906145,536.266849,8512.368333
2055.654679,74.020594,1225.752797,7624.121203
2055.655000,74.020594,1762.019645,8660.409521
2055.655322,-2812.782580,842.705048,10140.821405
2055.655643,-3108.864956,306.438199,9104.533087
2055.655965,-1036.288319,1072.533697,8808.450710
2055.656286,-666.185348,689.485948,8882.471304
2055.656608,-1924.535449,536.266849,9178.553681
2055.656929,-3034.844362,689.485948,10140.821405
2055.657250,-888.247130,1532.190996,9474.636058
2055.657572,-1702.473667,-306.438199,8808.450710
2055.657893,-2146.597232,-842.705048,9030.512492
2055.658215,-2664.741391,229.828649,9400.615463
2055.658536,-148.041188,1838.629195,10658.965565
2055.658858,1406.391290,76.609550,9622.677246
2055.659179,1776.494261,-689.485948,7772.162391
2055.659501,1628.453072,383.047749,8882.471304
2055.659822,1924.535449,1225.752797,9178.553681
2055.660143,2072.576638,-536.266849,9918.759623
2055.660465,1850.514855,-919.314598,9918.759623
2055.660786,2886.803174,-153.219100,10584.944971
2055.661108,1924.535449,1225.752797,8956.491898
2055.661429,2294.638420,306.438199,9474.636058
2055.661751,3404.947333,-459.657299,9030.512492
2055.662072,4589.276840,1149.143247,10066.800811
2055.662394,3108.864956,1378.971896,9622.677246
2055.662715,2072.576638,0.000000,10140.821405
2055.663036,3256.906145,76.609550,9474.636058
2055.663358,3552.988522,1302.362347,7476.080014
2055.663679,1258.350101,766.095498,9474.636058
2055.664001,592.164754,76.609550,9992.780217
2055.664322,1036.288319,0.000000,10436.903782
2055.664644,1258.350101,153.219100,8808.450710
2055.664965,-1036.288319,-842.705048,9918.759623
2055.665287,-3997.112087,-1378.971896,9474.636058
2055.665608,-1924.535449,-1532.190996,8364.327145
2055.665929,-518.144159,0.000000,8290.306550
2055.666251,-2072.576638,-229.828649,10066.800811
