#time,accel_x,accel_y,accel_z
87102.063358,2368.659014,919.314598,9178.553681
87102.063687,3256.906145,995.924147,8660.409521
87102.064017,3849.070898,919.314598,8438.347739
87102.064346,3701.029710,2451.505594,7624.121203
87102.064675,3478.967927,2987.772442,6957.935855
87102.065005,2960.823768,3370.820191,7846.182985
87102.065334,1924.535449,4060.306139,8882.471304
87102.065663,962.267725,3524.039291,8438.347739
87102.065993,74.020594,2298.286494,7846.182985
87102.066322,0.000000,2451.505594,8956.491898
87102.066651,1036.288319,4443.353888,9918.759623
87102.066981,962.267725,4749.792088,11029.068536
87102.067310,-296.082377,3217.601092,9770.718434
87102.067639,-1628.453072,1455.581446,9918.759623
87102.067969,-2368.659014,995.924147,10140.821405
87102.068298,-2368.659014,1685.410096,10510.924376
87102.068627,-2812.782580,1532.190996,10288.862594
87102.068957,-3034.844362,612.876398,11251.130318
87102.069286,-2516.700203,842.705048,11251.130318
87102.069615,-1480.411884,1762.019645,11029.068536
87102.069945,-370.102971,1991.848295,9992.780217
87102.070274,592.164754,2298.286494,9252.574275
87102.070603,1628.453072,2681.334243,9104.533087
87102.070933,1924.535449,3370.820191,8660.409521
87102.071262,1850.514855,4060.306139,7772.162391
87102.071591,1998.556043,2528.115143,8068.244768
87102.071921,1406.391290,2298.286494,8512.368333
87102.072250,1628.453072,1915.238745,9030.512492
87102.072579,1332.370696,1072.533697,9104.533087
87102.072909,1036.288319,-153.219100,9104.533087
87102.073238,1702.473667,383.047749,8956.491898
87102.073567,2146.597232,0.000000,8734.430116
87102.073897,2590.720797,1455.581446,8808.450710
87102.074226,3108.864956,2221.676944,8808.450710
87102.074555,3849.070898,2221.676944,9326.594869
87102.074885,3701.029710,1762.019645,9326.594869
87102.075214,2886.803174,1072.533697,8808.450710
87102.075543,2590.720797,919.314598,7994.224174
87102.075873,2590.720797,995.924147,9178.553681
87102.076202,1480.411884,229.828649,10807.006753
87102.076531,370.102971,-229.828649,10584.944971
87102.076861,148.041188,-689.485948,10362.883188
87102.077190,592.164754,-1072.533697,10140.821405
87102.077519,444.123565,-689.485948,9770.718434
87102.077849,814.226536,459.657299,9622.677246
87102.078178,1110.308913,1838.629195,8364.327145
87102.078507,1850.514855,2604.724693,9400.615463
87102.078837,1554.432478,1762.019645,9030.512492
87102.079166,1036.288319,1838.629195,8660.409521
87102.079495,296.082377,2221.676944,8290.306550
87102.079825,0.000000,1915.238745,8290.306550
87102.080154,-888.247130,1149.143247,8734.430116
87102.080483,-1110.308913,689.485948,9622.677246
87102.080813,-2220.617826,612.876398,8586.388927
87102.081142,-2442.679609,1149.143247,8438.347739
87102.081471,-1998.556043,1149.143247,9030.512492
87102.081801,-2516.700203,1072.533697,8808.450710
87102.082130,-2368.659014,995.924147,8660.409521
87102.082459,-2146.597232,1072.533697,8956.491898
87102.082789,-3256.906145,1149.143247,8438.347739
87102.083118,-2368.659014,689.485948,8956.491898
87102.083447,-2442.679609,766.095498,8956.491898
87102.083777,-2516.700203,229.828649,9474.636058
87102.084106,-2516.700203,-459.657299,9770.718434
87102.084435,-2738.761985,-995.924147,9918.759623
87102.084765,-3108.864956,-229.828649,9252.574275
87102.085094,-2368.659014,-612.876398,9770.718434
87102.085423,-1850.514855,-383.047749,9548.656652
87102.085753,-1924.535449,-383.047749,9918.759623
87102.086082,-1036.288319,-306.438199,9770.718434
87102.086411,-814.226536,0.000000,9844.739029
87102.086741,0.000000,-459.657299,10214.842000
87102.087070,-518.144159,-1225.752797,9696.697840
87102.087399,0.000000,-1225.752797,10140.821405
87102.087729,-148.041188,-1532.190996,9696.697840
87102.088058,296.082377,-2068.457845,10807.006753
87102.088387,296.082377,-2221.676944,10510.924376
87102.088717,888.247130,-1455.581446,10140.821405
87102.089046,1480.411884,-1225.752797,9918.759623
87102.089375,2072.576638,-612.876398,9474.636058
87102.089704,2886.803174,153.219100,9474.636058
87102.090034,3478.967927,995.924147,9400.615463
87102.090363,3627.009116,1838.629195,8882.471304
87102.090692,3775.050304,1532.190996,9030.512492
87102.091022,3478.967927,1149.143247,9548.656652
87102.091351,2664.741391,1455.581446,9178.553681
87102.091680,2516.700203,689.485948,9622.677246
87102.092010,2442.679609,459.657299,9770.718434
87102.092339,1628.453072,306.438199,9770.718434
87102.092668,962.267725,612.876398,9474.636058
87102.092998,962.267725,1072.533697,9030.512492
87102.093327,1332.370696,1991.848295,9178.553681
87102.093656,1406.391290,2298.286494,9178.553681
87102.093986,888.247130,3524.039291,8586.388927
87102.094315,666.185348,3907.087040,8216.285956
87102.094644,1036.288319,3753.867940,8586.388927
87102.094974,740.205942,3370.820191,8216.285956
87102.095303,-444.123565,3447.429741,7994.224174
87102.095632,-740.205942,3140.991542,8216.285956
87102.095961,-888.247130,2528.115143,8438.347739
87102.096291,-1332.370696,2298.286494,8586.388927
87102.096620,-1998.556043,1302.362347,8586.388927
87102.096949,-2812.782580,2145.067394,7698.141797
87102.097279,-2664.741391,2221.676944,7846.182985
87102.097608,-2442.679609,2298.286494,8808.450710
87102.097937,-2442.679609,2145.067394,8882.471304
87102.098267,-2368.659014,2145.067394,8586.388927
87102.098596,-1998.556043,1991.848295,8808.450710
87102.098925,-1332.370696,1915.238745,9252.574275
87102.099255,-1332.370696,689.485948,9400.615463
87102.099584,-1554.432478,766.095498,9622.677246
87102.099913,-1406.391290,612.876398,9400.615463
87102.100243,-1406.391290,0.000000,9696.697840
87102.100572,-1480.411884,-459.657299,9474.636058
87102.100901,-1406.391290,-153.219100,9474.636058
87102.101231,-1628.453072,-383.047749,9178.553681
87102.101560,0.000000,-1149.143247,10214.842000
87102.101889,0.000000,-1149.143247,10214.842000
87102.102218,296.082377,-766.095498,9548.656652
87102.102548,962.267725,-766.095498,9696.697840
87102.102877,1036.288319,-1455.581446,10288.862594
87102.103206,740.205942,-1762.019645,9844.739029
87102.103536,814.226536,-2145.067394,9918.759623
87102.103865,740.205942,-1915.238745,9992.780217
87102.104194,666.185348,-2068.457845,10214.842000
87102.104524,370.102971,-2374.896044,9918.759623
87102.104853,740.205942,-2451.505594,9918.759623
87102.105182,1406.391290,-2068.457845,10362.883188
87102.105512,1776.494261,-1838.629195,10288.862594
87102.105841,1332.370696,-1378.971896,9918.759623
87102.106170,1258.350101,-1225.752797,9844.739029
87102.106500,2220.617826,-995.924147,10214.842000
87102.106829,2220.617826,-612.876398,10214.842000
87102.107158,1628.453072,-306.438199,10140.821405
87102.107488,1036.288319,0.000000,9918.759623
87102.107817,1110.308913,-306.438199,9474.636058
87102.108146,1184.329507,0.000000,9548.656652
87102.108475,518.144159,76.609550,9696.697840
87102.108805,0.000000,612.876398,8586.388927
87102.109134,0.000000,1149.143247,8586.388927
87102.109463,518.144159,1838.629195,8808.450710
87102.109793,740.205942,2221.676944,8956.491898
87102.110122,518.144159,3447.429741,8364.327145
87102.110451,592.164754,3524.039291,7772.162391
87102.110781,1110.308913,3753.867940,8364.327145
87102.111110,518.144159,3677.258390,8512.368333
87102.111439,-518.144159,3524.039291,8216.285956
87102.111769,-666.185348,3294.210641,7846.182985
87102.112098,-592.164754,3294.210641,8216.285956
87102.112427,-1332.370696,2451.505594,8586.388927
87102.112757,-1924.535449,1838.629195,8290.306550
87102.113086,-2368.659014,2987.772442,7550.100608
87102.113415,-1924.535449,2681.334243,8512.368333
87102.113745,-1628.453072,2451.505594,9030.512492
87102.114074,-1776.494261,2911.162892,8808.450710
87102.114403,-1776.494261,2757.943793,8956.491898
87102.114732,-666.185348,2451.505594,9474.636058
87102.115062,-888.247130,2068.457845,8956.491898
87102.115391,-666.185348,1149.143247,8882.471304
87102.115720,-1036.288319,1685.410096,9252.574275
87102.116050,-814.226536,842.705048,9474.636058
87102.116379,-888.247130,229.828649,9400.615463
87102.116708,-962.267725,0.000000,9548.656652
87102.117038,-1332.370696,-536.266849,9178.553681
87102.117367,-888.247130,-306.438199,9622.677246
87102.117696,-518.144159,-995.924147,9474.636058
87102.118026,-296.082377,-995.924147,9696.697840
87102.118355,0.000000,-919.314598,9474.636058
87102.118684,518.144159,-919.314598,9696.697840
87102.119014,740.205942,-1915.238745,9770.718434
87102.119343,-148.041188,-1455.581446,9178.553681
87102.119672,-222.061783,-2451.505594,9844.739029
87102.120002,0.000000,-3140.991542,9992.780217
87102.120331,-370.102971,-3447.429741,10214.842000
87102.120660,-1036.288319,-3447.429741,9992.780217
87102.120989,-592.164754,-3600.648841,9992.780217
87102.121319,0.000000,-3907.087040,10732.986159
87102.121648,0.000000,-2987.772442,10288.862594
87102.121977,518.144159,-1838.629195,10362.883188
87102.122307,444.123565,-2221.676944,10362.883188
87102.122636,1406.391290,-1915.238745,10140.821405
87102.122965,1850.514855,-1608.800546,10510.924376
87102.123295,1554.432478,-1149.143247,10510.924376
87102.123624,1036.288319,-612.876398,9548.656652
87102.123953,888.247130,-1378.971896,9400.615463
87102.124283,1628.453072,-1072.533697,9844.739029
87102.124612,592.164754,0.000000,9770.718434
87102.124941,296.082377,-153.219100,9030.512492
87102.125271,370.102971,459.657299,9104.533087
87102.125600,888.247130,459.657299,8956.491898
87102.125929,592.164754,1302.362347,8956.491898
87102.126259,888.247130,2374.896044,8660.409521
87102.126588,814.226536,3294.210641,7846.182985
87102.126917,592.164754,3064.381992,7920.203579
87102.127246,814.226536,2911.162892,8512.368333
87102.127576,0.000000,3370.820191,8142.265362
87102.127905,-666.185348,3907.087040,7846.182985
87102.128234,-592.164754,3064.381992,8068.244768
87102.128564,-1406.391290,2528.115143,8068.244768
87102.128893,-1406.391290,2604.724693,8142.265362
87102.129222,-1480.411884,3140.991542,8512.368333
87102.129552,-1776.494261,3217.601092,8290.306550
87102.129881,-1332.370696,3064.381992,8660.409521
87102.130210,-1184.329507,3524.039291,8734.430116
87102.130540,-814.226536,4366.744339,8216.285956
87102.130869,-222.061783,3830.477490,8660.409521
87102.131198,74.020594,3294.210641,8956.491898
87102.131528,0.000000,2757.943793,9400.615463
87102.131857,-370.102971,2834.553343,9474.636058
87102.132186,222.061783,2451.505594,9474.636058
87102.132516,0.000000,995.924147,9992.780217
87102.132845,-222.061783,1149.143247,9400.615463
87102.133174,-370.102971,1225.752797,9178.553681
87102.133503,0.000000,689.485948,8956.491898
87102.133833,444.123565,612.876398,9474.636058
87102.134162,0.000000,689.485948,9474.636058
87102.134491,592.164754,689.485948,9252.574275
87102.134821,888.247130,536.266849,9178.553681
87102.135150,666.185348,306.438199,9474.636058
87102.135479,148.041188,-229.828649,9252.574275
87102.135809,-1036.288319,-1302.362347,8882.471304
87102.136138,-666.185348,-1915.238745,9474.636058
87102.136467,-814.226536,-2528.115143,9918.759623
87102.136797,-1480.411884,-2911.162892,9548.656652
87102.137126,-1628.453072,-3064.381992,9622.677246
87102.137455,-814.226536,-3217.601092,9844.739029
87102.137785,148.041188,-2987.772442,10436.903782
87102.138114,-148.041188,-2604.724693,10214.842000
87102.138443,0.000000,-1608.800546,9844.739029
87102.138773,888.247130,-1685.410096,10436.903782
87102.139102,1702.473667,-1915.238745,10732.986159
87102.139431,1332.370696,-1608.800546,10658.965565
87102.139761,888.247130,-1225.752797,10288.862594
87102.140090,888.247130,-995.924147,10214.842000
87102.140419,1406.391290,-1838.629195,10214.842000
87102.140748,814.226536,-1838.629195,9918.759623
87102.141078,444.123565,-842.705048,9622.677246
87102.141407,444.123565,0.000000,9326.594869
87102.141736,1036.288319,-459.657299,9474.636058
87102.142066,814.226536,-383.047749,9252.574275
87102.142395,740.205942,2221.676944,8808.450710
87102.142724,962.267725,2374.896044,8438.347739
87102.143054,1332.370696,1991.848295,8586.388927
87102.143383,666.185348,2145.067394,8512.368333
87102.143712,370.102971,2451.505594,8734.430116
87102.144042,-222.061783,2911.162892,8068.244768
87102.144371,0.000000,2604.724693,8364.327145
87102.144700,-888.247130,1991.848295,8438.347739
87102.145030,-1110.308913,2451.505594,7846.182985
87102.145359,-1554.432478,2528.115143,7994.224174
87102.145688,-1480.411884,2451.505594,8364.327145
87102.146018,-1184.329507,2451.505594,8882.471304
87102.146347,-666.185348,2987.772442,8734.430116
87102.146676,0.000000,3217.601092,8956.491898
87102.147005,0.000000,3294.210641,9548.656652
87102.147335,-148.041188,3600.648841,8586.388927
87102.147664,222.061783,3140.991542,9104.533087
87102.147993,0.000000,2757.943793,9252.574275
87102.148323,0.000000,2451.505594,9178.553681
87102.148652,0.000000,2374.896044,9400.615463
87102.148981,-666.185348,1915.238745,9178.553681
87102.149311,-518.144159,1532.190996,8882.471304
87102.149640,0.000000,1455.581446,9770.718434
87102.149969,-296.082377,1532.190996,8734.430116
87102.150299,-888.247130,1302.362347,8956.491898
87102.150628,-888.247130,842.705048,8586.388927
87102.150957,-296.082377,766.095498,9030.512492
87102.151287,-518.144159,153.219100,9252.574275
87102.151616,-1258.350101,-383.047749,9178.553681
87102.151945,-1776.494261,-1072.533697,9474.636058
87102.152275,-1406.391290,-2068.457845,9844.739029
87102.152604,-1480.411884,-2451.505594,10140.821405
87102.152933,-1554.432478,-2451.505594,10214.842000
87102.153262,-1628.453072,-2757.943793,10140.821405
87102.153592,-222.061783,-3217.601092,10362.883188
87102.153921,0.000000,-3064.381992,10066.800811
87102.154250,296.082377,-2298.286494,10584.944971
87102.154580,1184.329507,-1455.581446,10436.903782
87102.154909,1850.514855,-1455.581446,10288.862594
87102.155238,2146.597232,-1838.629195,10584.944971
87102.155568,2072.576638,-1302.362347,10510.924376
87102.155897,1998.556043,-995.924147,9844.739029
87102.156226,1924.535449,-1608.800546,10066.800811
87102.156556,1258.350101,-1838.629195,9844.739029
87102.156885,1406.391290,-1532.190996,10362.883188
87102.157214,962.267725,-1072.533697,9844.739029
87102.157544,592.164754,-612.876398,9474.636058
87102.157873,740.205942,-229.828649,9326.594869
87102.158202,1036.288319,-536.266849,9474.636058
87102.158532,814.226536,459.657299,8956.491898
87102.158861,518.144159,1915.238745,8290.306550
87102.159190,592.164754,1762.019645,8734.430116
87102.159519,370.102971,1838.629195,8660.409521
87102.159849,0.000000,1608.800546,8956.491898
87102.160178,-222.061783,1838.629195,8660.409521
87102.160507,-518.144159,1762.019645,8734.430116
87102.160837,-1184.329507,1685.410096,8438.347739
87102.161166,-1110.308913,2451.505594,8660.409521
87102.161495,-962.267725,2528.115143,8586.388927
87102.161825,-814.226536,2528.115143,8808.450710
87102.162154,-370.102971,2681.334243,9030.512492
87102.162483,-370.102971,3370.820191,8882.471304
87102.162813,222.061783,4290.134789,8882.471304
87102.163142,814.226536,3294.210641,9030.512492
87102.163471,370.102971,3370.820191,8364.327145
87102.163801,-296.082377,3370.820191,8808.450710
87102.164130,74.020594,3217.601092,9104.533087
87102.164459,0.000000,2834.553343,9178.553681
87102.164789,-370.102971,2451.505594,9252.574275
87102.165118,-1258.350101,2681.334243,8956.491898
87102.165447,-1110.308913,2298.286494,7994.224174
87102.165776,0.000000,1225.752797,8586.388927
87102.166106,-666.185348,1685.410096,9030.512492
87102.166435,-1110.308913,1915.238745,8512.368333
87102.166764,-518.144159,1838.629195,8438.347739
87102.167094,0.000000,1149.143247,9030.512492
87102.167423,-740.205942,612.876398,8586.388927
87102.167752,-444.123565,459.657299,9400.615463
87102.168082,-592.164754,0.000000,8808.450710
87102.168411,-592.164754,-842.705048,9400.615463
87102.168740,-592.164754,-1225.752797,9548.656652
87102.169070,-666.185348,-1762.019645,10140.821405
87102.169399,-592.164754,-919.314598,9992.780217
87102.169728,148.041188,-1455.581446,9548.656652
87102.170058,148.041188,-1608.800546,10140.821405
87102.170387,1110.308913,-995.924147,10807.006753
87102.170716,740.205942,-995.924147,10362.883188
87102.171046,1406.391290,-1149.143247,10214.842000
87102.171375,2072.576638,-1149.143247,10658.965565
87102.171704,1702.473667,-995.924147,10436.903782
87102.172033,1110.308913,-612.876398,10214.842000
87102.172363,962.267725,-1915.238745,9696.697840
87102.172692,740.205942,-2221.676944,10436.903782
87102.173021,592.164754,-1762.019645,10510.924376
87102.173351,222.061783,-1302.362347,9918.759623
87102.173680,0.000000,-919.314598,9696.697840
87102.174009,1036.288319,-383.047749,9474.636058
87102.174339,814.226536,-995.924147,9400.615463
87102.174668,1110.308913,-76.609550,9474.636058
87102.174997,740.205942,1225.752797,8512.368333
87102.175327,888.247130,1302.362347,8660.409521
87102.175656,888.247130,919.314598,9030.512492
87102.175985,148.041188,1225.752797,8586.388927
87102.176315,0.000000,1838.629195,8660.409521
87102.176644,-370.102971,1455.581446,8956.491898
87102.176973,-296.082377,1225.752797,9696.697840
87102.177303,-888.247130,612.876398,8882.471304
87102.177632,-888.247130,1608.800546,8882.471304
87102.177961,-1258.350101,2068.457845,8956.491898
87102.178290,-1258.350101,2374.896044,8808.450710
87102.178620,-962.267725,2911.162892,8956.491898
87102.178949,-1110.308913,2681.334243,8734.430116
87102.179278,-1480.411884,3064.381992,8586.388927
87102.179608,-518.144159,2757.943793,9474.636058
87102.179937,-1258.350101,2451.505594,8956.491898
87102.180266,-1332.370696,2451.505594,8956.491898
87102.180596,-888.247130,1532.190996,9178.553681
87102.180925,-1184.329507,1915.238745,9252.574275
87102.181254,-1776.494261,1378.971896,8882.471304
87102.181584,-2072.576638,1225.752797,8512.368333
87102.181913,-1480.411884,1149.143247,8364.327145
87102.182242,-888.247130,919.314598,8882.471304
87102.182572,-1258.350101,1378.971896,8364.327145
87102.182901,-962.267725,1455.581446,7994.224174
87102.183230,0.000000,766.095498,8586.388927
87102.183560,0.000000,766.095498,8512.368333
87102.183889,-518.144159,536.266849,8956.491898
87102.184218,-1184.329507,0.000000,8808.450710
87102.184547,-962.267725,-919.314598,8956.491898
87102.184877,-888.247130,-1378.971896,9474.636058
87102.185206,-1184.329507,-1762.019645,9548.656652
87102.185535,-592.164754,-1991.848295,9474.636058
87102.185865,0.000000,-2221.676944,9696.697840
87102.186194,666.185348,-1915.238745,10362.883188
87102.186523,592.164754,-1378.971896,10658.965565
87102.186853,1258.350101,-842.705048,10362.883188
87102.187182,1924.535449,-536.266849,10140.821405
87102.187511,1776.494261,-842.705048,10436.903782
87102.187841,1776.494261,-1072.533697,10362.883188
87102.188170,1776.494261,-689.485948,10510.924376
87102.188499,2072.576638,-995.924147,10732.986159
87102.188829,1110.308913,-1149.143247,10955.047942
87102.189158,814.226536,-1378.971896,10288.862594
87102.189487,888.247130,-919.314598,10066.800811
87102.189816,814.226536,-612.876398,9696.697840
87102.190145,1110.308913,-459.657299,9474.636058
87102.190474,1184.329507,1149.143247,8956.491898
87102.190803,1184.329507,1455.581446,8956.491898
87102.191133,1628.453072,1302.362347,8734.430116
87102.191462,1480.411884,1685.410096,8882.471304
87102.191791,740.205942,1991.848295,8734.430116
87102.192120,444.123565,1991.848295,8660.409521
87102.192449,148.041188,1608.800546,8512.368333
87102.192778,-444.123565,1378.971896,8438.347739
87102.193107,-1184.329507,842.705048,8808.450710
87102.193436,-1776.494261,1378.971896,8216.285956
87102.193765,-1702.473667,1225.752797,8438.347739
87102.194095,-1480.411884,1225.752797,8734.430116
87102.194424,-1924.535449,1838.629195,8808.450710
87102.194753,-2146.597232,2834.553343,9030.512492
87102.195082,-1184.329507,2528.115143,8364.327145
87102.195411,-518.144159,1532.190996,9474.636058
87102.195740,-740.205942,2145.067394,9474.636058
87102.196069,-1110.308913,2451.505594,9400.615463
87102.196398,-666.185348,1991.848295,9622.677246
87102.196727,-518.144159,919.314598,9326.594869
87102.197056,-296.082377,995.924147,9622.677246
87102.197386,-962.267725,1685.410096,9030.512492
87102.197715,-1036.288319,1762.019645,8290.306550
87102.198044,0.000000,842.705048,8808.450710
87102.198373,-74.020594,919.314598,8882.471304
87102.198702,-222.061783,1455.581446,8586.388927
87102.199031,74.020594,1838.629195,8068.244768
87102.199360,444.123565,1608.800546,8364.327145
87102.199689,222.061783,919.314598,8512.368333
87102.200018,-666.185348,306.438199,8364.327145
87102.200348,-444.123565,229.828649,8364.327145
87102.200677,-740.205942,-689.485948,8660.409521
87102.201006,-962.267725,-1378.971896,9104.533087
87102.201335,-962.267725,-1838.629195,8882.471304
87102.201664,-1110.308913,-1455.581446,9178.553681
87102.201993,-148.041188,-2221.676944,9696.697840
87102.202322,518.144159,-1838.629195,9918.759623
87102.202651,444.123565,-1915.238745,10214.842000
87102.202980,1110.308913,-766.095498,10214.842000
87102.203310,1332.370696,-153.219100,10214.842000
87102.203639,1554.432478,-1225.752797,10658.965565
87102.203968,2368.659014,-919.314598,11029.068536
87102.204297,1924.535449,-612.876398,10214.842000
87102.204626,1776.494261,-766.095498,10732.986159
87102.204955,1406.391290,-995.924147,10584.944971
87102.205284,1184.329507,-995.924147,9992.780217
87102.205613,1258.350101,-995.924147,10362.883188
87102.205942,1036.288319,0.000000,9770.718434
87102.206272,1184.329507,536.266849,9622.677246
87102.206601,1110.308913,1149.143247,9474.636058
87102.206930,1258.350101,1302.362347,8882.471304
87102.207259,1702.473667,1608.800546,8956.491898
87102.207588,1554.432478,1991.848295,9030.512492
87102.207917,444.123565,2221.676944,8734.430116
87102.208246,0.000000,2068.457845,8216.285956
87102.208575,222.061783,1455.581446,8364.327145
87102.208904,-962.267725,2068.457845,8660.409521
87102.209234,-1554.432478,1455.581446,8438.347739
87102.209563,-1924.535449,1532.190996,8364.327145
87102.209892,-1554.432478,1149.143247,8586.388927
87102.210221,-1184.329507,1225.752797,9178.553681
87102.210550,-1184.329507,2145.067394,9030.512492
87102.210879,-1110.308913,2528.115143,8956.491898
87102.211208,-444.123565,1991.848295,9400.615463
87102.211537,-518.144159,1991.848295,9474.636058
87102.211866,-444.123565,2068.457845,9696.697840
87102.212196,-1110.308913,2145.067394,9622.677246
87102.212525,-740.205942,1455.581446,9474.636058
87102.212854,-592.164754,459.657299,9474.636058
87102.213183,-888.247130,536.266849,9400.615463
87102.213512,-1554.432478,1225.752797,8956.491898
87102.213841,-1258.350101,919.314598,8586.388927
87102.214170,-962.267725,0.000000,8882.471304
87102.214499,-1258.350101,76.609550,8882.471304
87102.214828,-1332.370696,1149.143247,8142.265362
87102.215157,-1110.308913,1225.752797,7698.141797
87102.215487,-592.164754,689.485948,8142.265362
87102.215816,-444.123565,-459.657299,8438.347739
87102.216145,-962.267725,-383.047749,8808.450710
87102.216474,-1554.432478,-383.047749,8512.368333
87102.216803,-1480.411884,-1378.971896,8882.471304
87102.217132,-1258.350101,-2757.943793,9400.615463
87102.217461,-1184.329507,-2757.943793,9474.636058
87102.217790,-1332.370696,-1915.238745,9474.636058
87102.218119,-518.144159,-1838.629195,9548.656652
87102.218449,592.164754,-2068.457845,10288.862594
87102.218778,888.247130,-1455.581446,10288.862594
87102.219107,1850.514855,-842.705048,9918.759623
87102.219436,2220.617826,-153.219100,10140.821405
87102.219765,2738.761985,-766.095498,10140.821405
87102.220094,2590.720797,536.266849,10288.862594
87102.220423,2368.659014,153.219100,9918.759623
87102.220752,1924.535449,-229.828649,10214.842000
87102.221081,1702.473667,-612.876398,10658.965565
87102.221411,1110.308913,-1072.533697,9918.759623
87102.221740,666.185348,-612.876398,10140.821405
87102.222069,1332.370696,229.828649,9844.739029
87102.222398,888.247130,383.047749,9326.594869
87102.222727,592.164754,919.314598,9844.739029
87102.223056,814.226536,1762.019645,9030.512492
87102.223385,1036.288319,1838.629195,8808.450710
87102.223714,1036.288319,2298.286494,8956.491898
87102.224043,444.123565,2681.334243,8734.430116
87102.224373,74.020594,2451.505594,8586.388927
87102.224702,74.020594,2451.505594,7624.121203
87102.225031,0.000000,1532.190996,8734.430116
87102.225360,-962.267725,2145.067394,8438.347739
87102.225689,-1184.329507,2374.896044,8734.430116
87102.226018,-1184.329507,2068.457845,8808.450710
87102.226347,-962.267725,1762.019645,9326.594869
87102.226676,-1332.370696,2911.162892,8734.430116
87102.227005,-1406.391290,3447.429741,8882.471304
87102.227335,-444.123565,3064.381992,9252.574275
87102.227664,592.164754,1762.019645,9770.718434
87102.227993,-296.082377,2451.505594,9474.636058
87102.228322,-962.267725,2911.162892,9844.739029
87102.228651,-592.164754,2145.067394,9474.636058
87102.228980,-518.144159,1378.971896,9474.636058
87102.229309,-666.185348,612.876398,9622.677246
87102.229638,-1332.370696,1225.752797,9474.636058
87102.229967,-814.226536,1225.752797,9178.553681
87102.230296,-666.185348,766.095498,8882.471304
87102.230626,-370.102971,153.219100,9178.553681
87102.230955,-666.185348,995.924147,8586.388927
87102.231284,-592.164754,1762.019645,7920.203579
87102.231613,592.164754,1072.533697,8660.409521
87102.231942,74.020594,153.219100,8364.327145
87102.232271,-666.185348,-229.828649,8438.347739
87102.232600,-518.144159,0.000000,8142.265362
87102.232929,-222.061783,-919.314598,8882.471304
87102.233258,-296.082377,-1838.629195,9252.574275
87102.233588,-370.102971,-1838.629195,8956.491898
87102.233917,-592.164754,-1225.752797,9178.553681
87102.234246,222.061783,-1225.752797,9474.636058
87102.234575,296.082377,-1838.629195,9770.718434
87102.234904,592.164754,-1455.581446,9992.780217
87102.235233,1110.308913,-919.314598,9474.636058
87102.235562,1702.473667,-536.266849,10066.800811
87102.235891,1480.411884,-995.924147,10362.883188
87102.236220,1332.370696,-1072.533697,10362.883188
87102.236550,1406.391290,-689.485948,10140.821405
87102.236879,1258.350101,-842.705048,10732.986159
87102.237208,1036.288319,-919.314598,10955.047942
87102.237537,518.144159,-1149.143247,10214.842000
87102.237866,74.020594,-1149.143247,9918.759623
87102.238195,444.123565,-306.438199,9622.677246
87102.238524,740.205942,612.876398,9770.718434
87102.238853,666.185348,766.095498,9844.739029
87102.239182,888.247130,1838.629195,9252.574275
87102.239512,1184.329507,1991.848295,8956.491898
87102.239841,1554.432478,2528.115143,9326.594869
87102.240170,814.226536,2221.676944,9400.615463
87102.240499,0.000000,2528.115143,8364.327145
87102.240828,222.061783,2987.772442,8068.244768
87102.241157,222.061783,2374.896044,8956.491898
87102.241486,-592.164754,1685.410096,9326.594869
87102.241815,-1332.370696,2221.676944,8438.347739
87102.242144,-1184.329507,2374.896044,8586.388927
87102.242474,-740.205942,2145.067394,8882.471304
87102.242803,-1036.288319,1991.848295,8882.471304
87102.243132,-1110.308913,3447.429741,8068.244768
87102.243461,-296.082377,3294.210641,8290.306550
87102.243790,0.000000,2451.505594,9252.574275
87102.244119,-444.123565,2145.067394,9474.636058
87102.244448,-1184.329507,2451.505594,9474.636058
87102.244777,-962.267725,1991.848295,9548.656652
87102.245106,-1258.350101,612.876398,10214.842000
87102.245435,-1480.411884,76.609550,10066.800811
87102.245765,-1702.473667,459.657299,8956.491898
87102.246094,-1554.432478,459.657299,9178.553681
87102.246423,-1332.370696,306.438199,9326.594869
87102.246752,-1036.288319,0.000000,8956.491898
87102.247081,-592.164754,842.705048,8586.388927
87102.247410,-962.267725,1225.752797,7772.162391
87102.247739,444.123565,1149.143247,9474.636058
87102.248068,0.000000,0.000000,8808.450710
87102.248397,-444.123565,-536.266849,8586.388927
87102.248727,-518.144159,-689.485948,8512.368333
87102.249056,-518.144159,-1149.143247,9104.533087
87102.249385,-592.164754,-2068.457845,9474.636058
87102.249714,-814.226536,-2374.896044,9474.636058
87102.250043,-518.144159,-1915.238745,9030.512492
87102.250372,370.102971,-2145.067394,9844.739029
87102.250701,74.020594,-2374.896044,9918.759623
87102.251030,444.123565,-1838.629195,9844.739029
87102.251359,1110.308913,-1302.362347,9548.656652
87102.251689,1406.391290,-842.705048,9696.697840
87102.252018,1110.308913,-995.924147,9844.739029
87102.252347,1258.350101,-1532.190996,10436.903782
87102.252676,1036.288319,-1149.143247,10140.821405
87102.253005,1110.308913,-1455.581446,10362.883188
87102.253334,518.144159,-1762.019645,10510.924376
87102.253663,148.041188,-1149.143247,10362.883188
87102.253992,592.164754,-995.924147,10214.842000
87102.254321,814.226536,-919.314598,9770.718434
87102.254651,1036.288319,0.000000,9474.636058
87102.254980,1036.288319,689.485948,9400.615463
87102.255309,1406.391290,1762.019645,9326.594869
87102.255638,1406.391290,2145.067394,8734.430116
87102.255967,1628.453072,2298.286494,9400.615463
87102.256296,1776.494261,2528.115143,9474.636058
87102.256625,592.164754,2834.553343,8364.327145
87102.256954,222.061783,2604.724693,7994.224174
87102.257283,0.000000,2068.457845,8660.409521
87102.257613,-740.205942,2068.457845,8882.471304
87102.257942,-1628.453072,2528.115143,8660.409521
87102.258271,-1628.453072,2451.505594,8882.471304
87102.258600,-1036.288319,1838.629195,9474.636058
87102.258929,-1184.329507,2145.067394,8956.491898
87102.259258,-2368.659014,3140.991542,8882.471304
87102.259587,-1110.308913,3140.991542,9030.512492
87102.259916,-740.205942,2451.505594,9548.656652
87102.260245,-740.205942,2221.676944,9844.739029
87102.260575,-1036.288319,1991.848295,9844.739029
87102.260904,-370.102971,2221.676944,9400.615463
87102.261233,-370.102971,1608.800546,9474.636058
87102.261562,-370.102971,1532.190996,9844.739029
87102.261891,-1036.288319,995.924147,9474.636058
87102.262220,0.000000,1455.581446,9326.594869
87102.262549,148.041188,1532.190996,9252.574275
87102.262878,444.123565,1225.752797,9030.512492
87102.263207,814.226536,1378.971896,9030.512492
87102.263536,1110.308913,2068.457845,8660.409521
87102.263866,1110.308913,1302.362347,8660.409521
87102.264195,666.185348,1149.143247,8068.244768
87102.264524,0.000000,229.828649,8512.368333
87102.264853,-370.102971,-229.828649,8512.368333
87102.265182,-370.102971,-919.314598,8438.347739
87102.265511,-1184.329507,-1685.410096,8808.450710
87102.265840,-1480.411884,-1915.238745,9178.553681
87102.266169,-1332.370696,-1838.629195,8512.368333
87102.266498,-740.205942,-1762.019645,9104.533087
87102.266828,-666.185348,-2068.457845,9770.718434
87102.267157,-592.164754,-1608.800546,9474.636058
87102.267486,148.041188,-1225.752797,9474.636058
87102.267815,888.247130,-1149.143247,9696.697840
87102.268144,1332.370696,-1608.800546,10362.883188
87102.268473,888.247130,-1302.362347,9918.759623
87102.268802,962.267725,-1225.752797,10214.842000
87102.269131,1184.329507,-1455.581446,10436.903782
87102.269460,1258.350101,-1685.410096,10658.965565
87102.269790,740.205942,-1378.971896,10510.924376
87102.270119,444.123565,-1225.752797,10066.800811
87102.270448,1110.308913,-842.705048,9844.739029
87102.270777,1258.350101,-459.657299,9770.718434
87102.271106,1406.391290,919.314598,10140.821405
87102.271435,1184.329507,1455.581446,9104.533087
87102.271764,1776.494261,1608.800546,8956.491898
87102.272093,1776.494261,1302.362347,9326.594869
87102.272422,1184.329507,2145.067394,8808.450710
87102.272752,0.000000,2528.115143,8364.327145
87102.273081,-296.082377,2068.457845,8438.347739
87102.273410,-592.164754,689.485948,8734.430116
87102.273739,-1332.370696,995.924147,9030.512492
87102.274068,-1924.535449,1838.629195,8586.388927
87102.274397,-1998.556043,1991.848295,8882.471304
87102.274726,-962.267725,1762.019645,8956.491898
87102.275055,-1850.514855,2298.286494,9474.636058
87102.275384,-962.267725,2374.896044,9474.636058
87102.275714,-666.185348,3064.381992,9400.615463
87102.276043,-370.102971,2681.334243,9474.636058
87102.276372,0.000000,2451.505594,10140.821405
87102.276701,-592.164754,2145.067394,9844.739029
87102.277030,-296.082377,2451.505594,9474.636058
87102.277359,-518.144159,2221.676944,9400.615463
87102.277688,-740.205942,1072.533697,10214.842000
87102.278017,-962.267725,919.314598,9400.615463
87102.278346,-740.205942,1378.971896,9326.594869
87102.278675,-592.164754,1455.581446,9252.574275
87102.279005,-444.123565,1225.752797,9030.512492
87102.279334,-518.144159,1072.533697,8216.285956
87102.279663,0.000000,1608.800546,8438.347739
87102.279992,0.000000,1072.533697,8068.244768
87102.280321,-370.102971,229.828649,8586.388927
87102.280650,-1036.288319,0.000000,8512.368333
87102.280979,-1332.370696,-229.828649,8290.306550
87102.281308,-1036.288319,-1149.143247,8734.430116
87102.281637,-1776.494261,-1915.238745,9104.533087
87102.281967,-2146.597232,-1991.848295,8512.368333
87102.282296,-1480.411884,-2757.943793,8808.450710
87102.282625,-666.185348,-2451.505594,9326.594869
87102.282954,-222.061783,-2221.676944,9770.718434
87102.283283,74.020594,-1762.019645,9770.718434
87102.283612,1258.350101,-1149.143247,10066.800811
87102.283941,1924.535449,-842.705048,9770.718434
87102.284270,2590.720797,-842.705048,9992.780217
87102.284599,2294.638420,-1072.533697,9992.780217
87102.284929,1850.514855,-766.095498,9844.739029
87102.285258,1998.556043,-1532.190996,10214.842000
87102.285587,1776.494261,-1608.800546,10436.903782
87102.285916,1184.329507,-995.924147,10362.883188
87102.286245,666.185348,-459.657299,10066.800811
87102.286574,1036.288319,-1072.533697,9474.636058
87102.286903,1406.391290,-766.095498,9696.697840
87102.287232,592.164754,0.000000,9770.718434
87102.287561,518.144159,1149.143247,8956.491898
87102.287891,1258.350101,1378.971896,9030.512492
87102.288220,1258.350101,1608.800546,9178.553681
87102.288549,888.247130,1838.629195,9252.574275
87102.288878,-370.102971,2374.896044,8216.285956
87102.289207,0.000000,2374.896044,8290.306550
87102.289536,-444.123565,1378.971896,8660.409521
87102.289865,-1184.329507,1302.362347,8956.491898
87102.290194,-1406.391290,1608.800546,8660.409521
87102.290523,-1184.329507,1838.629195,8660.409521
87102.290853,-888.247130,1685.410096,9178.553681
87102.291182,-888.247130,2604.724693,9474.636058
87102.291511,-1332.370696,2911.162892,9474.636058
87102.291840,-370.102971,3370.820191,9326.594869
87102.292169,0.000000,2911.162892,9770.718434
87102.292498,0.000000,2451.505594,9992.780217
87102.292827,0.000000,2298.286494,9696.697840
87102.293157,222.061783,2681.334243,9548.656652
87102.293486,-222.061783,2298.286494,10140.821405
87102.293815,-814.226536,1378.971896,9696.697840
87102.294144,-740.205942,1302.362347,9400.615463
87102.294473,-296.082377,1532.190996,9474.636058
87102.294802,-444.123565,1685.410096,9400.615463
87102.295132,-222.061783,1302.362347,8956.491898
87102.295461,0.000000,1608.800546,8512.368333
87102.295790,0.000000,2068.457845,7994.224174
87102.296119,740.205942,1685.410096,8734.430116
87102.296448,444.123565,1072.533697,8586.388927
87102.296777,-666.185348,536.266849,8216.285956
87102.297107,-740.205942,229.828649,8216.285956
87102.297436,0.000000,-229.828649,8808.450710
87102.297765,-740.205942,-1532.190996,8660.409521
87102.298094,-1332.370696,-1378.971896,8808.450710
87102.298423,-1036.288319,-1302.362347,8512.368333
87102.298752,0.000000,-1838.629195,8956.491898
87102.299082,148.041188,-1532.190996,9770.718434
87102.299411,222.061783,-766.095498,9252.574275
87102.299740,1110.308913,-689.485948,9030.512492
87102.300069,1850.514855,-1455.581446,9548.656652
87102.300398,1776.494261,-919.314598,9844.739029
87102.300727,1480.411884,-995.924147,10214.842000
87102.301056,1036.288319,-995.924147,10066.800811
87102.301386,1110.308913,-1455.581446,10066.800811
87102.301715,888.247130,-1762.019645,10362.883188
87102.302044,296.082377,-1608.800546,9992.780217
87102.302373,296.082377,-689.485948,10140.821405
87102.302702,444.123565,-1149.143247,9400.615463
87102.303031,814.226536,-1225.752797,10066.800811
87102.303361,444.123565,306.438199,9474.636058
87102.303690,592.164754,1149.143247,9030.512492
87102.304019,1332.370696,1378.971896,9252.574275
87102.304348,1554.432478,1915.238745,9326.594869
87102.304677,518.144159,1991.848295,8734.430116
87102.305006,518.144159,1762.019645,8660.409521
87102.305336,296.082377,1838.629195,8660.409521
87102.305665,-444.123565,1378.971896,8956.491898
87102.305994,-962.267725,1072.533697,8956.491898
87102.306323,-888.247130,1608.800546,8956.491898
87102.306652,-962.267725,2374.896044,8956.491898
87102.306981,-814.226536,2221.676944,8882.471304
87102.307311,-1110.308913,1991.848295,9400.615463
87102.307640,-518.144159,2834.553343,9474.636058
87102.307969,0.000000,3064.381992,9400.615463
87102.308298,-296.082377,2604.724693,9844.739029
87102.308627,-814.226536,2374.896044,9770.718434
87102.308956,-1184.329507,2221.676944,9252.574275
87102.309286,-592.164754,2068.457845,9918.759623
87102.309615,-1184.329507,1915.238745,10214.842000
87102.309944,-2442.679609,919.314598,9548.656652
87102.310273,-1480.411884,766.095498,9844.739029
87102.310602,-1332.370696,459.657299,9474.636058
87102.310931,-1184.329507,766.095498,9696.697840
87102.311260,-888.247130,689.485948,9178.553681
87102.311590,-962.267725,612.876398,8660.409521
87102.311919,-370.102971,2068.457845,8216.285956
87102.312248,370.102971,1225.752797,8586.388927
87102.312577,74.020594,766.095498,8438.347739
87102.312906,-370.102971,536.266849,8660.409521
87102.313235,-518.144159,0.000000,8364.327145
87102.313565,-296.082377,-919.314598,8438.347739
87102.313894,-740.205942,-1149.143247,9030.512492
87102.314223,-1480.411884,-1532.190996,8808.450710
87102.314552,-1110.308913,-1532.190996,8808.450710
87102.314881,-444.123565,-1991.848295,9400.615463
87102.315210,0.000000,-1915.238745,9400.615463
87102.315540,74.020594,-1225.752797,9252.574275
87102.315869,666.185348,-919.314598,9326.594869
87102.316198,1554.432478,-306.438199,9770.718434
87102.316527,1998.556043,-766.095498,9696.697840
87102.316856,1258.350101,-995.924147,9770.718434
87102.317185,1258.350101,-689.485948,9548.656652
87102.317515,1332.370696,-1225.752797,9992.780217
87102.317844,1184.329507,-1378.971896,10362.883188
87102.318173,518.144159,-1685.410096,9992.780217
87102.318502,666.185348,-536.266849,9326.594869
87102.318831,1184.329507,-459.657299,9622.677246
87102.319160,1184.329507,-383.047749,9770.718434
87102.319490,888.247130,612.876398,9622.677246
87102.319819,1332.370696,1302.362347,8734.430116
87102.320148,1998.556043,2145.067394,8882.471304
87102.320477,1702.473667,2068.457845,9178.553681
87102.320806,1480.411884,1838.629195,8734.430116
87102.321135,888.247130,2604.724693,8216.285956
87102.321464,222.061783,2374.896044,8216.285956
87102.321794,-296.082377,1685.410096,8808.450710
87102.322123,-1258.350101,1608.800546,8808.450710
87102.322452,-1332.370696,1762.019645,9030.512492
87102.322781,-1702.473667,1149.143247,8956.491898
87102.323110,-1480.411884,1608.800546,9696.697840
87102.323439,-1184.329507,1915.238745,10288.862594
87102.323769,-1554.432478,2374.896044,9178.553681
87102.324098,-888.247130,2528.115143,9474.636058
87102.324427,-592.164754,2451.505594,9844.739029
87102.324756,-666.185348,2298.286494,10066.800811
87102.325085,-666.185348,2221.676944,9400.615463
87102.325414,-296.082377,1915.238745,9622.677246
87102.325744,-370.102971,1915.238745,9844.739029
87102.326073,-518.144159,1225.752797,10436.903782
87102.326402,-592.164754,919.314598,9918.759623
87102.326731,-666.185348,1149.143247,9474.636058
87102.327060,296.082377,995.924147,9474.636058
87102.327389,444.123565,1149.143247,9252.574275
87102.327719,-148.041188,1762.019645,8660.409521
87102.328048,666.185348,1991.848295,8734.430116
87102.328377,1184.329507,1455.581446,9030.512492
87102.328706,444.123565,995.924147,8438.347739
87102.329035,0.000000,842.705048,8364.327145
87102.329364,-222.061783,306.438199,8216.285956
87102.329694,-296.082377,-229.828649,8808.450710
87102.330023,-592.164754,-919.314598,9178.553681
87102.330352,-1480.411884,-1378.971896,8882.471304
87102.330681,-1480.411884,-1608.800546,8586.388927
87102.331010,-814.226536,-1991.848295,9178.553681
87102.331339,-222.061783,-2145.067394,9622.677246
87102.331668,0.000000,-1455.581446,9252.574275
87102.331998,592.164754,-689.485948,8882.471304
87102.332327,1110.308913,-1149.143247,9696.697840
87102.332656,1776.494261,-689.485948,9844.739029
87102.332985,1406.391290,-1149.143247,10066.800811
87102.333314,888.247130,-689.485948,9844.739029
87102.333643,1480.411884,-1378.971896,9918.759623
87102.333973,1406.391290,-1455.581446,10288.862594
87102.334302,1184.329507,-2374.896044,10288.862594
87102.334631,148.041188,-689.485948,9474.636058
87102.334960,962.267725,-689.485948,9474.636058
87102.335289,1184.329507,-383.047749,9844.739029
87102.335618,666.185348,383.047749,9400.615463
87102.335948,1036.288319,1149.143247,9030.512492
87102.336277,1554.432478,1685.410096,9030.512492
87102.336606,1184.329507,1838.629195,8734.430116
87102.336935,666.185348,1685.410096,8512.368333
87102.337264,74.020594,1685.410096,8364.327145
87102.337593,-148.041188,1762.019645,8586.388927
87102.337923,-740.205942,1302.362347,8734.430116
87102.338252,-1332.370696,1149.143247,8734.430116
87102.338581,-1480.411884,1762.019645,8364.327145
87102.338910,-1332.370696,1302.362347,8660.409521
87102.339239,-1184.329507,1762.019645,8956.491898
87102.339568,-1332.370696,1915.238745,9326.594869
87102.339898,-1258.350101,2451.505594,9178.553681
87102.340227,-518.144159,2528.115143,9326.594869
87102.340556,0.000000,2451.505594,9992.780217
87102.340885,-666.185348,2221.676944,9770.718434
87102.341214,-592.164754,3370.820191,9548.656652
87102.341543,-444.123565,1838.629195,10140.821405
87102.341872,-444.123565,1225.752797,10288.862594
87102.342202,-1110.308913,1378.971896,10214.842000
87102.342531,-1480.411884,1072.533697,9622.677246
87102.342860,-1184.329507,689.485948,9474.636058
87102.343189,0.000000,76.609550,10066.800811
87102.343518,-592.164754,842.705048,8882.471304
87102.343847,-962.267725,1608.800546,8438.347739
87102.344177,0.000000,612.876398,8586.388927
87102.344506,0.000000,229.828649,8956.491898
87102.344835,-444.123565,229.828649,8734.430116
87102.345164,-1110.308913,612.876398,8660.409521
87102.345493,-1110.308913,0.000000,8882.471304
87102.345822,-518.144159,-2221.676944,8956.491898
87102.346152,-1406.391290,-2298.286494,8438.347739
87102.346481,-1628.453072,-1991.848295,8808.450710
87102.346810,-962.267725,-1991.848295,9178.553681
87102.347139,-370.102971,-2374.896044,9474.636058
87102.347468,0.000000,-2221.676944,9770.718434
87102.347797,666.185348,-766.095498,9696.697840
87102.348127,1480.411884,-612.876398,9918.759623
87102.348456,1776.494261,-459.657299,9622.677246
87102.348785,2294.638420,-1225.752797,9622.677246
87102.349114,1776.494261,-919.314598,9844.739029
87102.349443,1628.453072,-689.485948,9622.677246
87102.349772,1776.494261,-842.705048,9770.718434
87102.350102,1110.308913,-1225.752797,10288.862594
87102.350431,666.185348,-1685.410096,9474.636058
87102.350760,1110.308913,-1455.581446,9622.677246
87102.351089,592.164754,-459.657299,9474.636058
87102.351418,666.185348,0.000000,9474.636058
87102.351747,518.144159,76.609550,9474.636058
87102.352077,962.267725,383.047749,8882.471304
87102.352406,1110.308913,1532.190996,8660.409521
87102.352735,148.041188,1762.019645,8586.388927
87102.353064,740.205942,1991.848295,8438.347739
87102.353393,0.000000,2451.505594,8586.388927
87102.353722,74.020594,1838.629195,8364.327145
87102.354051,-444.123565,1838.629195,8882.471304
87102.354381,-1702.473667,1915.238745,8142.265362
87102.354710,-1850.514855,1991.848295,8364.327145
87102.355039,-962.267725,1532.190996,8956.491898
87102.355368,-1406.391290,2145.067394,8586.388927
87102.355697,-1628.453072,2451.505594,9104.533087
87102.356026,-740.205942,3140.991542,9030.512492
87102.356356,0.000000,3140.991542,9326.594869
87102.356685,0.000000,2757.943793,9696.697840
87102.357014,0.000000,2221.676944,9992.780217
87102.357343,-518.144159,3217.601092,9252.574275
87102.357672,-444.123565,2298.286494,9918.759623
87102.358001,-370.102971,1685.410096,10436.903782
87102.358331,-666.185348,1302.362347,10362.883188
87102.358660,-1184.329507,1072.533697,9918.759623
87102.358989,-814.226536,1072.533697,9474.636058
87102.359318,-518.144159,306.438199,9326.594869
87102.359647,0.000000,995.924147,9030.512492
87102.359976,0.000000,1608.800546,9252.574275
87102.360306,148.041188,1225.752797,8808.450710
87102.360635,814.226536,536.266849,8956.491898
87102.360964,0.000000,536.266849,9030.512492
87102.361293,-370.102971,1072.533697,8290.306550
87102.361622,296.082377,-842.705048,8660.409521
87102.361951,-370.102971,-1225.752797,8734.430116
87102.362281,-740.205942,-1762.019645,9252.574275
87102.362610,-1258.350101,-1532.190996,8956.491898
87102.362939,-1036.288319,-1608.800546,8956.491898
87102.363268,0.000000,-2068.457845,9326.594869
87102.363597,74.020594,-1608.800546,9622.677246
87102.363926,148.041188,-919.314598,9252.574275
87102.364255,814.226536,-459.657299,9252.574275
87102.364585,1776.494261,-995.924147,10066.800811
87102.364914,1406.391290,-1072.533697,9844.739029
87102.365243,1258.350101,-919.314598,9844.739029
87102.365572,1258.350101,-1072.533697,9992.780217
87102.365901,1184.329507,-1685.410096,9622.677246
87102.366230,518.144159,-1608.800546,10066.800811
87102.366560,518.144159,-1532.190996,9992.780217
87102.366889,-296.082377,-1225.752797,9326.594869
87102.367218,148.041188,-1072.533697,9548.656652
87102.367547,296.082377,-459.657299,9770.718434
87102.367876,296.082377,229.828649,9178.553681
87102.368205,814.226536,612.876398,8438.347739
87102.368535,1480.411884,1302.362347,9104.533087
87102.368864,1406.391290,1838.629195,8438.347739
87102.369193,962.267725,2298.286494,8290.306550
87102.369522,592.164754,2145.067394,8364.327145
87102.369851,814.226536,1762.019645,8364.327145
87102.370180,74.020594,1532.190996,8808.450710
87102.370510,-666.185348,2145.067394,8142.265362
87102.370839,-1036.288319,2604.724693,8364.327145
87102.371168,-296.082377,1455.581446,8290.306550
87102.371497,-518.144159,2145.067394,8956.491898
87102.371826,-1702.473667,2681.334243,8956.491898
87102.372155,-1110.308913,3064.381992,8512.368333
87102.372485,-222.061783,2757.943793,9030.512492
87102.372814,0.000000,1915.238745,9252.574275
87102.373143,-1036.288319,3064.381992,9104.533087
87102.373472,-1258.350101,2757.943793,9104.533087
87102.373801,-1036.288319,1762.019645,9696.697840
87102.374130,-1036.288319,995.924147,10658.965565
87102.374459,-1554.432478,689.485948,10362.883188
87102.374789,-1924.535449,995.924147,9770.718434
87102.375118,-1628.453072,689.485948,10066.800811
87102.375447,-296.082377,-153.219100,10140.821405
87102.375776,-296.082377,229.828649,9474.636058
87102.376105,-518.144159,1608.800546,9252.574275
87102.376434,444.123565,1532.190996,9400.615463
87102.376764,814.226536,842.705048,9400.615463
87102.377093,296.082377,459.657299,9474.636058
87102.377422,222.061783,1072.533697,9400.615463
87102.377751,-222.061783,306.438199,8586.388927
87102.378080,-740.205942,-1072.533697,8808.450710
87102.378409,-1036.288319,-1991.848295,9400.615463
87102.378739,-1184.329507,-2451.505594,9252.574275
87102.379068,-1258.350101,-2298.286494,9474.636058
87102.379397,-814.226536,-2374.896044,9474.636058
87102.379726,-1110.308913,-2451.505594,9622.677246
87102.380055,0.000000,-1378.971896,9548.656652
87102.380384,888.247130,-1225.752797,9622.677246
87102.380714,1258.350101,-995.924147,9622.677246
87102.381043,1480.411884,-1455.581446,9770.718434
87102.381372,1110.308913,-1378.971896,9770.718434
87102.381701,1184.329507,-766.095498,9770.718434
87102.382030,1258.350101,-995.924147,9918.759623
87102.382359,1036.288319,-1991.848295,10140.821405
87102.382689,370.102971,-1302.362347,9844.739029
87102.383018,592.164754,-1532.190996,9400.615463
87102.383347,1184.329507,-766.095498,9622.677246
87102.383676,962.267725,-153.219100,9844.739029
87102.384005,1110.308913,689.485948,9474.636058
87102.384334,1850.514855,689.485948,8956.491898
87102.384663,2590.720797,1455.581446,9104.533087
87102.384993,1850.514855,1991.848295,8512.368333
87102.385322,888.247130,2451.505594,8216.285956
87102.385651,592.164754,2221.676944,8142.265362
87102.385980,148.041188,1991.848295,8068.244768
87102.386309,-592.164754,1762.019645,8216.285956
87102.386638,-1258.350101,1455.581446,8882.471304
87102.386968,-1332.370696,1532.190996,8216.285956
87102.387297,-1480.411884,1455.581446,9030.512492
87102.387626,-1258.350101,1915.238745,9104.533087
87102.387955,-1924.535449,2604.724693,8956.491898
87102.388284,-1480.411884,3140.991542,8734.430116
87102.388613,-370.102971,3370.820191,8734.430116
87102.388943,-666.185348,2681.334243,9400.615463
87102.389272,-1184.329507,2834.553343,9326.594869
87102.389601,-1036.288319,2681.334243,9696.697840
87102.389930,-518.144159,2221.676944,9844.739029
87102.390259,-444.123565,1455.581446,10140.821405
87102.390589,-666.185348,1302.362347,10066.800811
87102.390918,-518.144159,2145.067394,9474.636058
87102.391247,-370.102971,2298.286494,9696.697840
87102.391576,0.000000,1378.971896,9622.677246
87102.391905,0.000000,1532.190996,9400.615463
87102.392235,0.000000,2374.896044,9030.512492
87102.392564,444.123565,2221.676944,8956.491898
87102.392893,888.247130,1378.971896,9030.512492
87102.393222,814.226536,536.266849,9326.594869
87102.393552,148.041188,766.095498,8956.491898
87102.393881,-666.185348,689.485948,8586.388927
87102.394210,-814.226536,-383.047749,9178.553681
87102.394539,-962.267725,-1685.410096,9474.636058
87102.394869,-1332.370696,-1991.848295,9252.574275
87102.395198,-1480.411884,-1378.971896,9474.636058
87102.395527,-666.185348,-1762.019645,9474.636058
87102.395856,-222.061783,-1532.190996,9474.636058
87102.396185,296.082377,-2145.067394,9918.759623
87102.396515,888.247130,-1302.362347,9844.739029
87102.396844,1110.308913,-689.485948,9770.718434
87102.397173,1258.350101,-1302.362347,9844.739029
87102.397502,1332.370696,-1302.362347,10214.842000
87102.397832,1776.494261,-1149.143247,9844.739029
87102.398161,888.247130,-919.314598,10362.883188
87102.398490,666.185348,-1302.362347,9992.780217
87102.398819,592.164754,-1991.848295,9918.759623
87102.399149,814.226536,-1149.143247,9474.636058
87102.399478,1258.350101,-306.438199,9770.718434
87102.399807,962.267725,0.000000,9622.677246
87102.400136,814.226536,383.047749,9178.553681
87102.400465,1036.288319,1225.752797,8660.409521
87102.400795,1258.350101,1762.019645,8586.388927
87102.401124,1110.308913,1685.410096,8364.327145
87102.401453,592.164754,1915.238745,8216.285956
87102.401782,0.000000,1532.190996,8216.285956
87102.402112,0.000000,1225.752797,8216.285956
87102.402441,-666.185348,1378.971896,8512.368333
87102.402770,-1110.308913,1608.800546,8438.347739
87102.403099,-1406.391290,2068.457845,8364.327145
87102.403429,-1702.473667,1149.143247,8216.285956
87102.403758,-1036.288319,1608.800546,9104.533087
87102.404087,-1184.329507,2451.505594,8882.471304
87102.404416,-814.226536,2911.162892,8586.388927
87102.404745,0.000000,2451.505594,9030.512492
87102.405075,0.000000,2681.334243,9474.636058
87102.405404,-222.061783,2374.896044,9104.533087
87102.405733,-666.185348,2604.724693,9400.615463
87102.406062,-666.185348,1608.800546,9844.739029
87102.406392,-814.226536,919.314598,10140.821405
87102.406721,-1258.350101,1149.143247,10066.800811
87102.407050,-1480.411884,1072.533697,9548.656652
87102.407379,-1110.308913,919.314598,9770.718434
87102.407709,-370.102971,842.705048,9696.697840
87102.408038,-888.247130,766.095498,9622.677246
87102.408367,-592.164754,1149.143247,9030.512492
87102.408696,-370.102971,1072.533697,9030.512492
87102.409025,-148.041188,842.705048,8734.430116
87102.409355,-296.082377,229.828649,8364.327145
87102.409684,-518.144159,229.828649,8216.285956
87102.410013,-592.164754,-459.657299,8882.471304
87102.410342,-1184.329507,-689.485948,9474.636058
87102.410672,-1776.494261,-1915.238745,9548.656652
87102.411001,-1776.494261,-2451.505594,9548.656652
87102.411330,-1036.288319,-1532.190996,10140.821405
87102.411659,-518.144159,-2068.457845,9622.677246
87102.411989,74.020594,-2451.505594,9696.697840
87102.412318,74.020594,-1455.581446,9400.615463
87102.412647,1036.288319,-995.924147,9770.718434
87102.412976,2072.576638,-689.485948,9918.759623
87102.413305,2294.638420,-612.876398,10288.862594
87102.413635,1776.494261,-459.657299,10066.800811
87102.413964,2072.576638,-1149.143247,9992.780217
87102.414293,2146.597232,-1149.143247,9992.780217
87102.414622,1258.350101,-612.876398,10436.903782
87102.414952,444.123565,-1302.362347,10140.821405
87102.415281,666.185348,-1225.752797,9696.697840
87102.415610,1184.329507,-1149.143247,9696.697840
87102.415939,296.082377,-536.266849,9770.718434
87102.416269,592.164754,919.314598,8956.491898
87102.416598,1258.350101,919.314598,8438.347739
87102.416927,1554.432478,1149.143247,8364.327145
87102.417256,1184.329507,1532.190996,8364.327145
87102.417585,370.102971,1991.848295,8290.306550
87102.417915,222.061783,2451.505594,8216.285956
87102.418244,222.061783,1685.410096,7846.182985
87102.418573,-666.185348,1072.533697,8068.244768
87102.418902,-962.267725,1225.752797,8364.327145
87102.419232,-1258.350101,1915.238745,8364.327145
87102.419561,-1036.288319,1762.019645,8290.306550
87102.419890,-888.247130,2145.067394,8660.409521
87102.420219,-1036.288319,2604.724693,8808.450710
87102.420549,-666.185348,3907.087040,7920.203579
87102.420878,74.020594,3600.648841,9178.553681
87102.421207,-222.061783,2681.334243,9030.512492
87102.421536,-740.205942,2528.115143,9474.636058
87102.421865,-814.226536,2911.162892,9622.677246
87102.422195,-518.144159,1991.848295,9622.677246
87102.422524,-1110.308913,1455.581446,9844.739029
87102.422853,-1702.473667,689.485948,9548.656652
87102.423182,-1184.329507,1838.629195,9918.759623
87102.423512,-1036.288319,1762.019645,9474.636058
87102.423841,-592.164754,995.924147,9844.739029
87102.424170,-518.144159,995.924147,9696.697840
87102.424499,74.020594,1455.581446,9326.594869
87102.424829,222.061783,1608.800546,8882.471304
87102.425158,296.082377,2068.457845,8956.491898
87102.425487,444.123565,612.876398,9474.636058
87102.425816,444.123565,536.266849,9548.656652
87102.426145,0.000000,536.266849,8956.491898
87102.426475,-370.102971,-383.047749,9474.636058
87102.426804,-444.123565,-1532.190996,9474.636058
87102.427133,-666.185348,-1685.410096,9474.636058
87102.427462,-518.144159,-1532.190996,9622.677246
87102.427792,0.000000,-1225.752797,9622.677246
87102.428121,-148.041188,-1225.752797,9770.718434
87102.428450,0.000000,-1378.971896,10066.800811
87102.428779,888.247130,-995.924147,9770.718434
87102.429109,1480.411884,-689.485948,9992.780217
87102.429438,962.267725,-919.314598,10066.800811
87102.429767,814.226536,-919.314598,9918.759623
87102.430096,1036.288319,-1225.752797,10066.800811
87102.430425,1406.391290,-1302.362347,10955.047942
87102.430755,1110.308913,-1762.019645,11177.109724
87102.431084,0.000000,-1838.629195,10140.821405
87102.431413,666.185348,-1532.190996,9992.780217
87102.431742,888.247130,-1302.362347,10140.821405
87102.432072,962.267725,-383.047749,9844.739029
87102.432401,666.185348,842.705048,9178.553681
87102.432730,1258.350101,1072.533697,8586.388927
87102.433059,1924.535449,1302.362347,9178.553681
87102.433389,1628.453072,1455.581446,8956.491898
87102.433718,888.247130,1838.629195,8512.368333
87102.434047,592.164754,1378.971896,8438.347739
87102.434376,592.164754,1149.143247,7920.203579
87102.434705,-296.082377,1455.581446,8068.244768
87102.435035,-888.247130,1762.019645,8290.306550
87102.435364,-1110.308913,2221.676944,7772.162391
87102.435693,-888.247130,1838.629195,7920.203579
87102.436022,-888.247130,1762.019645,8660.409521
87102.436352,-1184.329507,2221.676944,8216.285956
87102.436681,-962.267725,3140.991542,8216.285956
87102.437010,-888.247130,3140.991542,8142.265362
87102.437339,-518.144159,2911.162892,8438.347739
87102.437669,-962.267725,2145.067394,9326.594869
87102.437998,-1110.308913,2374.896044,9326.594869
87102.438327,-1258.350101,2145.067394,9474.636058
87102.438656,-1406.391290,1302.362347,10066.800811
87102.438985,-1776.494261,612.876398,9844.739029
87102.439315,-1776.494261,1378.971896,9178.553681
87102.439644,-1258.350101,1378.971896,9696.697840
87102.439973,-1036.288319,919.314598,9918.759623
87102.440302,-518.144159,995.924147,9844.739029
87102.440632,-296.082377,1302.362347,9104.533087
87102.440961,296.082377,1685.410096,9030.512492
87102.441290,518.144159,1302.362347,8808.450710
87102.441619,296.082377,1149.143247,8956.491898
87102.441949,-296.082377,383.047749,8734.430116
87102.442278,-518.144159,-383.047749,9326.594869
87102.442607,-814.226536,-689.485948,9548.656652
87102.442936,-1480.411884,-1762.019645,9474.636058
87102.443265,-1554.432478,-2298.286494,9474.636058
87102.443595,-1258.350101,-2298.286494,9844.739029
87102.443924,-740.205942,-1838.629195,9474.636058
87102.444253,-740.205942,-1838.629195,10066.800811
87102.444582,-296.082377,-1455.581446,9474.636058
87102.444912,1036.288319,-1225.752797,9622.677246
87102.445241,1628.453072,-995.924147,10066.800811
87102.445570,1258.350101,-995.924147,10288.862594
87102.445899,1258.350101,-536.266849,10066.800811
87102.446229,2442.679609,-2451.505594,10732.986159
87102.446558,1776.494261,-1608.800546,10732.986159
87102.446887,1332.370696,-1149.143247,10510.924376
87102.447216,740.205942,-1225.752797,10140.821405
87102.447545,1036.288319,-1302.362347,10066.800811
87102.447875,1480.411884,-1225.752797,10140.821405
87102.448204,1628.453072,0.000000,9844.739029
87102.448533,740.205942,536.266849,8882.471304
87102.448862,1850.514855,1225.752797,8882.471304
87102.449192,1702.473667,1149.143247,8956.491898
87102.449521,1628.453072,1608.800546,8438.347739
87102.449850,740.205942,2451.505594,8290.306550
87102.450179,518.144159,2451.505594,7994.224174
87102.450509,666.185348,1455.581446,8068.244768
87102.450838,-444.123565,1532.190996,8216.285956
87102.451167,-1036.288319,1685.410096,8068.244768
87102.451496,-1332.370696,2068.457845,7846.182985
87102.451825,-1332.370696,1991.848295,8216.285956
87102.452155,-1480.411884,1915.238745,8586.388927
87102.452484,-1554.432478,2757.943793,8364.327145
87102.452813,-1406.391290,3370.820191,8068.244768
87102.453142,-740.205942,3983.696590,8734.430116
87102.453472,-518.144159,2145.067394,9178.553681
87102.453801,-962.267725,2681.334243,9252.574275
87102.454130,-962.267725,2604.724693,9474.636058
87102.454459,-666.185348,2451.505594,9548.656652
87102.454789,-888.247130,1685.410096,9696.697840
87102.455118,-148.041188,536.266849,10066.800811
87102.455447,-666.185348,1302.362347,9252.574275
87102.455776,-296.082377,1838.629195,9178.553681
87102.456105,74.020594,1455.581446,9696.697840
87102.456435,0.000000,1455.581446,9474.636058
87102.456764,592.164754,1915.238745,9030.512492
87102.457093,888.247130,1991.848295,8956.491898
87102.457422,1110.308913,1455.581446,9548.656652
87102.457752,740.205942,383.047749,8734.430116
87102.458081,0.000000,612.876398,8290.306550
87102.458410,-222.061783,0.000000,9178.553681
87102.458739,-666.185348,-919.314598,9400.615463
87102.459069,-1184.329507,-1608.800546,9474.636058
87102.459398,-1850.514855,-1915.238745,9252.574275
87102.459727,-1406.391290,-1762.019645,9622.677246
87102.460056,-444.123565,-2068.457845,9918.759623
87102.460385,-592.164754,-1685.410096,9918.759623
87102.460715,-444.123565,-1762.019645,9844.739029
87102.461044,666.185348,-1532.190996,9992.780217
87102.461373,1258.350101,-1762.019645,10436.903782
87102.461702,1036.288319,-1225.752797,10436.903782
87102.462032,666.185348,-842.705048,10362.883188
87102.462361,1702.473667,-1149.143247,10066.800811
87102.462690,1776.494261,-2145.067394,11177.109724
87102.463019,1036.288319,-1455.581446,11029.068536
87102.463349,592.164754,-1378.971896,10288.862594
87102.463678,962.267725,-1302.362347,10362.883188
87102.464007,1480.411884,-1149.143247,10362.883188
87102.464336,1406.391290,-536.266849,10214.842000
87102.464665,1628.453072,536.266849,9770.718434
87102.464995,1776.494261,612.876398,8956.491898
87102.465324,1628.453072,1149.143247,9178.553681
87102.465653,1554.432478,1225.752797,8660.409521
87102.465982,444.123565,1991.848295,8438.347739
87102.466312,222.061783,2374.896044,8068.244768
87102.466641,74.020594,1685.410096,8290.306550
87102.466970,-296.082377,1302.362347,8364.327145
87102.467299,-1406.391290,1225.752797,7920.203579
87102.467629,-1702.473667,2145.067394,7698.141797
87102.467958,-1110.308913,1915.238745,8290.306550
87102.468287,-962.267725,1762.019645,8364.327145
87102.468616,-888.247130,2834.553343,8216.285956
87102.468945,-296.082377,4136.915689,8364.327145
87102.469275,-148.041188,3677.258390,8808.450710
87102.469604,222.061783,2451.505594,8660.409521
87102.469933,-518.144159,2528.115143,8956.491898
87102.470262,-666.185348,2911.162892,9400.615463
87102.470592,-444.123565,2145.067394,9252.574275
87102.470921,-1110.308913,1685.410096,9178.553681
87102.471250,-2072.576638,842.705048,9326.594869
87102.471579,-1924.535449,1455.581446,9252.574275
87102.471909,-1258.350101,1072.533697,8956.491898
87102.472238,-740.205942,919.314598,9548.656652
87102.472567,-1036.288319,1072.533697,9326.594869
87102.472896,-814.226536,1378.971896,8734.430116
87102.473225,0.000000,1378.971896,8660.409521
87102.473555,0.000000,1149.143247,8956.491898
87102.473884,-518.144159,612.876398,8290.306550
87102.474213,-1036.288319,459.657299,8512.368333
87102.474542,-814.226536,-612.876398,8808.450710
87102.474872,-1036.288319,-1302.362347,9474.636058
87102.475201,-1702.473667,-1685.410096,9770.718434
87102.475530,-1554.432478,-2451.505594,9326.594869
87102.475859,-1332.370696,-3217.601092,9400.615463
87102.476189,-740.205942,-2604.724693,9844.739029
87102.476518,-296.082377,-1532.190996,10288.862594
87102.476847,148.041188,-1685.410096,9770.718434
87102.477176,1110.308913,-1608.800546,9992.780217
87102.477505,1776.494261,-1378.971896,10288.862594
87102.477835,1628.453072,-689.485948,10436.903782
87102.478164,1554.432478,-919.314598,10066.800811
87102.478493,1998.556043,-1225.752797,10362.883188
87102.478822,1184.329507,-1838.629195,10584.944971
87102.479152,1184.329507,-1838.629195,10881.027347
87102.479481,814.226536,-1608.800546,10658.965565
87102.479810,740.205942,-1455.581446,10436.903782
87102.480139,1258.350101,-1302.362347,10214.842000
87102.480469,666.185348,-689.485948,10066.800811
87102.480798,518.144159,612.876398,9474.636058
87102.481127,1332.370696,1455.581446,9252.574275
87102.481456,1702.473667,919.314598,9474.636058
87102.481785,1406.391290,995.924147,9104.533087
87102.482115,592.164754,2145.067394,8734.430116
87102.482444,666.185348,2145.067394,8142.265362
87102.482773,74.020594,1838.629195,8216.285956
87102.483102,-222.061783,1762.019645,8586.388927
87102.483432,-814.226536,1455.581446,7920.203579
87102.483761,-1332.370696,2145.067394,7920.203579
87102.484090,-1036.288319,1991.848295,8586.388927
87102.484419,-740.205942,2068.457845,8660.409521
87102.484749,-148.041188,3064.381992,8586.388927
87102.485078,-740.205942,3140.991542,8364.327145
87102.485407,-222.061783,4136.915689,7994.224174
87102.485736,0.000000,3524.039291,8660.409521
87102.486065,-444.123565,2834.553343,9030.512492
87102.486395,-666.185348,2681.334243,9178.553681
87102.486724,-370.102971,2451.505594,9326.594869
87102.487053,-592.164754,2221.676944,10066.800811
87102.487382,-1258.350101,2145.067394,9400.615463
87102.487712,-888.247130,1149.143247,9622.677246
87102.488041,-740.205942,1302.362347,9474.636058
87102.488370,-370.102971,1532.190996,9770.718434
87102.488699,-592.164754,2068.457845,9252.574275
87102.489028,148.041188,2145.067394,8734.430116
87102.489358,148.041188,1915.238745,8290.306550
87102.489687,518.144159,1685.410096,8364.327145
87102.490016,222.061783,995.924147,8586.388927
87102.490345,222.061783,766.095498,8586.388927
87102.490675,0.000000,76.609550,8734.430116
87102.491004,-518.144159,-536.266849,9104.533087
87102.491333,-1036.288319,-995.924147,9104.533087
87102.491662,-1110.308913,-766.095498,9104.533087
87102.491991,-814.226536,-1378.971896,9104.533087
87102.492321,-296.082377,-1838.629195,9622.677246
87102.492650,-518.144159,-1378.971896,9770.718434
87102.492979,-148.041188,-1302.362347,9770.718434
87102.493308,592.164754,-1225.752797,9622.677246
87102.493637,740.205942,-1455.581446,9918.759623
87102.493967,1036.288319,-1072.533697,10510.924376
87102.494296,740.205942,-1149.143247,10362.883188
87102.494625,1036.288319,-1991.848295,10362.883188
87102.494954,814.226536,-2145.067394,10955.047942
87102.495284,370.102971,-2374.896044,10807.006753
87102.495613,296.082377,-1685.410096,10732.986159
87102.495942,370.102971,-1455.581446,10732.986159
87102.496271,888.247130,-1608.800546,10584.944971
87102.496600,1036.288319,-1532.190996,10732.986159
87102.496930,1628.453072,0.000000,9918.759623
87102.497259,1480.411884,842.705048,9474.636058
87102.497588,2072.576638,995.924147,9474.636058
87102.497917,1702.473667,766.095498,9474.636058
87102.498246,1110.308913,1455.581446,8808.450710
87102.498576,1184.329507,1915.238745,8586.388927
87102.498905,740.205942,1838.629195,8660.409521
87102.499234,222.061783,1378.971896,8734.430116
87102.499563,-444.123565,1072.533697,8290.306550
87102.499892,-740.205942,1532.190996,8216.285956
87102.500222,-666.185348,1915.238745,8364.327145
87102.500551,-444.123565,2528.115143,8586.388927
87102.500880,-666.185348,3217.601092,8438.347739
87102.501209,-888.247130,2987.772442,8068.244768
87102.501539,-370.102971,2911.162892,8290.306550
87102.501868,-740.205942,2604.724693,8660.409521
87102.502197,-814.226536,2374.896044,9104.533087
87102.502526,-1258.350101,2298.286494,8956.491898
87102.502855,-740.205942,1455.581446,9030.512492
87102.503185,-1554.432478,2451.505594,8956.491898
87102.503514,-2146.597232,1532.190996,9400.615463
87102.503843,-1776.494261,1225.752797,9178.553681
87102.504172,-1332.370696,842.705048,9474.636058
87102.504501,-1036.288319,1149.143247,9622.677246
87102.504831,-1110.308913,1302.362347,9030.512492
87102.505160,74.020594,1225.752797,8734.430116
87102.505489,370.102971,766.095498,9030.512492
87102.505818,222.061783,1455.581446,8068.244768
87102.506148,-296.082377,1149.143247,8438.347739
87102.506477,-148.041188,766.095498,8364.327145
87102.506806,-296.082377,76.609550,8660.409521
87102.507135,-1036.288319,-459.657299,9030.512492
87102.507464,-1554.432478,-995.924147,9178.553681
87102.507794,-1554.432478,-1302.362347,8956.491898
87102.508123,-1184.329507,-2374.896044,9104.533087
87102.508452,-962.267725,-2374.896044,9622.677246
87102.508781,-888.247130,-1762.019645,9696.697840
87102.509110,-370.102971,-1685.410096,9622.677246
87102.509440,592.164754,-1455.581446,9696.697840
87102.509769,888.247130,-1532.190996,9770.718434
87102.510098,1036.288319,-1608.800546,10436.903782
87102.510427,1110.308913,-1455.581446,10140.821405
87102.510756,1480.411884,-1762.019645,10436.903782
87102.511086,1258.350101,-1991.848295,10807.006753
87102.511415,962.267725,-1685.410096,10214.842000
87102.511744,888.247130,-1455.581446,10658.965565
87102.512073,1184.329507,-919.314598,10362.883188
87102.512403,1702.473667,-842.705048,10436.903782
87102.512732,1406.391290,-1072.533697,10510.924376
87102.513061,1406.391290,306.438199,9992.780217
87102.513390,1998.556043,689.485948,9770.718434
87102.513719,2220.617826,1149.143247,9696.697840
87102.514049,1554.432478,1225.752797,8956.491898
87102.514378,1258.350101,1225.752797,8882.471304
87102.514707,1628.453072,1608.800546,8956.491898
87102.515036,74.020594,1455.581446,8586.388927
87102.515365,-740.205942,1455.581446,8364.327145
87102.515695,-962.267725,1302.362347,8438.347739
87102.516024,-1110.308913,1455.581446,8586.388927
87102.516353,-1036.288319,2145.067394,8364.327145
87102.516682,-1332.370696,2374.896044,8068.244768
87102.517012,-888.247130,2528.115143,8364.327145
87102.517341,-296.082377,2681.334243,8586.388927
87102.517670,-518.144159,2987.772442,8882.471304
87102.517999,-518.144159,3217.601092,8808.450710
87102.518328,-296.082377,2681.334243,9474.636058
87102.518658,-148.041188,3140.991542,9252.574275
87102.518987,-666.185348,2451.505594,9326.594869
87102.519316,-740.205942,2221.676944,9474.636058
87102.519645,-814.226536,1915.238745,9548.656652
87102.519974,-814.226536,2145.067394,8956.491898
87102.520304,-296.082377,1608.800546,9474.636058
87102.520633,0.000000,1685.410096,9696.697840
87102.520962,-148.041188,2145.067394,8808.450710
87102.521291,-222.061783,2221.676944,8956.491898
87102.521620,740.205942,2374.896044,9030.512492
87102.521950,370.102971,1838.629195,8216.285956
87102.522279,-296.082377,1991.848295,8068.244768
87102.522608,0.000000,1302.362347,8438.347739
87102.522937,-296.082377,536.266849,8290.306550
87102.523267,-888.247130,-383.047749,8808.450710
87102.523596,-1258.350101,-689.485948,8512.368333
87102.523925,-2146.597232,-919.314598,8290.306550
87102.524254,-1702.473667,-1608.800546,9252.574275
87102.524583,-1184.329507,-2068.457845,9548.656652
87102.524913,-1110.308913,-1685.410096,9474.636058
87102.525242,-592.164754,-1149.143247,9400.615463
87102.525571,444.123565,-1225.752797,9844.739029
87102.525900,962.267725,-1225.752797,10066.800811
87102.526229,814.226536,-1378.971896,9474.636058
87102.526559,1036.288319,-842.705048,10214.842000
87102.526888,1406.391290,-1838.629195,10658.965565
87102.527217,1184.329507,-1685.410096,10807.006753
87102.527546,962.267725,-2068.457845,10658.965565
87102.527876,592.164754,-1762.019645,10658.965565
87102.528205,962.267725,-689.485948,10658.965565
87102.528534,1036.288319,-766.095498,10214.842000
87102.528863,1184.329507,-919.314598,10362.883188
87102.529192,1776.494261,0.000000,10066.800811
87102.529522,1850.514855,766.095498,9474.636058
87102.529851,1850.514855,1149.143247,9474.636058
87102.530180,1554.432478,919.314598,9400.615463
87102.530509,1480.411884,1072.533697,8512.368333
87102.530838,962.267725,1072.533697,9252.574275
87102.531168,222.061783,1608.800546,9030.512492
87102.531497,-222.061783,995.924147,9030.512492
87102.531826,-814.226536,842.705048,8364.327145
87102.532155,-888.247130,1455.581446,8808.450710
87102.532484,-888.247130,1685.410096,8882.471304
87102.532814,-888.247130,1991.848295,8734.430116
87102.533143,-814.226536,2374.896044,8660.409521
87102.533472,0.000000,2987.772442,8956.491898
87102.533801,-370.102971,2834.553343,8586.388927
87102.534131,-222.061783,3064.381992,9030.512492
87102.534460,-814.226536,2834.553343,9400.615463
87102.534789,-740.205942,2451.505594,9104.533087
87102.535118,-962.267725,1915.238745,9474.636058
87102.535447,-1332.370696,1762.019645,9844.739029
87102.535777,-1702.473667,2145.067394,9326.594869
87102.536106,-1776.494261,1225.752797,9474.636058
87102.536435,-1258.350101,383.047749,9474.636058
87102.536764,-1036.288319,1149.143247,9474.636058
87102.537093,-1036.288319,1762.019645,9030.512492
87102.537423,-518.144159,2298.286494,8586.388927
87102.537752,-370.102971,1838.629195,8290.306550
87102.538081,-518.144159,1455.581446,8068.244768
87102.538410,-666.185348,1225.752797,8364.327145
87102.538739,-1036.288319,536.266849,8290.306550
87102.539069,-888.247130,-306.438199,8364.327145
87102.539398,-1480.411884,-766.095498,8956.491898
87102.539727,-1480.411884,-1149.143247,8586.388927
87102.540056,-1998.556043,-1225.752797,8438.347739
87102.540386,-1332.370696,-2298.286494,8734.430116
87102.540715,-962.267725,-2221.676944,9548.656652
87102.541044,-888.247130,-1762.019645,9696.697840
87102.541373,0.000000,-1302.362347,9400.615463
87102.541702,962.267725,-1608.800546,9622.677246
87102.542032,1628.453072,-1532.190996,9844.739029
87102.542361,1628.453072,-919.314598,9326.594869
87102.542690,1184.329507,-306.438199,10140.821405
87102.543019,1628.453072,-919.314598,9992.780217
87102.543348,1702.473667,-1378.971896,10584.944971
87102.543678,1184.329507,-1991.848295,10288.862594
87102.544007,666.185348,-2145.067394,9696.697840
87102.544336,1406.391290,-1302.362347,10214.842000
87102.544665,1184.329507,-689.485948,10066.800811
87102.544995,1036.288319,-76.609550,9992.780217
87102.545324,1184.329507,0.000000,9844.739029
87102.545653,1628.453072,536.266849,9400.615463
87102.545982,1776.494261,1072.533697,9548.656652
87102.546311,1184.329507,1838.629195,9252.574275
87102.546641,1406.391290,1455.581446,8808.450710
87102.546970,1554.432478,1072.533697,8586.388927
87102.547299,814.226536,1149.143247,9104.533087
87102.547628,0.000000,1608.800546,8956.491898
87102.547957,-444.123565,1455.581446,8808.450710
87102.548287,-888.247130,1685.410096,8660.409521
87102.548616,-222.061783,2221.676944,9030.512492
87102.548945,-1184.329507,2068.457845,8956.491898
87102.549274,-962.267725,2451.505594,9252.574275
87102.549603,222.061783,2068.457845,9030.512492
87102.549933,-296.082377,2681.334243,8956.491898
87102.550262,-740.205942,3217.601092,9400.615463
87102.550591,-1110.308913,2987.772442,9326.594869
87102.550920,-814.226536,2911.162892,9030.512492
87102.551250,-740.205942,1762.019645,9696.697840
87102.551579,-1628.453072,1762.019645,9474.636058
87102.551908,-1332.370696,2068.457845,9844.739029
87102.552237,-1480.411884,1378.971896,9474.636058
87102.552566,-592.164754,842.705048,9622.677246
87102.552896,-592.164754,1378.971896,9474.636058
87102.553225,-370.102971,2451.505594,8290.306550
87102.553554,0.000000,2145.067394,8734.430116
87102.553883,444.123565,1838.629195,8734.430116
87102.554212,148.041188,1378.971896,8068.244768
87102.554542,0.000000,1608.800546,8364.327145
87102.554871,0.000000,1302.362347,8068.244768
87102.555200,148.041188,76.609550,8364.327145
87102.555529,-1036.288319,0.000000,8438.347739
87102.555859,-1480.411884,-995.924147,8586.388927
87102.556188,-1628.453072,-1072.533697,8142.265362
87102.556517,-1110.308913,-1532.190996,9030.512492
87102.556846,-962.267725,-1915.238745,9178.553681
87102.557175,-888.247130,-1302.362347,9400.615463
87102.557505,-296.082377,-995.924147,8734.430116
87102.557834,740.205942,-842.705048,9400.615463
87102.558163,518.144159,-1378.971896,9178.553681
87102.558492,814.226536,-1149.143247,9548.656652
87102.558821,592.164754,-689.485948,9770.718434
87102.559151,962.267725,-1149.143247,10140.821405
87102.559480,1036.288319,-1915.238745,10436.903782
87102.559809,888.247130,-2068.457845,10362.883188
87102.560138,518.144159,-1915.238745,9992.780217
87102.560467,518.144159,-1302.362347,9918.759623
87102.560797,1702.473667,-1378.971896,10288.862594
87102.561126,1258.350101,-612.876398,10584.944971
87102.561455,1554.432478,76.609550,9696.697840
87102.561784,2146.597232,612.876398,9548.656652
87102.562114,2072.576638,1149.143247,9770.718434
87102.562443,1702.473667,1378.971896,9474.636058
87102.562772,1480.411884,1915.238745,8956.491898
87102.563101,1258.350101,1991.848295,8512.368333
87102.563430,814.226536,1302.362347,9030.512492
87102.563760,0.000000,1455.581446,8808.450710
87102.564089,-444.123565,1455.581446,9178.553681
87102.564418,-888.247130,1532.190996,8438.347739
87102.564747,-962.267725,1378.971896,8882.471304
87102.565076,-666.185348,2298.286494,8586.388927
87102.565406,-666.185348,2374.896044,8512.368333
87102.565735,-740.205942,2374.896044,8660.409521
87102.566064,-370.102971,2681.334243,9030.512492
87102.566393,-888.247130,2681.334243,9400.615463
87102.566723,-1406.391290,2834.553343,9400.615463
87102.567052,-1184.329507,3140.991542,9622.677246
87102.567381,-1110.308913,1685.410096,9844.739029
87102.567710,-1406.391290,536.266849,9918.759623
87102.568039,-1850.514855,1149.143247,9992.780217
87102.568369,-1924.535449,995.924147,9992.780217
87102.568698,-1258.350101,459.657299,9770.718434
87102.569027,-888.247130,766.095498,10140.821405
87102.569356,-740.205942,1838.629195,9104.533087
87102.569685,0.000000,2374.896044,8882.471304
87102.570015,296.082377,1225.752797,8956.491898
87102.570344,148.041188,1378.971896,8586.388927
87102.570673,-296.082377,1072.533697,8364.327145
87102.571002,-370.102971,919.314598,8068.244768
87102.571331,-666.185348,229.828649,8364.327145
87102.571661,-962.267725,-689.485948,8660.409521
87102.571990,-1406.391290,-1915.238745,8734.430116
87102.572319,-1480.411884,-1532.190996,8364.327145
87102.572648,-1554.432478,-2145.067394,9178.553681
87102.572978,-1332.370696,-1991.848295,9252.574275
87102.573307,-1036.288319,-1991.848295,9104.533087
87102.573636,0.000000,-1685.410096,9030.512492
87102.573965,888.247130,-1225.752797,9252.574275
87102.574294,1036.288319,-1991.848295,9326.594869
87102.574624,1258.350101,-1532.190996,9474.636058
87102.574953,1258.350101,-1608.800546,9548.656652
87102.575282,1702.473667,-1225.752797,9696.697840
87102.575611,1702.473667,-1685.410096,10066.800811
87102.575940,1184.329507,-1455.581446,10510.924376
87102.576270,962.267725,-1838.629195,9844.739029
87102.576599,1480.411884,-1915.238745,9770.718434
87102.576928,1850.514855,-1378.971896,10658.965565
87102.577257,1110.308913,-383.047749,10140.821405
87102.577587,1554.432478,0.000000,9400.615463
87102.577916,2072.576638,766.095498,9400.615463
87102.578245,2072.576638,1149.143247,9622.677246
87102.578574,962.267725,2145.067394,8808.450710
87102.578903,1184.329507,1762.019645,8808.450710
87102.579233,1036.288319,1608.800546,8660.409521
87102.579562,370.102971,1685.410096,9030.512492
87102.579891,-444.123565,1762.019645,8956.491898
87102.580220,-1036.288319,1455.581446,8438.347739
87102.580549,-740.205942,1532.190996,8882.471304
87102.580879,-962.267725,995.924147,9030.512492
87102.581208,-962.267725,2145.067394,9104.533087
87102.581537,-1036.288319,3217.601092,8956.491898
87102.581866,-740.205942,2911.162892,8956.491898
87102.582195,-370.102971,2374.896044,9400.615463
87102.582525,-592.164754,2757.943793,9548.656652
87102.582854,-962.267725,3524.039291,9474.636058
87102.583183,-740.205942,2681.334243,8808.450710
87102.583512,-592.164754,1838.629195,9992.780217
87102.583842,-888.247130,1455.581446,10140.821405
87102.584171,-1184.329507,2298.286494,9844.739029
87102.584500,-1036.288319,2145.067394,9992.780217
87102.584829,-370.102971,1378.971896,10140.821405
87102.585158,0.000000,842.705048,9992.780217
87102.585488,0.000000,2068.457845,8734.430116
87102.585817,444.123565,2298.286494,9030.512492
87102.586146,592.164754,1991.848295,8956.491898
87102.586475,444.123565,1225.752797,8660.409521
87102.586804,-296.082377,995.924147,8734.430116
87102.587134,-148.041188,1225.752797,8068.244768
87102.587463,-370.102971,459.657299,8364.327145
87102.587792,-740.205942,-1378.971896,8956.491898
87102.588121,-1258.350101,-1378.971896,7920.203579
87102.588451,-1406.391290,-1302.362347,8142.265362
87102.588780,-1406.391290,-1685.410096,8882.471304
87102.589109,-962.267725,-1762.019645,9104.533087
87102.589438,-666.185348,-1762.019645,9178.553681
87102.589767,0.000000,-1225.752797,8734.430116
87102.590097,888.247130,-612.876398,9252.574275
87102.590426,1406.391290,-995.924147,9474.636058
87102.590755,444.123565,-1149.143247,9696.697840
87102.591084,1480.411884,-1455.581446,9992.780217
87102.591413,1776.494261,-1532.190996,10214.842000
87102.591743,1628.453072,-1762.019645,10288.862594
87102.592072,1184.329507,-1149.143247,10436.903782
87102.592401,1036.288319,-1685.410096,9992.780217
87102.592730,1406.391290,-1685.410096,9770.718434
87102.593059,1554.432478,-1378.971896,10288.862594
87102.593388,1036.288319,-306.438199,9770.718434
87102.593718,1184.329507,76.609550,9252.574275
87102.594047,1850.514855,306.438199,9474.636058
87102.594376,1110.308913,1225.752797,9178.553681
87102.594705,666.185348,1072.533697,8512.368333
87102.595034,592.164754,1685.410096,8660.409521
87102.595363,444.123565,995.924147,8660.409521
87102.595693,0.000000,842.705048,9030.512492
87102.596022,-666.185348,919.314598,8882.471304
87102.596351,-1406.391290,1455.581446,8586.388927
87102.596680,-592.164754,1225.752797,8734.430116
87102.597009,-518.144159,1608.800546,8808.450710
87102.597338,-814.226536,2834.553343,8512.368333
87102.597668,-666.185348,2681.334243,8734.430116
87102.597997,0.000000,3064.381992,9030.512492
87102.598326,0.000000,2757.943793,9252.574275
87102.598655,-296.082377,2911.162892,9252.574275
87102.598984,-666.185348,3140.991542,9548.656652
87102.599313,-370.102971,2528.115143,9326.594869
87102.599643,-592.164754,766.095498,10362.883188
87102.599972,-1480.411884,1302.362347,10066.800811
87102.600301,-1702.473667,1225.752797,10288.862594
87102.600630,-1850.514855,1302.362347,10066.800811
87102.600959,-1628.453072,766.095498,10214.842000
87102.601289,-1776.494261,919.314598,9770.718434
87102.601618,-1258.350101,1378.971896,10066.800811
87102.601947,-296.082377,1225.752797,9030.512492
87102.602276,0.000000,919.314598,9474.636058
87102.602605,-518.144159,919.314598,8956.491898
87102.602934,-814.226536,766.095498,8660.409521
87102.603264,-444.123565,306.438199,8586.388927
87102.603593,-962.267725,-306.438199,8882.471304
87102.603922,-2368.659014,-612.876398,8512.368333
87102.604251,-1110.308913,-995.924147,8956.491898
87102.604580,-1554.432478,-1608.800546,8956.491898
87102.604909,-1184.329507,-2145.067394,9104.533087
87102.605239,-740.205942,-1991.848295,9548.656652
87102.605568,-444.123565,-1608.800546,9030.512492
87102.605897,592.164754,-1608.800546,9252.574275
87102.606226,888.247130,-459.657299,9400.615463
87102.606555,1776.494261,-995.924147,9770.718434
87102.606884,1406.391290,-919.314598,9252.574275
87102.607214,1628.453072,-1302.362347,9474.636058
87102.607543,2294.638420,-1685.410096,9844.739029
87102.607872,1332.370696,-1608.800546,9992.780217
87102.608201,592.164754,-1302.362347,9844.739029
87102.608530,518.144159,-1762.019645,9622.677246
87102.608859,1184.329507,-1762.019645,9696.697840
87102.609189,1110.308913,-1608.800546,10584.944971
87102.609518,296.082377,-612.876398,9622.677246
87102.609847,888.247130,153.219100,9252.574275
87102.610176,1776.494261,229.828649,9474.636058
87102.610505,1850.514855,995.924147,9252.574275
87102.610834,888.247130,1762.019645,8364.327145
87102.611164,1036.288319,1608.800546,8438.347739
87102.611493,1110.308913,1762.019645,8586.388927
87102.611822,592.164754,1378.971896,8808.450710
87102.612151,-148.041188,1532.190996,8586.388927
87102.612480,-1036.288319,1532.190996,8142.265362
87102.612810,-740.205942,2221.676944,8216.285956
87102.613139,-740.205942,2528.115143,8290.306550
87102.613468,-888.247130,3140.991542,8808.450710
87102.613797,-1110.308913,2987.772442,8438.347739
87102.614126,-740.205942,3370.820191,8660.409521
87102.614455,-444.123565,2834.553343,8956.491898
87102.614785,-592.164754,2528.115143,9400.615463
87102.615114,-888.247130,2681.334243,8956.491898
87102.615443,-666.185348,2451.505594,9622.677246
87102.615772,-1332.370696,2681.334243,9474.636058
87102.616101,-1406.391290,1225.752797,9918.759623
87102.616430,-1702.473667,1302.362347,9844.739029
87102.616760,-1628.453072,1991.848295,9918.759623
87102.617089,-740.205942,1532.190996,9918.759623
87102.617418,0.000000,612.876398,10214.842000
87102.617747,-518.144159,689.485948,9770.718434
87102.618076,148.041188,2298.286494,8734.430116
87102.618405,814.226536,1991.848295,9548.656652
87102.618735,296.082377,1302.362347,9252.574275
87102.619064,222.061783,766.095498,8882.471304
87102.619393,666.185348,919.314598,8956.491898
87102.619722,148.041188,766.095498,9178.553681
87102.620051,-148.041188,-689.485948,9400.615463
87102.620380,-296.082377,-995.924147,8882.471304
87102.620710,-666.185348,-1302.362347,8808.450710
87102.621039,-666.185348,-1225.752797,9104.533087
87102.621368,-296.082377,-1302.362347,9326.594869
87102.621697,0.000000,-995.924147,8808.450710
87102.622026,296.082377,-1225.752797,8956.491898
87102.622356,888.247130,-1072.533697,9400.615463
87102.622685,888.247130,-1378.971896,9548.656652
87102.623014,740.205942,-1225.752797,9770.718434
87102.623343,814.226536,-1838.629195,9622.677246
87102.623672,814.226536,-2221.676944,9844.739029
87102.624001,296.082377,-2528.115143,10436.903782
87102.624331,0.000000,-1225.752797,9918.759623
87102.624660,370.102971,-1455.581446,10066.800811
87102.624989,370.102971,-1991.848295,9918.759623
87102.625318,814.226536,-1378.971896,10584.944971
87102.625647,888.247130,-383.047749,9770.718434
87102.625976,1036.288319,76.609550,9474.636058
87102.626306,1924.535449,0.000000,9474.636058
87102.626635,2072.576638,-383.047749,9030.512492
87102.626964,1184.329507,1991.848295,8660.409521
87102.627293,1184.329507,1838.629195,8882.471304
87102.627622,1184.329507,1685.410096,8660.409521
87102.627951,296.082377,1149.143247,9030.512492
87102.628281,0.000000,1302.362347,8364.327145
87102.628610,-666.185348,2298.286494,8586.388927
87102.628939,-740.205942,2221.676944,8216.285956
87102.629268,-518.144159,1378.971896,8512.368333
87102.629597,-1184.329507,2145.067394,8142.265362
87102.629926,-1258.350101,2681.334243,7846.182985
87102.630256,-888.247130,3064.381992,8364.327145
87102.630585,-962.267725,3140.991542,8586.388927
87102.630914,-1554.432478,3064.381992,8364.327145
87102.631243,-962.267725,2911.162892,9400.615463
87102.631572,-1110.308913,1915.238745,9548.656652
87102.631902,-1702.473667,1149.143247,9918.759623
87102.632231,-1924.535449,1378.971896,10066.800811
87102.632560,-1850.514855,1225.752797,10140.821405
87102.632889,-1924.535449,1455.581446,9844.739029
87102.633218,-1258.350101,1378.971896,10066.800811
87102.633547,-1480.411884,1378.971896,10288.862594
87102.633877,0.000000,1608.800546,9696.697840
87102.634206,370.102971,1991.848295,9622.677246
87102.634535,888.247130,1915.238745,9696.697840
87102.634864,518.144159,1532.190996,9326.594869
87102.635193,296.082377,1149.143247,8660.409521
87102.635522,370.102971,766.095498,8586.388927
87102.635852,-370.102971,153.219100,9252.574275
87102.636181,-962.267725,-995.924147,9104.533087
87102.636510,-1554.432478,-1378.971896,9104.533087
87102.636839,-1332.370696,-1532.190996,9326.594869
87102.637168,-1184.329507,-2145.067394,9474.636058
87102.637497,-1332.370696,-2221.676944,9178.553681
87102.637827,-592.164754,-842.705048,9178.553681
87102.638156,222.061783,-1225.752797,9104.533087
87102.638485,296.082377,-1685.410096,9622.677246
87102.638814,740.205942,-1378.971896,9474.636058
87102.639143,592.164754,-1455.581446,9770.718434
87102.639472,1406.391290,-1762.019645,9770.718434
87102.639802,1628.453072,-1455.581446,9770.718434
87102.640131,1480.411884,-1532.190996,10436.903782
87102.640460,1332.370696,-1762.019645,9844.739029
87102.640789,888.247130,-1302.362347,9918.759623
87102.641118,1406.391290,-1455.581446,10362.883188
87102.641447,1258.350101,-1149.143247,10584.944971
87102.641777,1406.391290,-383.047749,9622.677246
87102.642106,1406.391290,229.828649,9252.574275
87102.642435,1628.453072,459.657299,9252.574275
87102.642764,1702.473667,689.485948,8734.430116
87102.643093,1036.288319,1608.800546,8734.430116
87102.643423,592.164754,1685.410096,8586.388927
87102.643752,518.144159,1225.752797,8290.306550
87102.644081,-296.082377,1378.971896,8660.409521
87102.644410,-666.185348,1608.800546,7994.224174
87102.644739,-592.164754,766.095498,8290.306550
87102.645068,-444.123565,1378.971896,8512.368333
87102.645398,-1480.411884,1149.143247,8586.388927
87102.645727,-1480.411884,2298.286494,8290.306550
87102.646056,-1036.288319,2681.334243,8216.285956
87102.646385,-592.164754,2834.553343,8734.430116
87102.646714,-592.164754,2911.162892,9030.512492
87102.647043,-666.185348,3064.381992,8438.347739
87102.647373,-296.082377,2068.457845,8808.450710
87102.647702,-518.144159,2298.286494,9326.594869
87102.648031,-740.205942,2221.676944,9622.677246
87102.648360,-962.267725,2068.457845,9770.718434
87102.648689,-1110.308913,1608.800546,9918.759623
87102.649018,-814.226536,1762.019645,9992.780217
87102.649348,-222.061783,2221.676944,10066.800811
87102.649677,-296.082377,1838.629195,10288.862594
87102.650006,518.144159,1838.629195,9696.697840
87102.650335,888.247130,2374.896044,9326.594869
87102.650664,962.267725,2298.286494,9770.718434
87102.650993,740.205942,1838.629195,9178.553681
87102.651323,814.226536,1072.533697,8882.471304
87102.651652,592.164754,995.924147,8808.450710
87102.651981,74.020594,536.266849,9104.533087
87102.652310,-444.123565,0.000000,9252.574275
87102.652639,-1184.329507,-842.705048,8956.491898
87102.652969,-1036.288319,-1532.190996,9252.574275
87102.653298,-962.267725,-1608.800546,9252.574275
87102.653627,-592.164754,-1762.019645,9622.677246
87102.653956,-444.123565,-1608.800546,9474.636058
87102.654285,0.000000,-1608.800546,9030.512492
87102.654614,814.226536,-1455.581446,9844.739029
87102.654944,592.164754,-1149.143247,9844.739029
87102.655273,444.123565,-689.485948,9992.780217
87102.655602,1036.288319,-1225.752797,9918.759623
87102.655931,1332.370696,-1991.848295,10732.986159
87102.656260,1110.308913,-2221.676944,10658.965565
87102.656589,370.102971,-1608.800546,10066.800811
87102.656919,444.123565,-1149.143247,10214.842000
87102.657248,1184.329507,-1838.629195,10510.924376
87102.657577,888.247130,-1685.410096,10436.903782
87102.657906,1036.288319,-383.047749,9770.718434
87102.658235,1036.288319,459.657299,9474.636058
87102.658564,1998.556043,383.047749,9474.636058
87102.658894,1480.411884,919.314598,9178.553681
87102.659223,666.185348,229.828649,8734.430116
87102.659552,592.164754,1455.581446,8512.368333
87102.659881,666.185348,689.485948,8364.327145
87102.660210,0.000000,612.876398,8660.409521
87102.660539,-1110.308913,766.095498,8068.244768
87102.660869,-1406.391290,766.095498,7550.100608
87102.661198,-962.267725,1685.410096,7920.203579
87102.661527,-962.267725,1225.752797,8438.347739
87102.661856,-1184.329507,2068.457845,8216.285956
87102.662185,-666.185348,2604.724693,7920.203579
87102.662515,-518.144159,3064.381992,8512.368333
87102.662844,0.000000,2604.724693,8956.491898
87102.663173,-962.267725,2451.505594,8216.285956
87102.663502,-1110.308913,2451.505594,8882.471304
87102.663831,-814.226536,2374.896044,9178.553681
87102.664160,-1110.308913,1915.238745,9474.636058
87102.664490,-1406.391290,1225.752797,9918.759623
87102.664819,-1924.535449,1378.971896,9400.615463
87102.665148,-1184.329507,1608.800546,9326.594869
87102.665477,-592.164754,1072.533697,10140.821405
87102.665806,-1406.391290,842.705048,10214.842000
87102.666135,-444.123565,1302.362347,9474.636058
87102.666465,222.061783,1532.190996,9696.697840
87102.666794,222.061783,1378.971896,9696.697840
87102.667123,0.000000,1378.971896,8882.471304
87102.667452,296.082377,1378.971896,9030.512492
87102.667781,-296.082377,995.924147,8882.471304
87102.668110,-370.102971,153.219100,8956.491898
87102.668440,-888.247130,-383.047749,9474.636058
87102.668769,-1332.370696,-1072.533697,9252.574275
87102.669098,-1332.370696,-1378.971896,9252.574275
87102.669427,-666.185348,-1455.581446,9474.636058
87102.669756,-1258.350101,-1991.848295,9770.718434
87102.670085,-222.061783,-1302.362347,9474.636058
87102.670415,148.041188,-1072.533697,9474.636058
87102.670744,592.164754,-1378.971896,9770.718434
87102.671073,592.164754,-1072.533697,10066.800811
87102.671402,888.247130,-766.095498,9992.780217
87102.671731,1554.432478,-1532.190996,9770.718434
87102.672060,1110.308913,-2068.457845,10140.821405
87102.672390,1036.288319,-1915.238745,10584.944971
87102.672719,666.185348,-1838.629195,10140.821405
87102.673048,666.185348,-1608.800546,10584.944971
87102.673377,814.226536,-1915.238745,10510.924376
87102.673706,962.267725,-1378.971896,10288.862594
87102.674036,1036.288319,-842.705048,10140.821405
87102.674365,1036.288319,-153.219100,9474.636058
87102.674694,1110.308913,229.828649,9178.553681
87102.675023,1406.391290,306.438199,9326.594869
87102.675352,888.247130,995.924147,8808.450710
87102.675681,592.164754,1455.581446,8216.285956
87102.676011,1110.308913,1378.971896,8586.388927
87102.676340,962.267725,1225.752797,8882.471304
87102.676669,-814.226536,1685.410096,7772.162391
87102.676998,-370.102971,1685.410096,7698.141797
87102.677327,-222.061783,1378.971896,8216.285956
87102.677656,-148.041188,1838.629195,8660.409521
87102.677986,-962.267725,2374.896044,8142.265362
87102.678315,-740.205942,2681.334243,7920.203579
87102.678644,0.000000,2757.943793,8290.306550
87102.678973,-148.041188,3217.601092,8142.265362
87102.679302,-814.226536,3140.991542,8216.285956
87102.679631,-888.247130,2528.115143,8660.409521
87102.679961,-666.185348,2298.286494,8734.430116
87102.680290,-1036.288319,1455.581446,9622.677246
87102.680619,-1406.391290,1225.752797,9696.697840
87102.680948,-1258.350101,919.314598,9252.574275
87102.681277,-962.267725,1455.581446,9622.677246
87102.681606,-666.185348,1378.971896,9696.697840
87102.681936,-518.144159,1072.533697,9918.759623
87102.682265,0.000000,2068.457845,9326.594869
87102.682594,518.144159,1685.410096,9400.615463
87102.682923,444.123565,1532.190996,9474.636058
87102.683252,666.185348,1915.238745,9474.636058
87102.683582,148.041188,1608.800546,9104.533087
87102.683911,592.164754,766.095498,8808.450710
87102.684240,148.041188,536.266849,9104.533087
87102.684569,-666.185348,0.000000,9104.533087
87102.684898,-814.226536,-383.047749,8882.471304
87102.685227,-740.205942,-689.485948,8956.491898
87102.685557,-740.205942,-1302.362347,9474.636058
87102.685886,-1554.432478,-612.876398,9400.615463
87102.686215,-814.226536,-612.876398,9474.636058
87102.686544,0.000000,-995.924147,9400.615463
87102.686873,222.061783,-995.924147,9548.656652
87102.687202,0.000000,-995.924147,9770.718434
87102.687532,148.041188,-1302.362347,9696.697840
87102.687861,666.185348,-1149.143247,9844.739029
87102.688190,444.123565,-1532.190996,11029.068536
87102.688519,666.185348,-2298.286494,10732.986159
87102.688848,666.185348,-2145.067394,10510.924376
87102.689177,518.144159,-1991.848295,10732.986159
87102.689507,1110.308913,-1455.581446,10732.986159
87102.689836,1184.329507,-919.314598,10436.903782
87102.690165,1406.391290,-153.219100,9844.739029
87102.690494,1998.556043,-536.266849,9696.697840
87102.690823,2146.597232,612.876398,9474.636058
87102.691152,1924.535449,919.314598,9474.636058
87102.691482,1406.391290,1072.533697,9400.615463
87102.691811,1702.473667,1072.533697,8956.491898
87102.692140,1184.329507,1149.143247,8734.430116
87102.692469,370.102971,1072.533697,8882.471304
87102.692798,-518.144159,1455.581446,8216.285956
87102.693127,-444.123565,995.924147,8068.244768
87102.693457,-592.164754,1302.362347,8290.306550
87102.693786,-1258.350101,1378.971896,8068.244768
87102.694115,-1258.350101,2451.505594,7994.224174
87102.694444,-592.164754,3064.381992,7846.182985
87102.694773,-74.020594,2451.505594,7994.224174
87102.695102,-222.061783,2681.334243,7846.182985
87102.695432,-1184.329507,2911.162892,8068.244768
87102.695761,-1258.350101,2681.334243,8512.368333
87102.696090,-888.247130,1685.410096,9252.574275
87102.696419,-1480.411884,1378.971896,9474.636058
87102.696748,-2220.617826,995.924147,9474.636058
87102.697077,-1628.453072,766.095498,8956.491898
87102.697407,-1184.329507,1149.143247,9252.574275
87102.697736,-1036.288319,1225.752797,10140.821405
87102.698065,-1258.350101,1378.971896,9844.739029
87102.698394,-666.185348,1685.410096,9326.594869
87102.698723,148.041188,1685.410096,9474.636058
87102.699052,444.123565,1072.533697,8956.491898
87102.699382,296.082377,1532.190996,8734.430116
87102.699711,-444.123565,1378.971896,7624.121203
87102.700040,-370.102971,995.924147,8438.347739
87102.700369,-740.205942,-229.828649,9030.512492
87102.700698,-1258.350101,-689.485948,8956.491898
87102.701027,-1776.494261,-1072.533697,9030.512492
87102.701357,-1480.411884,-1532.190996,9178.553681
87102.701686,-1184.329507,-1532.190996,9548.656652
87102.702015,-1258.350101,-2757.943793,10214.842000
87102.702344,-1036.288319,-1685.410096,9474.636058
87102.702673,-518.144159,-1378.971896,9474.636058
87102.703002,222.061783,-1378.971896,9844.739029
87102.703332,222.061783,-1378.971896,9696.697840
87102.703661,666.185348,-383.047749,9770.718434
87102.703990,1776.494261,-612.876398,10288.862594
87102.704319,1850.514855,-1915.238745,10881.027347
87102.704648,1036.288319,-1915.238745,10510.924376
87102.704978,1110.308913,-1991.848295,10214.842000
87102.705307,1480.411884,-1455.581446,10436.903782
87102.705636,1628.453072,-1149.143247,10658.965565
87102.705965,1776.494261,-842.705048,10955.047942
87102.706294,1776.494261,76.609550,10436.903782
87102.706623,2294.638420,459.657299,10362.883188
87102.706953,2442.679609,536.266849,10140.821405
87102.707282,2072.576638,995.924147,9548.656652
87102.707611,1258.350101,1072.533697,9252.574275
87102.707940,962.267725,1149.143247,8364.327145
87102.708269,888.247130,995.924147,8586.388927
87102.708598,0.000000,1532.190996,8216.285956
87102.708928,-296.082377,1838.629195,8290.306550
87102.709257,-518.144159,1225.752797,8068.244768
87102.709586,-814.226536,1378.971896,8438.347739
87102.709915,-1110.308913,1455.581446,8216.285956
87102.710244,-1036.288319,2298.286494,8142.265362
87102.710573,-370.102971,2145.067394,8216.285956
87102.710903,-296.082377,2911.162892,8438.347739
87102.711232,-592.164754,2451.505594,7846.182985
87102.711561,-592.164754,2911.162892,8438.347739
87102.711890,-592.164754,2911.162892,8734.430116
87102.712219,-296.082377,2221.676944,9030.512492
87102.712548,-814.226536,2145.067394,9400.615463
87102.712878,-740.205942,1838.629195,9548.656652
87102.713207,-296.082377,2145.067394,10510.924376
87102.713536,-518.144159,2145.067394,9400.615463
87102.713865,-518.144159,1532.190996,9918.759623
87102.714194,-222.061783,1915.238745,9474.636058
87102.714523,0.000000,2068.457845,9178.553681
87102.714853,518.144159,2221.676944,9252.574275
87102.715182,222.061783,2451.505594,8882.471304
87102.715511,0.000000,1991.848295,9178.553681
87102.715840,148.041188,1149.143247,8660.409521
87102.716169,-296.082377,612.876398,8216.285956
87102.716498,-666.185348,383.047749,9104.533087
87102.716828,-1184.329507,-459.657299,8882.471304
87102.717157,-1702.473667,-919.314598,9104.533087
87102.717486,-1554.432478,-1378.971896,8808.450710
87102.717815,-2072.576638,-1455.581446,9030.512492
87102.718144,-1258.350101,-689.485948,9696.697840
87102.718473,-518.144159,-919.314598,9400.615463
87102.718803,148.041188,-1072.533697,9400.615463
87102.719132,592.164754,-1149.143247,9696.697840
87102.719461,666.185348,-1072.533697,9770.718434
87102.719790,740.205942,0.000000,9918.759623
87102.720119,1332.370696,-1608.800546,9918.759623
87102.720448,1554.432478,-1455.581446,10955.047942
87102.720778,1110.308913,-1685.410096,10658.965565
87102.721107,814.226536,-1532.190996,10362.883188
87102.721436,740.205942,-1838.629195,10584.944971
87102.721765,1036.288319,-1915.238745,10955.047942
87102.722094,1184.329507,-612.876398,11251.130318
87102.722423,1036.288319,0.000000,10066.800811
87102.722753,1406.391290,-383.047749,9918.759623
87102.723082,1850.514855,0.000000,10066.800811
87102.723411,1110.308913,612.876398,9622.677246
87102.723740,1184.329507,1072.533697,9474.636058
87102.724069,962.267725,1072.533697,8956.491898
87102.724398,962.267725,306.438199,9030.512492
87102.724728,148.041188,842.705048,9252.574275
87102.725057,0.000000,1762.019645,8438.347739
87102.725386,-296.082377,1455.581446,8364.327145
87102.725715,0.000000,1455.581446,8512.368333
87102.726044,0.000000,1762.019645,8808.450710
87102.726373,-370.102971,2911.162892,7624.121203
87102.726703,222.061783,2681.334243,7772.162391
87102.727032,0.000000,1915.238745,7846.182985
87102.727361,0.000000,2681.334243,8290.306550
87102.727690,-740.205942,2987.772442,8512.368333
87102.728019,-1036.288319,2834.553343,8364.327145
87102.728348,-814.226536,1991.848295,8734.430116
87102.728678,-1628.453072,1378.971896,9326.594869
87102.729007,-1776.494261,1608.800546,9696.697840
87102.729336,-1480.411884,766.095498,9252.574275
87102.729665,-1702.473667,383.047749,9178.553681
87102.729994,-1850.514855,536.266849,9918.759623
87102.730323,-1554.432478,1072.533697,9548.656652
87102.730653,-888.247130,1685.410096,9326.594869
87102.730982,0.000000,1608.800546,9252.574275
87102.731311,-296.082377,1455.581446,8734.430116
87102.731640,-148.041188,1225.752797,9178.553681
87102.731969,0.000000,766.095498,8956.491898
87102.732298,0.000000,766.095498,8808.450710
87102.732628,-518.144159,0.000000,8808.450710
87102.732957,-1036.288319,-536.266849,8734.430116
87102.733286,-1332.370696,0.000000,8586.388927
87102.733615,-1036.288319,-1149.143247,9030.512492
87102.733944,-888.247130,-1532.190996,9178.553681
87102.734273,-962.267725,-1838.629195,9548.656652
87102.734603,-592.164754,-1225.752797,9104.533087
87102.734932,0.000000,-1225.752797,9178.553681
87102.735261,296.082377,-1685.410096,9548.656652
87102.735590,222.061783,-995.924147,9326.594869
87102.735919,1184.329507,-1302.362347,10140.821405
87102.736248,814.226536,-1685.410096,10214.842000
87102.736578,814.226536,-1608.800546,10214.842000
87102.736907,962.267725,-1685.410096,10510.924376
87102.737236,444.123565,-2068.457845,10584.944971
87102.737565,740.205942,-1915.238745,10881.027347
87102.737894,814.226536,-1762.019645,10658.965565
87102.738223,1110.308913,-1455.581446,10881.027347
87102.738553,1258.350101,-2068.457845,10362.883188
87102.738882,1702.473667,0.000000,10140.821405
87102.739211,1850.514855,0.000000,10214.842000
87102.739540,1776.494261,689.485948,9992.780217
87102.739869,1406.391290,1225.752797,9252.574275
87102.740198,1332.370696,1225.752797,8734.430116
87102.740528,1332.370696,1455.581446,9104.533087
87102.740857,814.226536,1149.143247,8808.450710
87102.741186,296.082377,1762.019645,8290.306550
87102.741515,-444.123565,1838.629195,8142.265362
87102.741844,0.000000,1455.581446,8438.347739
87102.742173,-592.164754,1915.238745,8364.327145
87102.742503,-592.164754,2528.115143,8438.347739
87102.742832,-740.205942,3370.820191,8216.285956
87102.743161,-592.164754,3140.991542,8512.368333
87102.743490,-370.102971,2681.334243,8882.471304
87102.743819,-740.205942,2604.724693,8512.368333
87102.744148,-1036.288319,2528.115143,8512.368333
87102.744478,-740.205942,2757.943793,9400.615463
87102.744807,-1184.329507,2068.457845,9548.656652
87102.745136,-1554.432478,1915.238745,9104.533087
87102.745465,-2220.617826,1762.019645,9474.636058
87102.745794,-1110.308913,1532.190996,9696.697840
87102.746123,-814.226536,1685.410096,9918.759623
87102.746453,-370.102971,1838.629195,9474.636058
87102.746782,370.102971,2221.676944,9104.533087
87102.747111,888.247130,2451.505594,9474.636058
87102.747440,962.267725,2911.162892,8512.368333
87102.747769,814.226536,2068.457845,9030.512492
87102.748098,74.020594,1532.190996,8364.327145
87102.748428,518.144159,1072.533697,8734.430116
87102.748757,-74.020594,689.485948,8808.450710
87102.749086,-296.082377,229.828649,9030.512492
87102.749415,-814.226536,-306.438199,8660.409521
87102.749744,-740.205942,-766.095498,8660.409521
87102.750073,-666.185348,-766.095498,8734.430116
87102.750403,-1184.329507,-536.266849,8956.491898
87102.750732,-1110.308913,-766.095498,8808.450710
87102.751061,-222.061783,-995.924147,9400.615463
87102.751390,222.061783,-1302.362347,9474.636058
87102.751719,-296.082377,-1532.190996,9326.594869
87102.752048,0.000000,-1302.362347,9548.656652
87102.752378,592.164754,-1378.971896,9622.677246
87102.752707,740.205942,-1455.581446,10140.821405
87102.753036,296.082377,-1991.848295,10436.903782
87102.753365,74.020594,-1915.238745,10584.944971
87102.753694,518.144159,-1685.410096,10436.903782
87102.754023,962.267725,-1685.410096,10288.862594
87102.754353,592.164754,-766.095498,10807.006753
87102.754682,1406.391290,-689.485948,10658.965565
87102.755011,2294.638420,0.000000,10436.903782
87102.755340,2294.638420,383.047749,10510.924376
87102.755669,1850.514855,842.705048,9918.759623
87102.755999,1628.453072,1149.143247,9252.574275
87102.756328,1480.411884,766.095498,8956.491898
87102.756657,1628.453072,766.095498,9030.512492
87102.756986,518.144159,766.095498,8660.409521
87102.757315,0.000000,919.314598,8660.409521
87102.757644,-592.164754,1302.362347,8660.409521
87102.757974,-592.164754,689.485948,8660.409521
87102.758303,-666.185348,1455.581446,8734.430116
87102.758632,-962.267725,2298.286494,8364.327145
87102.758961,-740.205942,2911.162892,8216.285956
87102.759290,-814.226536,2528.115143,7698.141797
87102.759619,-370.102971,1685.410096,8586.388927
87102.759949,-1332.370696,2604.724693,8882.471304
87102.760278,-1184.329507,2681.334243,8438.347739
87102.760607,-1110.308913,2145.067394,9104.533087
87102.760936,-1332.370696,842.705048,9548.656652
87102.761265,-1776.494261,1225.752797,9252.574275
87102.761594,-1628.453072,2374.896044,9326.594869
87102.761924,-1184.329507,1378.971896,9770.718434
87102.762253,-962.267725,842.705048,10066.800811
87102.762582,-666.185348,1302.362347,9770.718434
87102.762911,-370.102971,1991.848295,9252.574275
87102.763240,814.226536,1302.362347,9696.697840
87102.763569,518.144159,1532.190996,8734.430116
87102.763899,222.061783,1685.410096,8660.409521
87102.764228,0.000000,1455.581446,8660.409521
87102.764557,0.000000,766.095498,8438.347739
87102.764886,-666.185348,76.609550,8660.409521
87102.765215,-1184.329507,-612.876398,8660.409521
87102.765544,-1776.494261,-383.047749,7920.203579
87102.765874,-1776.494261,-689.485948,8216.285956
87102.766203,-1406.391290,-1608.800546,9252.574275
87102.766532,-1776.494261,-1532.190996,9178.553681
87102.766861,-1332.370696,-1685.410096,8808.450710
87102.767190,-592.164754,-1225.752797,9030.512492
87102.767519,148.041188,-1532.190996,9548.656652
87102.767849,0.000000,-1532.190996,9030.512492
87102.768178,518.144159,-1072.533697,9622.677246
87102.768507,1480.411884,-2145.067394,9918.759623
87102.768836,1258.350101,-2068.457845,10140.821405
87102.769165,814.226536,-1302.362347,10140.821405
87102.769494,814.226536,-1302.362347,10362.883188
87102.769824,1776.494261,-1378.971896,10140.821405
87102.770153,1480.411884,-1149.143247,10807.006753
87102.770482,962.267725,-842.705048,10510.924376
87102.770811,1480.411884,153.219100,9474.636058
87102.771140,2072.576638,153.219100,9548.656652
87102.771469,1998.556043,0.000000,10436.903782
87102.771799,1628.453072,612.876398,9992.780217
87102.772128,740.205942,919.314598,9252.574275
87102.772457,962.267725,919.314598,9030.512492
87102.772786,296.082377,919.314598,9252.574275
87102.773115,-370.102971,842.705048,9178.553681
87102.773444,-370.102971,1685.410096,8142.265362
87102.773774,-740.205942,1532.190996,8586.388927
87102.774103,-370.102971,1225.752797,8734.430116
87102.774432,-740.205942,1838.629195,8882.471304
87102.774761,-888.247130,2374.896044,8586.388927
87102.775090,-370.102971,2757.943793,8586.388927
87102.775419,-222.061783,2681.334243,8660.409521
87102.775749,-814.226536,2298.286494,8660.409521
87102.776078,-518.144159,2834.553343,9178.553681
87102.776407,-518.144159,2987.772442,9104.533087
87102.776736,-518.144159,2298.286494,9326.594869
87102.777065,-814.226536,1915.238745,9548.656652
87102.777394,-592.164754,2451.505594,9252.574275
87102.777724,-296.082377,2145.067394,9770.718434
87102.778053,-666.185348,2221.676944,9770.718434
87102.778382,-444.123565,1915.238745,9622.677246
87102.778711,-296.082377,2145.067394,9474.636058
87102.779040,296.082377,2451.505594,9326.594869
87102.779369,666.185348,2221.676944,9252.574275
87102.779699,592.164754,1455.581446,8734.430116
87102.780028,222.061783,1991.848295,8586.388927
87102.780357,0.000000,1608.800546,8364.327145
87102.780686,74.020594,459.657299,8586.388927
87102.781015,-444.123565,0.000000,8882.471304
87102.781344,-1332.370696,-229.828649,8290.306550
87102.781674,-1480.411884,-383.047749,8290.306550
87102.782003,-740.205942,-612.876398,8660.409521
87102.782332,-888.247130,-919.314598,9030.512492
87102.782661,-1258.350101,-919.314598,8586.388927
87102.782990,-740.205942,-995.924147,8734.430116
87102.783319,0.000000,-995.924147,9178.553681
87102.783649,74.020594,-1149.143247,9252.574275
87102.783978,0.000000,-995.924147,9770.718434
87102.784307,1110.308913,-536.266849,9770.718434
87102.784636,1184.329507,-1149.143247,9696.697840
87102.784965,740.205942,-1302.362347,10362.883188
87102.785294,666.185348,-1608.800546,10362.883188
87102.785624,444.123565,-1378.971896,10140.821405
87102.785953,1110.308913,-1915.238745,10436.903782
87102.786282,888.247130,-1608.800546,10510.924376
87102.786611,444.123565,-1378.971896,10658.965565
87102.786940,1628.453072,-306.438199,10214.842000
87102.787269,1480.411884,153.219100,9918.759623
87102.787599,1628.453072,0.000000,9992.780217
87102.787928,1036.288319,229.828649,9770.718434
87102.788257,740.205942,995.924147,9178.553681
87102.788586,666.185348,1455.581446,8660.409521
87102.788915,666.185348,689.485948,9326.594869
87102.789244,518.144159,612.876398,9252.574275
87102.789574,0.000000,1225.752797,9252.574275
87102.789903,-296.082377,1302.362347,8882.471304
87102.790232,0.000000,1608.800546,8660.409521
87102.790561,-296.082377,1762.019645,9030.512492
87102.790890,-222.061783,2681.334243,8438.347739
87102.791219,0.000000,3217.601092,8512.368333
87102.791549,444.123565,2681.334243,8808.450710
87102.791878,0.000000,2834.553343,8586.388927
87102.792207,-518.144159,3140.991542,8734.430116
87102.792536,-518.144159,2681.334243,8956.491898
87102.792865,-592.164754,2221.676944,9104.533087
87102.793195,-1258.350101,1685.410096,9474.636058
87102.793524,-1850.514855,1532.190996,9400.615463
87102.793853,-1480.411884,1838.629195,9030.512492
87102.794182,-1258.350101,1302.362347,10066.800811
87102.794511,-1702.473667,612.876398,9844.739029
87102.794840,-1480.411884,1302.362347,9474.636058
87102.795170,-666.185348,1302.362347,9474.636058
87102.795499,518.144159,612.876398,9474.636058
87102.795828,0.000000,383.047749,9326.594869
87102.796157,-370.102971,1838.629195,9400.615463
87102.796486,-740.205942,1072.533697,8512.368333
87102.796816,-444.123565,0.000000,8660.409521
87102.797145,-740.205942,-229.828649,9030.512492
87102.797474,-1554.432478,-536.266849,8512.368333
87102.797803,-1850.514855,-612.876398,8438.347739
87102.798132,-592.164754,-1838.629195,9104.533087
87102.798461,-962.267725,-2681.334243,9252.574275
87102.798791,-1480.411884,-1455.581446,8660.409521
87102.799120,-666.185348,-1302.362347,8586.388927
87102.799449,0.000000,-1225.752797,9326.594869
87102.799778,370.102971,-1608.800546,9030.512492
87102.800107,0.000000,-1455.581446,9252.574275
87102.800437,296.082377,-1072.533697,9178.553681
87102.800766,962.267725,-1378.971896,9474.636058
87102.801095,1110.308913,-1915.238745,10066.800811
87102.801424,666.185348,-1991.848295,10288.862594
87102.801753,518.144159,-1915.238745,9844.739029
87102.802082,888.247130,-1762.019645,10288.862594
87102.802412,740.205942,-1532.190996,10436.903782
87102.802741,666.185348,-459.657299,10288.862594
87102.803070,1036.288319,-612.876398,9474.636058
87102.803399,1480.411884,-306.438199,10066.800811
87102.803728,1628.453072,0.000000,10140.821405
87102.804058,1258.350101,459.657299,9770.718434
87102.804387,1110.308913,842.705048,9474.636058
87102.804716,1110.308913,919.314598,9178.553681
87102.805045,1036.288319,1072.533697,9474.636058
87102.805374,-148.041188,995.924147,8882.471304
87102.805703,0.000000,2068.457845,8956.491898
87102.806033,74.020594,1838.629195,8882.471304
87102.806362,222.061783,1838.629195,8660.409521
87102.806691,-296.082377,2145.067394,8512.368333
87102.807020,0.000000,3064.381992,8290.306550
87102.807349,370.102971,3524.039291,8364.327145
87102.807679,0.000000,3140.991542,8808.450710
87102.808008,-148.041188,2987.772442,9178.553681
87102.808337,-740.205942,3064.381992,9030.512492
87102.808666,-888.247130,2911.162892,8808.450710
87102.808995,-592.164754,3064.381992,9696.697840
87102.809324,-1110.308913,1915.238745,9918.759623
87102.809654,-1776.494261,1915.238745,9548.656652
87102.809983,-1184.329507,1685.410096,9770.718434
87102.810312,-814.226536,1608.800546,10510.924376
87102.810641,-740.205942,1838.629195,9918.759623
87102.810970,-444.123565,1991.848295,9992.780217
87102.811300,74.020594,1838.629195,9474.636058
87102.811629,814.226536,2374.896044,9474.636058
87102.811958,74.020594,1915.238745,9326.594869
87102.812287,518.144159,2068.457845,9178.553681
87102.812616,444.123565,1302.362347,8438.347739
87102.812945,666.185348,536.266849,9030.512492
87102.813275,0.000000,306.438199,8956.491898
87102.813604,-666.185348,76.609550,8364.327145
87102.813933,-592.164754,-459.657299,8512.368333
87102.814262,-740.205942,-306.438199,8438.347739
87102.814591,-814.226536,-1685.410096,8660.409521
87102.814921,-962.267725,-766.095498,8586.388927
87102.815250,-444.123565,-995.924147,8734.430116
87102.815579,-296.082377,-1149.143247,8882.471304
87102.815908,0.000000,-995.924147,8660.409521
87102.816237,222.061783,-1302.362347,9104.533087
87102.816566,0.000000,-1072.533697,9474.636058
87102.816896,370.102971,-1838.629195,9548.656652
87102.817225,148.041188,-2451.505594,9918.759623
87102.817554,0.000000,-2145.067394,10140.821405
87102.817883,0.000000,-1991.848295,9992.780217
87102.818212,666.185348,-1838.629195,10140.821405
87102.818542,1036.288319,-2374.896044,10881.027347
87102.818871,888.247130,-995.924147,10658.965565
87102.819200,1406.391290,-383.047749,9696.697840
87102.819529,1850.514855,0.000000,10214.842000
87102.819858,2220.617826,76.609550,9992.780217
87102.820187,1998.556043,536.266849,9770.718434
87102.820517,1702.473667,1378.971896,9178.553681
87102.820846,1258.350101,1378.971896,8734.430116
87102.821175,1332.370696,689.485948,9548.656652
87102.821504,370.102971,842.705048,8956.491898
87102.821833,0.000000,1225.752797,8586.388927
87102.822163,-296.082377,1685.410096,8586.388927
87102.822492,0.000000,1302.362347,8882.471304
87102.822821,-592.164754,2068.457845,8660.409521
87102.823150,-962.267725,2451.505594,8586.388927
87102.823479,-518.144159,2604.724693,8290.306550
87102.823808,-222.061783,2528.115143,9030.512492
87102.824138,-444.123565,2528.115143,8882.471304
87102.824467,-1258.350101,2681.334243,8956.491898
87102.824796,-1110.308913,2987.772442,8956.491898
87102.825125,-814.226536,2145.067394,9252.574275
87102.825454,-1480.411884,2221.676944,9474.636058
87102.825784,-1702.473667,1762.019645,9696.697840
87102.826113,-1702.473667,1838.629195,9696.697840
87102.826442,-962.267725,1455.581446,10436.903782
87102.826771,-962.267725,1302.362347,10362.883188
87102.827100,-1110.308913,1762.019645,9992.780217
87102.827429,74.020594,1072.533697,9844.739029
87102.827759,370.102971,1225.752797,9844.739029
87102.828088,0.000000,1455.581446,8956.491898
87102.828417,0.000000,1608.800546,9326.594869
87102.828746,74.020594,1302.362347,8882.471304
87102.829075,-222.061783,536.266849,8882.471304
87102.829405,-962.267725,0.000000,8808.450710
87102.829734,-1332.370696,-383.047749,8438.347739
87102.830063,-1110.308913,-1149.143247,8290.306550
87102.830392,-1184.329507,-1532.190996,8734.430116
87102.830721,-1406.391290,-1532.190996,9104.533087
87102.831050,-1480.411884,-1762.019645,8882.471304
87102.831380,-1036.288319,-1685.410096,8808.450710
87102.831709,-296.082377,-1838.629195,9252.574275
87102.832038,74.020594,-1455.581446,8882.471304
87102.832367,814.226536,-995.924147,9918.759623
87102.832696,740.205942,-1838.629195,9326.594869
87102.833026,1110.308913,-2374.896044,9548.656652
87102.833355,1036.288319,-2145.067394,9992.780217
87102.833684,814.226536,-1991.848295,9844.739029
87102.834013,1036.288319,-1838.629195,9770.718434
87102.834342,1332.370696,-1532.190996,10288.862594
87102.834671,1554.432478,-1685.410096,10362.883188
87102.835001,1480.411884,-1225.752797,9844.739029
87102.835330,1628.453072,-459.657299,9696.697840
87102.835659,1776.494261,-306.438199,9992.780217
87102.835988,1628.453072,0.000000,9918.759623
87102.836317,1110.308913,766.095498,9326.594869
87102.836647,888.247130,612.876398,9252.574275
87102.836976,740.205942,1072.533697,8808.450710
87102.837305,518.144159,76.609550,9104.533087
87102.837634,-296.082377,766.095498,8956.491898
87102.837963,-888.247130,1608.800546,8586.388927
87102.838292,-296.082377,1608.800546,8660.409521
87102.838622,-296.082377,1455.581446,8586.388927
87102.838951,-444.123565,2604.724693,8586.388927
87102.839280,-592.164754,3217.601092,8068.244768
87102.839609,-296.082377,2604.724693,8364.327145
87102.839938,-148.041188,2681.334243,8956.491898
87102.840268,-222.061783,2834.553343,9030.512492
87102.840597,-666.185348,3370.820191,8956.491898
87102.840926,-148.041188,3217.601092,8734.430116
87102.841255,-148.041188,2757.943793,9770.718434
87102.841584,-592.164754,2911.162892,9622.677246
87102.841913,-814.226536,2757.943793,9474.636058
87102.842243,-814.226536,2451.505594,9696.697840
87102.842572,-518.144159,2145.067394,10066.800811
87102.842901,-370.102971,2145.067394,9992.780217
87102.843230,-518.144159,2757.943793,10066.800811
87102.843559,148.041188,2528.115143,9474.636058
87102.843889,1184.329507,2374.896044,10288.862594
87102.844218,370.102971,2451.505594,9548.656652
87102.844547,148.041188,1915.238745,9104.533087
87102.844876,222.061783,1532.190996,8808.450710
87102.845205,0.000000,766.095498,8956.491898
87102.845534,-370.102971,459.657299,8882.471304
87102.845864,-814.226536,0.000000,8512.368333
87102.846193,-1110.308913,-306.438199,8660.409521
87102.846522,-962.267725,-766.095498,9252.574275
87102.846851,-1036.288319,-919.314598,9030.512492
87102.847180,-888.247130,-919.314598,8956.491898
87102.847510,-444.123565,-766.095498,8808.450710
87102.847839,0.000000,-536.266849,8882.471304
87102.848168,518.144159,-842.705048,8734.430116
87102.848497,296.082377,-1532.190996,9178.553681
87102.848826,370.102971,-1225.752797,9326.594869
87102.849156,740.205942,-1608.800546,9844.739029
87102.849485,740.205942,-1915.238745,10140.821405
87102.849814,222.061783,-2068.457845,9992.780217
87102.850143,518.144159,-1991.848295,9474.636058
87102.850472,1036.288319,-1915.238745,10066.800811
87102.850801,1036.288319,-2145.067394,10362.883188
87102.851131,666.185348,-1378.971896,9696.697840
87102.851460,1258.350101,-766.095498,9474.636058
87102.851789,1628.453072,0.000000,9844.739029
87102.852118,1776.494261,-536.266849,9548.656652
87102.852447,1258.350101,0.000000,9252.574275
87102.852777,592.164754,536.266849,9030.512492
87102.853106,962.267725,766.095498,8586.388927
87102.853435,740.205942,0.000000,8882.471304
87102.853764,0.000000,383.047749,9104.533087
87102.854093,-222.061783,1072.533697,8734.430116
87102.854422,-518.144159,919.314598,8364.327145
87102.854752,296.082377,536.266849,8882.471304
87102.855081,-296.082377,995.924147,8438.347739
87102.855410,0.000000,2451.505594,7920.203579
87102.855739,0.000000,2757.943793,8290.306550
87102.856068,296.082377,2604.724693,8734.430116
87102.856398,-444.123565,2911.162892,8438.347739
87102.856727,-592.164754,2681.334243,8586.388927
87102.857056,-814.226536,3064.381992,8586.388927
87102.857385,-888.247130,2145.067394,9178.553681
87102.857714,-888.247130,1225.752797,9474.636058
87102.858043,-1998.556043,1532.190996,9844.739029
87102.858373,-1924.535449,1532.190996,9548.656652
87102.858702,-1850.514855,919.314598,10362.883188
87102.859031,-1850.514855,1302.362347,10584.944971
87102.859360,-2146.597232,1608.800546,9770.718434
87102.859689,-1184.329507,1532.190996,9178.553681
87102.860019,296.082377,1532.190996,9992.780217
87102.860348,-444.123565,1455.581446,9918.759623
87102.860677,-518.144159,1608.800546,9178.553681
87102.861006,-296.082377,1225.752797,8882.471304
87102.861335,-74.020594,1149.143247,9326.594869
87102.861664,-370.102971,536.266849,9252.574275
87102.861994,-1554.432478,0.000000,8512.368333
87102.862323,-1332.370696,0.000000,8808.450710
87102.862652,-888.247130,-842.705048,8956.491898
87102.862981,-666.185348,-1378.971896,9474.636058
87102.863310,-1110.308913,-919.314598,9104.533087
87102.863640,-518.144159,-229.828649,8808.450710
87102.863969,74.020594,-842.705048,9178.553681
87102.864298,444.123565,-995.924147,8882.471304
87102.864627,592.164754,-1302.362347,9474.636058
87102.864956,148.041188,-1225.752797,9474.636058
87102.865285,740.205942,-1608.800546,9252.574275
87102.865615,740.205942,-2145.067394,9918.759623
87102.865944,740.205942,-1915.238745,9844.739029
87102.866273,444.123565,-766.095498,9770.718434
87102.866602,1110.308913,-1762.019645,9844.739029
87102.866931,962.267725,-1915.238745,10436.903782
87102.867261,888.247130,-1225.752797,10066.800811
87102.867590,1258.350101,-612.876398,9844.739029
87102.867919,2072.576638,-383.047749,10066.800811
87102.868248,1850.514855,0.000000,9696.697840
87102.868577,1406.391290,689.485948,9030.512492
87102.868906,1628.453072,842.705048,8882.471304
87102.869236,1702.473667,459.657299,8808.450710
87102.869565,1036.288319,689.485948,8956.491898
87102.869894,444.123565,919.314598,8734.430116
87102.870223,148.041188,1685.410096,8290.306550
