#time,accel_x,accel_y,accel_z
505.189798,-592.164754,76.609550,9252.574275
505.190123,-666.185348,612.876398,9104.533087
505.190448,-370.102971,306.438199,9030.512492
505.190774,-444.123565,306.438199,9548.656652
505.191099,-666.185348,689.485948,9326.594869
505.191424,222.061783,919.314598,8956.491898
505.191750,1036.288319,76.609550,8956.491898
505.192075,0.000000,842.705048,9178.553681
505.192400,-296.082377,1225.752797,9178.553681
505.192725,518.144159,612.876398,9400.615463
505.193051,740.205942,536.266849,9622.677246
505.193376,-370.102971,229.828649,9474.636058
505.193701,-814.226536,306.438199,9326.594869
505.194026,222.061783,766.095498,9548.656652
505.194352,222.061783,919.314598,9326.594869
505.194677,148.041188,459.657299,9770.718434
505.195002,148.041188,0.000000,9770.718434
505.195327,296.082377,1072.533697,8956.491898
505.195653,1406.391290,842.705048,9474.636058
505.195978,888.247130,536.266849,9474.636058
505.196303,-148.041188,1685.410096,8956.491898
505.196628,74.020594,995.924147,9030.512492
505.196954,1036.288319,153.219100,9474.636058
505.197279,-296.082377,689.485948,9178.553681
505.197604,-1554.432478,612.876398,8808.450710
505.197929,-740.205942,459.657299,9030.512492
505.198255,0.000000,459.657299,9252.574275
505.198580,-148.041188,766.095498,9104.533087
505.198905,-518.144159,842.705048,9252.574275
505.199230,0.000000,842.705048,8882.471304
505.199556,1554.432478,1455.581446,8882.471304
505.199881,1702.473667,1378.971896,9770.718434
505.200206,592.164754,1378.971896,9326.594869
505.200531,296.082377,1072.533697,9326.594869
505.200857,1628.453072,1149.143247,9400.615463
505.201182,1480.411884,1302.362347,9548.656652
505.201507,370.102971,1302.362347,9548.656652
505.201832,814.226536,1149.143247,9548.656652
505.202158,1850.514855,1225.752797,9548.656652
505.202483,1628.453072,1838.629195,9992.780217
505.202808,2146.597232,1838.629195,10288.862594
505.203133,2368.659014,2298.286494,9770.718434
505.203459,3182.885551,2911.162892,9104.533087
505.203784,4071.132681,2221.676944,9844.739029
505.204109,3182.885551,2604.724693,9474.636058
505.204435,2738.761985,2911.162892,9252.574275
505.204760,3552.988522,2834.553343,9474.636058
505.205085,3849.070898,3447.429741,9474.636058
505.205410,2960.823768,3524.039291,9474.636058
505.205736,2368.659014,3524.039291,8808.450710
505.206061,3108.864956,3294.210641,8364.327145
505.206386,3404.947333,4136.915689,8438.347739
505.206711,3256.906145,4596.572988,8364.327145
505.207037,2812.782580,4443.353888,8734.430116
505.207362,2812.782580,4290.134789,8290.306550
505.207687,3108.864956,4673.182538,8956.491898
505.208012,2664.741391,4136.915689,8882.471304
505.208338,888.247130,4213.525239,8512.368333
505.208663,888.247130,3677.258390,8882.471304
505.208988,1850.514855,3907.087040,8956.491898
505.209313,444.123565,3677.258390,9104.533087
505.209639,-592.164754,2681.334243,8512.368333
505.209964,-370.102971,2528.115143,8364.327145
505.210289,-518.144159,3064.381992,8586.388927
505.210614,-296.082377,3294.210641,8586.388927
505.210940,-740.205942,2221.676944,8808.450710
505.211265,148.041188,2528.115143,8660.409521
505.211590,1036.288319,2451.505594,8808.450710
505.211915,2072.576638,2451.505594,9622.677246
505.212241,1110.308913,2374.896044,9844.739029
505.212566,740.205942,1838.629195,9844.739029
505.212891,1332.370696,1608.800546,9844.739029
505.213216,1258.350101,1072.533697,10362.883188
505.213542,148.041188,459.657299,11399.171507
505.213867,296.082377,-229.828649,10732.986159
505.214192,1036.288319,-689.485948,10658.965565
505.214517,1850.514855,76.609550,10658.965565
505.214843,2442.679609,842.705048,10288.862594
505.215168,3256.906145,995.924147,9474.636058
505.215493,4515.256246,2528.115143,8068.244768
505.215818,5403.503377,2834.553343,8438.347739
505.216144,5329.482782,2911.162892,8068.244768
505.216469,4441.235652,2604.724693,7624.121203
505.216794,4589.276840,2221.676944,7624.121203
505.217120,4885.359217,2451.505594,8586.388927
505.217445,3849.070898,2681.334243,9252.574275
505.217770,3256.906145,2145.067394,9326.594869
505.218095,3404.947333,1838.629195,9326.594869
505.218421,3552.988522,2298.286494,10140.821405
505.218746,3478.967927,2068.457845,10807.006753
505.219071,3256.906145,2068.457845,11251.130318
505.219396,3034.844362,2298.286494,10955.047942
505.219722,3701.029710,2911.162892,11769.274478
505.220047,3330.926739,2987.772442,12509.480420
505.220372,1554.432478,2221.676944,10362.883188
505.220697,888.247130,2374.896044,9252.574275
505.221023,2146.597232,3677.258390,8068.244768
505.221348,2146.597232,5286.058936,7105.977043
505.221673,1702.473667,5745.716235,5847.626942
505.221998,2220.617826,6665.030833,4737.318029
505.222324,2590.720797,6511.811733,4515.256246
505.222649,1332.370696,7201.297681,4663.297435
505.222974,962.267725,6052.154434,5995.668130
505.223299,0.000000,5286.058936,7328.038826
505.223625,-1554.432478,4213.525239,10362.883188
505.223950,-2960.823768,1378.971896,12361.439231
505.224275,-4885.359217,-766.095498,13101.645173
505.224600,-5033.400406,-995.924147,13175.665768
505.224926,-2442.679609,-766.095498,13989.892304
505.225251,-370.102971,995.924147,14508.036463
505.225576,2368.659014,2451.505594,12731.542202
505.225901,5107.421000,3753.867940,10140.821405
505.226227,7105.977043,5362.668486,7402.059420
505.226552,8364.327145,7201.297681,5773.606348
505.226877,8512.368333,7584.345430,5921.647536
505.227202,7624.121203,6205.373534,5551.544565
505.227528,6661.853478,5592.497135,6735.874072
505.227853,5033.400406,4366.744339,7402.059420
505.228178,2590.720797,2911.162892,9030.512492
505.228503,370.102971,1608.800546,8956.491898
505.228829,-740.205942,229.828649,8956.491898
505.229154,-1036.288319,-842.705048,9178.553681
505.229479,-2368.659014,-995.924147,10140.821405
505.229805,-3182.885551,-1532.190996,9548.656652
505.230130,-1258.350101,-1915.238745,9548.656652
505.230455,148.041188,-1302.362347,11103.089130
505.230780,1258.350101,612.876398,11621.233289
505.231106,3923.091493,1762.019645,11473.192101
505.231431,6143.709319,1608.800546,11029.068536
505.231756,6291.750507,2068.457845,11029.068536
505.232081,5329.482782,1685.410096,10584.944971
505.232407,5181.441594,1302.362347,9326.594869
505.232732,5773.606348,2068.457845,8956.491898
505.233057,5847.626942,2987.772442,9992.780217
505.233382,5107.421000,3294.210641,9992.780217
505.233708,3775.050304,3217.601092,7550.100608
505.234033,4737.318029,3677.258390,6809.894666
505.234358,3627.009116,4749.792088,6217.729913
505.234683,2368.659014,4673.182538,6365.771101
505.235009,2220.617826,4826.401637,7031.956449
505.235334,1850.514855,4290.134789,9252.574275
505.235659,1036.288319,3677.258390,10436.903782
505.235984,740.205942,2451.505594,11843.295072
505.236310,-444.123565,2451.505594,12287.418637
505.236635,-2368.659014,76.609550,11991.336260
505.236960,-2146.597232,-995.924147,11547.212695
505.237285,296.082377,689.485948,11843.295072
505.237611,222.061783,3064.381992,11547.212695
505.237936,222.061783,3140.991542,9030.512492
505.238261,2812.782580,4519.963438,5995.668130
505.238586,5255.462188,7201.297681,4663.297435
505.238912,5107.421000,8810.098227,3849.070898
505.239237,5551.544565,8197.221829,3330.926739
505.239562,5847.626942,8810.098227,4145.153275
505.239887,4589.276840,7584.345430,7105.977043
505.240213,666.185348,5515.887586,10584.944971
505.240538,-3552.988522,2298.286494,12509.480420
505.240863,-5995.668130,-689.485948,12879.583391
505.241188,-6883.915261,-4749.792088,14582.057057
505.241514,-8808.450710,-5898.935335,17098.757260
505.241839,-6957.935855,-4903.011187,14804.118840
505.242164,-518.144159,-2068.457845,11843.295072
505.242489,1406.391290,1915.238745,11325.150913
505.242815,5773.606348,6052.154434,5995.668130
505.243140,10732.986159,8656.879127,2738.761985
505.243465,13397.727550,11644.651570,2146.597232
505.243791,15396.283594,11644.651570,518.144159
505.244116,11473.192101,9729.412825,2516.700203
505.244441,8586.388927,6588.421283,5107.421000
505.244766,3775.050304,3294.210641,9178.553681
505.245092,-2368.659014,-536.266849,13767.830521
505.245417,-5255.462188,-4136.915689,16062.468941
505.245742,-7254.018232,-6741.640382,15322.262999
505.246067,-7846.182985,-9039.926876,14656.077652
505.246393,-4441.235652,-8580.269578,13915.871710
505.246718,-1332.370696,229.828649,12583.501014
505.247043,2738.761985,5132.839837,11621.233289
505.247368,7846.182985,4596.572988,8808.450710
505.247693,9400.615463,4826.401637,4145.153275
505.248018,9326.594869,8044.002729,3627.009116
505.248343,9992.780217,7814.174080,5477.523971
505.248669,6735.874072,4903.011187,7550.100608
505.248994,5699.585753,3217.601092,8882.471304
505.249319,3701.029710,1532.190996,9696.697840
505.249644,1406.391290,229.828649,10140.821405
505.249969,-740.205942,383.047749,11029.068536
505.250294,-814.226536,-383.047749,9992.780217
505.250619,-740.205942,-995.924147,9770.718434
505.250945,-2442.679609,-306.438199,9696.697840
505.251270,-2368.659014,1838.629195,8438.347739
505.251595,-1924.535449,1455.581446,9178.553681
505.251920,-1998.556043,1149.143247,10510.924376
505.252245,-1110.308913,1685.410096,9622.677246
505.252570,-1406.391290,1532.190996,8438.347739
505.252895,0.000000,2911.162892,7920.203579
505.253220,1036.288319,2834.553343,8068.244768
505.253546,-666.185348,2987.772442,7698.141797
505.253871,-1480.411884,1072.533697,7254.018232
505.254196,-1480.411884,0.000000,7920.203579
505.254521,-1554.432478,536.266849,8956.491898
505.254846,-1036.288319,689.485948,9992.780217
505.255171,-370.102971,-612.876398,9622.677246
505.255496,-1554.432478,306.438199,10362.883188
505.255822,1480.411884,1072.533697,9622.677246
505.256147,2812.782580,2451.505594,10140.821405
505.256472,1332.370696,2834.553343,11177.109724
505.256797,1036.288319,2298.286494,11547.212695
505.257122,888.247130,-919.314598,10288.862594
505.257447,-962.267725,-1838.629195,10658.965565
505.257772,-2516.700203,-536.266849,11621.233289
505.258098,-2368.659014,-1149.143247,10807.006753
505.258423,-296.082377,-2528.115143,8808.450710
505.258748,666.185348,-919.314598,8364.327145
505.259073,2146.597232,2681.334243,8882.471304
505.259398,4145.153275,4443.353888,7179.997637
505.259723,3330.926739,1838.629195,5255.462188
505.260048,3034.844362,689.485948,5995.668130
505.260374,1702.473667,2374.896044,6661.853478
505.260699,1184.329507,2834.553343,7550.100608
505.261024,296.082377,459.657299,9474.636058
505.261349,-1702.473667,-2068.457845,10288.862594
505.261674,-3182.885551,-1991.848295,10807.006753
505.261999,-2960.823768,-995.924147,11473.192101
505.262324,-2442.679609,-766.095498,12361.439231
505.262649,-2886.803174,-2757.943793,11399.171507
505.262975,-4071.132681,-2987.772442,9770.718434
505.263300,-1554.432478,-153.219100,9992.780217
505.263625,296.082377,1532.190996,10436.903782
505.263950,222.061783,0.000000,8956.491898
505.264275,1702.473667,306.438199,7624.121203
505.264600,2368.659014,2451.505594,7698.141797
505.264925,3701.029710,4443.353888,9104.533087
505.265251,3627.009116,2911.162892,8882.471304
505.265576,2886.803174,1302.362347,7994.224174
505.265901,518.144159,383.047749,7994.224174
505.266226,-814.226536,1149.143247,8586.388927
505.266551,-1036.288319,383.047749,10732.986159
505.266876,-1702.473667,-383.047749,10658.965565
505.267201,-2738.761985,-1302.362347,11251.130318
505.267527,-1406.391290,-1149.143247,10066.800811
505.267852,518.144159,2068.457845,9252.574275
505.268177,740.205942,2451.505594,8956.491898
505.268502,370.102971,1838.629195,8660.409521
505.268827,-296.082377,1225.752797,7105.977043
505.269152,0.000000,1378.971896,6883.915261
505.269477,148.041188,536.266849,8068.244768
505.269803,-1924.535449,612.876398,8068.244768
505.270128,-2146.597232,0.000000,8660.409521
505.270453,-148.041188,-766.095498,8438.347739
505.270778,962.267725,612.876398,9104.533087
505.271103,666.185348,1225.752797,10732.986159
505.271428,0.000000,1608.800546,9844.739029
505.271753,148.041188,-1302.362347,9178.553681
505.272078,148.041188,-1762.019645,11251.130318
505.272404,-370.102971,0.000000,12435.459826
505.272729,-1258.350101,536.266849,11769.274478
505.273054,-148.041188,-1378.971896,11325.150913
505.273379,1850.514855,-1532.190996,9770.718434
505.273704,1850.514855,2298.286494,9770.718434
505.274029,1406.391290,4213.525239,8438.347739
505.274354,2368.659014,2068.457845,6735.874072
505.274680,1628.453072,842.705048,7031.956449
505.275005,962.267725,2298.286494,7254.018232
505.275330,296.082377,2374.896044,7031.956449
505.275655,-444.123565,459.657299,7254.018232
505.275980,222.061783,612.876398,8364.327145
505.276305,1702.473667,766.095498,9474.636058
505.276630,1776.494261,2221.676944,9992.780217
505.276956,2368.659014,1991.848295,9992.780217
505.277281,1554.432478,766.095498,10066.800811
505.277606,1036.288319,-153.219100,9622.677246
505.277931,-444.123565,-842.705048,9622.677246
505.278256,-2516.700203,0.000000,10807.006753
505.278581,-3478.967927,-766.095498,10658.965565
505.278906,-2664.741391,-2451.505594,11695.253884
505.279231,-2294.638420,-1455.581446,9918.759623
505.279557,-2590.720797,229.828649,9548.656652
505.279882,-1776.494261,995.924147,7402.059420
505.280207,0.000000,1532.190996,7846.182985
505.280532,-888.247130,383.047749,7402.059420
505.280857,-3775.050304,-306.438199,8364.327145
505.281182,-3256.906145,-536.266849,9548.656652
505.281507,-2072.576638,-536.266849,9992.780217
505.281833,-2516.700203,-2068.457845,11103.089130
505.282158,-1776.494261,-2528.115143,9770.718434
505.282483,1406.391290,612.876398,8808.450710
505.282808,740.205942,2298.286494,10362.883188
505.283133,666.185348,1685.410096,9844.739029
505.283458,1628.453072,-459.657299,8734.430116
505.283783,1406.391290,229.828649,8068.244768
505.284109,2812.782580,1685.410096,8512.368333
505.284434,2368.659014,2451.505594,9474.636058
505.284759,1554.432478,1378.971896,9030.512492
505.285084,2368.659014,-306.438199,7476.080014
505.285409,3330.926739,1225.752797,7772.162391
505.285734,2294.638420,3600.648841,8956.491898
505.286059,1628.453072,2221.676944,8438.347739
505.286385,1110.308913,-995.924147,7920.203579
505.286710,0.000000,-766.095498,9548.656652
505.287035,-2590.720797,1302.362347,11029.068536
505.287360,-3552.988522,-229.828649,10658.965565
505.287685,-1702.473667,-2528.115143,10510.924376
505.288010,-814.226536,-2145.067394,10955.047942
505.288335,518.144159,995.924147,10362.883188
505.288660,444.123565,2528.115143,10362.883188
505.288986,814.226536,1149.143247,9326.594869
505.289311,1998.556043,995.924147,8660.409521
505.289636,1998.556043,2221.676944,8808.450710
505.289961,-296.082377,2068.457845,9252.574275
505.290286,-296.082377,766.095498,7698.141797
505.290611,1184.329507,383.047749,8882.471304
505.290936,1480.411884,1915.238745,9696.697840
505.291262,1332.370696,2987.772442,8882.471304
505.291587,0.000000,2221.676944,9326.594869
505.291912,1406.391290,2145.067394,7031.956449
505.292237,3108.864956,1991.848295,8068.244768
505.292562,-666.185348,2145.067394,10584.944971
505.292887,-2960.823768,1455.581446,8512.368333
505.293212,-2960.823768,-536.266849,9326.594869
505.293538,-1332.370696,-612.876398,10288.862594
505.293863,-962.267725,919.314598,9326.594869
505.294188,-1406.391290,1608.800546,9400.615463
505.294513,814.226536,1685.410096,8512.368333
505.294838,592.164754,1838.629195,9104.533087
505.295163,518.144159,153.219100,8586.388927
505.295488,-74.020594,153.219100,8290.306550
505.295814,-518.144159,1378.971896,7846.182985
505.296139,-962.267725,1685.410096,11177.109724
505.296464,-518.144159,-1072.533697,12065.356855
505.296789,-888.247130,-2451.505594,10214.842000
505.297114,-1924.535449,-1915.238745,9696.697840
505.297439,-666.185348,995.924147,9696.697840
505.297764,-962.267725,1225.752797,10436.903782
505.298089,-1406.391290,-1532.190996,8734.430116
505.298415,-1258.350101,-2145.067394,8142.265362
505.298740,-2812.782580,-612.876398,9696.697840
505.299065,-2146.597232,459.657299,9326.594869
505.299390,-814.226536,-2221.676944,9178.553681
505.299715,0.000000,-2298.286494,9622.677246
505.300040,592.164754,1762.019645,8882.471304
505.300365,3552.988522,2681.334243,8734.430116
505.300691,4737.318029,1838.629195,8438.347739
505.301016,1924.535449,919.314598,8660.409521
505.301341,962.267725,-536.266849,7846.182985
505.301666,1036.288319,76.609550,10214.842000
505.301991,-148.041188,-459.657299,11769.274478
505.302316,-444.123565,-2451.505594,10807.006753
505.302641,74.020594,-2374.896044,9918.759623
505.302967,1628.453072,1991.848295,10214.842000
505.303292,1924.535449,1455.581446,9622.677246
505.303617,1554.432478,919.314598,8808.450710
505.303942,1480.411884,0.000000,7772.162391
505.304267,1036.288319,2068.457845,8882.471304
505.304592,-814.226536,1532.190996,10584.944971
505.304917,-2368.659014,383.047749,9622.677246
505.305243,-1924.535449,-1838.629195,8882.471304
505.305568,-888.247130,-536.266849,9770.718434
505.305893,0.000000,2528.115143,10214.842000
505.306218,-962.267725,1915.238745,8660.409521
505.306543,888.247130,995.924147,8364.327145
505.306868,444.123565,1455.581446,8438.347739
505.307193,296.082377,2604.724693,7254.018232
505.307518,0.000000,3447.429741,8586.388927
505.307844,296.082377,1915.238745,8808.450710
505.308169,740.205942,1455.581446,9548.656652
505.308494,2146.597232,2145.067394,10288.862594
505.308819,1258.350101,2834.553343,9474.636058
505.309144,222.061783,2604.724693,9104.533087
505.309469,962.267725,2221.676944,8956.491898
505.309794,148.041188,1762.019645,8512.368333
505.310120,-1554.432478,612.876398,7846.182985
505.310445,-2368.659014,153.219100,7994.224174
505.310770,-3182.885551,1455.581446,8660.409521
505.311095,-1332.370696,842.705048,10288.862594
505.311420,-444.123565,0.000000,10288.862594
505.311745,-444.123565,229.828649,9400.615463
505.312070,444.123565,2374.896044,7476.080014
505.312396,2072.576638,2757.943793,9400.615463
505.312721,1258.350101,1455.581446,9844.739029
505.313046,0.000000,-842.705048,8586.388927
505.313371,-370.102971,-612.876398,10881.027347
505.313696,-148.041188,842.705048,12509.480420
505.314021,-962.267725,-995.924147,11843.295072
505.314346,-962.267725,-3983.696590,9622.677246
505.314672,0.000000,-1532.190996,9474.636058
505.314997,518.144159,1915.238745,9770.718434
505.315322,2294.638420,2757.943793,9770.718434
505.315647,2368.659014,-459.657299,8586.388927
505.315972,888.247130,-995.924147,6883.915261
505.316297,0.000000,1225.752797,7846.182985
505.316622,-148.041188,1302.362347,8068.244768
505.316947,-962.267725,-1149.143247,7994.224174
505.317273,-1258.350101,-2987.772442,8586.388927
505.317598,-740.205942,0.000000,9178.553681
505.317923,-1776.494261,1225.752797,10140.821405
505.318248,-2072.576638,-1225.752797,8882.471304
505.318573,-592.164754,-2987.772442,7920.203579
505.318898,-1702.473667,-1762.019645,9326.594869
505.319223,-2516.700203,459.657299,10436.903782
505.319549,-2294.638420,-1302.362347,10807.006753
505.319874,-1998.556043,-3447.429741,10510.924376
505.320199,-814.226536,-1762.019645,10140.821405
505.320524,1850.514855,689.485948,9992.780217
505.320849,2220.617826,2604.724693,10214.842000
505.321174,2812.782580,2374.896044,10066.800811
505.321499,3330.926739,536.266849,8364.327145
505.321825,1776.494261,1302.362347,7105.977043
505.322150,0.000000,2451.505594,7772.162391
505.322475,-814.226536,1762.019645,8660.409521
505.322800,-814.226536,-153.219100,10584.944971
505.323125,-296.082377,-919.314598,10955.047942
505.323450,592.164754,0.000000,10362.883188
505.323775,222.061783,2068.457845,9770.718434
505.324101,592.164754,3140.991542,8660.409521
505.324426,2294.638420,1378.971896,8882.471304
505.324751,1184.329507,1302.362347,8068.244768
505.325076,-814.226536,2451.505594,7698.141797
505.325401,0.000000,1838.629195,8068.244768
505.325726,740.205942,1608.800546,8660.409521
505.326051,-148.041188,995.924147,9548.656652
505.326376,-1554.432478,919.314598,9400.615463
505.326702,-444.123565,1532.190996,8512.368333
505.327027,-592.164754,2451.505594,9622.677246
505.327352,-1110.308913,1532.190996,9918.759623
505.327677,-1776.494261,76.609550,8438.347739
505.328002,-2442.679609,306.438199,8290.306550
505.328327,-1480.411884,919.314598,9474.636058
505.328652,-666.185348,842.705048,10436.903782
505.328978,444.123565,536.266849,9548.656652
505.329303,1628.453072,2374.896044,10807.006753
505.329628,3256.906145,1838.629195,10658.965565
505.329953,3775.050304,2068.457845,9844.739029
505.330278,2220.617826,1072.533697,9030.512492
505.330603,1184.329507,842.705048,7328.038826
505.330928,592.164754,1608.800546,9104.533087
505.331254,-814.226536,995.924147,9696.697840
505.331579,0.000000,153.219100,10066.800811
505.331904,-740.205942,-1991.848295,8660.409521
505.332229,0.000000,76.609550,6883.915261
505.332554,1184.329507,2451.505594,8290.306550
505.332879,-518.144159,2374.896044,8512.368333
505.333204,-1110.308913,-1149.143247,7846.182985
505.333530,-1332.370696,-1838.629195,7254.018232
505.333855,-2442.679609,153.219100,9326.594869
505.334180,-4515.256246,-612.876398,10066.800811
505.334505,-3627.009116,-2374.896044,9474.636058
505.334830,-1258.350101,-3524.039291,10288.862594
505.335155,0.000000,-1532.190996,9548.656652
505.335480,-444.123565,919.314598,11177.109724
505.335805,0.000000,1072.533697,10881.027347
505.336131,2738.761985,-766.095498,9474.636058
505.336456,1998.556043,-1685.410096,10584.944971
505.336781,1036.288319,-229.828649,11029.068536
505.337106,444.123565,919.314598,9696.697840
505.337431,666.185348,-842.705048,9918.759623
505.337756,1554.432478,-2298.286494,10658.965565
505.338081,1184.329507,153.219100,9992.780217
505.338407,518.144159,2221.676944,9104.533087
505.338732,296.082377,1072.533697,9030.512492
505.339057,0.000000,0.000000,9548.656652
505.339382,-740.205942,153.219100,7698.141797
505.339707,-1554.432478,76.609550,7550.100608
505.340032,-3034.844362,0.000000,7476.080014
505.340357,-1850.514855,536.266849,8216.285956
505.340683,296.082377,919.314598,9844.739029
505.341008,0.000000,229.828649,8512.368333
505.341333,-1184.329507,1149.143247,8438.347739
505.341658,666.185348,2528.115143,8734.430116
505.341983,2294.638420,2145.067394,7920.203579
505.342308,296.082377,0.000000,8438.347739
505.342633,-222.061783,919.314598,8808.450710
505.342959,-1184.329507,1991.848295,11399.171507
505.343284,0.000000,612.876398,10288.862594
505.343609,148.041188,-919.314598,10881.027347
505.343934,-518.144159,306.438199,11103.089130
505.344259,1850.514855,3140.991542,9696.697840
505.344584,2664.741391,3830.477490,11325.150913
505.344909,1776.494261,612.876398,9770.718434
505.345234,-296.082377,612.876398,7624.121203
505.345560,-370.102971,2834.553343,7994.224174
505.345885,444.123565,2298.286494,8734.430116
505.346210,0.000000,1378.971896,10214.842000
505.346535,0.000000,76.609550,9474.636058
505.346860,0.000000,1225.752797,8216.285956
505.347185,1480.411884,2145.067394,8216.285956
505.347510,1406.391290,2987.772442,8660.409521
505.347835,1554.432478,2374.896044,8290.306550
505.348160,222.061783,1455.581446,8290.306550
505.348485,0.000000,459.657299,8364.327145
505.348810,0.000000,612.876398,7920.203579
505.349135,-592.164754,1302.362347,9474.636058
505.349460,-1036.288319,306.438199,11177.109724
505.349785,1184.329507,-383.047749,8734.430116
505.350109,148.041188,229.828649,9474.636058
505.350434,-296.082377,1455.581446,9030.512492
505.350759,0.000000,1225.752797,9178.553681
505.351084,-370.102971,-229.828649,8364.327145
505.351409,0.000000,-153.219100,9400.615463
505.351734,-1480.411884,-229.828649,10362.883188
505.352059,-2220.617826,0.000000,9844.739029
505.352384,370.102971,153.219100,9696.697840
505.352709,1258.350101,0.000000,10732.986159
505.353034,-814.226536,0.000000,9770.718434
505.353358,0.000000,153.219100,9030.512492
505.353683,370.102971,229.828649,8512.368333
505.354008,-1258.350101,-306.438199,8512.368333
505.354333,-2072.576638,-1685.410096,7772.162391
505.354658,-3701.029710,-1532.190996,9326.594869
505.354983,-3108.864956,-1225.752797,10066.800811
505.355308,-1554.432478,-2221.676944,9326.594869
505.355633,-1110.308913,-2374.896044,8808.450710
505.355958,-1332.370696,153.219100,8882.471304
505.356283,0.000000,1302.362347,8512.368333
505.356608,1998.556043,229.828649,9918.759623
505.356932,1332.370696,-1149.143247,8882.471304
505.357257,-518.144159,-459.657299,9400.615463
505.357582,-740.205942,0.000000,10066.800811
505.357907,444.123565,-766.095498,9992.780217
505.358232,740.205942,-1838.629195,11251.130318
505.358557,814.226536,-919.314598,10658.965565
505.358882,1850.514855,1072.533697,9992.780217
505.359207,2220.617826,2145.067394,9030.512492
505.359532,1998.556043,1455.581446,9400.615463
505.359857,962.267725,459.657299,9474.636058
505.360181,148.041188,766.095498,8586.388927
505.360506,518.144159,766.095498,9178.553681
505.360831,518.144159,919.314598,9992.780217
505.361156,0.000000,459.657299,9548.656652
505.361481,444.123565,0.000000,8142.265362
505.361806,1406.391290,1838.629195,8216.285956
505.362131,518.144159,3830.477490,8290.306550
505.362456,370.102971,2681.334243,7550.100608
505.362781,222.061783,842.705048,7254.018232
505.363106,-962.267725,1378.971896,7105.977043
505.363430,-1628.453072,2451.505594,9400.615463
505.363755,-1702.473667,1532.190996,10288.862594
505.364080,-1036.288319,0.000000,10362.883188
505.364405,1332.370696,689.485948,9474.636058
505.364730,2368.659014,3294.210641,10288.862594
505.365055,962.267725,3753.867940,10066.800811
505.365380,1628.453072,2834.553343,8586.388927
505.365705,2368.659014,1608.800546,8956.491898
505.366030,1998.556043,2911.162892,9400.615463
505.366355,-1036.288319,2681.334243,9992.780217
505.366680,-1480.411884,1302.362347,9252.574275
505.367004,0.000000,306.438199,9474.636058
505.367329,444.123565,459.657299,9252.574275
505.367654,1776.494261,2757.943793,9326.594869
505.367979,666.185348,3600.648841,9104.533087
505.368304,1036.288319,2681.334243,8808.450710
505.368629,1554.432478,153.219100,8216.285956
505.368954,0.000000,612.876398,8142.265362
505.369279,-2442.679609,995.924147,7698.141797
505.369604,-2738.761985,-153.219100,8956.491898
505.369929,-814.226536,-1608.800546,9696.697840
505.370253,-1110.308913,-1302.362347,10436.903782
505.370578,-1850.514855,-919.314598,10140.821405
505.370903,-1332.370696,306.438199,8660.409521
505.371228,370.102971,1455.581446,7846.182985
505.371553,0.000000,0.000000,8438.347739
505.371878,-1480.411884,-1762.019645,7920.203579
505.372203,-2590.720797,-1072.533697,8660.409521
505.372528,-2368.659014,-995.924147,10066.800811
505.372853,-1406.391290,-2298.286494,11325.150913
505.373178,-370.102971,-3677.258390,10362.883188
505.373502,296.082377,-1838.629195,11473.192101
505.373827,740.205942,766.095498,11917.315666
505.374152,1258.350101,383.047749,10807.006753
505.374477,1258.350101,-2451.505594,9178.553681
505.374802,1332.370696,-1915.238745,8216.285956
505.375127,-222.061783,612.876398,8882.471304
505.375452,74.020594,536.266849,10362.883188
505.375777,592.164754,-1762.019645,10214.842000
505.376102,-592.164754,-2451.505594,10140.821405
505.376427,1036.288319,842.705048,9326.594869
505.376752,2072.576638,3140.991542,9030.512492
505.377076,1258.350101,1762.019645,8660.409521
505.377401,222.061783,-1149.143247,7920.203579
505.377726,0.000000,76.609550,8586.388927
505.378051,-740.205942,1378.971896,9252.574275
505.378376,-1924.535449,-306.438199,8882.471304
505.378701,-888.247130,-2528.115143,8512.368333
505.379026,74.020594,-76.609550,9400.615463
505.379351,814.226536,2911.162892,10658.965565
505.379676,814.226536,2987.772442,10066.800811
505.380001,1554.432478,995.924147,9030.512492
505.380325,888.247130,1685.410096,7402.059420
505.380650,296.082377,1838.629195,7550.100608
505.380975,-814.226536,2221.676944,8882.471304
505.381300,-2072.576638,1302.362347,10658.965565
505.381625,-2442.679609,-153.219100,10658.965565
505.381950,-740.205942,-1302.362347,9178.553681
505.382275,74.020594,536.266849,9400.615463
505.382600,-296.082377,3830.477490,9104.533087
505.382925,666.185348,3447.429741,9104.533087
505.383250,1702.473667,919.314598,9474.636058
505.383574,592.164754,1378.971896,8438.347739
505.383899,296.082377,2298.286494,8364.327145
505.384224,1110.308913,3677.258390,8882.471304
505.384549,1850.514855,1915.238745,10214.842000
505.384874,3034.844362,1455.581446,10066.800811
505.385199,2442.679609,2068.457845,9474.636058
505.385524,1332.370696,3370.820191,8364.327145
505.385849,2664.741391,2911.162892,8364.327145
505.386174,1776.494261,1532.190996,8068.244768
505.386499,-296.082377,1072.533697,8438.347739
505.386824,-1554.432478,0.000000,9252.574275
505.387148,-1776.494261,0.000000,9178.553681
505.387473,-814.226536,-766.095498,9622.677246
505.387798,-444.123565,153.219100,9770.718434
505.388123,-888.247130,1302.362347,9400.615463
505.388448,296.082377,1838.629195,8808.450710
505.388773,1702.473667,1149.143247,8438.347739
505.389098,0.000000,536.266849,8956.491898
505.389423,-1332.370696,383.047749,7846.182985
505.389748,-2368.659014,153.219100,10288.862594
505.390073,-1998.556043,-1225.752797,11251.130318
505.390397,-3701.029710,-2987.772442,11399.171507
505.390722,-1924.535449,-4366.744339,9770.718434
505.391047,740.205942,229.828649,9104.533087
505.391372,296.082377,1685.410096,10807.006753
505.391697,222.061783,919.314598,10288.862594
505.392022,814.226536,-1685.410096,9030.512492
505.392347,-370.102971,-612.876398,8808.450710
505.392672,-370.102971,229.828649,7772.162391
505.392997,-1628.453072,459.657299,10584.944971
505.393322,-1036.288319,-995.924147,9178.553681
505.393646,-962.267725,-2298.286494,8956.491898
505.393971,296.082377,-919.314598,9178.553681
505.394296,222.061783,1838.629195,8216.285956
505.394621,-666.185348,1685.410096,7328.038826
505.394946,518.144159,-1149.143247,7772.162391
505.395271,444.123565,0.000000,9252.574275
505.395596,-888.247130,459.657299,9104.533087
505.395921,-1332.370696,-153.219100,9178.553681
505.396246,-222.061783,-1762.019645,9992.780217
505.396571,296.082377,0.000000,10732.986159
505.396896,2738.761985,1072.533697,10732.986159
505.397220,2220.617826,995.924147,10436.903782
505.397545,962.267725,766.095498,9622.677246
505.397870,1406.391290,1225.752797,10510.924376
505.398195,2072.576638,919.314598,8438.347739
505.398520,-370.102971,-76.609550,8808.450710
505.398845,-2368.659014,-76.609550,9770.718434
505.399170,-2146.597232,383.047749,10214.842000
505.399495,148.041188,229.828649,10288.862594
505.399820,1480.411884,0.000000,9770.718434
505.400145,148.041188,2374.896044,9622.677246
505.400469,222.061783,3140.991542,8956.491898
505.400794,2738.761985,2298.286494,8068.244768
505.401119,2590.720797,766.095498,7698.141797
505.401444,-444.123565,1991.848295,7328.038826
505.401769,-1332.370696,3217.601092,9770.718434
505.402094,1184.329507,2068.457845,9696.697840
505.402419,592.164754,-1302.362347,9326.594869
505.402744,-222.061783,0.000000,7994.224174
505.403069,518.144159,3677.258390,7698.141797
505.403394,1480.411884,5209.449386,8290.306550
505.403718,2442.679609,1991.848295,8586.388927
505.404043,1036.288319,229.828649,8734.430116
505.404368,-370.102971,2451.505594,8438.347739
505.404693,-666.185348,3217.601092,8290.306550
505.405018,518.144159,-153.219100,10066.800811
505.405343,-370.102971,-842.705048,10658.965565
505.405668,-666.185348,1302.362347,11103.089130
505.405993,296.082377,1991.848295,9474.636058
505.406318,0.000000,612.876398,8882.471304
505.406643,-1850.514855,-153.219100,8438.347739
505.406967,-1480.411884,383.047749,7328.038826
505.407292,-1776.494261,536.266849,9844.739029
505.407617,-2738.761985,-153.219100,9844.739029
505.407942,-2960.823768,-1532.190996,10362.883188
505.408267,-1998.556043,-1225.752797,10510.924376
505.408592,-888.247130,306.438199,9622.677246
505.408917,148.041188,383.047749,9178.553681
505.409242,296.082377,919.314598,8882.471304
505.409567,74.020594,459.657299,9474.636058
505.409892,1776.494261,919.314598,8438.347739
505.410217,740.205942,536.266849,9400.615463
505.410541,-2368.659014,-842.705048,9622.677246
505.410866,-2368.659014,-1838.629195,9326.594869
505.411191,-148.041188,-2451.505594,10140.821405
505.411516,1036.288319,-995.924147,9252.574275
505.411841,888.247130,459.657299,9918.759623
505.412166,518.144159,1532.190996,9326.594869
505.412491,1480.411884,1302.362347,8882.471304
505.412816,2072.576638,-1072.533697,8586.388927
505.413141,740.205942,-1072.533697,8142.265362
505.413466,-962.267725,459.657299,8290.306550
505.413790,-1110.308913,-459.657299,9622.677246
505.414115,1850.514855,-1608.800546,10066.800811
505.414440,1776.494261,-995.924147,10584.944971
505.414765,-592.164754,76.609550,10584.944971
505.415090,222.061783,459.657299,9030.512492
505.415415,666.185348,-536.266849,10214.842000
505.415740,518.144159,229.828649,9844.739029
505.416065,-962.267725,1072.533697,10140.821405
505.416390,-1998.556043,-1225.752797,7476.080014
505.416715,-962.267725,383.047749,7624.121203
505.417039,888.247130,0.000000,10658.965565
505.417364,1628.453072,2145.067394,10362.883188
505.417689,1036.288319,2681.334243,10732.986159
505.418014,1776.494261,2145.067394,9178.553681
505.418339,2146.597232,1378.971896,7994.224174
505.418664,1036.288319,1608.800546,7254.018232
505.418989,0.000000,2604.724693,7772.162391
505.419314,-740.205942,1838.629195,8882.471304
505.419639,-296.082377,1915.238745,9548.656652
505.419964,888.247130,1149.143247,10807.006753
505.420289,888.247130,2068.457845,8586.388927
505.420613,444.123565,3447.429741,7476.080014
505.420938,1406.391290,3370.820191,7920.203579
505.421263,1406.391290,2911.162892,8882.471304
505.421588,444.123565,1302.362347,9696.697840
505.421913,-1184.329507,1532.190996,9104.533087
505.422238,-1850.514855,1225.752797,10658.965565
505.422563,-2738.761985,383.047749,10214.842000
505.422888,-814.226536,-1225.752797,9696.697840
505.423213,1036.288319,76.609550,9992.780217
505.423538,2516.700203,3907.087040,9770.718434
505.423862,1480.411884,3524.039291,9770.718434
505.424187,740.205942,2528.115143,9326.594869
505.424512,888.247130,766.095498,7328.038826
505.424837,1184.329507,1302.362347,7328.038826
505.425162,-444.123565,1685.410096,9474.636058
505.425487,-2220.617826,153.219100,10584.944971
505.425812,-3108.864956,-2221.676944,9326.594869
505.426137,-1776.494261,-1991.848295,8586.388927
505.426462,-1702.473667,612.876398,9178.553681
505.426787,-2368.659014,1302.362347,8882.471304
505.427111,-1110.308913,-306.438199,9030.512492
505.427436,0.000000,-2145.067394,8956.491898
505.427761,-2516.700203,-919.314598,8734.430116
505.428086,-3330.926739,-1378.971896,9400.615463
505.428411,-1036.288319,-1149.143247,8364.327145
505.428736,0.000000,-1915.238745,10140.821405
505.429061,1332.370696,-842.705048,12139.377449
505.429386,2072.576638,766.095498,11251.130318
505.429711,814.226536,-76.609550,8512.368333
505.430036,1184.329507,-1225.752797,8586.388927
505.430361,2294.638420,-1225.752797,9252.574275
505.430685,444.123565,612.876398,9030.512492
505.431010,-1332.370696,-1072.533697,9918.759623
505.431335,-1406.391290,-2604.724693,10436.903782
505.431660,-666.185348,-1915.238745,10066.800811
505.431985,962.267725,-1072.533697,9696.697840
505.432310,740.205942,-306.438199,9178.553681
505.432635,0.000000,1302.362347,7994.224174
505.432960,2072.576638,2145.067394,9548.656652
505.433285,3256.906145,536.266849,9474.636058
505.433610,444.123565,0.000000,7846.182985
505.433934,-1258.350101,-306.438199,8512.368333
505.434259,-296.082377,612.876398,9178.553681
505.434584,0.000000,-459.657299,10732.986159
505.434909,296.082377,-1302.362347,9844.739029
505.435234,740.205942,229.828649,8364.327145
505.435559,0.000000,3447.429741,9326.594869
505.435884,740.205942,3370.820191,9548.656652
505.436209,1332.370696,306.438199,9252.574275
505.436534,592.164754,766.095498,7179.997637
505.436859,-1110.308913,3064.381992,8882.471304
505.437183,-1184.329507,2911.162892,9844.739029
505.437508,-444.123565,0.000000,9400.615463
505.437833,-740.205942,-153.219100,8808.450710
505.438158,296.082377,2604.724693,9474.636058
505.438483,1110.308913,4979.620737,9770.718434
505.438808,888.247130,2681.334243,9474.636058
505.439133,222.061783,0.000000,7328.038826
505.439458,-592.164754,689.485948,8068.244768
505.439783,-1184.329507,3753.867940,8734.430116
505.440108,-740.205942,2681.334243,9474.636058
505.440433,0.000000,-306.438199,10066.800811
505.440757,888.247130,306.438199,10214.842000
505.441082,1850.514855,2987.772442,10362.883188
505.441407,1776.494261,3983.696590,9622.677246
505.441732,370.102971,1225.752797,8586.388927
505.442057,0.000000,-306.438199,7698.141797
505.442382,148.041188,1302.362347,7994.224174
505.442707,-1628.453072,1915.238745,9622.677246
505.443032,-3627.009116,-383.047749,9252.574275
505.443357,-2886.803174,-2298.286494,9474.636058
505.443682,-370.102971,-1149.143247,9326.594869
505.444006,1036.288319,1072.533697,9178.553681
505.444331,370.102971,1991.848295,9474.636058
505.444656,1110.308913,1532.190996,9178.553681
505.444981,1480.411884,383.047749,8808.450710
505.445306,1184.329507,-383.047749,9030.512492
505.445631,-1184.329507,-383.047749,8438.347739
505.445956,-2146.597232,-612.876398,8364.327145
505.446281,0.000000,-1302.362347,10214.842000
505.446606,888.247130,-2451.505594,11399.171507
505.446931,444.123565,-1072.533697,10732.986159
505.447255,-592.164754,-229.828649,9844.739029
505.447580,1258.350101,0.000000,9178.553681
505.447905,1554.432478,-1608.800546,8734.430116
505.448230,-666.185348,-1225.752797,9696.697840
505.448555,-2294.638420,-689.485948,10436.903782
505.448880,-1480.411884,-689.485948,9030.512492
505.449205,-222.061783,-2068.457845,10510.924376
505.449530,74.020594,-2145.067394,9844.739029
505.449855,-148.041188,459.657299,8290.306550
505.450180,1998.556043,1915.238745,8882.471304
505.450505,2368.659014,1915.238745,9622.677246
505.450830,444.123565,-1072.533697,9326.594869
505.451155,148.041188,0.000000,7698.141797
505.451480,0.000000,383.047749,9252.574275
505.451805,-1110.308913,1072.533697,9992.780217
505.452130,-370.102971,-766.095498,10066.800811
505.452455,1036.288319,-1225.752797,10510.924376
505.452780,1110.308913,1302.362347,8882.471304
505.453105,888.247130,3294.210641,9104.533087
505.453430,1406.391290,2604.724693,9400.615463
505.453755,1110.308913,1608.800546,8512.368333
505.454080,592.164754,306.438199,7698.141797
505.454405,-518.144159,1762.019645,8734.430116
505.454730,-2146.597232,1762.019645,8586.388927
505.455055,-2886.803174,-153.219100,8364.327145
505.455380,-2072.576638,-689.485948,8734.430116
505.455705,-1184.329507,1302.362347,9252.574275
505.456030,-1184.329507,2987.772442,9326.594869
505.456355,0.000000,2681.334243,10732.986159
505.456680,296.082377,842.705048,9030.512492
505.457005,962.267725,229.828649,7772.162391
505.457330,592.164754,1532.190996,9770.718434
505.457655,-666.185348,2068.457845,10436.903782
505.457980,-296.082377,919.314598,9696.697840
505.458305,2146.597232,-383.047749,9400.615463
505.458630,1480.411884,1915.238745,10288.862594
505.458955,0.000000,3524.039291,8956.491898
505.459280,2960.823768,3217.601092,7698.141797
505.459605,3034.844362,995.924147,9548.656652
505.459930,962.267725,842.705048,9252.574275
505.460255,-1036.288319,2451.505594,9474.636058
505.460580,-962.267725,459.657299,9030.512492
505.460905,-1036.288319,-1608.800546,9326.594869
505.461230,296.082377,-2451.505594,10658.965565
505.461555,1184.329507,1302.362347,10214.842000
505.461880,74.020594,2604.724693,10214.842000
505.462205,222.061783,153.219100,8956.491898
505.462530,1998.556043,0.000000,7772.162391
505.462855,962.267725,1302.362347,6883.915261
505.463180,-1258.350101,1991.848295,7179.997637
505.463505,-1332.370696,612.876398,7846.182985
505.463830,-1406.391290,-842.705048,9400.615463
505.464155,-1332.370696,-1455.581446,9992.780217
505.464480,-1480.411884,-459.657299,9030.512492
505.464805,-1702.473667,0.000000,9326.594869
505.465130,-370.102971,383.047749,10214.842000
505.465455,148.041188,0.000000,11843.295072
505.465780,-1110.308913,-2451.505594,10362.883188
505.466105,-1036.288319,-1149.143247,7772.162391
505.466430,-1924.535449,0.000000,10214.842000
505.466755,-666.185348,0.000000,10955.047942
505.467080,592.164754,-1455.581446,9474.636058
505.467405,1036.288319,-842.705048,8808.450710
505.467730,1554.432478,2298.286494,9918.759623
505.468055,1110.308913,4060.306139,10066.800811
505.468380,1628.453072,229.828649,8216.285956
505.468705,740.205942,-1762.019645,7846.182985
505.469029,-592.164754,536.266849,8882.471304
505.469354,0.000000,3370.820191,9548.656652
505.469679,-148.041188,0.000000,10288.862594
505.470004,-1036.288319,-2451.505594,8660.409521
505.470329,-148.041188,-536.266849,7698.141797
505.470654,-296.082377,2451.505594,9030.512492
505.470979,-888.247130,1608.800546,8364.327145
505.471304,-592.164754,-842.705048,8512.368333
505.471629,-148.041188,0.000000,8734.430116
505.471954,-1702.473667,919.314598,9548.656652
505.472279,-1776.494261,229.828649,9030.512492
505.472604,-814.226536,-536.266849,9696.697840
505.472929,444.123565,-306.438199,9770.718434
505.473254,2368.659014,1378.971896,9992.780217
505.473579,2072.576638,2451.505594,11177.109724
505.473904,1850.514855,1991.848295,9844.739029
505.474229,2072.576638,0.000000,9104.533087
505.474554,1480.411884,0.000000,9178.553681
505.474879,148.041188,1838.629195,10362.883188
505.475204,-2220.617826,536.266849,9696.697840
505.475529,-1406.391290,-1225.752797,9474.636058
505.475854,888.247130,-1072.533697,10066.800811
505.476179,888.247130,1608.800546,9104.533087
505.476504,296.082377,2834.553343,8882.471304
505.476829,1554.432478,2834.553343,8068.244768
505.477154,1998.556043,2145.067394,7846.182985
505.477479,1850.514855,995.924147,7920.203579
505.477804,-740.205942,2145.067394,8956.491898
505.478129,-1850.514855,2221.676944,8142.265362
505.478454,1036.288319,383.047749,8438.347739
505.478779,2294.638420,-612.876398,8956.491898
505.479104,-222.061783,1608.800546,9992.780217
505.479429,0.000000,2451.505594,8290.306550
505.479754,962.267725,1838.629195,9400.615463
505.480079,370.102971,-459.657299,10214.842000
505.480404,148.041188,-153.219100,8734.430116
505.480729,-1184.329507,1149.143247,9844.739029
505.481054,-1184.329507,536.266849,10140.821405
505.481379,-1628.453072,-383.047749,11547.212695
505.481704,-2368.659014,-1915.238745,11621.233289
505.482029,-1406.391290,-689.485948,8438.347739
505.482354,-1924.535449,0.000000,8216.285956
505.482679,-666.185348,612.876398,7994.224174
505.483004,-444.123565,842.705048,10288.862594
505.483329,-1628.453072,-766.095498,9622.677246
505.483654,-2516.700203,-1149.143247,8216.285956
505.483979,-1776.494261,-536.266849,8808.450710
505.484304,-1776.494261,153.219100,8956.491898
505.484629,-666.185348,-1149.143247,10066.800811
505.484954,814.226536,-919.314598,8956.491898
505.485279,74.020594,1762.019645,10658.965565
505.485604,1332.370696,1915.238745,9622.677246
505.485929,2664.741391,995.924147,7476.080014
505.486254,1554.432478,-229.828649,7254.018232
505.486579,1110.308913,1378.971896,7772.162391
505.486904,296.082377,1455.581446,8808.450710
505.487229,296.082377,0.000000,10066.800811
505.487554,740.205942,-1838.629195,9474.636058
505.487879,1702.473667,0.000000,8956.491898
505.488204,1480.411884,3064.381992,9992.780217
505.488529,1702.473667,2451.505594,11325.150913
505.488854,1036.288319,-919.314598,9622.677246
505.489179,1036.288319,-1302.362347,7920.203579
505.489504,1036.288319,919.314598,9252.574275
505.489829,-1702.473667,1532.190996,10658.965565
505.490154,-1998.556043,0.000000,9548.656652
505.490479,-814.226536,-2221.676944,9992.780217
505.490804,0.000000,-842.705048,10140.821405
505.491129,-296.082377,1838.629195,9252.574275
505.491454,-296.082377,1608.800546,8808.450710
505.491779,740.205942,153.219100,8734.430116
505.492104,592.164754,-383.047749,8216.285956
505.492429,-814.226536,1455.581446,9474.636058
505.492754,-740.205942,1838.629195,9400.615463
505.493079,-518.144159,1378.971896,9474.636058
505.493404,2442.679609,-612.876398,10362.883188
505.493729,3330.926739,1762.019645,9696.697840
505.494054,1480.411884,4060.306139,9622.677246
505.494379,1924.535449,2451.505594,8660.409521
505.494704,2220.617826,1378.971896,8660.409521
505.495029,0.000000,1685.410096,8216.285956
505.495353,-444.123565,1991.848295,8586.388927
505.495678,-2146.597232,0.000000,8216.285956
505.496003,-2664.741391,-689.485948,9252.574275
505.496328,-888.247130,-689.485948,10584.944971
505.496653,-1258.350101,842.705048,10584.944971
505.496978,-1110.308913,1149.143247,9548.656652
505.497303,-222.061783,1455.581446,8068.244768
505.497628,-74.020594,766.095498,8660.409521
505.497953,-740.205942,459.657299,9104.533087
505.498278,-1850.514855,0.000000,8660.409521
505.498603,-3404.947333,0.000000,8660.409521
505.498928,-1850.514855,-766.095498,9622.677246
505.499253,-1998.556043,-1378.971896,9474.636058
505.499578,-2072.576638,-459.657299,9178.553681
505.499903,-148.041188,1608.800546,9622.677246
505.500228,222.061783,1455.581446,9622.677246
505.500553,222.061783,76.609550,9104.533087
505.500878,592.164754,-919.314598,8438.347739
505.501203,666.185348,766.095498,7698.141797
505.501528,592.164754,1838.629195,10140.821405
505.501853,814.226536,153.219100,10881.027347
505.502178,0.000000,-1378.971896,9474.636058
505.502503,2294.638420,-536.266849,9400.615463
505.502828,3256.906145,1838.629195,9326.594869
505.503153,1258.350101,2145.067394,9474.636058
505.503478,814.226536,-153.219100,8364.327145
505.503803,666.185348,-1225.752797,9178.553681
505.504128,-444.123565,76.609550,10436.903782
505.504453,-814.226536,536.266849,8660.409521
505.504778,-1332.370696,-2068.457845,9474.636058
505.505103,-1406.391290,-2145.067394,9252.574275
505.505428,814.226536,-76.609550,9548.656652
505.505753,1924.535449,1991.848295,9770.718434
505.506078,814.226536,2298.286494,9178.553681
505.506403,740.205942,766.095498,8734.430116
505.506728,1406.391290,459.657299,8142.265362
505.507053,1036.288319,842.705048,8660.409521
505.507378,-814.226536,383.047749,9844.739029
505.507703,-962.267725,306.438199,9770.718434
505.508028,666.185348,-383.047749,10510.924376
505.508353,1776.494261,229.828649,9622.677246
505.508678,1406.391290,2451.505594,9770.718434
505.509003,666.185348,2451.505594,8438.347739
505.509328,1036.288319,2068.457845,8586.388927
505.509653,1776.494261,536.266849,8438.347739
505.509978,888.247130,1455.581446,8438.347739
505.510303,-2442.679609,919.314598,8882.471304
505.510628,-2664.741391,306.438199,9104.533087
505.510953,-666.185348,-229.828649,10436.903782
505.511278,-1850.514855,0.000000,10584.944971
505.511603,-2442.679609,766.095498,10214.842000
505.511928,-1258.350101,2145.067394,9030.512492
505.512253,-740.205942,1225.752797,8586.388927
505.512578,-592.164754,-995.924147,8586.388927
505.512903,-1258.350101,-306.438199,8438.347739
505.513228,-1554.432478,2298.286494,8882.471304
505.513553,222.061783,1762.019645,9400.615463
505.513878,370.102971,-459.657299,10362.883188
505.514203,888.247130,-229.828649,9548.656652
505.514528,1998.556043,3370.820191,8882.471304
505.514853,3552.988522,2681.334243,9326.594869
505.515178,3108.864956,1455.581446,9770.718434
505.515503,2368.659014,76.609550,8660.409521
505.515828,1332.370696,842.705048,9474.636058
505.516153,-666.185348,612.876398,9104.533087
505.516478,-1850.514855,-383.047749,10140.821405
505.516803,-592.164754,-1225.752797,9770.718434
505.517128,518.144159,-536.266849,8586.388927
505.517453,444.123565,459.657299,9104.533087
505.517778,518.144159,2528.115143,8586.388927
505.518103,0.000000,2298.286494,9622.677246
505.518428,-1036.288319,-842.705048,7846.182985
505.518753,-1036.288319,-1762.019645,6883.915261
505.519078,-2738.761985,-229.828649,9696.697840
505.519403,-3923.091493,-383.047749,9400.615463
505.519728,-2368.659014,-2834.553343,9548.656652
505.520053,-740.205942,-2451.505594,11103.089130
505.520378,-148.041188,1302.362347,11325.150913
505.520703,0.000000,1608.800546,10140.821405
505.521028,1406.391290,459.657299,8512.368333
505.521353,1850.514855,-383.047749,9030.512492
505.521677,666.185348,1072.533697,10288.862594
505.522002,444.123565,1608.800546,10881.027347
505.522327,296.082377,-306.438199,10732.986159
505.522652,296.082377,-1685.410096,10214.842000
505.522977,1184.329507,-842.705048,10436.903782
505.523302,1998.556043,2604.724693,9030.512492
505.523627,518.144159,2987.772442,8438.347739
505.523952,1258.350101,1608.800546,8364.327145
505.524277,1554.432478,1149.143247,7550.100608
505.524602,-666.185348,1149.143247,6883.915261
505.524927,-2294.638420,919.314598,7476.080014
505.525252,-2294.638420,1302.362347,8512.368333
505.525577,-1332.370696,0.000000,10066.800811
505.525902,444.123565,-1149.143247,9326.594869
505.526227,-518.144159,0.000000,8364.327145
505.526552,-2368.659014,2987.772442,8068.244768
505.526877,1258.350101,2681.334243,7328.038826
505.527202,2220.617826,766.095498,8142.265362
505.527527,0.000000,0.000000,8512.368333
505.527852,-1850.514855,1532.190996,8290.306550
505.528177,-1184.329507,689.485948,9696.697840
505.528502,-148.041188,0.000000,11843.295072
505.528827,888.247130,-1608.800546,11177.109724
505.529152,444.123565,0.000000,10436.903782
505.529477,1776.494261,2604.724693,10807.006753
505.529802,3330.926739,2451.505594,11473.192101
505.530127,1628.453072,-689.485948,10436.903782
505.530452,592.164754,-766.095498,8290.306550
505.530777,296.082377,1608.800546,8068.244768
505.531102,1184.329507,1838.629195,9622.677246
505.531427,592.164754,459.657299,9844.739029
505.531752,296.082377,-459.657299,9326.594869
505.532077,1036.288319,1455.581446,7698.141797
505.532402,1628.453072,2987.772442,6957.935855
505.532727,1406.391290,1685.410096,7846.182985
505.533052,1184.329507,1072.533697,7698.141797
505.533377,0.000000,536.266849,8808.450710
505.533702,-1628.453072,229.828649,8808.450710
505.534027,-1924.535449,-536.266849,9326.594869
505.534352,-2220.617826,-995.924147,9918.759623
505.534677,-592.164754,-1378.971896,10214.842000
505.535002,962.267725,-153.219100,9252.574275
505.535327,0.000000,1838.629195,9844.739029
505.535652,-1332.370696,1072.533697,9992.780217
505.535977,-518.144159,0.000000,7328.038826
505.536302,-592.164754,-229.828649,8068.244768
505.536627,-1924.535449,76.609550,9326.594869
505.536952,-3330.926739,229.828649,10584.944971
505.537277,-2368.659014,-1149.143247,11103.089130
505.537602,-740.205942,-1838.629195,10584.944971
505.537927,-444.123565,-842.705048,10288.862594
505.538252,0.000000,536.266849,9104.533087
505.538577,296.082377,1608.800546,9548.656652
505.538902,296.082377,689.485948,10214.842000
505.539227,-74.020594,-383.047749,9400.615463
505.539552,-1628.453072,-306.438199,7920.203579
505.539877,-2812.782580,-536.266849,7698.141797
505.540202,-1850.514855,-995.924147,8882.471304
505.540527,296.082377,-459.657299,9104.533087
505.540852,666.185348,612.876398,9770.718434
505.541177,814.226536,1149.143247,8882.471304
505.541502,1184.329507,1762.019645,7476.080014
505.541827,2886.803174,995.924147,7698.141797
505.542152,2738.761985,689.485948,7994.224174
505.542477,296.082377,0.000000,8808.450710
505.542802,-444.123565,612.876398,10510.924376
505.543127,666.185348,0.000000,11621.233289
505.543452,518.144159,-1532.190996,11103.089130
505.543777,296.082377,-612.876398,9844.739029
505.544102,814.226536,1378.971896,9178.553681
505.544427,888.247130,3064.381992,10436.903782
505.544752,1110.308913,766.095498,10732.986159
505.545077,518.144159,-306.438199,9474.636058
505.545402,-1258.350101,919.314598,8956.491898
505.545727,-1258.350101,2145.067394,9326.594869
505.546052,296.082377,766.095498,10807.006753
505.546377,1480.411884,-306.438199,9548.656652
505.546702,2146.597232,2451.505594,9474.636058
505.547027,2812.782580,4673.182538,8586.388927
505.547352,2516.700203,4596.572988,7402.059420
505.547677,1924.535449,1991.848295,6069.688724
505.548001,1702.473667,1762.019645,5625.565159
505.548326,1036.288319,3524.039291,7402.059420
505.548651,592.164754,3370.820191,8956.491898
505.548976,148.041188,689.485948,10510.924376
505.549301,592.164754,-306.438199,10584.944971
505.549626,1184.329507,1685.410096,10140.821405
505.549951,222.061783,2681.334243,9992.780217
505.550276,-1406.391290,1838.629195,9104.533087
505.550601,-1184.329507,306.438199,9030.512492
505.550926,-1184.329507,0.000000,8290.306550
505.551251,-4071.132681,0.000000,9104.533087
505.551576,-4811.338623,-612.876398,9326.594869
505.551901,-3478.967927,-612.876398,9622.677246
505.552226,-1554.432478,-1762.019645,10140.821405
505.552551,-1184.329507,-153.219100,10510.924376
505.552876,-444.123565,1378.971896,9918.759623
505.553201,-888.247130,2604.724693,9992.780217
505.553526,1480.411884,-766.095498,7846.182985
505.553850,2590.720797,-229.828649,8364.327145
505.554175,1110.308913,1149.143247,10214.842000
505.554500,-666.185348,1608.800546,10066.800811
505.554825,-592.164754,-1378.971896,9474.636058
505.555150,296.082377,-2451.505594,10510.924376
505.555475,74.020594,-612.876398,8586.388927
505.555800,-1184.329507,1455.581446,6883.915261
505.556125,-1110.308913,689.485948,7624.121203
505.556450,-666.185348,-919.314598,8734.430116
505.556775,-1702.473667,-1915.238745,7476.080014
505.557100,-2590.720797,-1608.800546,8290.306550
505.557425,-3108.864956,-919.314598,8216.285956
505.557750,-1850.514855,-1608.800546,9252.574275
505.558075,0.000000,-2221.676944,11103.089130
505.558400,0.000000,-2145.067394,10658.965565
505.558724,-592.164754,-383.047749,10140.821405
505.559049,1406.391290,0.000000,10510.924376
505.559374,3552.988522,-229.828649,10732.986159
505.559699,2072.576638,-766.095498,10658.965565
505.560024,444.123565,-689.485948,10584.944971
505.560349,1258.350101,306.438199,10807.006753
505.560674,2812.782580,-459.657299,10214.842000
505.560999,3256.906145,0.000000,11029.068536
505.561324,2960.823768,1225.752797,10881.027347
505.561649,2516.700203,3217.601092,8882.471304
505.561974,3182.885551,3140.991542,9548.656652
505.562299,2072.576638,1455.581446,9474.636058
505.562624,888.247130,1685.410096,6809.894666
505.562949,-296.082377,2604.724693,6957.935855
505.563274,222.061783,2145.067394,7920.203579
505.563599,-1702.473667,306.438199,8586.388927
505.563923,-2738.761985,0.000000,8438.347739
505.564248,-1184.329507,1608.800546,7402.059420
505.564573,-1184.329507,3064.381992,7550.100608
505.564898,-444.123565,3524.039291,7846.182985
505.565223,-666.185348,3140.991542,9474.636058
505.565548,-518.144159,1838.629195,7624.121203
505.565873,-666.185348,1685.410096,7402.059420
505.566198,-1110.308913,1685.410096,9474.636058
505.566523,-2072.576638,2374.896044,11103.089130
505.566848,-962.267725,1455.581446,11843.295072
505.567173,962.267725,153.219100,9770.718434
505.567498,148.041188,995.924147,9918.759623
505.567823,-1184.329507,2145.067394,8660.409521
505.568148,444.123565,2604.724693,8660.409521
505.568473,1406.391290,1072.533697,9992.780217
505.568798,-444.123565,0.000000,10510.924376
505.569122,-1184.329507,842.705048,10288.862594
505.569447,74.020594,1915.238745,9030.512492
505.569772,1554.432478,306.438199,8808.450710
505.570097,1332.370696,229.828649,10436.903782
505.570422,1554.432478,1685.410096,10881.027347
505.570747,518.144159,2221.676944,9474.636058
505.571072,0.000000,-995.924147,8216.285956
505.571397,-370.102971,-1762.019645,7550.100608
505.571722,-2664.741391,153.219100,9400.615463
505.572047,-4293.194464,-536.266849,9844.739029
505.572372,-3627.009116,-3907.087040,8808.450710
505.572697,-2072.576638,-4826.401637,8290.306550
505.573022,-1110.308913,-1225.752797,8216.285956
505.573347,-1628.453072,1532.190996,8586.388927
505.573672,148.041188,0.000000,8364.327145
505.573996,1258.350101,-612.876398,8956.491898
505.574321,1998.556043,-2374.896044,8438.347739
505.574646,444.123565,-1072.533697,7476.080014
505.574971,-518.144159,-153.219100,9474.636058
505.575296,-296.082377,-153.219100,11769.274478
505.575621,592.164754,-2528.115143,12879.583391
505.575946,1480.411884,-3294.210641,11177.109724
505.576271,1702.473667,-459.657299,9770.718434
505.576596,1924.535449,2221.676944,9918.759623
505.576921,1776.494261,1149.143247,10066.800811
505.577246,296.082377,-2145.067394,9400.615463
505.577571,-740.205942,-1455.581446,9326.594869
505.577896,-814.226536,1685.410096,9474.636058
505.578221,444.123565,1149.143247,9548.656652
505.578546,74.020594,-1608.800546,9548.656652
505.578871,-740.205942,153.219100,9104.533087
505.579195,0.000000,2451.505594,9400.615463
505.579520,1776.494261,2987.772442,8216.285956
505.579845,1110.308913,1302.362347,7105.977043
505.580170,0.000000,919.314598,7105.977043
505.580495,0.000000,3064.381992,7920.203579
505.580820,296.082377,2298.286494,9474.636058
505.581145,-148.041188,306.438199,9918.759623
505.581470,296.082377,-383.047749,9770.718434
505.581795,1406.391290,2987.772442,9326.594869
505.582120,2368.659014,4826.401637,9474.636058
505.582445,1480.411884,3294.210641,9474.636058
505.582770,518.144159,1608.800546,8660.409521
505.583095,1406.391290,3217.601092,8586.388927
505.583420,370.102971,3294.210641,9844.739029
505.583745,-1924.535449,842.705048,9178.553681
505.584069,-2368.659014,-689.485948,9252.574275
505.584394,-2590.720797,-153.219100,10066.800811
505.584719,-2294.638420,1378.971896,9918.759623
505.585044,-740.205942,1762.019645,9474.636058
505.585369,-814.226536,3217.601092,9622.677246
505.585694,-2072.576638,3064.381992,9326.594869
505.586019,-592.164754,842.705048,6217.729913
505.586344,0.000000,306.438199,6735.874072
505.586669,74.020594,2451.505594,9474.636058
505.586994,-1184.329507,2451.505594,10140.821405
505.587319,0.000000,-383.047749,10584.944971
505.587644,2220.617826,-1532.190996,9252.574275
505.587969,1702.473667,995.924147,8808.450710
505.588294,518.144159,2681.334243,8068.244768
505.588619,2812.782580,1149.143247,8808.450710
505.588944,2294.638420,-536.266849,9474.636058
505.589268,444.123565,76.609550,9548.656652
505.589593,-1554.432478,-229.828649,9918.759623
505.589918,-1850.514855,-1072.533697,9104.533087
505.590243,1110.308913,-1685.410096,8882.471304
505.590568,1554.432478,-1608.800546,11103.089130
505.590893,-518.144159,-689.485948,9622.677246
505.591218,-592.164754,383.047749,9474.636058
505.591543,1332.370696,-383.047749,9992.780217
505.591868,0.000000,-2221.676944,8956.491898
505.592193,-1850.514855,-2681.334243,8142.265362
505.592518,-1110.308913,-536.266849,8882.471304
505.592843,-814.226536,0.000000,11843.295072
505.593168,-222.061783,-3140.991542,10362.883188
505.593493,74.020594,-3753.867940,9622.677246
505.593818,0.000000,153.219100,10066.800811
505.594143,1036.288319,2681.334243,9104.533087
505.594467,1850.514855,-306.438199,8956.491898
505.594792,0.000000,-2757.943793,7402.059420
505.595117,-2516.700203,-1455.581446,9178.553681
505.595442,-1924.535449,919.314598,9696.697840
505.595767,0.000000,459.657299,9400.615463
505.596092,-888.247130,-2987.772442,9918.759623
505.596417,-1332.370696,-3064.381992,8512.368333
505.596742,148.041188,1762.019645,9770.718434
505.597067,1036.288319,3524.039291,10436.903782
505.597392,592.164754,1455.581446,10140.821405
505.597717,296.082377,-1149.143247,9622.677246
505.598042,888.247130,2068.457845,8068.244768
505.598367,740.205942,2451.505594,8438.347739
505.598692,-1850.514855,919.314598,9474.636058
505.599017,-1628.453072,0.000000,9622.677246
505.599341,0.000000,2374.896044,10288.862594
505.599666,888.247130,2604.724693,9326.594869
505.599991,0.000000,2451.505594,8808.450710
505.600316,-1258.350101,2528.115143,8068.244768
505.600641,-592.164754,2681.334243,7179.997637
505.600966,-888.247130,2068.457845,7772.162391
505.601291,-1184.329507,2451.505594,9178.553681
505.601616,-222.061783,3140.991542,9548.656652
505.601941,-296.082377,1532.190996,8512.368333
505.602266,2072.576638,1149.143247,7550.100608
505.602591,3627.009116,4443.353888,9474.636058
505.602916,2516.700203,6358.592633,10584.944971
505.603241,1924.535449,3600.648841,9548.656652
505.603566,3330.926739,0.000000,8068.244768
505.603891,1258.350101,2068.457845,8734.430116
505.604216,-1480.411884,2604.724693,9252.574275
505.604540,-1924.535449,1072.533697,9252.574275
505.604865,-1480.411884,-1532.190996,9992.780217
505.605190,-592.164754,-1149.143247,10214.842000
505.605515,-740.205942,1072.533697,9400.615463
505.605840,-148.041188,2221.676944,8068.244768
505.606165,1554.432478,1915.238745,8956.491898
505.606490,1406.391290,153.219100,9252.574275
505.606815,814.226536,0.000000,9104.533087
505.607140,0.000000,76.609550,9178.553681
505.607465,-222.061783,153.219100,8882.471304
505.607790,888.247130,-612.876398,10288.862594
505.608115,1702.473667,-1685.410096,10955.047942
505.608440,1332.370696,-842.705048,10066.800811
505.608765,2368.659014,-689.485948,10658.965565
505.609090,1998.556043,536.266849,10807.006753
505.609414,1406.391290,-1532.190996,9326.594869
505.609739,0.000000,-1915.238745,8882.471304
505.610064,-1480.411884,-995.924147,9844.739029
505.610389,-1850.514855,-459.657299,9326.594869
505.610714,-1554.432478,-1685.410096,9770.718434
505.611039,-2220.617826,-3753.867940,9178.553681
505.611364,-4145.153275,-1838.629195,9104.533087
505.611689,-3256.906145,-919.314598,8586.388927
505.612014,-2738.761985,-689.485948,8956.491898
505.612339,-3256.906145,-3217.601092,8734.430116
505.612664,-3256.906145,-2451.505594,8364.327145
505.612989,-3478.967927,-1991.848295,8512.368333
505.613314,-3478.967927,-1532.190996,8586.388927
505.613639,-2220.617826,-2451.505594,9992.780217
505.613964,-222.061783,-2068.457845,10066.800811
505.614289,1702.473667,919.314598,9844.739029
505.614613,3404.947333,2068.457845,9622.677246
505.614938,3552.988522,2528.115143,9770.718434
505.615263,3330.926739,1838.629195,9474.636058
505.615588,4071.132681,1838.629195,8956.491898
505.615913,1924.535449,1608.800546,10140.821405
505.616238,1036.288319,2221.676944,10510.924376
505.616563,1110.308913,842.705048,10510.924376
505.616888,2220.617826,-459.657299,9844.739029
505.617213,1998.556043,1532.190996,10214.842000
505.617538,444.123565,3064.381992,10362.883188
505.617863,-666.185348,2757.943793,9252.574275
505.618188,1184.329507,229.828649,8660.409521
505.618513,296.082377,1302.362347,7846.182985
505.618838,-2368.659014,2681.334243,7846.182985
505.619163,-2960.823768,2145.067394,7031.956449
505.619488,-1554.432478,612.876398,9104.533087
505.619812,-370.102971,459.657299,9104.533087
505.620137,-814.226536,3217.601092,9252.574275
505.620462,-592.164754,3370.820191,8586.388927
505.620787,296.082377,3217.601092,7328.038826
505.621112,1554.432478,1532.190996,8364.327145
505.621437,1480.411884,2451.505594,8068.244768
505.621762,1110.308913,2757.943793,9178.553681
505.622087,0.000000,3140.991542,9844.739029
505.622412,1998.556043,1991.848295,10288.862594
505.622737,3627.009116,842.705048,9696.697840
505.623062,3182.885551,3064.381992,9178.553681
505.623387,2072.576638,3370.820191,9548.656652
505.623712,2590.720797,3294.210641,9696.697840
505.624037,2146.597232,1455.581446,10510.924376
505.624362,296.082377,612.876398,9252.574275
505.624686,-740.205942,689.485948,8586.388927
505.625011,-814.226536,1532.190996,8734.430116
505.625336,-1554.432478,459.657299,9696.697840
505.625661,-1480.411884,-1302.362347,9548.656652
505.625986,-1332.370696,-766.095498,8512.368333
505.626311,-2146.597232,842.705048,8364.327145
505.626636,-2664.741391,459.657299,8956.491898
505.626961,-2368.659014,-1915.238745,8142.265362
505.627286,-3256.906145,-2451.505594,9400.615463
505.627611,-4885.359217,-1302.362347,9474.636058
505.627936,-3256.906145,-1991.848295,9622.677246
505.628261,-2960.823768,-3064.381992,10140.821405
505.628586,-2220.617826,-3830.477490,9548.656652
505.628911,-148.041188,-1608.800546,8956.491898
505.629236,1332.370696,1149.143247,8956.491898
505.629561,740.205942,1225.752797,10066.800811
505.629885,888.247130,-1838.629195,9252.574275
505.630210,1776.494261,-2068.457845,8882.471304
505.630535,1406.391290,-306.438199,10658.965565
505.630860,0.000000,-689.485948,10584.944971
505.631185,-1258.350101,-2068.457845,10288.862594
505.631510,296.082377,-2834.553343,9844.739029
505.631835,2368.659014,-995.924147,9548.656652
505.632160,0.000000,459.657299,9844.739029
505.632485,-888.247130,76.609550,9474.636058
505.632810,1036.288319,-1302.362347,8290.306550
505.633135,592.164754,-1302.362347,8882.471304
505.633460,-1036.288319,76.609550,9400.615463
505.633785,-1628.453072,689.485948,8586.388927
505.634110,-1332.370696,0.000000,8512.368333
505.634435,296.082377,-1149.143247,9326.594869
505.634759,1776.494261,1072.533697,9622.677246
505.635084,1332.370696,3294.210641,9844.739029
505.635409,1110.308913,2451.505594,9770.718434
505.635734,1480.411884,153.219100,9400.615463
505.636059,1184.329507,306.438199,8364.327145
505.636384,148.041188,2068.457845,9104.533087
505.636709,-888.247130,2604.724693,9326.594869
505.637034,444.123565,995.924147,10214.842000
505.637359,1554.432478,306.438199,10214.842000
505.637684,1406.391290,2068.457845,10362.883188
505.638009,1998.556043,4519.963438,9400.615463
505.638334,2590.720797,4979.620737,7920.203579
505.638659,3182.885551,2604.724693,8512.368333
505.638984,2442.679609,2528.115143,8438.347739
505.639309,-370.102971,3524.039291,8438.347739
505.639634,-2146.597232,3064.381992,8364.327145
505.639958,-740.205942,1072.533697,8586.388927
505.640283,-222.061783,766.095498,9252.574275
505.640608,-1776.494261,2221.676944,9252.574275
505.640933,-1628.453072,2911.162892,9474.636058
505.641258,-962.267725,2374.896044,8068.244768
505.641583,-592.164754,919.314598,7846.182985
505.641908,-962.267725,1608.800546,7772.162391
505.642233,-1480.411884,2604.724693,8438.347739
505.642558,-444.123565,2221.676944,9474.636058
505.642883,-444.123565,459.657299,11473.192101
505.643208,-666.185348,-1149.143247,10362.883188
505.643533,962.267725,1225.752797,9844.739029
505.643858,2146.597232,2911.162892,9918.759623
505.644183,2516.700203,1838.629195,9400.615463
505.644508,1036.288319,-153.219100,9326.594869
505.644833,296.082377,0.000000,8364.327145
505.645157,-222.061783,1072.533697,8882.471304
505.645482,-740.205942,-306.438199,9474.636058
505.645807,-1776.494261,-1838.629195,10066.800811
505.646132,592.164754,-2298.286494,9918.759623
505.646457,1184.329507,-995.924147,9696.697840
505.646782,444.123565,76.609550,9548.656652
505.647107,-1110.308913,459.657299,9030.512492
505.647432,-1406.391290,-1149.143247,7698.141797
505.647757,-1110.308913,-2681.334243,6957.935855
505.648082,-1850.514855,-3064.381992,7550.100608
505.648407,-2812.782580,-1532.190996,9696.697840
505.648732,-2886.803174,-1302.362347,11769.274478
505.649057,-444.123565,-3677.258390,12065.356855
505.649382,666.185348,-4979.620737,10066.800811
505.649705,1036.288319,-2834.553343,9696.697840
505.650031,222.061783,1455.581446,10510.924376
505.650356,1628.453072,1072.533697,9918.759623
505.650681,2368.659014,-1685.410096,9696.697840
505.651006,1702.473667,-1991.848295,9400.615463
505.651331,-1036.288319,1225.752797,9104.533087
505.651656,-222.061783,76.609550,7254.018232
505.651981,296.082377,-1608.800546,9992.780217
505.652306,666.185348,-1455.581446,11325.150913
505.652631,-296.082377,1762.019645,10658.965565
505.652956,0.000000,1685.410096,8438.347739
505.653281,518.144159,-306.438199,7328.038826
505.653606,-296.082377,0.000000,6957.935855
505.653932,-2294.638420,2451.505594,9178.553681
505.654257,-1110.308913,2221.676944,8660.409521
505.654582,-592.164754,1455.581446,9252.574275
505.654907,1628.453072,229.828649,8438.347739
505.655232,666.185348,2987.772442,9030.512492
505.655557,518.144159,4596.572988,8586.388927
505.655882,814.226536,4213.525239,9474.636058
505.656207,1184.329507,1915.238745,9770.718434
505.656532,0.000000,1378.971896,8438.347739
505.656857,-666.185348,2528.115143,8068.244768
505.657182,-1406.391290,2681.334243,8882.471304
505.657507,-2516.700203,1302.362347,10881.027347
505.657833,-74.020594,-229.828649,10955.047942
505.658158,1406.391290,2528.115143,10140.821405
505.658483,1924.535449,5439.278036,9918.759623
505.658808,2368.659014,5362.668486,8290.306550
505.659133,1850.514855,3294.210641,7328.038826
505.659458,962.267725,1149.143247,7179.997637
505.659783,74.020594,3600.648841,7031.956449
505.660108,296.082377,2604.724693,9326.594869
505.660433,-148.041188,1149.143247,10732.986159
505.660758,-1406.391290,-842.705048,11029.068536
505.661083,0.000000,-459.657299,9770.718434
505.661408,2812.782580,2145.067394,9622.677246
505.661733,2072.576638,2604.724693,8882.471304
505.662059,2886.803174,2374.896044,9696.697840
505.662384,2590.720797,1608.800546,9400.615463
505.662709,2146.597232,1762.019645,8142.265362
505.663034,1332.370696,1608.800546,8882.471304
505.663359,0.000000,995.924147,9326.594869
505.663684,-1184.329507,0.000000,9622.677246
505.664009,148.041188,-1915.238745,8882.471304
505.664334,444.123565,-459.657299,9104.533087
505.664659,-3182.885551,0.000000,9770.718434
505.664984,-3627.009116,-536.266849,8882.471304
505.665309,-3404.947333,-3294.210641,8586.388927
505.665634,-4145.153275,-4903.011187,9326.594869
505.665960,-5107.421000,-3294.210641,10584.944971
505.666285,-5033.400406,-2911.162892,10881.027347
505.666610,-1924.535449,-3140.991542,9844.739029
505.666935,740.205942,-4136.915689,10140.821405
505.667260,1110.308913,-995.924147,10732.986159
505.667585,888.247130,1838.629195,9770.718434
505.667910,3034.844362,1378.971896,9104.533087
505.668235,3034.844362,-306.438199,8438.347739
505.668560,1110.308913,-1149.143247,9030.512492
505.668885,-1184.329507,306.438199,9696.697840
505.669210,-2146.597232,-612.876398,9030.512492
505.669535,-962.267725,-3677.258390,9474.636058
505.669861,-1036.288319,-3140.991542,9992.780217
505.670186,-1110.308913,1378.971896,10732.986159
505.670511,-1036.288319,1532.190996,9104.533087
505.670836,-222.061783,0.000000,8068.244768
505.671161,1332.370696,-2298.286494,7772.162391
505.671486,296.082377,1915.238745,7328.038826
505.671811,-1776.494261,2604.724693,8290.306550
505.672136,-666.185348,919.314598,9326.594869
505.672461,148.041188,-995.924147,10140.821405
505.672786,888.247130,-612.876398,9474.636058
505.673111,2220.617826,2298.286494,8956.491898
505.673436,2072.576638,3600.648841,9844.739029
505.673762,1554.432478,2834.553343,10436.903782
505.674087,2368.659014,306.438199,10140.821405
505.674412,888.247130,612.876398,9474.636058
505.674737,-296.082377,2221.676944,8068.244768
505.675062,444.123565,2451.505594,9252.574275
505.675387,1332.370696,1455.581446,10807.006753
505.675712,592.164754,1302.362347,9622.677246
505.676037,1036.288319,2987.772442,8882.471304
505.676362,1776.494261,4519.963438,8438.347739
505.676687,1184.329507,3830.477490,7920.203579
505.677012,666.185348,1762.019645,8290.306550
505.677337,0.000000,2451.505594,7476.080014
505.677663,-1110.308913,3064.381992,8068.244768
505.677988,-444.123565,2145.067394,8290.306550
505.678313,-518.144159,766.095498,8660.409521
505.678638,1258.350101,1608.800546,9474.636058
505.678963,2220.617826,3217.601092,10214.842000
505.679288,1998.556043,3140.991542,10584.944971
505.679613,1998.556043,2451.505594,9400.615463
505.679938,2146.597232,1225.752797,8808.450710
505.680263,1332.370696,1149.143247,9030.512492
505.680588,-962.267725,1149.143247,9030.512492
505.680913,-2442.679609,612.876398,9104.533087
505.681238,-1480.411884,-1072.533697,10214.842000
505.681564,-518.144159,-995.924147,9770.718434
505.681889,-1554.432478,766.095498,10066.800811
505.682214,-2072.576638,766.095498,9844.739029
505.682539,-2072.576638,383.047749,9030.512492
505.682864,-296.082377,-1378.971896,8290.306550
505.683189,-222.061783,-1532.190996,8734.430116
505.683514,-1924.535449,-153.219100,8956.491898
505.683839,-2146.597232,76.609550,10436.903782
505.684164,74.020594,-2068.457845,11029.068536
505.684489,74.020594,-2987.772442,10288.862594
505.684814,-1184.329507,-1838.629195,9252.574275
505.685139,-666.185348,842.705048,9696.697840
505.685465,148.041188,306.438199,8364.327145
505.685790,-1036.288319,-2221.676944,9326.594869
505.686115,-1628.453072,-3140.991542,8068.244768
505.686440,-2146.597232,-536.266849,8142.265362
505.686765,-2368.659014,-1149.143247,9178.553681
505.687090,-2294.638420,-2451.505594,9548.656652
505.687415,-740.205942,-3600.648841,10436.903782
505.687740,0.000000,-459.657299,9252.574275
505.688065,444.123565,1225.752797,8216.285956
505.688390,1406.391290,383.047749,9474.636058
505.688715,2146.597232,76.609550,8956.491898
505.689040,1998.556043,-383.047749,8364.327145
505.689366,444.123565,306.438199,8734.430116
505.689691,0.000000,-459.657299,9104.533087
505.690016,518.144159,-919.314598,10436.903782
505.690341,2146.597232,0.000000,11547.212695
505.690666,1776.494261,612.876398,11621.233289
505.690991,2072.576638,1532.190996,9918.759623
505.691316,4145.153275,2987.772442,9548.656652
505.691641,4441.235652,2604.724693,9696.697840
505.691966,1776.494261,2374.896044,7920.203579
505.692291,0.000000,1838.629195,8660.409521
505.692616,-296.082377,2145.067394,9178.553681
505.692941,-1850.514855,1149.143247,9326.594869
505.693267,-1776.494261,306.438199,7550.100608
505.693592,-740.205942,1532.190996,8068.244768
505.693917,-1924.535449,2681.334243,8142.265362
505.694242,-1776.494261,2681.334243,7402.059420
505.694567,-962.267725,1302.362347,8364.327145
505.694892,-1184.329507,1608.800546,7624.121203
505.695217,-1554.432478,2374.896044,8660.409521
505.695542,-962.267725,1302.362347,10140.821405
505.695867,-814.226536,612.876398,9622.677246
505.696192,592.164754,153.219100,10140.821405
505.696517,3108.864956,2298.286494,10140.821405
505.696842,2812.782580,4903.011187,10066.800811
505.697168,740.205942,3753.867940,9844.739029
505.697493,1480.411884,1072.533697,7920.203579
505.697818,3182.885551,1991.848295,7550.100608
505.698143,518.144159,3983.696590,9474.636058
505.698468,-1110.308913,2451.505594,9770.718434
505.698793,-814.226536,-536.266849,9474.636058
505.699118,0.000000,-1072.533697,9474.636058
505.699443,148.041188,1378.971896,10658.965565
505.699768,-814.226536,2451.505594,9622.677246
505.700093,74.020594,1302.362347,7772.162391
505.700418,666.185348,-995.924147,9326.594869
505.700743,-962.267725,-689.485948,9104.533087
505.701069,-3923.091493,383.047749,9474.636058
505.701394,-3404.947333,-2068.457845,8216.285956
505.701719,-3108.864956,-1991.848295,8734.430116
505.702044,-1332.370696,-2681.334243,9474.636058
505.702369,-444.123565,-536.266849,9548.656652
505.702694,-2368.659014,536.266849,9844.739029
505.703019,-1036.288319,229.828649,9844.739029
505.703344,1628.453072,-842.705048,8364.327145
505.703669,666.185348,-1685.410096,8734.430116
505.703994,-888.247130,-153.219100,7550.100608
505.704319,-1480.411884,-689.485948,9104.533087
505.704644,-296.082377,-2451.505594,10658.965565
505.704970,74.020594,-2757.943793,10436.903782
505.705295,296.082377,-1378.971896,9548.656652
505.705620,1258.350101,0.000000,9548.656652
505.705945,1924.535449,306.438199,10436.903782
505.706270,1924.535449,-1225.752797,11103.089130
505.706595,2072.576638,-1838.629195,10288.862594
505.706920,1036.288319,0.000000,9178.553681
505.707245,740.205942,383.047749,9696.697840
505.707570,1776.494261,-306.438199,10362.883188
505.707895,888.247130,-1915.238745,10955.047942
505.708220,-222.061783,-459.657299,10066.800811
505.708545,444.123565,1455.581446,9992.780217
505.708871,1258.350101,1608.800546,9474.636058
505.709196,-296.082377,-383.047749,8216.285956
505.709521,-1850.514855,-842.705048,7179.997637
505.709846,-2738.761985,1149.143247,8142.265362
505.710171,-3182.885551,1915.238745,8586.388927
505.710496,-1702.473667,536.266849,9030.512492
505.710821,-666.185348,-995.924147,7920.203579
505.711146,74.020594,1991.848295,7624.121203
505.711471,1036.288319,4366.744339,9252.574275
505.711796,666.185348,3600.648841,9622.677246
505.712121,518.144159,1762.019645,8808.450710
505.712446,1184.329507,1991.848295,7698.141797
505.712772,1628.453072,3140.991542,8290.306550
505.713097,74.020594,2604.724693,9326.594869
505.713422,-962.267725,1455.581446,9548.656652
505.713747,962.267725,766.095498,10288.862594
505.714072,1850.514855,2834.553343,10362.883188
505.714397,2146.597232,3983.696590,9548.656652
505.714722,1554.432478,4213.525239,9326.594869
505.715047,1850.514855,3140.991542,9844.739029
505.715372,1998.556043,2451.505594,9326.594869
505.715697,518.144159,2451.505594,9252.574275
505.716022,-1776.494261,1915.238745,9400.615463
505.716347,-1332.370696,919.314598,8512.368333
505.716673,296.082377,153.219100,10732.986159
505.716998,444.123565,1302.362347,10955.047942
505.717323,-370.102971,2451.505594,10510.924376
505.717648,2220.617826,1302.362347,9474.636058
505.717973,2960.823768,766.095498,9104.533087
505.718298,0.000000,536.266849,7994.224174
505.718623,-2368.659014,1302.362347,7476.080014
505.718948,-1998.556043,76.609550,9104.533087
505.719273,-1036.288319,0.000000,8142.265362
505.719598,-888.247130,-1149.143247,8660.409521
505.719923,-666.185348,-919.314598,8216.285956
505.720248,-1184.329507,1685.410096,7920.203579
505.720573,-1702.473667,612.876398,9474.636058
505.720899,-1628.453072,-1838.629195,9548.656652
505.721224,-1702.473667,-3524.039291,8586.388927
505.721549,-2664.741391,-1838.629195,8512.368333
505.721874,-2146.597232,-995.924147,10436.903782
505.722199,-814.226536,-2451.505594,11029.068536
505.722524,-222.061783,-3524.039291,11177.109724
505.722849,222.061783,-1455.581446,11621.233289
505.723174,1924.535449,1378.971896,10658.965565
505.723499,3108.864956,1915.238745,9622.677246
505.723824,2368.659014,-306.438199,10214.842000
505.724149,444.123565,-1378.971896,8290.306550
505.724474,-1776.494261,-76.609550,9104.533087
505.724800,-1406.391290,-536.266849,10066.800811
505.725125,-2294.638420,-2298.286494,10066.800811
505.725450,-2960.823768,-4136.915689,9474.636058
505.725775,-2368.659014,-536.266849,9104.533087
505.726100,-518.144159,766.095498,8364.327145
505.726425,-666.185348,2068.457845,8660.409521
505.726750,740.205942,-229.828649,7179.997637
505.727075,296.082377,306.438199,6587.832884
505.727400,814.226536,1762.019645,6809.894666
505.727725,74.020594,2068.457845,9252.574275
505.728050,-666.185348,383.047749,9696.697840
505.728375,740.205942,-689.485948,8068.244768
505.728701,2960.823768,229.828649,8364.327145
505.729026,2886.803174,1608.800546,11251.130318
505.729351,1110.308913,2987.772442,10584.944971
505.729676,1850.514855,-76.609550,9474.636058
505.730001,1628.453072,-1532.190996,10066.800811
505.730326,888.247130,1072.533697,10436.903782
505.730651,1258.350101,3524.039291,10732.986159
505.730976,1110.308913,1302.362347,10436.903782
505.731301,666.185348,-919.314598,9104.533087
505.731626,1924.535449,842.705048,9770.718434
505.731951,1628.453072,4749.792088,9918.759623
505.732276,592.164754,4136.915689,8586.388927
505.732602,0.000000,1225.752797,9400.615463
505.732927,888.247130,-689.485948,8734.430116
505.733252,-1998.556043,1762.019645,8956.491898
505.733577,-2072.576638,842.705048,7772.162391
505.733902,-1776.494261,0.000000,8068.244768
505.734227,-222.061783,-536.266849,9474.636058
505.734552,814.226536,1149.143247,9992.780217
505.734877,1702.473667,2221.676944,9770.718434
505.735202,1998.556043,3753.867940,8734.430116
505.735527,3627.009116,4443.353888,8882.471304
505.735852,4737.318029,2911.162892,7624.121203
505.736177,1998.556043,2987.772442,7328.038826
505.736503,-1036.288319,2834.553343,7994.224174
505.736828,-1554.432478,2374.896044,9400.615463
505.737153,-1258.350101,0.000000,9992.780217
505.737478,-2442.679609,-1302.362347,9548.656652
505.737803,-3552.988522,-229.828649,8956.491898
505.738128,-3330.926739,689.485948,8512.368333
505.738453,-2664.741391,-229.828649,9622.677246
505.738778,-2960.823768,-1762.019645,9252.574275
505.739103,-3701.029710,-612.876398,8586.388927
505.739428,-2812.782580,76.609550,8956.491898
505.739753,-1480.411884,-153.219100,9548.656652
505.740078,-370.102971,-1532.190996,9992.780217
505.740404,0.000000,0.000000,10881.027347
505.740729,1110.308913,1149.143247,10510.924376
505.741054,1924.535449,1149.143247,9844.739029
505.741379,1258.350101,-306.438199,9474.636058
505.741704,0.000000,-1149.143247,9104.533087
505.742029,-1110.308913,0.000000,9770.718434
505.742354,-1554.432478,-459.657299,9696.697840
505.742679,-2886.803174,-2221.676944,9696.697840
505.743004,-2072.576638,-3753.867940,8956.491898
505.743329,1036.288319,-1915.238745,7550.100608
505.743654,1036.288319,1532.190996,9696.697840
505.743979,1406.391290,1685.410096,9326.594869
505.744305,296.082377,-229.828649,8956.491898
505.744630,1110.308913,-1149.143247,7846.182985
505.744955,2072.576638,-229.828649,7550.100608
505.745280,1036.288319,842.705048,9178.553681
505.745605,-296.082377,-842.705048,10214.842000
505.745930,1184.329507,-1991.848295,10658.965565
505.746255,2812.782580,-1608.800546,11399.171507
505.746580,1702.473667,612.876398,11917.315666
505.746905,2738.761985,2145.067394,9992.780217
505.747230,666.185348,689.485948,10066.800811
505.747555,4219.173869,-306.438199,8512.368333
505.747880,3997.112087,2145.067394,9696.697840
505.748206,-888.247130,1991.848295,10288.862594
505.748531,-2294.638420,1149.143247,8216.285956
505.748856,-1258.350101,-1685.410096,8586.388927
505.749181,-1258.350101,-153.219100,9770.718434
505.749506,-1332.370696,1991.848295,8290.306550
505.749831,-2442.679609,2451.505594,8808.450710
505.750156,-1332.370696,1455.581446,8438.347739
505.750481,-444.123565,612.876398,8364.327145
505.750806,-1628.453072,1225.752797,7624.121203
505.751131,-1776.494261,1532.190996,7254.018232
505.751457,-1036.288319,2298.286494,7624.121203
505.751782,1184.329507,1991.848295,10362.883188
505.752107,3552.988522,2374.896044,11473.192101
505.752432,2368.659014,3600.648841,9622.677246
505.752757,1554.432478,4213.525239,8068.244768
505.753082,3775.050304,3447.429741,8586.388927
505.753408,3330.926739,3064.381992,9030.512492
505.753733,1776.494261,3447.429741,8808.450710
505.754058,74.020594,2374.896044,8956.491898
505.754383,-1406.391290,766.095498,9548.656652
505.754708,-2146.597232,153.219100,10288.862594
505.755033,-1554.432478,153.219100,10066.800811
505.755358,-2294.638420,-689.485948,8660.409521
505.755684,-3034.844362,1378.971896,8660.409521
505.756009,-1036.288319,1915.238745,11843.295072
505.756334,-1332.370696,153.219100,10436.903782
505.756659,-2442.679609,-995.924147,6439.791695
505.756984,-3034.844362,-1302.362347,7624.121203
505.757309,-2664.741391,1378.971896,10066.800811
505.757635,-2368.659014,612.876398,10362.883188
505.757960,-296.082377,-2451.505594,9770.718434
505.758285,592.164754,-1915.238745,8660.409521
505.758610,666.185348,2604.724693,9548.656652
505.758935,1776.494261,2451.505594,9622.677246
505.759260,2812.782580,-1072.533697,9400.615463
505.759585,1628.453072,-2068.457845,8734.430116
505.759911,888.247130,689.485948,9770.718434
505.760236,370.102971,1072.533697,9770.718434
505.760561,1332.370696,-1608.800546,8660.409521
505.760886,1110.308913,-3830.477490,8956.491898
505.761211,888.247130,0.000000,10732.986159
505.761536,148.041188,2451.505594,10955.047942
505.761861,148.041188,-229.828649,9178.553681
505.762187,0.000000,-3677.258390,7179.997637
505.762512,-962.267725,-1685.410096,7698.141797
505.762837,-888.247130,2145.067394,8586.388927
505.763162,-1480.411884,689.485948,10807.006753
505.763487,-1110.308913,-4136.915689,8882.471304
505.763812,-444.123565,-3294.210641,8956.491898
505.764138,1036.288319,1838.629195,11621.233289
505.764463,1258.350101,3447.429741,10955.047942
505.764788,592.164754,459.657299,9844.739029
505.765113,2294.638420,-2451.505594,8882.471304
505.765438,2146.597232,1685.410096,8438.347739
505.765763,-518.144159,3907.087040,8660.409521
505.766088,-592.164754,2145.067394,8438.347739
505.766414,962.267725,-766.095498,9400.615463
505.766739,296.082377,-229.828649,10288.862594
505.767064,888.247130,3064.381992,9770.718434
505.767389,1258.350101,3370.820191,9548.656652
505.767714,370.102971,1532.190996,7698.141797
505.768039,2146.597232,536.266849,8882.471304
505.768364,1036.288319,2374.896044,8808.450710
505.768690,-1036.288319,3370.820191,7698.141797
505.769015,-1480.411884,1302.362347,7994.224174
505.769340,-444.123565,383.047749,8364.327145
505.769665,-1036.288319,2221.676944,9992.780217
505.769990,-592.164754,2757.943793,8512.368333
505.770315,-222.061783,1991.848295,8660.409521
505.770641,148.041188,1685.410096,9400.615463
505.770966,222.061783,2068.457845,9770.718434
505.771291,-592.164754,1838.629195,9326.594869
505.771616,-1110.308913,1455.581446,8142.265362
505.771941,-740.205942,459.657299,8068.244768
505.772266,518.144159,1225.752797,10214.842000
505.772591,1702.473667,2374.896044,10955.047942
505.772917,1554.432478,1991.848295,10807.006753
505.773242,1332.370696,2298.286494,9622.677246
505.773567,1406.391290,2528.115143,9400.615463
505.773892,444.123565,1225.752797,8068.244768
505.774217,-666.185348,76.609550,6883.915261
505.774542,-1480.411884,76.609550,8660.409521
505.774867,-3108.864956,0.000000,9770.718434
505.775193,-3849.070898,-919.314598,9844.739029
505.775518,-2220.617826,-2834.553343,10140.821405
505.775843,-1036.288319,-1225.752797,9104.533087
505.776168,-814.226536,1762.019645,10362.883188
505.776493,0.000000,1225.752797,10362.883188
505.776818,296.082377,-2451.505594,8068.244768
505.777144,370.102971,-2451.505594,7846.182985
505.777469,444.123565,919.314598,10658.965565
505.777794,-2072.576638,919.314598,10658.965565
505.778119,-2442.679609,-2911.162892,8438.347739
505.778444,-666.185348,-4443.353888,9622.677246
505.778769,1036.288319,-1532.190996,9178.553681
505.779094,74.020594,1302.362347,9104.533087
505.779420,-296.082377,-1149.143247,9252.574275
505.779745,0.000000,-2681.334243,9178.553681
505.780070,518.144159,-2374.896044,10362.883188
505.780395,0.000000,-229.828649,9252.574275
505.780720,-370.102971,-536.266849,8660.409521
505.781045,518.144159,-1915.238745,9548.656652
505.781371,3182.885551,-383.047749,9992.780217
505.781696,3404.947333,842.705048,9400.615463
505.782021,1998.556043,1685.410096,8882.471304
505.782346,1406.391290,1838.629195,8438.347739
505.782671,2442.679609,995.924147,9400.615463
505.782996,1480.411884,306.438199,10288.862594
505.783321,-1184.329507,0.000000,10140.821405
505.783647,-2664.741391,-612.876398,9030.512492
505.783972,-1924.535449,-842.705048,9252.574275
505.784297,888.247130,-383.047749,9622.677246
505.784622,222.061783,2221.676944,10658.965565
505.784947,-592.164754,3907.087040,10436.903782
505.785272,370.102971,2757.943793,8438.347739
505.785597,962.267725,612.876398,7550.100608
505.785923,-1480.411884,1455.581446,7031.956449
505.786248,-1998.556043,3370.820191,7031.956449
505.786573,-2664.741391,2757.943793,9770.718434
505.786898,-1850.514855,1072.533697,10362.883188
505.787223,-814.226536,76.609550,9770.718434
505.787548,0.000000,1225.752797,8512.368333
505.787874,148.041188,3907.087040,7698.141797
505.788199,666.185348,4136.915689,9918.759623
505.788524,2368.659014,1991.848295,10510.924376
505.788849,1924.535449,1072.533697,9178.553681
505.789174,518.144159,2451.505594,8364.327145
505.789499,296.082377,3830.477490,8586.388927
505.789824,1258.350101,2757.943793,8734.430116
505.790150,1702.473667,995.924147,8660.409521
505.790475,1850.514855,1838.629195,9030.512492
505.790800,1184.329507,4596.572988,9178.553681
505.791125,1110.308913,3677.258390,8660.409521
505.791450,740.205942,919.314598,9030.512492
505.791775,-1184.329507,76.609550,9770.718434
505.792100,-1628.453072,919.314598,9104.533087
505.792426,222.061783,459.657299,9326.594869
505.792751,-740.205942,0.000000,10658.965565
505.793076,-1480.411884,-1072.533697,9400.615463
505.793401,-370.102971,536.266849,9326.594869
505.793726,1480.411884,1762.019645,9104.533087
505.794051,-296.082377,459.657299,10140.821405
505.794377,74.020594,-1225.752797,8364.327145
505.794702,0.000000,-612.876398,8586.388927
505.795027,-1628.453072,153.219100,10288.862594
505.795352,-3997.112087,-153.219100,9326.594869
505.795677,-1480.411884,-2757.943793,7920.203579
505.796002,1702.473667,-2068.457845,9844.739029
505.796327,666.185348,0.000000,10362.883188
505.796653,-962.267725,459.657299,10436.903782
505.796978,-666.185348,-919.314598,9622.677246
505.797303,-592.164754,-2451.505594,8216.285956
505.797628,518.144159,-2221.676944,8142.265362
505.797953,-222.061783,-1225.752797,7920.203579
505.798278,-2368.659014,-153.219100,8956.491898
505.798603,-1480.411884,-2374.896044,11547.212695
505.798929,-370.102971,-3524.039291,11029.068536
505.799254,1036.288319,-2145.067394,9844.739029
505.799579,740.205942,153.219100,8956.491898
505.799904,740.205942,1991.848295,9696.697840
505.800229,1924.535449,842.705048,10436.903782
505.800554,1110.308913,-1991.848295,9918.759623
505.800880,-1480.411884,-2221.676944,8660.409521
505.801205,-1850.514855,76.609550,9252.574275
505.801530,-740.205942,689.485948,10066.800811
505.801855,0.000000,-2221.676944,9622.677246
505.802180,-814.226536,-2145.067394,8882.471304
505.802505,-962.267725,1149.143247,9178.553681
505.802830,0.000000,3830.477490,8216.285956
505.803156,1258.350101,1378.971896,8586.388927
505.803481,592.164754,-459.657299,8290.306550
505.803806,-1480.411884,995.924147,8438.347739
505.804131,-1480.411884,1762.019645,8216.285956
505.804456,74.020594,995.924147,9622.677246
505.804781,814.226536,153.219100,10140.821405
505.805107,1110.308913,1762.019645,9474.636058
505.805432,1776.494261,3447.429741,10510.924376
505.805757,2590.720797,3600.648841,9992.780217
505.806082,2738.761985,2068.457845,9104.533087
505.806407,2220.617826,1838.629195,8216.285956
505.806732,2368.659014,3600.648841,8364.327145
505.807057,1184.329507,4213.525239,9622.677246
505.807383,444.123565,2681.334243,11029.068536
505.807708,814.226536,1072.533697,10066.800811
505.808033,1702.473667,2604.724693,8364.327145
505.808358,2368.659014,4519.963438,9030.512492
505.808683,1406.391290,5209.449386,10510.924376
505.809008,-296.082377,2451.505594,8586.388927
505.809333,-962.267725,995.924147,7476.080014
505.809659,-1776.494261,919.314598,7179.997637
505.809984,-3701.029710,3064.381992,7105.977043
505.810309,-3849.070898,1302.362347,8364.327145
505.810634,-2294.638420,-689.485948,8660.409521
505.810959,-1480.411884,-229.828649,9474.636058
505.811284,-1406.391290,3370.820191,9474.636058
505.811610,-1036.288319,3677.258390,8734.430116
505.811935,444.123565,0.000000,7105.977043
505.812260,814.226536,-383.047749,7920.203579
505.812585,74.020594,1991.848295,11029.068536
505.812910,-1036.288319,1838.629195,10584.944971
505.813235,-1998.556043,-2374.896044,8956.491898
505.813560,-1480.411884,-4903.011187,9104.533087
505.813886,-1184.329507,-1685.410096,11103.089130
505.814211,222.061783,1685.410096,11473.192101
505.814536,1110.308913,612.876398,10510.924376
505.814861,888.247130,-3140.991542,10214.842000
505.815186,-370.102971,-2911.162892,9030.512492
505.815511,-518.144159,-459.657299,8956.491898
505.815836,-814.226536,-306.438199,9400.615463
505.816162,-1628.453072,-2604.724693,9030.512492
505.816487,-592.164754,-4290.134789,10658.965565
505.816812,1628.453072,-1915.238745,10658.965565
505.817137,666.185348,459.657299,9400.615463
505.817462,-222.061783,-995.924147,9252.574275
505.817787,592.164754,-2451.505594,8808.450710
505.818113,1184.329507,-1072.533697,8512.368333
505.818438,222.061783,-1072.533697,8290.306550
505.818763,-518.144159,-1608.800546,7254.018232
505.819088,-1036.288319,-1608.800546,8956.491898
505.819413,74.020594,-1838.629195,9844.739029
505.819738,1554.432478,-995.924147,9622.677246
505.820063,2368.659014,-306.438199,9252.574275
505.820389,2368.659014,1838.629195,9474.636058
505.820714,3034.844362,1685.410096,10510.924376
505.821039,2368.659014,-612.876398,9400.615463
505.821364,1332.370696,-689.485948,7698.141797
505.821689,518.144159,1072.533697,9770.718434
505.822014,1258.350101,2068.457845,10436.903782
505.822339,0.000000,0.000000,10510.924376
505.822665,0.000000,-766.095498,9326.594869
505.822990,370.102971,2528.115143,9178.553681
505.823315,222.061783,4749.792088,8808.450710
505.823640,0.000000,3370.820191,9252.574275
505.823965,-2368.659014,1302.362347,11251.130318
505.824290,-3404.947333,1608.800546,9104.533087
505.824616,-1998.556043,2221.676944,8438.347739
505.824941,-1776.494261,1302.362347,8734.430116
505.825266,-1406.391290,1455.581446,8142.265362
505.825591,1776.494261,3140.991542,9992.780217
505.825916,3701.029710,4749.792088,10436.903782
505.826241,1406.391290,5745.716235,11177.109724
505.826566,0.000000,4519.963438,8068.244768
505.826892,1480.411884,2374.896044,5107.421000
505.827217,2294.638420,3447.429741,5033.400406
505.827542,370.102971,5745.716235,7772.162391
505.827867,-1110.308913,4673.182538,10807.006753
505.828192,-518.144159,306.438199,9104.533087
505.828517,592.164754,-766.095498,9252.574275
505.828843,296.082377,2451.505594,11177.109724
505.829168,-1332.370696,4060.306139,9696.697840
505.829493,-370.102971,1302.362347,9474.636058
505.829818,814.226536,-689.485948,10955.047942
505.830143,-740.205942,1225.752797,9844.739029
505.830468,-2220.617826,2298.286494,7920.203579
505.830793,-2368.659014,383.047749,6217.729913
505.831119,-2072.576638,-1685.410096,7994.224174
505.831444,-1036.288319,306.438199,10881.027347
505.831769,370.102971,2374.896044,11251.130318
505.832094,-1110.308913,383.047749,9696.697840
505.832419,-444.123565,-1991.848295,7772.162391
505.832744,592.164754,-1532.190996,8216.285956
505.833069,518.144159,-229.828649,8882.471304
505.833395,0.000000,-842.705048,9992.780217
505.833720,-518.144159,-1762.019645,12139.377449
505.834045,2072.576638,-2298.286494,10807.006753
505.834370,3404.947333,-1225.752797,8956.491898
505.834695,3034.844362,-459.657299,7698.141797
505.835020,2294.638420,2374.896044,9178.553681
505.835346,2886.803174,1608.800546,10436.903782
505.835671,2146.597232,-1915.238745,10288.862594
505.835996,0.000000,-4060.306139,9474.636058
505.836321,-3701.029710,-2604.724693,8734.430116
505.836646,-4737.318029,-1225.752797,8956.491898
505.836971,-1702.473667,-3907.087040,10066.800811
505.837296,-2072.576638,-5132.839837,9844.739029
505.837622,-2590.720797,-4290.134789,10732.986159
505.837947,-1332.370696,153.219100,9252.574275
505.838272,592.164754,536.266849,9548.656652
505.838597,0.000000,-2451.505594,9030.512492
505.838922,-1332.370696,-3140.991542,7994.224174
505.839247,-1332.370696,153.219100,9474.636058
505.839572,0.000000,2145.067394,9844.739029
505.839898,888.247130,536.266849,10140.821405
505.840223,518.144159,-2221.676944,9696.697840
505.840548,1480.411884,1455.581446,9326.594869
505.840873,2368.659014,4290.134789,10362.883188
505.841198,2442.679609,2068.457845,9696.697840
505.841523,1406.391290,-1225.752797,7624.121203
505.841849,518.144159,0.000000,8660.409521
505.842174,370.102971,4519.963438,8882.471304
505.842499,-1554.432478,2528.115143,7476.080014
505.842824,-1036.288319,-2528.115143,6439.791695
505.843149,1554.432478,-459.657299,7254.018232
505.843474,1184.329507,7277.907231,11843.295072
505.843799,592.164754,5362.668486,10732.986159
505.844125,-1036.288319,0.000000,8808.450710
505.844450,296.082377,-1225.752797,7105.977043
505.844775,0.000000,3753.867940,8216.285956
505.845100,-296.082377,4060.306139,9252.574275
505.845425,-3627.009116,842.705048,11473.192101
505.845750,-3404.947333,-1608.800546,11843.295072
505.846076,148.041188,-153.219100,8512.368333
505.846401,1036.288319,2834.553343,8438.347739
505.846726,222.061783,2604.724693,7402.059420
505.847051,-2146.597232,4673.182538,9030.512492
505.847376,1110.308913,2451.505594,11843.295072
505.847701,222.061783,842.705048,9400.615463
505.848026,-1776.494261,-536.266849,6513.812290
505.848352,-3478.967927,1072.533697,7476.080014
505.848677,-666.185348,2911.162892,9252.574275
505.849002,592.164754,-306.438199,11029.068536
505.849327,-148.041188,-2221.676944,10732.986159
505.849652,-888.247130,0.000000,8882.471304
505.849977,444.123565,3983.696590,7179.997637
505.850302,2294.638420,1915.238745,8956.491898
505.850628,-666.185348,-1149.143247,9326.594869
505.850953,-2812.782580,-1225.752797,9326.594869
505.851278,-2072.576638,-306.438199,9474.636058
505.851603,-1406.391290,-1302.362347,9030.512492
505.851928,-2368.659014,-4519.963438,9104.533087
505.852253,-3701.029710,-3064.381992,9104.533087
505.852578,-4145.153275,-459.657299,11029.068536
505.852903,-2146.597232,-612.876398,10955.047942
505.853228,-1332.370696,-3753.867940,9770.718434
505.853553,-3330.926739,-4903.011187,8438.347739
505.853878,-4589.276840,-2681.334243,7550.100608
505.854203,-4071.132681,-2145.067394,9326.594869
505.854529,-2812.782580,-4060.306139,10881.027347
505.854854,-2812.782580,-5286.058936,10214.842000
505.855179,-2516.700203,-4826.401637,8586.388927
505.855504,-1036.288319,-2221.676944,8142.265362
505.855829,518.144159,-459.657299,10214.842000
505.856154,1998.556043,-995.924147,10436.903782
505.856479,1480.411884,-2604.724693,11029.068536
505.856804,222.061783,-3140.991542,7550.100608
505.857129,0.000000,-1915.238745,9178.553681
505.857454,-740.205942,-1991.848295,11177.109724
505.857779,-2738.761985,-2604.724693,11103.089130
505.858104,-2590.720797,-4519.963438,10807.006753
505.858429,-3034.844362,-5209.449386,9400.615463
505.858754,-4293.194464,-3600.648841,9326.594869
505.859079,-3034.844362,-2145.067394,7920.203579
505.859405,-2146.597232,-153.219100,8882.471304
505.859730,-2664.741391,306.438199,9474.636058
505.860055,-3034.844362,-383.047749,9474.636058
505.860380,-3627.009116,-1838.629195,8586.388927
505.860705,-3330.926739,-1762.019645,7179.997637
505.861030,-2812.782580,-1608.800546,8364.327145
505.861355,-4071.132681,-1149.143247,10955.047942
505.861680,-3849.070898,-1532.190996,10955.047942
505.862005,-2812.782580,-2528.115143,9622.677246
505.862330,-962.267725,-2145.067394,9030.512492
505.862655,-592.164754,0.000000,7402.059420
505.862980,444.123565,2987.772442,7624.121203
505.863305,2442.679609,4136.915689,9770.718434
505.863630,3997.112087,2451.505594,9844.739029
505.863955,888.247130,1685.410096,9030.512492
505.864281,-1480.411884,1225.752797,8586.388927
505.864606,-1924.535449,842.705048,7994.224174
505.864931,-2812.782580,-995.924147,9918.759623
505.865256,-3256.906145,-2451.505594,11917.315666
505.865581,-4441.235652,-2834.553343,10807.006753
505.865906,-6069.688724,-3217.601092,8068.244768
505.866231,-5625.565159,-3140.991542,7698.141797
505.866556,-3775.050304,-1302.362347,8290.306550
505.866881,-2368.659014,766.095498,8142.265362
505.867206,0.000000,1225.752797,8808.450710
505.867531,444.123565,995.924147,8660.409521
505.867856,222.061783,1455.581446,8290.306550
505.868181,-444.123565,1072.533697,9326.594869
505.868506,-2146.597232,-995.924147,9548.656652
505.868831,-2812.782580,-3830.477490,9178.553681
505.869157,-1554.432478,-5515.887586,10881.027347
505.869482,-1998.556043,-3677.258390,12139.377449
505.869807,-3997.112087,-3447.429741,10436.903782
505.870132,-3330.926739,-4060.306139,9178.553681
505.870457,-518.144159,-3064.381992,9474.636058
505.870782,-222.061783,-842.705048,9918.759623
505.871107,-592.164754,-459.657299,8660.409521
505.871432,-666.185348,-1302.362347,8068.244768
505.871757,-2146.597232,-612.876398,7328.038826
505.872082,-2960.823768,-459.657299,8882.471304
505.872407,-4071.132681,-1762.019645,9030.512492
505.872732,-4515.256246,-3983.696590,8438.347739
505.873057,-4737.318029,-5745.716235,10066.800811
505.873382,-6587.832884,-6971.469032,12065.356855
505.873707,-8068.244768,-8044.002729,11325.150913
505.874033,-6439.791695,-9193.145976,9844.739029
505.874358,-3330.926739,-8810.098227,9992.780217
505.874683,-1998.556043,-4596.572988,11029.068536
505.875008,-148.041188,153.219100,10807.006753
505.875333,2294.638420,2374.896044,10362.883188
505.875658,3997.112087,1762.019645,9844.739029
505.875983,3404.947333,2451.505594,8142.265362
505.876308,1776.494261,3294.210641,6957.935855
505.876633,370.102971,2451.505594,7624.121203
505.876958,-2590.720797,-536.266849,8290.306550
505.877283,-6587.832884,-3217.601092,8290.306550
505.877608,-8734.430116,-5822.325785,8586.388927
505.877933,-9030.512492,-6818.249932,9696.697840
505.878258,-7402.059420,-7507.735880,10140.821405
505.878584,-5255.462188,-7277.907231,10807.006753
505.878909,-3775.050304,-4749.792088,11547.212695
505.879234,-1924.535449,-306.438199,10436.903782
505.879559,1924.535449,2145.067394,9030.512492
505.879884,4219.173869,2145.067394,8068.244768
505.880209,5255.462188,3753.867940,7624.121203
505.880534,6661.853478,7201.297681,9030.512492
505.880859,6291.750507,7584.345430,9030.512492
505.881184,3849.070898,5362.668486,8808.450710
505.881509,1776.494261,2681.334243,8142.265362
505.881834,-2886.803174,1685.410096,7476.080014
505.882159,-6735.874072,0.000000,7105.977043
505.882484,-8808.450710,-2451.505594,8512.368333
505.882809,-10955.047942,-4366.744339,9252.574275
505.883134,-12361.439231,-6894.859482,8216.285956
505.883460,-11029.068536,-7124.688131,8438.347739
505.883785,-8586.388927,-6435.202183,9178.553681
505.884110,-5255.462188,-3217.601092,10288.862594
505.884435,-1480.411884,-153.219100,10881.027347
505.884760,3108.864956,1838.629195,11177.109724
505.885085,7624.121203,3753.867940,10288.862594
505.885410,8586.388927,5056.230287,8882.471304
505.885735,7994.224174,5975.544884,8512.368333
505.886060,6883.915261,4903.011187,9474.636058
505.886385,5181.441594,2451.505594,9696.697840
505.886710,2146.597232,536.266849,10510.924376
505.887035,-2368.659014,-1915.238745,10584.944971
505.887360,-5847.626942,-4060.306139,9696.697840
505.887685,-6883.915261,-5286.058936,9548.656652
505.888010,-8216.285956,-6971.469032,9696.697840
505.888336,-9992.780217,-7354.516781,9252.574275
505.888661,-9548.656652,-7354.516781,8068.244768
505.888986,-6957.935855,-6052.154434,7624.121203
505.889311,-5033.400406,-3753.867940,8364.327145
505.889636,-3997.112087,-1302.362347,8290.306550
505.889961,-2738.761985,-689.485948,8216.285956
505.890286,-888.247130,-536.266849,8216.285956
505.890611,222.061783,-1072.533697,8734.430116
505.890936,-592.164754,-612.876398,8956.491898
505.891261,-1776.494261,-1608.800546,8438.347739
505.891586,-2442.679609,-2911.162892,9474.636058
505.891911,-3034.844362,-4519.963438,11177.109724
505.892236,-3256.906145,-5362.668486,12065.356855
505.892561,-3775.050304,-6435.202183,12213.398043
505.892886,-4293.194464,-6971.469032,10881.027347
505.893212,-3552.988522,-7048.078582,11029.068536
505.893537,-1258.350101,-5515.887586,11399.171507
505.893862,-444.123565,-2374.896044,10955.047942
505.894187,296.082377,-459.657299,9918.759623
505.894512,1554.432478,229.828649,9030.512492
505.894837,1924.535449,766.095498,8734.430116
505.895162,1332.370696,2145.067394,7698.141797
505.895487,518.144159,2681.334243,7031.956449
505.895812,-370.102971,1072.533697,7105.977043
505.896137,-1554.432478,76.609550,7402.059420
505.896462,-2442.679609,0.000000,7994.224174
505.896787,-4663.297435,-1302.362347,8438.347739
505.897112,-5773.606348,-1915.238745,7698.141797
505.897437,-5033.400406,-3677.258390,9474.636058
505.897763,-4589.276840,-3830.477490,10436.903782
505.898088,-4885.359217,-2757.943793,10066.800811
505.898413,-3775.050304,-2145.067394,9992.780217
505.898738,-1924.535449,-1149.143247,9918.759623
505.899063,-518.144159,1378.971896,10140.821405
505.899388,1406.391290,2068.457845,10362.883188
505.899713,2146.597232,3140.991542,9474.636058
505.900038,2072.576638,3140.991542,8956.491898
505.900363,1628.453072,2987.772442,8808.450710
505.900688,2072.576638,3064.381992,9178.553681
505.901013,1036.288319,3524.039291,9326.594869
505.901338,-370.102971,2145.067394,9474.636058
505.901663,-888.247130,995.924147,9474.636058
505.901988,-1184.329507,536.266849,9548.656652
505.902313,-2664.741391,766.095498,9844.739029
505.902639,-3701.029710,153.219100,9104.533087
505.902964,-3256.906145,-1225.752797,8586.388927
505.903289,-3256.906145,-919.314598,8438.347739
505.903614,-2516.700203,842.705048,8734.430116
505.903939,-2516.700203,766.095498,8068.244768
505.904264,-3330.926739,153.219100,7328.038826
505.904589,-2812.782580,76.609550,7624.121203
505.904914,-592.164754,689.485948,7994.224174
505.905239,888.247130,1455.581446,7179.997637
505.905564,-444.123565,1225.752797,7476.080014
505.905889,-962.267725,0.000000,8364.327145
505.906214,-740.205942,-842.705048,9030.512492
505.906539,-296.082377,-1072.533697,10510.924376
505.906864,-888.247130,-2298.286494,11843.295072
505.907189,-2368.659014,-2987.772442,11991.336260
505.907515,-2368.659014,-3217.601092,11843.295072
505.907840,-1776.494261,-3217.601092,12065.356855
505.908165,-2220.617826,-2987.772442,11991.336260
505.908490,-3849.070898,-3677.258390,10658.965565
505.908815,-4071.132681,-2451.505594,9400.615463
505.909140,-3627.009116,-2221.676944,9400.615463
505.909465,-3923.091493,-2604.724693,9400.615463
505.909790,-5699.585753,-3140.991542,7772.162391
505.910115,-6587.832884,-3830.477490,5921.647536
505.910440,-6217.729913,-4596.572988,5921.647536
505.910765,-4959.379811,-4443.353888,7179.997637
505.911090,-4219.173869,-3983.696590,7550.100608
505.911415,-5403.503377,-5209.449386,7402.059420
505.911740,-4293.194464,-5898.935335,7920.203579
505.912065,-1332.370696,-5745.716235,9474.636058
505.912391,148.041188,-4903.011187,10140.821405
505.912716,518.144159,-4060.306139,10658.965565
505.913041,1184.329507,-3524.039291,10881.027347
505.913366,3404.947333,-3753.867940,11843.295072
505.913691,3404.947333,-3600.648841,11917.315666
505.914016,1924.535449,-2681.334243,11843.295072
505.914341,222.061783,-3370.820191,11029.068536
505.914666,-666.185348,-3983.696590,10881.027347
505.914991,-1702.473667,-4366.744339,11843.295072
505.915316,-4219.173869,-4826.401637,11547.212695
505.915641,-6291.750507,-5745.716235,9030.512492
505.915966,-6883.915261,-6511.811733,8586.388927
505.916291,-6217.729913,-5975.544884,9474.636058
505.916616,-6587.832884,-4290.134789,9326.594869
505.916941,-6587.832884,-3140.991542,8586.388927
505.917267,-5403.503377,-2604.724693,7031.956449
505.917592,-3627.009116,-1762.019645,7105.977043
505.917917,-2146.597232,-612.876398,7476.080014
505.918242,-1850.514855,919.314598,7105.977043
505.918567,-2294.638420,995.924147,7624.121203
505.918892,-814.226536,536.266849,8216.285956
505.919217,-296.082377,919.314598,9400.615463
505.919542,-888.247130,1455.581446,9178.553681
505.919867,-666.185348,689.485948,9178.553681
505.920192,-1110.308913,153.219100,10214.842000
505.920517,-666.185348,612.876398,10955.047942
505.920842,592.164754,2374.896044,10807.006753
505.921167,148.041188,1838.629195,10140.821405
505.921492,296.082377,2221.676944,9474.636058
505.921818,1702.473667,3600.648841,9992.780217
505.922143,1776.494261,4826.401637,9548.656652
505.922468,518.144159,4673.182538,8808.450710
505.922793,1036.288319,3830.477490,7846.182985
505.923118,-296.082377,4213.525239,8734.430116
505.923443,-2812.782580,2911.162892,8808.450710
505.923768,-4811.338623,995.924147,7550.100608
505.924093,-6217.729913,-1072.533697,7402.059420
505.924418,-6661.853478,-612.876398,7772.162391
505.924743,-5773.606348,-1915.238745,8808.450710
505.925068,-4959.379811,-1532.190996,9326.594869
505.925393,-3627.009116,-995.924147,7846.182985
505.925718,-1406.391290,76.609550,8586.388927
505.926043,888.247130,1608.800546,9030.512492
505.926368,1628.453072,2681.334243,8586.388927
505.926694,1850.514855,1762.019645,8808.450710
505.927019,2516.700203,1072.533697,8808.450710
505.927344,592.164754,-459.657299,9252.574275
505.927669,-1554.432478,-1225.752797,10140.821405
505.927994,-2886.803174,-3217.601092,9992.780217
505.928319,-3108.864956,-4596.572988,10436.903782
505.928644,-3404.947333,-6205.373534,11695.253884
505.928969,-3997.112087,-6281.983084,11991.336260
505.929294,-3404.947333,-5975.544884,11177.109724
505.929619,-2368.659014,-5362.668486,10658.965565
505.929944,-1110.308913,-4903.011187,10436.903782
505.930269,-2294.638420,-4136.915689,10140.821405
505.930594,-2590.720797,-3983.696590,9548.656652
505.930919,-2368.659014,-4060.306139,9104.533087
505.931244,-1628.453072,-3677.258390,9252.574275
505.931570,-2960.823768,-3600.648841,8808.450710
505.931895,-5107.421000,-3677.258390,8068.244768
505.932220,-5551.544565,-5132.839837,8512.368333
505.932545,-6291.750507,-6894.859482,8586.388927
505.932870,-7328.038826,-7507.735880,8660.409521
505.933195,-7846.182985,-7967.393179,8660.409521
505.933520,-6291.750507,-7507.735880,8512.368333
505.933845,-3330.926739,-5592.497135,9918.759623
505.934170,-2294.638420,-5209.449386,12287.418637
505.934495,-2368.659014,-5592.497135,10658.965565
505.934820,-666.185348,-5515.887586,10362.883188
505.935145,2294.638420,-3447.429741,11177.109724
505.935470,2812.782580,-76.609550,11473.192101
505.935795,2590.720797,153.219100,10658.965565
505.936120,3701.029710,612.876398,9770.718434
505.936446,2516.700203,1915.238745,8956.491898
505.936771,592.164754,2834.553343,7994.224174
505.937096,-1184.329507,2221.676944,7105.977043
505.937421,-2664.741391,1532.190996,7179.997637
505.937746,-4811.338623,995.924147,7772.162391
505.938071,-7254.018232,-1072.533697,9030.512492
505.938396,-9770.718434,-2911.162892,8882.471304
505.938721,-10955.047942,-5286.058936,7476.080014
505.939046,-10584.944971,-7048.078582,8216.285956
505.939371,-8734.430116,-6052.154434,9918.759623
505.939696,-5255.462188,-1915.238745,10807.006753
505.940021,-370.102971,919.314598,9992.780217
505.940346,3034.844362,2145.067394,9844.739029
505.940671,5181.441594,4366.744339,8438.347739
505.940996,7698.141797,8656.879127,8068.244768
505.941322,9844.739029,10572.117872,7254.018232
505.941647,10436.903782,8886.707777,7328.038826
505.941972,7254.018232,7737.564530,8068.244768
505.942297,2368.659014,6511.811733,9696.697840
505.942622,-2368.659014,2451.505594,9474.636058
505.942947,-6661.853478,-3217.601092,8216.285956
505.943272,-9770.718434,-5898.935335,9030.512492
505.943597,-11251.130318,-6665.030833,10214.842000
505.943922,-10955.047942,-6205.373534,10807.006753
505.944247,-8438.347739,-6128.763984,9918.759623
505.944572,-5181.441594,-5592.497135,9918.759623
505.944897,-2294.638420,-1532.190996,8068.244768
505.945222,2294.638420,4060.306139,6735.874072
505.945547,7402.059420,5439.278036,9474.636058
505.945873,7179.997637,5132.839837,10658.965565
505.946198,4515.256246,3140.991542,9844.739029
505.946523,3256.906145,1685.410096,8216.285956
505.946848,592.164754,229.828649,8364.327145
505.947173,-1776.494261,-2451.505594,9326.594869
505.947498,-5033.400406,-4519.963438,10584.944971
505.947823,-6957.935855,-6281.983084,11769.274478
505.948148,-8216.285956,-8120.612279,10140.821405
505.948473,-7698.141797,-8963.317327,8586.388927
505.948798,-6217.729913,-7431.126331,8068.244768
505.949123,-5625.565159,-3524.039291,8882.471304
505.949448,-4219.173869,-3140.991542,10214.842000
505.949773,-1184.329507,-4060.306139,9252.574275
505.950098,888.247130,-4903.011187,9548.656652
505.950423,1258.350101,-1302.362347,9918.759623
505.950749,1998.556043,1149.143247,10066.800811
505.951074,3923.091493,-153.219100,11473.192101
505.951399,4145.153275,-2451.505594,10066.800811
505.951724,2442.679609,-1608.800546,9696.697840
505.952049,666.185348,0.000000,9326.594869
505.952374,-1184.329507,0.000000,8364.327145
505.952699,-2590.720797,-3753.867940,9844.739029
505.953024,-4145.153275,-4903.011187,10732.986159
505.953349,-6735.874072,-4290.134789,9918.759623
505.953675,-8290.306550,-4673.182538,8364.327145
505.954000,-5995.668130,-5745.716235,8364.327145
505.954325,-3627.009116,-4213.525239,10955.047942
505.954650,-2812.782580,459.657299,9326.594869
505.954975,-962.267725,1072.533697,8586.388927
505.955300,1702.473667,842.705048,8438.347739
505.955625,1332.370696,1762.019645,7105.977043
505.955950,1554.432478,3217.601092,7179.997637
505.956276,2590.720797,3140.991542,8142.265362
505.956601,2590.720797,2145.067394,8956.491898
505.956926,1554.432478,2757.943793,10362.883188
505.957251,2368.659014,3217.601092,10881.027347
505.957576,2960.823768,3830.477490,9474.636058
505.957901,2220.617826,2911.162892,9918.759623
505.958226,888.247130,2451.505594,11029.068536
505.958551,-592.164754,2681.334243,10362.883188
505.958877,-1702.473667,995.924147,8956.491898
505.959202,-2738.761985,-919.314598,7772.162391
505.959527,-4071.132681,0.000000,8290.306550
505.959852,-2664.741391,2528.115143,9474.636058
505.960177,-1702.473667,1378.971896,9622.677246
505.960502,-1406.391290,0.000000,9178.553681
505.960827,-1036.288319,2681.334243,9622.677246
505.961152,666.185348,5745.716235,8956.491898
505.961478,1998.556043,4290.134789,7624.121203
505.961803,3108.864956,2528.115143,5551.544565
505.962128,2368.659014,4596.572988,6957.935855
505.962453,3108.864956,5745.716235,9326.594869
505.962778,2812.782580,3064.381992,9104.533087
505.963103,2886.803174,459.657299,9030.512492
505.963428,3627.009116,1915.238745,9400.615463
505.963754,2590.720797,2528.115143,10214.842000
505.964079,1998.556043,2068.457845,9696.697840
505.964404,2368.659014,229.828649,9474.636058
505.964729,2072.576638,-766.095498,8956.491898
505.965054,-444.123565,383.047749,8808.450710
505.965379,222.061783,1149.143247,8882.471304
505.965704,2368.659014,1762.019645,10066.800811
505.966029,1702.473667,1455.581446,10881.027347
505.966355,-444.123565,612.876398,9474.636058
505.966680,-370.102971,1685.410096,8660.409521
505.967005,-888.247130,1149.143247,8216.285956
505.967330,-1924.535449,-995.924147,9474.636058
505.967655,-3627.009116,-3140.991542,9770.718434
505.967980,-4959.379811,-3753.867940,9622.677246
505.968305,-7402.059420,-3217.601092,10214.842000
505.968630,-6143.709319,-4903.011187,10510.924376
505.968956,-3034.844362,-5515.887586,9474.636058
505.969281,-1110.308913,-3524.039291,9622.677246
505.969606,-296.082377,-612.876398,10807.006753
505.969931,3182.885551,1608.800546,10658.965565
505.970256,5033.400406,536.266849,10214.842000
505.970581,4219.173869,0.000000,8660.409521
505.970906,3034.844362,1072.533697,6661.853478
505.971232,4367.215058,3677.258390,7031.956449
505.971557,5403.503377,2528.115143,8586.388927
505.971882,1110.308913,-229.828649,10288.862594
505.972207,-740.205942,-1225.752797,8512.368333
505.972532,-1258.350101,536.266849,9326.594869
505.972857,-2516.700203,0.000000,10436.903782
505.973182,-5033.400406,-2374.896044,9548.656652
505.973507,-5699.585753,-4213.525239,8290.306550
505.973833,-5181.441594,-3907.087040,8438.347739
505.974158,-4293.194464,-1149.143247,9992.780217
505.974483,-3997.112087,229.828649,10881.027347
505.974808,-1924.535449,-459.657299,10584.944971
505.975133,-296.082377,-1072.533697,9252.574275
505.975458,0.000000,919.314598,9474.636058
505.975783,2516.700203,4519.963438,11621.233289
505.976108,2368.659014,3907.087040,9992.780217
505.976434,1332.370696,689.485948,7105.977043
505.976759,0.000000,766.095498,7772.162391
505.977084,0.000000,3447.429741,8808.450710
505.977409,592.164754,3217.601092,9400.615463
505.977734,1110.308913,766.095498,9918.759623
505.978059,2220.617826,1225.752797,8956.491898
505.978384,4219.173869,4519.963438,9252.574275
505.978710,4441.235652,4290.134789,10140.821405
505.979035,2220.617826,2374.896044,8808.450710
505.979360,1628.453072,1378.971896,7476.080014
505.979685,2442.679609,2451.505594,8586.388927
505.980010,1850.514855,4060.306139,9400.615463
505.980335,962.267725,3753.867940,9326.594869
505.980660,1554.432478,2451.505594,9326.594869
505.980985,1406.391290,1149.143247,8216.285956
505.981311,0.000000,2681.334243,7550.100608
505.981636,370.102971,4443.353888,8586.388927
505.981961,-148.041188,3370.820191,8734.430116
505.982286,-962.267725,229.828649,8956.491898
505.982611,-666.185348,-919.314598,9622.677246
505.982936,-2368.659014,612.876398,9992.780217
505.983261,-3627.009116,306.438199,9474.636058
505.983586,-1480.411884,-766.095498,9474.636058
505.983912,814.226536,-842.705048,10214.842000
505.984237,370.102971,1225.752797,10510.924376
505.984562,1258.350101,2681.334243,10288.862594
505.984887,1998.556043,2068.457845,9474.636058
505.985212,1406.391290,459.657299,8882.471304
505.985537,814.226536,-1072.533697,8068.244768
505.985862,592.164754,153.219100,8364.327145
505.986188,518.144159,2068.457845,9548.656652
505.986513,740.205942,229.828649,9770.718434
505.986838,2146.597232,-1685.410096,8956.491898
505.987163,518.144159,0.000000,10140.821405
505.987488,-1628.453072,1378.971896,9696.697840
505.987813,-814.226536,-383.047749,8216.285956
505.988138,-1776.494261,-3524.039291,7846.182985
505.988463,-3404.947333,-3064.381992,8438.347739
505.988789,-4737.318029,-842.705048,8808.450710
505.989114,-4589.276840,-1762.019645,10214.842000
505.989439,-2442.679609,-4366.744339,10066.800811
505.989764,-2664.741391,-4979.620737,10436.903782
505.990089,-962.267725,-1455.581446,10362.883188
505.990414,1702.473667,2757.943793,10140.821405
505.990739,2368.659014,766.095498,10288.862594
505.991064,1036.288319,-1608.800546,9400.615463
505.991390,1332.370696,-1455.581446,7624.121203
505.991715,1702.473667,2451.505594,8882.471304
505.992040,1554.432478,1532.190996,9474.636058
505.992365,296.082377,-1685.410096,10140.821405
505.992690,74.020594,-1762.019645,10584.944971
505.993015,814.226536,229.828649,9474.636058
505.993340,-148.041188,1378.971896,9252.574275
505.993666,-296.082377,383.047749,8142.265362
505.993991,-444.123565,-306.438199,8512.368333
505.994316,-444.123565,0.000000,8660.409521
505.994641,-1332.370696,766.095498,9030.512492
505.994966,-1850.514855,306.438199,9622.677246
505.995291,-1998.556043,0.000000,9548.656652
505.995616,296.082377,536.266849,9548.656652
505.995941,2960.823768,2374.896044,9104.533087
505.996267,1036.288319,3753.867940,9474.636058
505.996592,-222.061783,2681.334243,8956.491898
505.996917,888.247130,1608.800546,8290.306550
505.997242,740.205942,1455.581446,7550.100608
505.997567,-1036.288319,2068.457845,8660.409521
505.997892,-1554.432478,1685.410096,9770.718434
505.998217,-962.267725,1532.190996,10066.800811
505.998542,666.185348,459.657299,10658.965565
505.998868,2294.638420,1608.800546,10732.986159
505.999193,888.247130,3753.867940,9844.739029
505.999518,1332.370696,3217.601092,9030.512492
505.999843,1776.494261,1608.800546,9030.512492
506.000168,1332.370696,1149.143247,7772.162391
506.000493,0.000000,2451.505594,7105.977043
506.000818,222.061783,3217.601092,7476.080014
506.001143,1628.453072,2528.115143,9030.512492
506.001469,2442.679609,1378.971896,10140.821405
506.001794,1628.453072,1608.800546,9696.697840
506.002119,222.061783,2987.772442,8438.347739
506.002444,1110.308913,3294.210641,7994.224174
506.002769,1702.473667,995.924147,9030.512492
506.003094,518.144159,0.000000,8512.368333
506.003419,-2590.720797,383.047749,9622.677246
506.003745,-3627.009116,-766.095498,9474.636058
506.004070,-3108.864956,-1455.581446,9992.780217
506.004395,-1924.535449,-2757.943793,9918.759623
506.004720,-1480.411884,-1762.019645,10584.944971
506.005045,-2294.638420,-229.828649,10584.944971
506.005370,-2220.617826,306.438199,11769.274478
506.005695,-962.267725,-1532.190996,10362.883188
506.006020,-370.102971,-2451.505594,7772.162391
506.006346,-592.164754,-766.095498,8290.306550
506.006671,-222.061783,1378.971896,8734.430116
506.006996,1258.350101,0.000000,10214.842000
506.007321,2590.720797,-1608.800546,10658.965565
506.007646,1850.514855,-229.828649,9844.739029
506.007971,1184.329507,2068.457845,8142.265362
506.008296,1850.514855,1455.581446,7698.141797
506.008621,0.000000,-842.705048,7772.162391
506.008947,-296.082377,-1915.238745,7624.121203
506.009272,-1480.411884,-229.828649,9104.533087
506.009597,-2442.679609,-306.438199,9326.594869
506.009922,-2738.761985,-2451.505594,9326.594869
506.010247,-1554.432478,-2528.115143,10066.800811
506.010572,0.000000,-995.924147,9992.780217
506.010897,444.123565,536.266849,9992.780217
506.011223,-222.061783,1302.362347,10288.862594
506.011548,-592.164754,76.609550,9770.718434
506.011873,0.000000,-2451.505594,8660.409521
506.012198,-1406.391290,-995.924147,9178.553681
506.012523,-2886.803174,1225.752797,10066.800811
506.012848,-2146.597232,153.219100,9770.718434
506.013173,222.061783,-1685.410096,9992.780217
506.013498,296.082377,-459.657299,11251.130318
506.013824,-444.123565,2681.334243,9844.739029
506.014149,0.000000,1991.848295,8068.244768
506.014474,1332.370696,-459.657299,7846.182985
506.014799,1776.494261,1225.752797,8734.430116
506.015124,-370.102971,2681.334243,9918.759623
506.015449,-1036.288319,2374.896044,8734.430116
506.015774,740.205942,0.000000,9178.553681
506.016099,1406.391290,919.314598,9474.636058
506.016425,1702.473667,2911.162892,8734.430116
506.016750,-592.164754,2604.724693,7994.224174
506.017075,-296.082377,1532.190996,7624.121203
506.017400,1036.288319,2068.457845,9770.718434
