#time,accel_x,accel_y,accel_z
16352.572126,444.123565,766.095498,8956.491898
16352.572451,-296.082377,842.705048,9400.615463
16352.572775,0.000000,995.924147,9326.594869
16352.573100,74.020594,919.314598,9400.615463
16352.573424,-148.041188,536.266849,9178.553681
16352.573749,-518.144159,689.485948,9770.718434
16352.574074,-518.144159,842.705048,9474.636058
16352.574398,-1036.288319,0.000000,8882.471304
16352.574723,-444.123565,229.828649,9252.574275
16352.575047,0.000000,689.485948,9474.636058
16352.575372,0.000000,612.876398,9474.636058
16352.575697,0.000000,536.266849,9178.553681
16352.576021,888.247130,689.485948,9252.574275
16352.576346,1036.288319,689.485948,9326.594869
16352.576670,370.102971,0.000000,9622.677246
16352.576995,148.041188,766.095498,9252.574275
16352.577320,592.164754,459.657299,8808.450710
16352.577644,518.144159,383.047749,9252.574275
16352.577969,-296.082377,536.266849,9474.636058
16352.578293,0.000000,306.438199,9030.512492
16352.578618,444.123565,459.657299,8660.409521
16352.578943,592.164754,919.314598,9400.615463
16352.579267,592.164754,1225.752797,9622.677246
16352.579592,0.000000,842.705048,8956.491898
16352.579916,1332.370696,1225.752797,8956.491898
16352.580241,1776.494261,1455.581446,9548.656652
16352.580565,740.205942,1378.971896,9474.636058
16352.580890,-148.041188,842.705048,9326.594869
16352.581215,1480.411884,1608.800546,9104.533087
16352.581539,1924.535449,1225.752797,9104.533087
16352.581864,296.082377,1072.533697,9770.718434
16352.582188,888.247130,1455.581446,9400.615463
16352.582513,1480.411884,1838.629195,9474.636058
16352.582838,2220.617826,2221.676944,9696.697840
16352.583162,2294.638420,2221.676944,9474.636058
16352.583487,2294.638420,2298.286494,9474.636058
16352.583811,2812.782580,2987.772442,9474.636058
16352.584136,3997.112087,3064.381992,9474.636058
16352.584461,3701.029710,2911.162892,9400.615463
16352.584785,2516.700203,3217.601092,9178.553681
16352.585110,2812.782580,3447.429741,9252.574275
16352.585434,3478.967927,3294.210641,8882.471304
16352.585759,2590.720797,3677.258390,9252.574275
16352.586084,1628.453072,3600.648841,8142.265362
16352.586408,1480.411884,3907.087040,8290.306550
16352.586733,1850.514855,3524.039291,8142.265362
16352.587057,1776.494261,3600.648841,8808.450710
16352.587382,1258.350101,3370.820191,8956.491898
16352.587707,666.185348,3064.381992,9252.574275
16352.588031,1554.432478,3524.039291,8808.450710
16352.588356,2072.576638,3983.696590,9474.636058
16352.588680,1924.535449,2911.162892,9992.780217
16352.589005,1036.288319,2987.772442,9474.636058
16352.589330,1998.556043,3677.258390,9696.697840
16352.589654,2812.782580,3524.039291,9474.636058
16352.589979,2368.659014,3294.210641,9770.718434
16352.590303,2220.617826,3677.258390,9252.574275
16352.590628,2812.782580,4213.525239,9030.512492
16352.590953,3256.906145,3830.477490,9400.615463
16352.591277,2960.823768,3600.648841,9548.656652
16352.591602,3404.947333,3524.039291,9326.594869
16352.591926,3330.926739,3447.429741,9178.553681
16352.592251,4219.173869,3907.087040,9104.533087
16352.592576,4663.297435,4136.915689,9252.574275
16352.592900,2368.659014,3447.429741,8734.430116
16352.593225,3034.844362,3370.820191,8660.409521
16352.593549,2590.720797,2987.772442,8660.409521
16352.593874,1702.473667,2221.676944,8882.471304
16352.594199,1036.288319,1762.019645,9104.533087
16352.594523,518.144159,1838.629195,8660.409521
16352.594848,962.267725,1915.238745,9104.533087
16352.595172,1702.473667,2911.162892,8364.327145
16352.595497,1776.494261,2145.067394,9326.594869
16352.595821,1628.453072,2221.676944,9252.574275
16352.596146,2812.782580,2757.943793,9474.636058
16352.596471,4145.153275,2604.724693,9992.780217
16352.596795,3552.988522,1991.848295,10732.986159
16352.597120,1924.535449,1302.362347,10881.027347
16352.597444,1924.535449,1608.800546,11103.089130
16352.597769,2294.638420,383.047749,11621.233289
16352.598094,444.123565,76.609550,11029.068536
16352.598418,-370.102971,612.876398,10214.842000
16352.598743,0.000000,1225.752797,8734.430116
16352.599067,1184.329507,1762.019645,7624.121203
16352.599392,1850.514855,2451.505594,6587.832884
16352.599717,2368.659014,3983.696590,6217.729913
16352.600041,2738.761985,4213.525239,5477.523971
16352.600366,3627.009116,3830.477490,5403.503377
16352.600690,3034.844362,3830.477490,6883.915261
16352.601015,814.226536,2834.553343,8364.327145
16352.601340,-592.164754,1072.533697,10288.862594
16352.601664,-1702.473667,-306.438199,12287.418637
16352.601989,-3923.091493,-2451.505594,13693.809927
16352.602313,-4441.235652,-2987.772442,13989.892304
16352.602638,-3552.988522,-2834.553343,13619.789333
16352.602963,-814.226536,-766.095498,12879.583391
16352.603287,2886.803174,1762.019645,11547.212695
16352.603612,5921.647536,4136.915689,9622.677246
16352.603936,8734.430116,6511.811733,7328.038826
16352.604261,10881.027347,7890.783629,5255.462188
16352.604586,11325.150913,9116.536426,5403.503377
16352.604910,9548.656652,7660.954980,5995.668130
16352.605235,5921.647536,5975.544884,7179.997637
16352.605559,3627.009116,4060.306139,7920.203579
16352.605884,1850.514855,2451.505594,9400.615463
16352.606209,-666.185348,1378.971896,9992.780217
16352.606533,-1554.432478,1072.533697,10140.821405
16352.606858,-1702.473667,1072.533697,9474.636058
16352.607182,0.000000,2221.676944,9178.553681
16352.607507,1406.391290,3830.477490,9178.553681
16352.607832,1776.494261,4443.353888,8956.491898
16352.608156,2146.597232,4826.401637,6883.915261
16352.608481,4589.276840,5132.839837,6587.832884
16352.608805,5551.544565,6128.763984,7920.203579
16352.609130,4515.256246,5822.325785,9326.594869
16352.609454,3552.988522,4749.792088,10658.965565
16352.609779,3552.988522,3830.477490,11325.150913
16352.610104,2516.700203,2221.676944,12287.418637
16352.610428,296.082377,1225.752797,13397.727550
16352.610753,-888.247130,0.000000,12361.439231
16352.611077,0.000000,919.314598,11029.068536
16352.611402,1406.391290,2374.896044,10955.047942
16352.611727,2368.659014,3600.648841,10066.800811
16352.612051,3182.885551,4443.353888,7254.018232
16352.612376,4441.235652,5515.887586,5181.441594
16352.612700,5181.441594,6818.249932,5477.523971
16352.613025,4441.235652,6665.030833,5699.585753
16352.613350,3775.050304,5439.278036,5255.462188
16352.613674,3034.844362,3830.477490,6143.709319
16352.613999,1924.535449,3753.867940,7920.203579
16352.614323,-296.082377,1685.410096,9918.759623
16352.614648,-2368.659014,-306.438199,11991.336260
16352.614973,-4071.132681,-2068.457845,13545.768739
16352.615297,-5107.421000,-3753.867940,13027.624579
16352.615622,-3108.864956,-3753.867940,12879.583391
16352.615946,-1406.391290,-1608.800546,12657.521608
16352.616271,-222.061783,536.266849,11325.150913
16352.616596,3034.844362,2298.286494,9548.656652
16352.616920,6661.853478,4060.306139,7772.162391
16352.617245,7179.997637,5056.230287,5995.668130
16352.617569,7698.141797,6435.202183,3923.091493
16352.617894,8808.450710,7201.297681,4441.235652
16352.618219,7402.059420,5515.887586,7031.956449
16352.618543,4367.215058,3064.381992,8734.430116
16352.618868,888.247130,306.438199,11251.130318
16352.619192,-2590.720797,-1302.362347,12805.562797
16352.619517,-5033.400406,-4136.915689,14582.057057
16352.619842,-4737.318029,-5132.839837,15174.221811
16352.620166,-4515.256246,-4060.306139,15322.262999
16352.620491,-2368.659014,-2145.067394,14211.954086
16352.620815,888.247130,153.219100,11843.295072
16352.621140,4441.235652,2834.553343,7772.162391
16352.621465,7476.080014,6511.811733,4071.132681
16352.621789,10658.965565,9806.022374,3256.906145
16352.622114,13175.665768,11414.822920,2146.597232
16352.622438,12657.521608,11874.480219,2294.638420
16352.622763,8216.285956,8580.269578,3849.070898
16352.623087,2960.823768,4519.963438,5625.565159
16352.623412,-518.144159,1838.629195,8734.430116
16352.623737,-3330.926739,-459.657299,12731.542202
16352.624061,-5921.647536,-2374.896044,16136.489536
16352.624386,-7698.141797,-3600.648841,17098.757260
16352.624710,-5773.606348,-2451.505594,15026.180623
16352.625035,-740.205942,306.438199,11917.315666
16352.625360,2442.679609,3907.087040,10066.800811
16352.625684,5255.462188,8044.002729,7698.141797
16352.626008,8364.327145,9346.365076,6809.894666
16352.626333,8956.491898,7967.393179,4737.318029
16352.626657,7550.100608,7890.783629,3775.050304
16352.626981,5329.482782,8273.831378,5477.523971
16352.627306,2812.782580,5975.544884,7402.059420
16352.627630,148.041188,2528.115143,8290.306550
16352.627954,-814.226536,1149.143247,9696.697840
16352.628279,-2294.638420,766.095498,11325.150913
16352.628603,-3182.885551,612.876398,11473.192101
16352.628927,-2072.576638,459.657299,10732.986159
16352.629252,74.020594,1608.800546,10436.903782
16352.629576,1554.432478,2451.505594,9770.718434
16352.629900,2442.679609,2681.334243,9474.636058
16352.630225,2072.576638,3217.601092,8808.450710
16352.630549,1110.308913,3140.991542,7994.224174
16352.630873,1480.411884,2604.724693,8808.450710
16352.631197,2886.803174,1991.848295,8660.409521
16352.631522,3478.967927,1838.629195,9178.553681
16352.631846,3478.967927,2451.505594,9622.677246
16352.632170,2294.638420,2221.676944,9474.636058
16352.632495,1628.453072,-229.828649,9104.533087
16352.632819,2442.679609,-1302.362347,8586.388927
16352.633143,2664.741391,1149.143247,9548.656652
16352.633468,2220.617826,919.314598,9104.533087
16352.633792,1258.350101,-689.485948,9030.512492
16352.634116,1850.514855,0.000000,8956.491898
16352.634441,2220.617826,2068.457845,9474.636058
16352.634765,1480.411884,536.266849,10658.965565
16352.635089,370.102971,0.000000,10881.027347
16352.635414,444.123565,-229.828649,11029.068536
16352.635738,-1628.453072,-766.095498,11325.150913
16352.636062,-3478.967927,-2834.553343,11325.150913
16352.636387,-3182.885551,-2145.067394,9326.594869
16352.636711,-1406.391290,-1072.533697,9474.636058
16352.637035,0.000000,383.047749,9474.636058
16352.637360,222.061783,383.047749,8364.327145
16352.637684,444.123565,1838.629195,8216.285956
16352.638008,1184.329507,2145.067394,6217.729913
16352.638333,1850.514855,1915.238745,5773.606348
16352.638657,1184.329507,2068.457845,6365.771101
16352.638981,-1110.308913,1991.848295,7994.224174
16352.639306,-2220.617826,1608.800546,8808.450710
16352.639630,-1480.411884,-229.828649,9400.615463
16352.639954,-1258.350101,-689.485948,10436.903782
16352.640279,-3775.050304,306.438199,12509.480420
16352.640603,-1480.411884,459.657299,10807.006753
16352.640927,592.164754,0.000000,10732.986159
16352.641252,222.061783,-1762.019645,9326.594869
16352.641576,-1036.288319,919.314598,9844.739029
16352.641900,-1184.329507,1991.848295,11769.274478
16352.642225,518.144159,1302.362347,9326.594869
16352.642549,2590.720797,-919.314598,9400.615463
16352.642873,3182.885551,2834.553343,7698.141797
16352.643198,2516.700203,5745.716235,7846.182985
16352.643522,962.267725,2681.334243,7772.162391
16352.643846,1702.473667,0.000000,6291.750507
16352.644170,148.041188,1532.190996,8068.244768
16352.644495,-2368.659014,1915.238745,9770.718434
16352.644819,-3256.906145,-1378.971896,10288.862594
16352.645143,-1184.329507,-1685.410096,9474.636058
16352.645468,-148.041188,76.609550,10658.965565
16352.645792,-1480.411884,1302.362347,10955.047942
16352.646116,-1258.350101,0.000000,8882.471304
16352.646441,814.226536,459.657299,8734.430116
16352.646765,1406.391290,1225.752797,9326.594869
16352.647089,296.082377,459.657299,9992.780217
16352.647414,444.123565,459.657299,9252.574275
16352.647738,1924.535449,459.657299,7994.224174
16352.648062,3478.967927,1608.800546,8290.306550
16352.648387,5033.400406,2528.115143,9178.553681
16352.648711,3997.112087,2681.334243,9696.697840
16352.649035,2294.638420,1455.581446,8808.450710
16352.649360,2812.782580,1072.533697,8438.347739
16352.649684,2738.761985,1225.752797,9030.512492
16352.650008,-148.041188,842.705048,10658.965565
16352.650333,-1924.535449,-1302.362347,10510.924376
16352.650657,-962.267725,0.000000,9548.656652
16352.650981,-222.061783,689.485948,10362.883188
16352.651306,-1554.432478,76.609550,11325.150913
16352.651630,-1628.453072,229.828649,9178.553681
16352.651954,-962.267725,766.095498,7698.141797
16352.652279,-1258.350101,689.485948,8882.471304
16352.652603,-1184.329507,842.705048,8512.368333
16352.652927,-1998.556043,383.047749,8512.368333
16352.653252,-2072.576638,536.266849,7550.100608
16352.653576,592.164754,1532.190996,8660.409521
16352.653900,444.123565,1685.410096,9326.594869
16352.654225,-666.185348,842.705048,8290.306550
16352.654549,-444.123565,919.314598,8142.265362
16352.654873,-1036.288319,1149.143247,8364.327145
16352.655198,-2368.659014,-689.485948,9326.594869
16352.655522,-3404.947333,-2221.676944,9622.677246
16352.655846,-3478.967927,-1991.848295,10288.862594
16352.656171,-2960.823768,-919.314598,10807.006753
16352.656495,-1776.494261,-1532.190996,11473.192101
16352.656819,-1332.370696,-1608.800546,10584.944971
16352.657143,-962.267725,229.828649,8586.388927
16352.657468,814.226536,383.047749,8882.471304
16352.657792,1702.473667,-536.266849,8586.388927
16352.658116,1110.308913,-612.876398,9844.739029
16352.658441,0.000000,536.266849,9622.677246
16352.658765,1184.329507,76.609550,9252.574275
16352.659089,2442.679609,-383.047749,9178.553681
16352.659414,2442.679609,1149.143247,9992.780217
16352.659738,2368.659014,1838.629195,8364.327145
16352.660062,2072.576638,1302.362347,9030.512492
16352.660387,1406.391290,-1149.143247,8956.491898
16352.660711,0.000000,-995.924147,9104.533087
16352.661035,-2516.700203,-995.924147,10436.903782
16352.661360,-2590.720797,-1685.410096,10658.965565
16352.661684,-444.123565,-1991.848295,10807.006753
16352.662008,1036.288319,-1378.971896,9548.656652
16352.662333,1036.288319,1838.629195,9844.739029
16352.662657,1184.329507,1838.629195,8364.327145
16352.662981,2812.782580,995.924147,6957.935855
16352.663306,2812.782580,2298.286494,6661.853478
16352.663630,1628.453072,2451.505594,8068.244768
16352.663954,888.247130,1149.143247,8068.244768
16352.664279,2368.659014,1455.581446,9252.574275
16352.664603,1998.556043,2681.334243,9844.739029
16352.664927,888.247130,1302.362347,10584.944971
16352.665252,0.000000,1149.143247,9844.739029
16352.665576,518.144159,1915.238745,9992.780217
16352.665900,148.041188,1532.190996,9992.780217
16352.666225,-1554.432478,306.438199,10288.862594
16352.666549,-1998.556043,76.609550,11177.109724
16352.666873,-1776.494261,2145.067394,10066.800811
16352.667198,0.000000,612.876398,10066.800811
16352.667522,370.102971,1072.533697,8586.388927
16352.667846,296.082377,3907.087040,9030.512492
16352.668171,444.123565,4519.963438,8068.244768
16352.668495,518.144159,2451.505594,7105.977043
16352.668819,1036.288319,2528.115143,6661.853478
16352.669144,148.041188,2987.772442,7846.182985
16352.669468,-2146.597232,1685.410096,8956.491898
16352.669792,-1924.535449,383.047749,9326.594869
16352.670116,222.061783,0.000000,9474.636058
16352.670441,-1036.288319,1072.533697,9918.759623
16352.670765,-2146.597232,766.095498,11103.089130
16352.671089,-2368.659014,-536.266849,8512.368333
16352.671414,-1628.453072,-1378.971896,7624.121203
16352.671738,-2146.597232,-766.095498,9104.533087
16352.672062,-2812.782580,0.000000,11177.109724
16352.672387,-2294.638420,-1149.143247,10214.842000
16352.672711,-370.102971,-1608.800546,9696.697840
16352.673035,1258.350101,0.000000,9030.512492
16352.673360,1628.453072,1685.410096,9548.656652
16352.673684,1998.556043,1302.362347,9474.636058
16352.674008,2516.700203,306.438199,8586.388927
16352.674333,1702.473667,-383.047749,8364.327145
16352.674657,-592.164754,-919.314598,10066.800811
16352.674981,-740.205942,-2451.505594,11251.130318
16352.675306,-518.144159,-2451.505594,9770.718434
16352.675630,-1110.308913,-2221.676944,10510.924376
16352.675954,0.000000,-1072.533697,10436.903782
16352.676279,592.164754,-1302.362347,12287.418637
16352.676603,0.000000,-842.705048,9252.574275
16352.676927,444.123565,-153.219100,8290.306550
16352.677252,1184.329507,-229.828649,8438.347739
16352.677576,888.247130,0.000000,9326.594869
16352.677900,1258.350101,229.828649,9178.553681
16352.678225,1554.432478,383.047749,7402.059420
16352.678549,888.247130,612.876398,7550.100608
16352.678873,1776.494261,842.705048,8734.430116
16352.679198,1850.514855,1991.848295,9326.594869
16352.679522,222.061783,229.828649,9030.512492
16352.679846,-518.144159,-536.266849,8660.409521
16352.680171,-370.102971,689.485948,8956.491898
16352.680495,-1036.288319,689.485948,10955.047942
16352.680819,-740.205942,383.047749,9918.759623
16352.681144,296.082377,1455.581446,9844.739029
16352.681468,888.247130,2374.896044,10140.821405
16352.681792,1110.308913,2221.676944,9844.739029
16352.682116,1406.391290,2834.553343,9400.615463
16352.682441,370.102971,3064.381992,9992.780217
16352.682765,0.000000,1455.581446,8216.285956
16352.683089,-296.082377,459.657299,9918.759623
16352.683414,-444.123565,842.705048,9844.739029
16352.683738,-222.061783,2604.724693,9918.759623
16352.684062,592.164754,2221.676944,9400.615463
16352.684387,592.164754,2068.457845,8364.327145
16352.684711,74.020594,2911.162892,9474.636058
16352.685035,1406.391290,3447.429741,6735.874072
16352.685360,148.041188,2451.505594,6513.812290
16352.685684,-1480.411884,1685.410096,6957.935855
16352.686008,-962.267725,2145.067394,8808.450710
16352.686333,-740.205942,919.314598,9252.574275
16352.686657,-1258.350101,153.219100,9030.512492
16352.686981,-296.082377,1532.190996,9622.677246
16352.687306,222.061783,3064.381992,10881.027347
16352.687630,-962.267725,1072.533697,9030.512492
16352.687954,0.000000,-1685.410096,8290.306550
16352.688279,-592.164754,229.828649,8586.388927
16352.688603,-2442.679609,919.314598,11399.171507
16352.688927,-2368.659014,-1378.971896,10807.006753
16352.689252,814.226536,-1762.019645,8882.471304
16352.689576,444.123565,76.609550,9474.636058
16352.689900,296.082377,1762.019645,9252.574275
16352.690225,2072.576638,842.705048,9400.615463
16352.690549,2220.617826,153.219100,8290.306550
16352.690873,-592.164754,-1302.362347,9030.512492
16352.691198,-1628.453072,-919.314598,9770.718434
16352.691522,-1036.288319,-2145.067394,10510.924376
16352.691846,-2220.617826,-2604.724693,10584.944971
16352.692171,-444.123565,-2298.286494,10288.862594
16352.692495,1924.535449,-306.438199,10732.986159
16352.692819,2516.700203,229.828649,10732.986159
16352.693144,2590.720797,1225.752797,9548.656652
16352.693468,2368.659014,919.314598,8438.347739
16352.693792,1184.329507,536.266849,7105.977043
16352.694117,888.247130,306.438199,8808.450710
16352.694441,740.205942,229.828649,8734.430116
16352.694765,-592.164754,459.657299,8956.491898
16352.695089,74.020594,-153.219100,8142.265362
16352.695414,-296.082377,459.657299,9474.636058
16352.695738,-1776.494261,459.657299,9548.656652
16352.696062,-1998.556043,0.000000,8364.327145
16352.696387,-2664.741391,-612.876398,9474.636058
16352.696711,-2294.638420,-1072.533697,8290.306550
16352.697035,-592.164754,153.219100,9474.636058
16352.697360,-370.102971,842.705048,11177.109724
16352.697684,0.000000,995.924147,9992.780217
16352.698008,666.185348,1915.238745,8956.491898
16352.698333,2368.659014,2681.334243,9474.636058
16352.698657,2146.597232,2068.457845,9474.636058
16352.698981,74.020594,2451.505594,8956.491898
16352.699306,666.185348,689.485948,7846.182985
16352.699630,-592.164754,919.314598,10584.944971
16352.699954,-1850.514855,76.609550,10658.965565
16352.700279,-1554.432478,1225.752797,9326.594869
16352.700603,222.061783,536.266849,7698.141797
16352.700927,814.226536,2681.334243,7105.977043
16352.701252,1332.370696,3370.820191,9326.594869
16352.701576,370.102971,2068.457845,8438.347739
16352.701900,0.000000,612.876398,8068.244768
16352.702225,148.041188,2374.896044,7550.100608
16352.702549,74.020594,2068.457845,11399.171507
16352.702873,-1036.288319,0.000000,10732.986159
16352.703198,0.000000,229.828649,9548.656652
16352.703522,1480.411884,1762.019645,10140.821405
16352.703846,666.185348,1378.971896,9178.553681
16352.704171,296.082377,766.095498,9178.553681
16352.704495,740.205942,995.924147,7994.224174
16352.704819,74.020594,459.657299,8142.265362
16352.705144,-814.226536,-383.047749,9844.739029
16352.705468,-370.102971,306.438199,10436.903782
16352.705792,-1036.288319,153.219100,9696.697840
16352.706117,740.205942,229.828649,8364.327145
16352.706441,1850.514855,1302.362347,9622.677246
16352.706765,1480.411884,536.266849,10288.862594
16352.707090,-592.164754,0.000000,9474.636058
16352.707414,-1702.473667,-1302.362347,9474.636058
16352.707738,-740.205942,-1302.362347,8956.491898
16352.708062,-1702.473667,-1838.629195,10214.842000
16352.708387,-2442.679609,-2145.067394,10362.883188
16352.708711,-592.164754,-459.657299,9326.594869
16352.709035,1406.391290,612.876398,9548.656652
16352.709360,1258.350101,76.609550,9178.553681
16352.709684,1480.411884,383.047749,8586.388927
16352.710008,888.247130,1455.581446,7698.141797
16352.710333,1480.411884,1685.410096,7698.141797
16352.710657,1480.411884,0.000000,9696.697840
16352.710981,-1036.288319,-536.266849,11029.068536
16352.711306,-1628.453072,-229.828649,9326.594869
16352.711630,666.185348,-229.828649,8956.491898
16352.711954,2368.659014,459.657299,9770.718434
16352.712279,0.000000,1302.362347,10807.006753
16352.712603,-1850.514855,229.828649,10732.986159
16352.712927,-888.247130,76.609550,8438.347739
16352.713252,-666.185348,-1532.190996,7846.182985
16352.713576,-1480.411884,76.609550,9622.677246
16352.713900,-2072.576638,383.047749,9844.739029
16352.714225,-814.226536,459.657299,9178.553681
16352.714549,1776.494261,612.876398,9770.718434
16352.714873,1332.370696,1991.848295,9474.636058
16352.715198,-1554.432478,1685.410096,8734.430116
16352.715522,-814.226536,689.485948,7476.080014
16352.715846,814.226536,459.657299,9104.533087
16352.716171,0.000000,842.705048,11695.253884
16352.716495,-1480.411884,-383.047749,10955.047942
16352.716819,-296.082377,-459.657299,8956.491898
16352.717144,1184.329507,1302.362347,8290.306550
16352.717468,1406.391290,2604.724693,9326.594869
16352.717792,2072.576638,2298.286494,10436.903782
16352.718117,1702.473667,2451.505594,9400.615463
16352.718441,1850.514855,2145.067394,7920.203579
16352.718765,1776.494261,1838.629195,7994.224174
16352.719090,962.267725,1378.971896,9696.697840
16352.719414,-222.061783,1149.143247,9918.759623
16352.719738,1332.370696,1838.629195,9252.574275
16352.720062,2368.659014,1915.238745,9400.615463
16352.720387,888.247130,1991.848295,8586.388927
16352.720711,-296.082377,2068.457845,8660.409521
16352.721035,-296.082377,1072.533697,7031.956449
16352.721360,0.000000,612.876398,6809.894666
16352.721684,-518.144159,459.657299,9770.718434
16352.722008,-1850.514855,919.314598,10214.842000
16352.722333,-1702.473667,383.047749,8956.491898
16352.722657,0.000000,-229.828649,8660.409521
16352.722981,74.020594,536.266849,10066.800811
16352.723306,-592.164754,1685.410096,11399.171507
16352.723630,148.041188,1532.190996,9992.780217
16352.723954,888.247130,76.609550,9178.553681
16352.724279,-296.082377,-842.705048,7994.224174
16352.724603,-1480.411884,459.657299,8586.388927
16352.724927,-2072.576638,-383.047749,10362.883188
16352.725252,-1258.350101,-536.266849,10066.800811
16352.725576,444.123565,-536.266849,9622.677246
16352.725900,-370.102971,1149.143247,10362.883188
16352.726225,-2146.597232,383.047749,9252.574275
16352.726549,-2220.617826,-995.924147,6809.894666
16352.726873,-740.205942,-842.705048,7402.059420
16352.727197,-2072.576638,-995.924147,9696.697840
16352.727522,-3552.988522,-1685.410096,10140.821405
16352.727846,-1480.411884,-1915.238745,9548.656652
16352.728170,444.123565,-842.705048,10140.821405
16352.728494,0.000000,-153.219100,10436.903782
16352.728819,518.144159,-995.924147,10140.821405
16352.729143,1110.308913,-766.095498,8586.388927
16352.729467,1702.473667,0.000000,9030.512492
16352.729791,1110.308913,612.876398,9770.718434
16352.730116,370.102971,-306.438199,10214.842000
16352.730440,-222.061783,-1455.581446,10066.800811
16352.730764,1628.453072,-306.438199,9474.636058
16352.731088,3108.864956,1072.533697,10140.821405
16352.731413,1776.494261,842.705048,10510.924376
16352.731737,740.205942,-612.876398,8660.409521
16352.732061,370.102971,536.266849,7772.162391
16352.732385,740.205942,229.828649,6587.832884
16352.732710,-444.123565,-536.266849,8586.388927
16352.733034,-1184.329507,-383.047749,8586.388927
16352.733358,-740.205942,76.609550,8512.368333
16352.733682,74.020594,-459.657299,9326.594869
16352.734007,1554.432478,1072.533697,10288.862594
16352.734331,962.267725,2145.067394,11029.068536
16352.734655,0.000000,919.314598,9474.636058
16352.734980,1036.288319,0.000000,8586.388927
16352.735304,1850.514855,612.876398,9474.636058
16352.735628,-444.123565,919.314598,10510.924376
16352.735952,-1924.535449,1149.143247,10807.006753
16352.736277,370.102971,612.876398,9992.780217
16352.736601,1184.329507,2911.162892,9030.512492
16352.736925,1406.391290,2987.772442,9252.574275
16352.737249,888.247130,3524.039291,9326.594869
16352.737574,518.144159,3370.820191,8364.327145
16352.737898,1406.391290,2451.505594,7105.977043
16352.738222,962.267725,1991.848295,9104.533087
16352.738546,-962.267725,2528.115143,9474.636058
16352.738871,-296.082377,2528.115143,9178.553681
16352.739195,2368.659014,2145.067394,8882.471304
16352.739519,1258.350101,2451.505594,10140.821405
16352.739843,0.000000,3217.601092,10510.924376
16352.740168,444.123565,2757.943793,8216.285956
16352.740492,-740.205942,842.705048,6883.915261
16352.740816,-2664.741391,153.219100,7550.100608
16352.741140,-3552.988522,0.000000,8364.327145
16352.741465,-3182.885551,306.438199,8882.471304
16352.741789,-2664.741391,-383.047749,9252.574275
16352.742113,-1554.432478,536.266849,8586.388927
16352.742437,-1702.473667,919.314598,9696.697840
16352.742762,-2146.597232,0.000000,9844.739029
16352.743086,-1258.350101,153.219100,8882.471304
16352.743410,-148.041188,-995.924147,8734.430116
16352.743734,-1184.329507,0.000000,10658.965565
16352.744059,-1406.391290,-1991.848295,11621.233289
16352.744383,0.000000,-1532.190996,10658.965565
16352.744707,1924.535449,-919.314598,10732.986159
16352.745031,1702.473667,1072.533697,10584.944971
16352.745356,3034.844362,1685.410096,11029.068536
16352.745680,2812.782580,1072.533697,8660.409521
16352.746004,3627.009116,459.657299,7994.224174
16352.746328,3478.967927,1072.533697,8660.409521
16352.746653,296.082377,76.609550,10066.800811
16352.746977,0.000000,-689.485948,8586.388927
16352.747301,1702.473667,-229.828649,9104.533087
16352.747625,2220.617826,-153.219100,9474.636058
16352.747950,1332.370696,76.609550,9030.512492
16352.748274,0.000000,0.000000,9104.533087
16352.748598,666.185348,-1149.143247,7624.121203
16352.748923,-518.144159,-612.876398,8660.409521
16352.749247,-2590.720797,-1838.629195,10510.924376
16352.749571,-4071.132681,-2451.505594,10066.800811
16352.749895,-2738.761985,-2068.457845,8882.471304
16352.750220,-1110.308913,-383.047749,8512.368333
16352.750544,-962.267725,-306.438199,9252.574275
16352.750868,0.000000,536.266849,9474.636058
16352.751192,1184.329507,1302.362347,9474.636058
16352.751517,1036.288319,536.266849,9622.677246
16352.751841,-814.226536,0.000000,9844.739029
16352.752165,-1258.350101,229.828649,9992.780217
16352.752489,0.000000,689.485948,9252.574275
16352.752814,1702.473667,1225.752797,9252.574275
16352.753138,2294.638420,2528.115143,10658.965565
16352.753462,2220.617826,2911.162892,10732.986159
16352.753786,2146.597232,2451.505594,10436.903782
16352.754111,2368.659014,2451.505594,8142.265362
16352.754435,1702.473667,2145.067394,8660.409521
16352.754759,0.000000,1685.410096,9178.553681
16352.755083,-222.061783,1915.238745,8290.306550
16352.755408,0.000000,1608.800546,8808.450710
16352.755732,592.164754,2221.676944,8142.265362
16352.756056,74.020594,3294.210641,8734.430116
16352.756380,-370.102971,3753.867940,7402.059420
16352.756705,74.020594,1838.629195,6513.812290
16352.757029,-2072.576638,1608.800546,5995.668130
16352.757353,-3552.988522,1225.752797,6587.832884
16352.757677,-3997.112087,842.705048,8882.471304
16352.758002,-3330.926739,76.609550,9474.636058
16352.758326,-2664.741391,-1072.533697,9992.780217
16352.758650,-1258.350101,229.828649,10584.944971
16352.758974,222.061783,383.047749,11177.109724
16352.759299,1480.411884,1072.533697,11029.068536
16352.759623,2368.659014,919.314598,10584.944971
16352.759947,1554.432478,766.095498,9548.656652
16352.760271,1332.370696,459.657299,11177.109724
16352.760596,888.247130,229.828649,10214.842000
16352.760920,1998.556043,919.314598,9918.759623
16352.761244,1480.411884,1149.143247,10807.006753
16352.761569,74.020594,0.000000,9474.636058
16352.761893,1776.494261,229.828649,7328.038826
16352.762217,1110.308913,1225.752797,8660.409521
16352.762541,-1036.288319,-306.438199,9030.512492
16352.762866,-2664.741391,-1302.362347,8438.347739
16352.763190,-2886.803174,-1915.238745,10436.903782
16352.763514,-1776.494261,-1685.410096,9696.697840
16352.763838,888.247130,-1838.629195,8956.491898
16352.764163,814.226536,-1685.410096,8956.491898
16352.764487,222.061783,1455.581446,8660.409521
16352.764811,2146.597232,612.876398,8586.388927
16352.765135,1850.514855,536.266849,7105.977043
16352.765460,1480.411884,-306.438199,7920.203579
16352.765784,74.020594,1225.752797,9030.512492
16352.766108,0.000000,0.000000,9622.677246
16352.766432,-296.082377,-766.095498,10214.842000
16352.766757,74.020594,-689.485948,10584.944971
16352.767081,-370.102971,1302.362347,9918.759623
16352.767405,740.205942,1455.581446,9400.615463
16352.767729,1406.391290,612.876398,9622.677246
16352.768054,-370.102971,229.828649,10288.862594
16352.768378,-2146.597232,229.828649,10140.821405
16352.768702,-1332.370696,0.000000,9326.594869
16352.769026,-1480.411884,-919.314598,8956.491898
16352.769351,-1554.432478,536.266849,9326.594869
16352.769675,222.061783,1532.190996,9326.594869
16352.769999,592.164754,1455.581446,9918.759623
16352.770323,1554.432478,1762.019645,8956.491898
16352.770648,2368.659014,3064.381992,8512.368333
16352.770972,2220.617826,1838.629195,7105.977043
16352.771296,814.226536,842.705048,8808.450710
16352.771620,0.000000,1532.190996,9548.656652
16352.771945,888.247130,1455.581446,9474.636058
16352.772269,444.123565,-383.047749,8956.491898
16352.772593,296.082377,842.705048,8586.388927
16352.772917,-296.082377,2298.286494,9474.636058
16352.773242,-740.205942,2145.067394,9474.636058
16352.773566,-1258.350101,76.609550,9326.594869
16352.773890,-1628.453072,459.657299,7698.141797
16352.774214,-2368.659014,612.876398,9252.574275
16352.774539,-2146.597232,689.485948,9992.780217
16352.774863,0.000000,459.657299,10362.883188
16352.775187,-370.102971,306.438199,9844.739029
16352.775512,-666.185348,1915.238745,9770.718434
16352.775836,1702.473667,2528.115143,9474.636058
16352.776160,1184.329507,995.924147,8660.409521
16352.776484,-1110.308913,-766.095498,8364.327145
16352.776809,-1406.391290,-153.219100,9474.636058
16352.777133,-1184.329507,0.000000,10658.965565
16352.777457,-962.267725,-1302.362347,9770.718434
16352.777781,0.000000,-536.266849,9252.574275
16352.778106,-666.185348,612.876398,8586.388927
16352.778430,-148.041188,1225.752797,9622.677246
16352.778754,666.185348,0.000000,8956.491898
16352.779078,740.205942,-459.657299,7476.080014
16352.779403,-222.061783,0.000000,7328.038826
16352.779727,888.247130,1302.362347,9104.533087
16352.780051,2368.659014,229.828649,10658.965565
16352.780375,1850.514855,0.000000,9474.636058
16352.780700,2368.659014,153.219100,10362.883188
16352.781024,3404.947333,1532.190996,10436.903782
16352.781348,2368.659014,689.485948,10140.821405
16352.781672,518.144159,-995.924147,8512.368333
16352.781997,0.000000,76.609550,9104.533087
16352.782321,-1628.453072,536.266849,9474.636058
16352.782645,-2442.679609,-689.485948,9474.636058
16352.782969,-3034.844362,-2374.896044,8512.368333
16352.783294,-2220.617826,-536.266849,8142.265362
16352.783618,-592.164754,1991.848295,9548.656652
16352.783942,0.000000,1455.581446,10066.800811
16352.784266,-370.102971,-536.266849,8882.471304
16352.784591,-1036.288319,0.000000,7772.162391
16352.784915,-740.205942,842.705048,8290.306550
16352.785239,-592.164754,76.609550,9622.677246
16352.785563,-962.267725,-919.314598,10732.986159
16352.785888,-222.061783,919.314598,9992.780217
16352.786212,1332.370696,1302.362347,9770.718434
16352.786536,1776.494261,536.266849,9178.553681
16352.786860,2516.700203,1838.629195,8956.491898
16352.787185,1924.535449,3830.477490,8734.430116
16352.787509,814.226536,2298.286494,8216.285956
16352.787833,1554.432478,612.876398,8808.450710
16352.788157,1406.391290,1532.190996,8438.347739
16352.788482,-1036.288319,2374.896044,9252.574275
16352.788806,-148.041188,2451.505594,8882.471304
16352.789130,2368.659014,1838.629195,9474.636058
16352.789455,1184.329507,2221.676944,10066.800811
16352.789779,0.000000,2681.334243,9474.636058
16352.790103,-888.247130,1455.581446,7772.162391
16352.790427,-1776.494261,0.000000,7328.038826
16352.790752,-3997.112087,-536.266849,9474.636058
16352.791076,-3034.844362,766.095498,8956.491898
16352.791400,-1554.432478,-306.438199,9696.697840
16352.791724,-1332.370696,-306.438199,8956.491898
16352.792049,0.000000,1838.629195,11399.171507
16352.792373,74.020594,2145.067394,10732.986159
16352.792697,-740.205942,-612.876398,8438.347739
16352.793021,-1776.494261,-1225.752797,7846.182985
16352.793346,-592.164754,995.924147,8586.388927
16352.793670,-1184.329507,459.657299,9992.780217
16352.793994,-518.144159,-766.095498,10658.965565
16352.794318,0.000000,-842.705048,10214.842000
16352.794643,370.102971,1072.533697,9622.677246
16352.794967,1776.494261,689.485948,10436.903782
16352.795291,1776.494261,689.485948,9474.636058
16352.795615,962.267725,689.485948,8734.430116
16352.795940,0.000000,383.047749,8438.347739
16352.796264,814.226536,-459.657299,9844.739029
16352.796588,74.020594,0.000000,8586.388927
16352.796912,-518.144159,-306.438199,9400.615463
16352.797237,296.082377,0.000000,9252.574275
16352.797561,1110.308913,306.438199,9474.636058
16352.797885,0.000000,153.219100,9252.574275
16352.798209,-592.164754,0.000000,8512.368333
16352.798534,148.041188,-306.438199,7550.100608
16352.798858,-1332.370696,-306.438199,8660.409521
16352.799182,-2590.720797,-1149.143247,9918.759623
16352.799506,-2368.659014,-1302.362347,10214.842000
16352.799831,222.061783,-919.314598,9548.656652
16352.800155,2146.597232,842.705048,9696.697840
16352.800479,2294.638420,1302.362347,10732.986159
16352.800803,592.164754,995.924147,9992.780217
16352.801128,148.041188,612.876398,8512.368333
16352.801452,3034.844362,995.924147,7994.224174
16352.801776,592.164754,1455.581446,9992.780217
16352.802100,-1184.329507,0.000000,9548.656652
16352.802425,-222.061783,-459.657299,8660.409521
16352.802749,1184.329507,1072.533697,9474.636058
16352.803073,1036.288319,1762.019645,10584.944971
16352.803398,888.247130,2298.286494,10362.883188
16352.803722,-148.041188,1838.629195,7846.182985
16352.804046,814.226536,1072.533697,6957.935855
16352.804370,1184.329507,1532.190996,9400.615463
16352.804695,-666.185348,1762.019645,10066.800811
16352.805019,-1332.370696,306.438199,9400.615463
16352.805343,148.041188,1455.581446,8438.347739
16352.805667,1924.535449,2681.334243,9326.594869
16352.805992,370.102971,2987.772442,9770.718434
16352.806316,-444.123565,1685.410096,7698.141797
16352.806640,148.041188,1455.581446,6661.853478
16352.806964,-666.185348,1915.238745,7846.182985
16352.807289,-1184.329507,1455.581446,9992.780217
16352.807613,-1702.473667,0.000000,9474.636058
16352.807937,-1480.411884,995.924147,9104.533087
16352.808261,-740.205942,2451.505594,9844.739029
16352.808586,962.267725,2298.286494,10955.047942
16352.808910,296.082377,1225.752797,9548.656652
16352.809234,222.061783,1378.971896,8808.450710
16352.809558,-222.061783,1149.143247,9474.636058
16352.809883,-1776.494261,0.000000,9844.739029
16352.810207,-2368.659014,-1991.848295,9474.636058
16352.810531,-2220.617826,-919.314598,9104.533087
16352.810855,-814.226536,76.609550,9770.718434
16352.811180,1258.350101,1302.362347,10288.862594
16352.811504,1998.556043,1072.533697,10881.027347
16352.811828,1184.329507,1072.533697,9252.574275
16352.812152,1998.556043,1302.362347,7846.182985
16352.812477,1628.453072,612.876398,7550.100608
16352.812801,370.102971,-306.438199,8956.491898
16352.813125,-2146.597232,306.438199,9992.780217
16352.813449,-740.205942,0.000000,9104.533087
16352.813774,666.185348,-689.485948,8660.409521
16352.814098,296.082377,-383.047749,9178.553681
16352.814422,-222.061783,1915.238745,8956.491898
16352.814746,-814.226536,842.705048,8512.368333
16352.815071,518.144159,-1608.800546,7846.182985
16352.815395,222.061783,-766.095498,8956.491898
16352.815719,-1406.391290,0.000000,9622.677246
16352.816043,-1406.391290,-536.266849,9104.533087
16352.816368,1184.329507,-536.266849,9622.677246
16352.816692,2590.720797,766.095498,10955.047942
16352.817016,592.164754,1608.800546,10510.924376
16352.817341,518.144159,536.266849,9030.512492
16352.817665,1554.432478,153.219100,7698.141797
16352.817989,1036.288319,306.438199,8734.430116
16352.818313,-1628.453072,153.219100,10658.965565
16352.818638,-2220.617826,-766.095498,10510.924376
16352.818962,-1776.494261,-1378.971896,9622.677246
16352.819286,-444.123565,76.609550,10066.800811
16352.819610,222.061783,2145.067394,11177.109724
16352.819935,-592.164754,1915.238745,10288.862594
16352.820259,-296.082377,-612.876398,8142.265362
16352.820583,370.102971,766.095498,7031.956449
16352.820907,370.102971,1991.848295,7920.203579
16352.821232,-1406.391290,1302.362347,8882.471304
16352.821556,-1332.370696,1378.971896,7920.203579
16352.821880,888.247130,1685.410096,8216.285956
16352.822204,1924.535449,2145.067394,8956.491898
16352.822529,666.185348,2221.676944,9918.759623
16352.822853,1110.308913,2068.457845,7994.224174
16352.823177,1776.494261,1455.581446,8142.265362
16352.823501,1110.308913,1532.190996,8734.430116
16352.823826,518.144159,1378.971896,11103.089130
16352.824150,-370.102971,612.876398,9918.759623
16352.824474,1036.288319,612.876398,9474.636058
16352.824798,1702.473667,1685.410096,10214.842000
16352.825123,1258.350101,1762.019645,10732.986159
16352.825447,222.061783,1072.533697,10658.965565
16352.825771,-814.226536,1915.238745,9474.636058
16352.826095,-592.164754,995.924147,7550.100608
16352.826420,-814.226536,919.314598,6809.894666
16352.826744,-2072.576638,76.609550,9178.553681
16352.827068,-2738.761985,995.924147,8734.430116
16352.827393,-1776.494261,-229.828649,9474.636058
16352.827717,0.000000,383.047749,9992.780217
16352.828041,1110.308913,766.095498,10436.903782
16352.828366,-370.102971,1838.629195,10362.883188
16352.828690,1776.494261,459.657299,8142.265362
16352.829015,2072.576638,1149.143247,8808.450710
16352.829339,1628.453072,766.095498,10584.944971
16352.829663,-740.205942,1378.971896,8290.306550
16352.829988,-666.185348,0.000000,8586.388927
16352.830312,740.205942,0.000000,7772.162391
16352.830636,444.123565,1532.190996,9474.636058
16352.830961,-1702.473667,612.876398,9992.780217
16352.831285,-2368.659014,-1378.971896,8364.327145
16352.831609,-2146.597232,-1608.800546,6809.894666
16352.831934,-1332.370696,-536.266849,8068.244768
16352.832258,-2442.679609,-919.314598,10214.842000
16352.832583,-2812.782580,-1762.019645,10584.944971
16352.832907,370.102971,-1149.143247,9918.759623
16352.833231,1924.535449,383.047749,9548.656652
16352.833556,1406.391290,0.000000,10955.047942
16352.833880,1110.308913,1149.143247,10214.842000
16352.834204,2516.700203,76.609550,8882.471304
16352.834529,888.247130,-229.828649,9844.739029
16352.834853,0.000000,-1149.143247,10732.986159
16352.835177,0.000000,-919.314598,9622.677246
16352.835502,444.123565,-1072.533697,8882.471304
16352.835826,370.102971,383.047749,9400.615463
16352.836150,0.000000,229.828649,10658.965565
16352.836475,-296.082377,459.657299,9400.615463
16352.836799,-592.164754,-229.828649,8142.265362
16352.837124,-444.123565,229.828649,7476.080014
16352.837448,-1554.432478,612.876398,8290.306550
16352.837772,-2368.659014,-842.705048,9548.656652
16352.838097,-1924.535449,-459.657299,9474.636058
16352.838421,-888.247130,459.657299,8956.491898
16352.838745,-666.185348,1072.533697,8660.409521
16352.839070,962.267725,689.485948,8956.491898
16352.839394,1110.308913,2298.286494,9844.739029
16352.839718,1998.556043,2298.286494,9400.615463
16352.840043,2442.679609,919.314598,8956.491898
16352.840367,2146.597232,1532.190996,8808.450710
16352.840692,1480.411884,2451.505594,10288.862594
16352.841016,2738.761985,3600.648841,9104.533087
16352.841340,4145.153275,1762.019645,9474.636058
16352.841665,3997.112087,2604.724693,10362.883188
16352.841989,2886.803174,3830.477490,10214.842000
16352.842313,1406.391290,1991.848295,9178.553681
16352.842638,148.041188,459.657299,7846.182985
16352.842962,-2516.700203,1072.533697,8734.430116
16352.843286,-3552.988522,229.828649,8438.347739
16352.843611,-4145.153275,-383.047749,9030.512492
16352.843935,-3256.906145,0.000000,9178.553681
16352.844260,-2368.659014,1378.971896,8660.409521
16352.844584,-3256.906145,995.924147,9474.636058
16352.844908,-2368.659014,766.095498,8734.430116
16352.845233,-370.102971,459.657299,8512.368333
16352.845557,-1184.329507,766.095498,8586.388927
16352.845881,-2294.638420,1072.533697,9178.553681
16352.846206,-1332.370696,459.657299,9770.718434
16352.846530,518.144159,0.000000,9252.574275
16352.846854,1036.288319,76.609550,9400.615463
16352.847179,1776.494261,1915.238745,10510.924376
16352.847503,1184.329507,2451.505594,11029.068536
16352.847827,888.247130,766.095498,9104.533087
16352.848152,3256.906145,766.095498,6809.894666
16352.848476,2516.700203,1762.019645,8216.285956
16352.848801,518.144159,766.095498,8734.430116
16352.849125,370.102971,-153.219100,10140.821405
16352.849449,1924.535449,-306.438199,9622.677246
16352.849774,814.226536,153.219100,9696.697840
16352.850098,-148.041188,-383.047749,10510.924376
16352.850422,148.041188,-612.876398,8512.368333
16352.850747,-666.185348,-536.266849,9474.636058
16352.851071,-1850.514855,-2145.067394,9030.512492
16352.851395,-3552.988522,-2451.505594,10066.800811
16352.851720,-2960.823768,-2068.457845,9252.574275
16352.852044,-1406.391290,-1149.143247,8882.471304
16352.852369,-666.185348,-1608.800546,9474.636058
16352.852693,-1036.288319,0.000000,9474.636058
16352.853017,-296.082377,536.266849,10807.006753
16352.853342,1628.453072,612.876398,9104.533087
16352.853666,1776.494261,-153.219100,9474.636058
16352.853990,518.144159,76.609550,8290.306550
16352.854315,444.123565,459.657299,9178.553681
16352.854639,1702.473667,153.219100,10066.800811
16352.854963,1702.473667,536.266849,9474.636058
16352.855288,1628.453072,1378.971896,9918.759623
16352.855612,2368.659014,1991.848295,9326.594869
16352.855936,1702.473667,1455.581446,8956.491898
16352.856261,2072.576638,995.924147,8808.450710
16352.856585,1258.350101,1685.410096,9178.553681
16352.856910,-814.226536,1762.019645,8882.471304
16352.857234,-296.082377,1302.362347,8364.327145
16352.857558,592.164754,459.657299,7772.162391
16352.857883,-1776.494261,1455.581446,8882.471304
16352.858207,-1924.535449,2221.676944,9844.739029
16352.858531,0.000000,2987.772442,9770.718434
16352.858856,-1406.391290,76.609550,10955.047942
16352.859180,-2886.803174,0.000000,7772.162391
16352.859504,-3182.885551,919.314598,8068.244768
16352.859829,-2960.823768,1302.362347,8660.409521
16352.860153,-2664.741391,0.000000,10436.903782
16352.860478,-1850.514855,612.876398,10658.965565
16352.860802,0.000000,2221.676944,9326.594869
16352.861126,740.205942,2145.067394,9548.656652
16352.861451,1702.473667,2145.067394,9252.574275
16352.861775,1258.350101,2374.896044,8660.409521
16352.862099,592.164754,2451.505594,7772.162391
16352.862424,888.247130,919.314598,7994.224174
16352.862748,1110.308913,1072.533697,8216.285956
16352.863072,-148.041188,229.828649,8068.244768
16352.863397,0.000000,153.219100,7920.203579
16352.863721,1480.411884,536.266849,9400.615463
16352.864045,518.144159,1532.190996,10807.006753
16352.864370,-222.061783,76.609550,11029.068536
16352.864694,-518.144159,-1915.238745,9030.512492
16352.865019,-1184.329507,-1455.581446,8142.265362
16352.865343,-1924.535449,-536.266849,10140.821405
16352.865667,-592.164754,-1991.848295,10140.821405
16352.865992,592.164754,-2528.115143,9548.656652
16352.866316,888.247130,-612.876398,9918.759623
16352.866640,0.000000,842.705048,12213.398043
16352.866965,-518.144159,-842.705048,11103.089130
16352.867289,222.061783,-1991.848295,8586.388927
16352.867613,-296.082377,-766.095498,8364.327145
16352.867938,-814.226536,-536.266849,9992.780217
16352.868262,-518.144159,-612.876398,10066.800811
16352.868587,666.185348,-842.705048,9474.636058
16352.868911,148.041188,-76.609550,9326.594869
16352.869235,1554.432478,995.924147,9104.533087
16352.869560,3552.988522,1685.410096,10288.862594
16352.869884,3478.967927,2068.457845,10140.821405
16352.870208,2294.638420,1455.581446,8734.430116
16352.870533,444.123565,1455.581446,7698.141797
16352.870857,0.000000,1149.143247,7550.100608
16352.871181,-296.082377,536.266849,7772.162391
16352.871506,74.020594,1149.143247,7179.997637
16352.871830,0.000000,2374.896044,7846.182985
16352.872154,0.000000,1762.019645,9622.677246
16352.872479,-518.144159,2374.896044,9474.636058
16352.872803,-814.226536,2068.457845,8290.306550
16352.873128,-1924.535449,612.876398,7698.141797
16352.873452,-2368.659014,766.095498,8364.327145
16352.873776,-1258.350101,1915.238745,9548.656652
16352.874101,-740.205942,1378.971896,9844.739029
16352.874425,-370.102971,612.876398,10066.800811
16352.874749,592.164754,2528.115143,11399.171507
16352.875074,1332.370696,3294.210641,12139.377449
16352.875398,962.267725,1762.019645,10807.006753
16352.875722,1628.453072,995.924147,9104.533087
16352.876047,814.226536,2451.505594,9252.574275
16352.876371,-370.102971,2145.067394,9474.636058
16352.876696,0.000000,766.095498,9696.697840
16352.877020,444.123565,689.485948,8142.265362
16352.877344,-148.041188,1685.410096,8512.368333
16352.877669,296.082377,2834.553343,9474.636058
16352.877993,1406.391290,2834.553343,9474.636058
16352.878317,-296.082377,919.314598,7179.997637
16352.878642,0.000000,-612.876398,6735.874072
16352.878966,-1258.350101,995.924147,7254.018232
16352.879290,-1628.453072,153.219100,8068.244768
16352.879615,-1998.556043,-842.705048,7698.141797
16352.879939,-370.102971,0.000000,8734.430116
16352.880263,-222.061783,1149.143247,9992.780217
16352.880588,518.144159,612.876398,10362.883188
16352.880912,666.185348,-536.266849,9696.697840
16352.881237,-222.061783,-995.924147,9474.636058
16352.881561,-740.205942,-995.924147,9474.636058
16352.881885,-666.185348,-1455.581446,10288.862594
16352.882210,-1110.308913,-1302.362347,10658.965565
16352.882534,-222.061783,-1455.581446,9474.636058
16352.882858,1184.329507,-536.266849,10732.986159
16352.883183,2072.576638,229.828649,10658.965565
16352.883507,592.164754,-383.047749,10510.924376
16352.883831,74.020594,-689.485948,8438.347739
16352.884156,148.041188,-1532.190996,7624.121203
16352.884480,-1036.288319,-1455.581446,9622.677246
16352.884805,-1258.350101,-1685.410096,10214.842000
16352.885129,-1702.473667,-1608.800546,10066.800811
16352.885453,888.247130,-919.314598,9696.697840
16352.885778,1702.473667,153.219100,11029.068536
16352.886102,1776.494261,766.095498,10140.821405
16352.886426,1036.288319,842.705048,8438.347739
16352.886751,1036.288319,0.000000,6957.935855
16352.887075,222.061783,612.876398,7772.162391
16352.887399,-222.061783,612.876398,10140.821405
16352.887724,-2294.638420,-766.095498,8216.285956
16352.888048,-1554.432478,-689.485948,8290.306550
16352.888372,-370.102971,842.705048,8956.491898
16352.888697,-518.144159,1455.581446,10140.821405
16352.889021,-592.164754,1685.410096,9474.636058
16352.889346,-518.144159,919.314598,8882.471304
16352.889670,-1850.514855,1149.143247,7772.162391
16352.889994,74.020594,2068.457845,9030.512492
16352.890319,74.020594,1838.629195,10732.986159
16352.890643,-518.144159,995.924147,9178.553681
16352.890967,1184.329507,1762.019645,8808.450710
16352.891292,3627.009116,3064.381992,10436.903782
16352.891616,2294.638420,3064.381992,9622.677246
16352.891940,1776.494261,1991.848295,9104.533087
16352.892265,2220.617826,2145.067394,8068.244768
16352.892589,1628.453072,2451.505594,9030.512492
16352.892914,1258.350101,1378.971896,10955.047942
16352.893238,222.061783,1685.410096,10066.800811
16352.893562,888.247130,1608.800546,9104.533087
16352.893887,1998.556043,3064.381992,8808.450710
16352.894211,2590.720797,2911.162892,9844.739029
16352.894535,-1036.288319,2451.505594,8808.450710
16352.894860,-2368.659014,689.485948,7105.977043
16352.895184,-3182.885551,459.657299,6365.771101
16352.895508,-4663.297435,-612.876398,8956.491898
16352.895833,-5625.565159,-536.266849,9252.574275
16352.896157,-5033.400406,-842.705048,9326.594869
16352.896482,-4145.153275,-1608.800546,8660.409521
16352.896806,-1406.391290,612.876398,9918.759623
16352.897130,518.144159,1991.848295,10807.006753
16352.897455,444.123565,919.314598,9104.533087
16352.897779,1554.432478,-459.657299,7550.100608
16352.898103,3923.091493,2451.505594,8586.388927
16352.898428,4293.194464,2451.505594,11103.089130
16352.898752,1406.391290,0.000000,10140.821405
16352.899076,3552.988522,-459.657299,8808.450710
16352.899401,5773.606348,1838.629195,10658.965565
16352.899725,3478.967927,1378.971896,12139.377449
16352.900049,1702.473667,0.000000,10658.965565
16352.900374,1036.288319,0.000000,8216.285956
16352.900698,-740.205942,-995.924147,8216.285956
16352.901023,-1850.514855,-1378.971896,8660.409521
16352.901347,-3627.009116,-2068.457845,9844.739029
16352.901671,-4737.318029,-1915.238745,9400.615463
16352.901996,-2886.803174,-1149.143247,9474.636058
16352.902320,-1850.514855,-919.314598,10510.924376
16352.902644,-2368.659014,-1072.533697,9178.553681
16352.902969,-2220.617826,-995.924147,6809.894666
16352.903293,-962.267725,306.438199,5773.606348
16352.903617,-518.144159,-229.828649,7772.162391
16352.903942,-814.226536,-306.438199,10288.862594
16352.904266,-592.164754,0.000000,9548.656652
16352.904591,1110.308913,-306.438199,9474.636058
16352.904915,2516.700203,0.000000,9918.759623
16352.905239,3182.885551,1608.800546,11473.192101
16352.905564,4293.194464,1915.238745,10066.800811
16352.905888,3552.988522,2068.457845,9252.574275
16352.906212,4663.297435,2145.067394,8660.409521
16352.906537,3997.112087,1302.362347,10288.862594
16352.906861,148.041188,842.705048,11325.150913
16352.907185,222.061783,612.876398,10362.883188
16352.907510,1480.411884,153.219100,9918.759623
16352.907834,666.185348,306.438199,10288.862594
16352.908158,-666.185348,2298.286494,9770.718434
16352.908483,-1332.370696,2604.724693,8512.368333
16352.908807,-3034.844362,1072.533697,6661.853478
16352.909132,-3997.112087,-536.266849,6513.812290
16352.909456,-3182.885551,383.047749,8290.306550
16352.909780,-3034.844362,1225.752797,8438.347739
16352.910105,-2294.638420,-229.828649,8364.327145
16352.910429,0.000000,306.438199,10066.800811
16352.910753,74.020594,1838.629195,10732.986159
16352.911078,-296.082377,1378.971896,8808.450710
16352.911402,1036.288319,766.095498,8216.285956
16352.911726,2368.659014,1838.629195,7328.038826
16352.912051,814.226536,1915.238745,9992.780217
16352.912375,74.020594,229.828649,9400.615463
16352.912700,222.061783,-766.095498,9326.594869
16352.913024,888.247130,306.438199,9252.574275
16352.913348,1258.350101,1685.410096,9918.759623
16352.913673,-1036.288319,1149.143247,10807.006753
16352.913997,-1628.453072,0.000000,9770.718434
16352.914321,-592.164754,-153.219100,8882.471304
16352.914646,-888.247130,-306.438199,10288.862594
16352.914970,-2738.761985,-766.095498,10732.986159
16352.915294,-3404.947333,-1608.800546,9104.533087
16352.915619,-1406.391290,-2298.286494,8882.471304
16352.915943,-740.205942,-766.095498,10658.965565
16352.916267,-1406.391290,1608.800546,12435.459826
16352.916592,-370.102971,536.266849,10362.883188
16352.916916,592.164754,-919.314598,8068.244768
16352.917241,2072.576638,383.047749,6883.915261
16352.917565,3701.029710,3140.991542,7994.224174
16352.917889,2294.638420,2757.943793,10362.883188
16352.918214,2812.782580,1149.143247,8586.388927
16352.918538,5255.462188,1915.238745,8142.265362
16352.918862,4441.235652,2145.067394,9326.594869
16352.919187,2738.761985,1991.848295,9474.636058
16352.919511,2368.659014,2374.896044,9474.636058
16352.919835,1554.432478,1225.752797,8290.306550
16352.920160,0.000000,-306.438199,7920.203579
16352.920484,-1702.473667,-536.266849,8586.388927
16352.920809,-1702.473667,229.828649,7179.997637
16352.921133,-2516.700203,612.876398,8734.430116
16352.921457,-3182.885551,153.219100,10732.986159
16352.921782,-1554.432478,1378.971896,10362.883188
16352.922106,-592.164754,1455.581446,10140.821405
16352.922430,-518.144159,1149.143247,8956.491898
16352.922755,-1850.514855,383.047749,9474.636058
16352.923079,-2886.803174,842.705048,9844.739029
16352.923403,-2442.679609,-383.047749,11029.068536
16352.923728,-1702.473667,-1072.533697,9918.759623
16352.924052,740.205942,153.219100,9992.780217
16352.924376,1184.329507,2834.553343,10066.800811
16352.924701,444.123565,1455.581446,11991.336260
16352.925025,592.164754,766.095498,10584.944971
16352.925350,2886.803174,1838.629195,7476.080014
16352.925674,3404.947333,2911.162892,7476.080014
16352.925998,1850.514855,3064.381992,8068.244768
16352.926323,0.000000,2145.067394,8142.265362
16352.926647,1036.288319,1685.410096,7328.038826
16352.926971,1924.535449,1072.533697,8290.306550
16352.927296,222.061783,1455.581446,9622.677246
16352.927620,-1480.411884,2145.067394,10214.842000
16352.927944,-2442.679609,-383.047749,9474.636058
16352.928269,-3256.906145,-2757.943793,7031.956449
16352.928593,-3775.050304,-1762.019645,6365.771101
16352.928918,-4737.318029,-689.485948,7624.121203
16352.929242,-3552.988522,-1532.190996,8882.471304
16352.929566,-2072.576638,-1072.533697,9548.656652
16352.929891,-1480.411884,76.609550,10732.986159
16352.930215,-666.185348,-536.266849,10288.862594
16352.930539,1036.288319,306.438199,9548.656652
16352.930864,2960.823768,1302.362347,9104.533087
16352.931188,1776.494261,0.000000,9918.759623
16352.931512,518.144159,-1762.019645,11029.068536
16352.931837,1258.350101,-1838.629195,11251.130318
16352.932161,1406.391290,-536.266849,10955.047942
16352.932486,1480.411884,-766.095498,9918.759623
16352.932810,2442.679609,-1149.143247,10955.047942
16352.933134,2220.617826,459.657299,11991.336260
16352.933459,1036.288319,-919.314598,11251.130318
16352.933783,0.000000,-1225.752797,7698.141797
16352.934107,-148.041188,-1225.752797,6439.791695
16352.934432,-1110.308913,306.438199,7402.059420
16352.934756,-888.247130,0.000000,9696.697840
16352.935080,1110.308913,459.657299,9030.512492
16352.935405,1036.288319,383.047749,8734.430116
16352.935729,0.000000,1149.143247,8142.265362
16352.936054,-666.185348,919.314598,8438.347739
16352.936378,296.082377,1072.533697,7254.018232
16352.936702,-74.020594,-306.438199,8068.244768
16352.937027,-1924.535449,-995.924147,8660.409521
16352.937351,-1776.494261,153.219100,9252.574275
16352.937675,518.144159,0.000000,9178.553681
16352.938000,2516.700203,1072.533697,9844.739029
16352.938324,1776.494261,1378.971896,10658.965565
16352.938649,1406.391290,2911.162892,10955.047942
16352.938973,3552.988522,1532.190996,11251.130318
16352.939297,3552.988522,842.705048,8956.491898
16352.939622,-518.144159,153.219100,9622.677246
16352.939946,-2960.823768,0.000000,10362.883188
16352.940270,-1258.350101,0.000000,10510.924376
16352.940595,-962.267725,766.095498,10732.986159
16352.940919,-2442.679609,383.047749,10288.862594
16352.941243,-3701.029710,1072.533697,9696.697840
16352.941568,-4219.173869,842.705048,9844.739029
16352.941892,-3701.029710,-842.705048,8438.347739
16352.942217,-4071.132681,-536.266849,8660.409521
16352.942541,-3256.906145,995.924147,8956.491898
16352.942865,-1406.391290,2298.286494,8364.327145
16352.943190,814.226536,2451.505594,8956.491898
16352.943514,1036.288319,3064.381992,7476.080014
16352.943838,3627.009116,4596.572988,7698.141797
16352.944163,5847.626942,6205.373534,7698.141797
16352.944487,5773.606348,5515.887586,7698.141797
16352.944811,5847.626942,4519.963438,6217.729913
16352.945136,4589.276840,5056.230287,8290.306550
16352.945460,2590.720797,4290.134789,7994.224174
16352.945785,2072.576638,2068.457845,7772.162391
16352.946109,2442.679609,1991.848295,9252.574275
16352.946433,1850.514855,2987.772442,9400.615463
16352.946758,-296.082377,1685.410096,11029.068536
16352.947082,-814.226536,306.438199,9104.533087
16352.947406,-1406.391290,-766.095498,9030.512492
16352.947731,-3256.906145,-536.266849,8660.409521
16352.948055,-4589.276840,-1608.800546,9474.636058
16352.948379,-5847.626942,-3447.429741,10510.924376
16352.948704,-4737.318029,-3753.867940,10214.842000
16352.949028,-4293.194464,-2068.457845,10658.965565
16352.949353,-2146.597232,-1532.190996,9548.656652
16352.949677,-1110.308913,-1302.362347,10732.986159
16352.950001,-518.144159,-919.314598,10510.924376
16352.950326,444.123565,-689.485948,10807.006753
16352.950650,592.164754,-2068.457845,10807.006753
16352.950974,1406.391290,-1685.410096,11473.192101
16352.951299,2664.741391,-842.705048,11843.295072
16352.951623,3849.070898,0.000000,9400.615463
16352.951947,4589.276840,153.219100,10510.924376
16352.952272,4737.318029,1072.533697,10732.986159
16352.952596,2368.659014,1991.848295,9770.718434
16352.952921,1924.535449,0.000000,6809.894666
16352.953245,1184.329507,-766.095498,5995.668130
16352.953569,-962.267725,-689.485948,7105.977043
16352.953894,-2812.782580,-383.047749,7402.059420
16352.954218,-3330.926739,-1378.971896,8660.409521
16352.954542,-3997.112087,-1838.629195,7402.059420
16352.954867,-3701.029710,-1915.238745,8956.491898
16352.955191,-2368.659014,0.000000,8956.491898
16352.955516,-2590.720797,-1532.190996,9918.759623
16352.955840,-3404.947333,-2374.896044,9104.533087
16352.956164,-3923.091493,-2451.505594,9918.759623
16352.956489,-3701.029710,-1378.971896,11177.109724
16352.956813,-518.144159,-1455.581446,11251.130318
16352.957137,148.041188,0.000000,9992.780217
16352.957462,1406.391290,1455.581446,9770.718434
16352.957786,1184.329507,2757.943793,11177.109724
16352.958110,2368.659014,2068.457845,10362.883188
16352.958435,3478.967927,1838.629195,9474.636058
16352.958759,2442.679609,3370.820191,9622.677246
16352.959084,1628.453072,2528.115143,9992.780217
16352.959408,1628.453072,1838.629195,9104.533087
16352.959732,2442.679609,1532.190996,8068.244768
16352.960057,2442.679609,4290.134789,7179.997637
16352.960381,3552.988522,4366.744339,8512.368333
16352.960705,3034.844362,4213.525239,8808.450710
16352.961030,1702.473667,3294.210641,9030.512492
16352.961354,1036.288319,3140.991542,8068.244768
16352.961678,1332.370696,2911.162892,7476.080014
16352.962003,0.000000,2374.896044,8290.306550
16352.962327,-962.267725,1915.238745,8364.327145
16352.962652,-370.102971,2298.286494,8808.450710
16352.962976,740.205942,2604.724693,9178.553681
16352.963300,518.144159,2451.505594,10584.944971
16352.963625,-1480.411884,2528.115143,10288.862594
16352.963949,-1480.411884,1225.752797,9030.512492
16352.964273,-1332.370696,0.000000,8586.388927
16352.964598,-1184.329507,0.000000,9918.759623
16352.964922,-3034.844362,459.657299,10732.986159
16352.965246,-2812.782580,0.000000,9252.574275
16352.965571,-740.205942,153.219100,8734.430116
16352.965895,-148.041188,689.485948,9918.759623
16352.966220,-296.082377,1455.581446,10288.862594
16352.966544,-444.123565,612.876398,9696.697840
16352.966868,444.123565,0.000000,7624.121203
16352.967193,-148.041188,76.609550,8364.327145
16352.967517,370.102971,-383.047749,10214.842000
16352.967841,-666.185348,-1455.581446,9178.553681
16352.968166,0.000000,-1915.238745,9326.594869
16352.968490,962.267725,0.000000,10807.006753
16352.968814,740.205942,-383.047749,10955.047942
16352.969139,0.000000,-1991.848295,9030.512492
16352.969463,740.205942,-2145.067394,6883.915261
16352.969788,518.144159,-459.657299,9474.636058
16352.970112,-888.247130,-842.705048,10807.006753
16352.970436,74.020594,-2604.724693,10140.821405
16352.970761,444.123565,-2604.724693,8290.306550
16352.971085,-814.226536,-1149.143247,8142.265362
16352.971409,0.000000,-459.657299,9622.677246
16352.971734,518.144159,-842.705048,10140.821405
16352.972058,-888.247130,-612.876398,9622.677246
16352.972382,-1850.514855,-1225.752797,8586.388927
16352.972707,-1110.308913,-1149.143247,8364.327145
16352.973031,0.000000,-842.705048,9252.574275
16352.973356,-814.226536,-459.657299,9474.636058
16352.973680,-888.247130,-306.438199,9474.636058
16352.974004,0.000000,842.705048,10066.800811
16352.974329,1480.411884,842.705048,9918.759623
16352.974653,1850.514855,1915.238745,9178.553681
16352.974977,666.185348,1915.238745,9252.574275
16352.975302,1184.329507,2221.676944,7698.141797
16352.975626,2072.576638,1838.629195,10881.027347
16352.975951,1480.411884,766.095498,9400.615463
16352.976275,1036.288319,1991.848295,8808.450710
16352.976599,666.185348,2834.553343,9178.553681
16352.976924,740.205942,2681.334243,10140.821405
16352.977248,-370.102971,2145.067394,9696.697840
16352.977572,-740.205942,2068.457845,8216.285956
16352.977897,-666.185348,2068.457845,7105.977043
16352.978221,222.061783,2298.286494,7772.162391
16352.978545,-1184.329507,1072.533697,9178.553681
16352.978870,-2590.720797,1762.019645,10288.862594
16352.979194,-740.205942,2221.676944,9474.636058
16352.979519,1628.453072,3140.991542,8660.409521
16352.979843,1628.453072,3064.381992,9178.553681
16352.980167,-592.164754,3983.696590,9770.718434
16352.980492,0.000000,2451.505594,8216.285956
16352.980816,-518.144159,919.314598,7105.977043
16352.981140,-1480.411884,76.609550,8956.491898
16352.981465,-2368.659014,1455.581446,8956.491898
16352.981789,-1998.556043,766.095498,9548.656652
16352.982113,-592.164754,-306.438199,9622.677246
16352.982438,148.041188,1608.800546,10214.842000
16352.982762,444.123565,1378.971896,11547.212695
16352.983087,-592.164754,612.876398,8290.306550
16352.983411,1036.288319,-306.438199,6661.853478
16352.983735,592.164754,1149.143247,8660.409521
16352.984060,-1258.350101,306.438199,10436.903782
16352.984384,-1184.329507,-766.095498,9104.533087
16352.984708,518.144159,-1149.143247,8882.471304
16352.985033,740.205942,153.219100,9474.636058
16352.985357,370.102971,842.705048,11547.212695
16352.985681,666.185348,0.000000,10288.862594
16352.986006,-296.082377,-1532.190996,8808.450710
16352.986330,-1258.350101,-1532.190996,8364.327145
16352.986655,0.000000,0.000000,9178.553681
16352.986979,296.082377,-1072.533697,10510.924376
16352.987303,0.000000,-1991.848295,10584.944971
16352.987628,962.267725,-842.705048,8364.327145
16352.987952,2812.782580,1532.190996,11251.130318
16352.988276,1924.535449,229.828649,11769.274478
16352.988601,296.082377,-1378.971896,9474.636058
16352.988925,296.082377,-1072.533697,7698.141797
16352.989249,666.185348,-612.876398,8290.306550
16352.989574,-1036.288319,-1532.190996,10510.924376
16352.989898,-2812.782580,-1915.238745,9326.594869
16352.990223,-1628.453072,-1378.971896,8660.409521
16352.990547,666.185348,76.609550,9030.512492
16352.990871,1406.391290,0.000000,11103.089130
16352.991196,-962.267725,995.924147,9622.677246
16352.991520,-592.164754,0.000000,7254.018232
16352.991844,74.020594,766.095498,6587.832884
16352.992169,-1184.329507,0.000000,9548.656652
16352.992493,-3108.864956,1225.752797,10955.047942
16352.992818,-1480.411884,153.219100,10214.842000
16352.993142,0.000000,76.609550,9030.512492
16352.993466,962.267725,1149.143247,9770.718434
16352.993791,148.041188,2451.505594,10288.862594
16352.994115,296.082377,995.924147,9400.615463
16352.994439,1332.370696,1455.581446,6957.935855
16352.994764,1406.391290,2451.505594,8882.471304
16352.995088,666.185348,2681.334243,10658.965565
16352.995412,962.267725,2681.334243,9622.677246
16352.995737,1776.494261,1225.752797,7105.977043
16352.996061,2664.741391,3217.601092,7772.162391
16352.996386,2738.761985,4903.011187,11843.295072
16352.996710,1924.535449,3983.696590,10510.924376
16352.997034,0.000000,536.266849,8438.347739
16352.997359,-592.164754,919.314598,6365.771101
16352.997683,-1480.411884,1762.019645,8734.430116
16352.998007,-2368.659014,689.485948,9326.594869
16352.998332,-2590.720797,-459.657299,8734.430116
16352.998656,-1110.308913,766.095498,8808.450710
16352.998980,0.000000,3294.210641,9474.636058
16352.999305,-740.205942,1378.971896,9400.615463
16352.999629,-1998.556043,842.705048,8808.450710
16352.999954,518.144159,1532.190996,7920.203579
16353.000278,2220.617826,2528.115143,9622.677246
16353.000602,1184.329507,0.000000,11621.233289
16353.000927,592.164754,-459.657299,9030.512492
16353.001251,1850.514855,1149.143247,9252.574275
16353.001575,2960.823768,1838.629195,10140.821405
16353.001900,592.164754,-229.828649,11917.315666
16353.002224,-1110.308913,0.000000,11473.192101
16353.002548,222.061783,536.266849,8512.368333
16353.002873,0.000000,-459.657299,8068.244768
16353.003197,-2220.617826,-2374.896044,9696.697840
16353.003522,-2886.803174,-612.876398,9548.656652
16353.003846,-1924.535449,-1072.533697,8808.450710
16353.004170,444.123565,-1378.971896,8438.347739
16353.004495,1776.494261,-459.657299,9326.594869
16353.004819,-296.082377,1915.238745,9326.594869
16353.005143,0.000000,1302.362347,9030.512492
16353.005468,1406.391290,-612.876398,7550.100608
16353.005792,888.247130,229.828649,8068.244768
16353.006116,0.000000,383.047749,8364.327145
16353.006441,-740.205942,0.000000,8734.430116
16353.006765,-592.164754,-995.924147,8512.368333
16353.007090,0.000000,0.000000,9474.636058
16353.007414,222.061783,459.657299,11325.150913
16353.007738,-296.082377,536.266849,9770.718434
16353.008063,-148.041188,229.828649,8660.409521
16353.008387,-444.123565,-536.266849,8660.409521
16353.008711,-1036.288319,-766.095498,10658.965565
16353.009036,-1702.473667,-1225.752797,10510.924376
16353.009360,-518.144159,-612.876398,8438.347739
16353.009684,1628.453072,919.314598,8660.409521
16353.010009,1998.556043,2681.334243,9992.780217
16353.010333,888.247130,1455.581446,10807.006753
16353.010658,-148.041188,536.266849,8512.368333
16353.010982,592.164754,1072.533697,8660.409521
16353.011306,962.267725,1225.752797,9474.636058
16353.011631,-666.185348,0.000000,9622.677246
16353.011955,-1480.411884,0.000000,9622.677246
16353.012279,740.205942,1455.581446,9474.636058
16353.012604,2294.638420,1455.581446,9474.636058
16353.012928,1924.535449,2068.457845,10066.800811
16353.013253,814.226536,2298.286494,10140.821405
16353.013577,1406.391290,2298.286494,9474.636058
16353.013901,1776.494261,1378.971896,8068.244768
16353.014226,0.000000,536.266849,8364.327145
16353.014550,-444.123565,1762.019645,7105.977043
16353.014874,0.000000,1455.581446,7772.162391
16353.015199,1184.329507,2604.724693,8290.306550
16353.015523,1702.473667,1915.238745,9622.677246
16353.015847,-592.164754,2451.505594,10214.842000
16353.016172,-1184.329507,1225.752797,8882.471304
16353.016496,-592.164754,612.876398,8290.306550
16353.016821,370.102971,919.314598,9548.656652
16353.017145,-2368.659014,0.000000,10584.944971
16353.017469,-2960.823768,-612.876398,9548.656652
16353.017794,-1332.370696,-1302.362347,8364.327145
16353.018118,592.164754,689.485948,9474.636058
16353.018442,0.000000,1915.238745,12361.439231
16353.018767,-962.267725,1608.800546,11695.253884
16353.019091,-962.267725,306.438199,8068.244768
16353.019415,-888.247130,-229.828649,7328.038826
16353.019740,518.144159,689.485948,7476.080014
16353.020064,-1406.391290,1302.362347,9844.739029
16353.020389,-1258.350101,-689.485948,10140.821405
16353.020713,-296.082377,-1225.752797,10288.862594
16353.021037,0.000000,0.000000,11399.171507
16353.021362,-296.082377,-612.876398,10732.986159
16353.021686,222.061783,-306.438199,8512.368333
16353.022010,1776.494261,-76.609550,7254.018232
16353.022335,222.061783,1608.800546,9474.636058
16353.022659,-222.061783,-306.438199,9548.656652
16353.022983,518.144159,-612.876398,6957.935855
16353.023308,1998.556043,612.876398,6143.709319
16353.023632,1702.473667,2528.115143,8808.450710
16353.023957,1406.391290,1532.190996,9918.759623
16353.024281,1702.473667,-459.657299,9622.677246
16353.024605,888.247130,-842.705048,8512.368333
16353.024930,296.082377,-612.876398,7772.162391
16353.025254,-1776.494261,-995.924147,9696.697840
16353.025578,-2368.659014,-2911.162892,10955.047942
16353.025903,-1776.494261,-2221.676944,11769.274478
16353.026227,370.102971,-1072.533697,11103.089130
16353.026551,1554.432478,0.000000,12213.398043
16353.026876,592.164754,-229.828649,10214.842000
16353.027200,1184.329507,1225.752797,9326.594869
16353.027525,2146.597232,1302.362347,8956.491898
16353.027849,1702.473667,612.876398,9474.636058
16353.028173,0.000000,689.485948,9918.759623
16353.028498,148.041188,2374.896044,9104.533087
16353.028822,1776.494261,1685.410096,9030.512492
16353.029146,1998.556043,229.828649,9030.512492
16353.029471,1258.350101,1455.581446,9844.739029
16353.029795,666.185348,2911.162892,9326.594869
16353.030120,1184.329507,1991.848295,7476.080014
16353.030444,0.000000,1378.971896,7772.162391
16353.030768,-1406.391290,1532.190996,7476.080014
16353.031094,-1702.473667,1762.019645,7254.018232
16353.031418,-518.144159,919.314598,6957.935855
16353.031742,-666.185348,2757.943793,8068.244768
16353.032067,-296.082377,2834.553343,9104.533087
16353.032391,-1406.391290,2528.115143,9696.697840
16353.032715,0.000000,1302.362347,9104.533087
16353.033040,1110.308913,1838.629195,8660.409521
16353.033364,0.000000,76.609550,10584.944971
16353.033689,-1776.494261,-229.828649,10955.047942
16353.034013,-1480.411884,153.219100,11547.212695
16353.034337,-1776.494261,-1378.971896,10807.006753
16353.034662,-1998.556043,-459.657299,9770.718434
16353.034986,-444.123565,1378.971896,10658.965565
16353.035310,444.123565,2604.724693,9400.615463
16353.035635,-1110.308913,0.000000,9178.553681
16353.035959,-1776.494261,-536.266849,7772.162391
16353.036284,-814.226536,1302.362347,7772.162391
16353.036608,-2072.576638,76.609550,7624.121203
16353.036932,-1628.453072,-1072.533697,8808.450710
16353.037257,-814.226536,459.657299,9474.636058
16353.037581,814.226536,1532.190996,10066.800811
16353.037905,1628.453072,1072.533697,9622.677246
16353.038230,1776.494261,306.438199,8808.450710
16353.038554,592.164754,1149.143247,7624.121203
16353.038879,1110.308913,536.266849,7994.224174
16353.039203,0.000000,-1072.533697,8956.491898
16353.039527,-444.123565,-919.314598,9844.739029
16353.039852,814.226536,76.609550,9400.615463
16353.040176,1628.453072,76.609550,9030.512492
16353.040500,1258.350101,-842.705048,10658.965565
16353.040825,1110.308913,1225.752797,11325.150913
16353.041149,3108.864956,306.438199,10362.883188
16353.041474,2368.659014,-306.438199,8734.430116
16353.041798,592.164754,-536.266849,9104.533087
16353.042122,-592.164754,766.095498,9548.656652
16353.042447,-740.205942,-306.438199,9178.553681
16353.042771,-518.144159,-1455.581446,7772.162391
16353.043095,-1110.308913,-689.485948,9030.512492
16353.043420,-1776.494261,612.876398,10732.986159
16353.043744,-1258.350101,-306.438199,10510.924376
16353.044068,-1110.308913,-1302.362347,9474.636058
16353.044393,-2220.617826,-2068.457845,8660.409521
16353.044717,-2516.700203,153.219100,8660.409521
16353.045042,-148.041188,459.657299,9622.677246
16353.045366,2072.576638,689.485948,8882.471304
16353.045690,2368.659014,1149.143247,8364.327145
16353.046015,2442.679609,2528.115143,9252.574275
16353.046339,2368.659014,3907.087040,10807.006753
16353.046663,3404.947333,2834.553343,8290.306550
16353.046988,2368.659014,995.924147,7476.080014
16353.047312,74.020594,1455.581446,8216.285956
16353.047637,-1110.308913,2987.772442,9622.677246
16353.047961,-666.185348,1455.581446,9770.718434
16353.048285,0.000000,-459.657299,7772.162391
16353.048610,-1554.432478,612.876398,9844.739029
16353.048934,-1554.432478,2681.334243,10362.883188
16353.049258,-444.123565,2298.286494,10584.944971
16353.049583,-962.267725,76.609550,9400.615463
16353.049907,-2516.700203,383.047749,7846.182985
16353.050232,-3034.844362,1838.629195,9252.574275
16353.050556,-2442.679609,1378.971896,9474.636058
16353.050880,-814.226536,229.828649,8660.409521
16353.051205,74.020594,1991.848295,8216.285956
16353.051529,-1554.432478,2068.457845,10362.883188
16353.051853,-2220.617826,1072.533697,9400.615463
16353.052178,-592.164754,1072.533697,9548.656652
16353.052502,-888.247130,1072.533697,8808.450710
16353.052827,-1998.556043,0.000000,9622.677246
16353.053151,-1702.473667,-306.438199,10807.006753
16353.053475,1554.432478,-383.047749,9326.594869
16353.053800,518.144159,76.609550,9474.636058
16353.054124,-370.102971,383.047749,8808.450710
16353.054448,1850.514855,1072.533697,9104.533087
16353.054773,3256.906145,1915.238745,9178.553681
16353.055097,2960.823768,1072.533697,8438.347739
16353.055422,1258.350101,1149.143247,8142.265362
16353.055746,296.082377,459.657299,7846.182985
16353.056070,0.000000,0.000000,7994.224174
16353.056395,-296.082377,-919.314598,7994.224174
16353.056719,222.061783,229.828649,8956.491898
16353.057043,740.205942,-229.828649,9992.780217
16353.057368,148.041188,-153.219100,11103.089130
16353.057692,0.000000,-2145.067394,10436.903782
16353.058016,-666.185348,-1915.238745,8882.471304
16353.058341,-370.102971,-1762.019645,10288.862594
16353.058665,-222.061783,-1378.971896,10584.944971
16353.058990,-592.164754,-1378.971896,10658.965565
16353.059314,518.144159,-689.485948,9326.594869
16353.059638,1998.556043,229.828649,9400.615463
16353.059963,1332.370696,1532.190996,9918.759623
16353.060287,1258.350101,1608.800546,9844.739029
16353.060611,1702.473667,536.266849,8956.491898
16353.060936,666.185348,1072.533697,8660.409521
16353.061260,-148.041188,1149.143247,8660.409521
16353.061585,-222.061783,536.266849,8734.430116
16353.061909,-740.205942,306.438199,8734.430116
16353.062233,-1184.329507,306.438199,7994.224174
16353.062558,0.000000,1072.533697,9548.656652
16353.062882,-592.164754,2145.067394,9844.739029
16353.063206,-1480.411884,1225.752797,9400.615463
16353.063531,-1480.411884,536.266849,6217.729913
16353.063855,-666.185348,1532.190996,7328.038826
16353.064180,-740.205942,1762.019645,9104.533087
16353.064504,296.082377,1838.629195,9252.574275
16353.064828,2368.659014,1838.629195,9918.759623
16353.065153,3478.967927,2681.334243,10362.883188
16353.065477,4441.235652,3217.601092,12139.377449
16353.065801,3849.070898,2451.505594,12213.398043
16353.066126,1332.370696,919.314598,9548.656652
16353.066450,-296.082377,76.609550,8438.347739
16353.066775,-888.247130,1225.752797,10066.800811
16353.067099,-2516.700203,229.828649,8808.450710
16353.067423,-4293.194464,-995.924147,7254.018232
16353.067748,-3404.947333,153.219100,7179.997637
16353.068072,-2960.823768,2604.724693,8882.471304
16353.068396,-3256.906145,1302.362347,9474.636058
16353.068721,-3330.926739,-459.657299,7846.182985
16353.069045,-3108.864956,76.609550,6587.832884
16353.069370,-1036.288319,1991.848295,6809.894666
16353.069694,962.267725,1762.019645,9252.574275
16353.070018,222.061783,383.047749,10066.800811
16353.070343,1332.370696,1225.752797,7698.141797
16353.070667,3034.844362,2604.724693,8808.450710
16353.070991,3182.885551,2374.896044,11843.295072
16353.071316,1702.473667,1072.533697,11029.068536
16353.071640,2886.803174,459.657299,8956.491898
16353.071964,3627.009116,1149.143247,8586.388927
16353.072289,666.185348,689.485948,10584.944971
16353.072613,-888.247130,-383.047749,10288.862594
16353.072938,-592.164754,-919.314598,8364.327145
16353.073262,-814.226536,-842.705048,7402.059420
16353.073586,-740.205942,-306.438199,10510.924376
16353.073911,-814.226536,-536.266849,11621.233289
16353.074235,-2146.597232,-995.924147,10510.924376
16353.074559,-3108.864956,-2681.334243,9474.636058
16353.074884,-2812.782580,-1685.410096,8808.450710
16353.075208,-3256.906145,-612.876398,9326.594869
16353.075533,-1702.473667,-1455.581446,8364.327145
16353.075857,-370.102971,-689.485948,8882.471304
16353.076181,888.247130,689.485948,10214.842000
16353.076506,1998.556043,1455.581446,11473.192101
16353.076830,2146.597232,459.657299,10436.903782
16353.077154,2590.720797,1455.581446,7698.141797
16353.077479,1554.432478,1378.971896,7772.162391
16353.077803,666.185348,995.924147,8808.450710
16353.078128,592.164754,76.609550,9474.636058
16353.078452,518.144159,-383.047749,7920.203579
16353.078776,1184.329507,1455.581446,7476.080014
16353.079101,962.267725,1455.581446,9844.739029
16353.079425,-592.164754,919.314598,9400.615463
16353.079749,-888.247130,-689.485948,8068.244768
16353.080074,-740.205942,153.219100,6587.832884
16353.080398,-1850.514855,153.219100,8956.491898
16353.080723,-1998.556043,0.000000,10140.821405
16353.081047,-1850.514855,-1455.581446,9696.697840
16353.081371,74.020594,0.000000,10140.821405
16353.081696,2368.659014,2221.676944,11917.315666
16353.082020,2960.823768,2374.896044,12731.542202
16353.082344,2516.700203,1685.410096,11473.192101
16353.082669,2664.741391,1991.848295,9474.636058
16353.082993,2812.782580,2528.115143,9326.594869
16353.083317,222.061783,1608.800546,9548.656652
16353.083642,-1110.308913,1378.971896,8734.430116
16353.083966,-814.226536,1455.581446,8216.285956
16353.084291,-666.185348,1608.800546,8216.285956
16353.084615,-2146.597232,76.609550,9696.697840
16353.084939,-2442.679609,-306.438199,9178.553681
16353.085264,-2664.741391,612.876398,8660.409521
16353.085588,-2368.659014,842.705048,7550.100608
16353.085912,-1480.411884,0.000000,8660.409521
16353.086237,-814.226536,766.095498,8364.327145
16353.086561,-592.164754,1225.752797,7698.141797
16353.086886,444.123565,2068.457845,6957.935855
16353.087210,2368.659014,2068.457845,8734.430116
16353.087534,2368.659014,2451.505594,10436.903782
16353.087859,888.247130,2528.115143,9918.759623
16353.088183,0.000000,459.657299,8512.368333
16353.088507,0.000000,0.000000,8512.368333
16353.088832,-1554.432478,229.828649,10584.944971
16353.089156,-3256.906145,-306.438199,10584.944971
16353.089481,-2664.741391,-2221.676944,9992.780217
16353.089805,-888.247130,-1302.362347,9770.718434
16353.090129,740.205942,-153.219100,11547.212695
16353.090454,-888.247130,229.828649,11251.130318
16353.090778,-1850.514855,-1149.143247,9548.656652
16353.091102,74.020594,-612.876398,7994.224174
16353.091427,1480.411884,306.438199,9030.512492
16353.091751,-592.164754,229.828649,9548.656652
16353.092076,-518.144159,-612.876398,8364.327145
16353.092400,1258.350101,-306.438199,7476.080014
16353.092724,2072.576638,612.876398,9548.656652
16353.093049,1850.514855,1149.143247,11547.212695
16353.093373,1702.473667,612.876398,10362.883188
16353.093697,2072.576638,-1378.971896,7624.121203
16353.094022,1628.453072,0.000000,8068.244768
16353.094346,888.247130,153.219100,9844.739029
16353.094671,-370.102971,229.828649,9696.697840
16353.094995,0.000000,-1302.362347,8808.450710
16353.095319,666.185348,-306.438199,7772.162391
16353.095644,1258.350101,306.438199,9400.615463
16353.095968,-518.144159,842.705048,10510.924376
16353.096292,-1776.494261,-306.438199,10955.047942
16353.096617,-1628.453072,0.000000,8364.327145
16353.096941,-888.247130,-383.047749,9696.697840
16353.097265,-1110.308913,-459.657299,8956.491898
16353.097590,-666.185348,0.000000,8438.347739
16353.097914,740.205942,1302.362347,7698.141797
16353.098239,2442.679609,2145.067394,10584.944971
16353.098563,2294.638420,2221.676944,12879.583391
16353.098887,1924.535449,2987.772442,11251.130318
16353.099212,2072.576638,1455.581446,7994.224174
16353.099536,2220.617826,1838.629195,7031.956449
16353.099860,592.164754,1991.848295,10288.862594
16353.100185,-962.267725,2145.067394,9030.512492
16353.100509,-370.102971,919.314598,8068.244768
16353.100834,1184.329507,1685.410096,7179.997637
16353.101158,0.000000,2987.772442,8364.327145
16353.101482,-1998.556043,3217.601092,9548.656652
16353.101807,-2886.803174,1685.410096,8512.368333
16353.102131,-1628.453072,1225.752797,8290.306550
16353.102455,-1406.391290,1149.143247,8734.430116
16353.102780,-3552.988522,766.095498,9400.615463
16353.103104,-5033.400406,-383.047749,8660.409521
16353.103429,-3256.906145,383.047749,8068.244768
16353.103753,-1850.514855,1072.533697,10510.924376
16353.104077,-1702.473667,1072.533697,11325.150913
16353.104402,518.144159,536.266849,9696.697840
16353.104726,1036.288319,1455.581446,7772.162391
16353.105050,74.020594,689.485948,9326.594869
16353.105375,0.000000,459.657299,10436.903782
16353.105699,370.102971,383.047749,9918.759623
16353.106024,592.164754,-306.438199,8882.471304
16353.106348,3108.864956,919.314598,8660.409521
16353.106672,3701.029710,1149.143247,10658.965565
16353.106997,1332.370696,919.314598,10955.047942
16353.107321,370.102971,-306.438199,10436.903782
16353.107645,2146.597232,-229.828649,7698.141797
16353.107970,1776.494261,-1302.362347,7624.121203
16353.108294,-888.247130,-1149.143247,9104.533087
16353.108619,-1776.494261,-383.047749,9252.574275
16353.108943,-148.041188,-612.876398,7772.162391
16353.109267,1702.473667,-919.314598,8438.347739
16353.109592,1924.535449,0.000000,11399.171507
16353.109916,-1184.329507,383.047749,10955.047942
16353.110240,74.020594,-1225.752797,8512.368333
16353.110565,3404.947333,-1225.752797,8438.347739
16353.110889,222.061783,-536.266849,11325.150913
16353.111213,-888.247130,383.047749,9104.533087
16353.111538,518.144159,-1225.752797,9252.574275
16353.111862,1924.535449,-306.438199,8586.388927
16353.112187,1036.288319,919.314598,10510.924376
16353.112511,-296.082377,2374.896044,11547.212695
16353.112835,1184.329507,-306.438199,8734.430116
16353.113160,74.020594,229.828649,8068.244768
16353.113484,1924.535449,919.314598,7698.141797
16353.113808,-1480.411884,1378.971896,10436.903782
16353.114133,-2738.761985,229.828649,9030.512492
16353.114457,222.061783,2221.676944,6957.935855
16353.114782,2590.720797,1991.848295,9252.574275
16353.115106,-296.082377,1608.800546,10584.944971
16353.115430,-1258.350101,1302.362347,10732.986159
16353.115755,0.000000,1608.800546,8364.327145
16353.116079,-814.226536,1915.238745,8660.409521
16353.116403,-370.102971,1072.533697,9400.615463
16353.116728,-740.205942,1149.143247,8290.306550
16353.117052,-592.164754,1378.971896,7550.100608
16353.117377,74.020594,2528.115143,8808.450710
16353.117701,666.185348,2451.505594,11769.274478
16353.118025,296.082377,1991.848295,10436.903782
16353.118350,-1258.350101,612.876398,9548.656652
16353.118674,-592.164754,766.095498,7476.080014
16353.118998,-888.247130,306.438199,7994.224174
16353.119323,-3182.885551,-306.438199,9474.636058
16353.119647,-3478.967927,-919.314598,9474.636058
16353.119972,-1998.556043,-689.485948,8734.430116
16353.120296,-296.082377,689.485948,9474.636058
16353.120620,-1702.473667,76.609550,10732.986159
16353.120945,-2664.741391,-689.485948,9474.636058
16353.121269,-1036.288319,0.000000,7994.224174
16353.121593,296.082377,919.314598,8438.347739
16353.121918,888.247130,-536.266849,9548.656652
16353.122242,296.082377,689.485948,9252.574275
16353.122567,1258.350101,919.314598,8956.491898
16353.122891,2960.823768,842.705048,9474.636058
16353.123215,2368.659014,689.485948,10658.965565
16353.123540,2368.659014,1608.800546,9918.759623
16353.123864,1924.535449,536.266849,10436.903782
16353.124188,666.185348,-919.314598,8808.450710
16353.124513,370.102971,-919.314598,8956.491898
16353.124837,-370.102971,-153.219100,9622.677246
16353.125161,-2146.597232,-1532.190996,9252.574275
16353.125486,-1480.411884,-995.924147,7254.018232
16353.125810,2146.597232,-229.828649,8660.409521
16353.126135,296.082377,1685.410096,11695.253884
16353.126459,-1554.432478,383.047749,10140.821405
16353.126783,-222.061783,-153.219100,7698.141797
16353.127108,962.267725,0.000000,6957.935855
16353.127432,0.000000,-153.219100,9474.636058
16353.127756,-1554.432478,536.266849,10140.821405
16353.128081,444.123565,-689.485948,10436.903782
16353.128405,1332.370696,1072.533697,9918.759623
16353.128730,2146.597232,1072.533697,10955.047942
16353.129054,444.123565,689.485948,10510.924376
16353.129378,444.123565,383.047749,9474.636058
16353.129703,370.102971,1762.019645,9400.615463
16353.130027,814.226536,1149.143247,9178.553681
16353.130351,0.000000,995.924147,9696.697840
16353.130676,740.205942,1225.752797,9252.574275
16353.131000,2072.576638,3064.381992,8512.368333
16353.131325,1554.432478,2528.115143,9326.594869
16353.131649,-222.061783,1532.190996,9622.677246
16353.131973,-296.082377,2451.505594,10066.800811
16353.132298,888.247130,2221.676944,8364.327145
16353.132622,-592.164754,306.438199,7254.018232
16353.132946,-2738.761985,-536.266849,7772.162391
16353.133271,-2664.741391,1685.410096,9770.718434
16353.133595,-1332.370696,1608.800546,9474.636058
16353.133919,814.226536,459.657299,8956.491898
16353.134244,1406.391290,1149.143247,9326.594869
16353.134568,296.082377,3677.258390,9400.615463
16353.134893,888.247130,2987.772442,9622.677246
16353.135217,2442.679609,842.705048,8734.430116
16353.135541,518.144159,995.924147,8438.347739
16353.135866,-962.267725,1838.629195,8586.388927
16353.136190,-962.267725,995.924147,9622.677246
16353.136514,-518.144159,0.000000,8956.491898
16353.136839,-296.082377,306.438199,9622.677246
16353.137163,-1332.370696,689.485948,10732.986159
16353.137488,-1184.329507,459.657299,9992.780217
16353.137812,-74.020594,-612.876398,9474.636058
16353.138136,74.020594,536.266849,7624.121203
16353.138461,-1924.535449,1685.410096,8512.368333
16353.138785,-1850.514855,766.095498,8956.491898
16353.139109,0.000000,-459.657299,6587.832884
16353.139434,518.144159,-229.828649,8512.368333
16353.139758,592.164754,1225.752797,9844.739029
16353.140082,-666.185348,306.438199,11325.150913
16353.140407,-1332.370696,-2604.724693,10955.047942
16353.140731,-1924.535449,-2681.334243,8734.430116
16353.141056,-1480.411884,-1685.410096,9548.656652
16353.141380,-222.061783,-842.705048,9474.636058
16353.141704,-814.226536,-2145.067394,11769.274478
16353.142029,148.041188,-229.828649,9252.574275
16353.142353,2368.659014,995.924147,9030.512492
16353.142677,1628.453072,229.828649,9400.615463
16353.143002,1332.370696,536.266849,9474.636058
16353.143326,1480.411884,1762.019645,10436.903782
16353.143651,1258.350101,689.485948,9992.780217
16353.143975,-666.185348,-2374.896044,10658.965565
16353.144299,-1480.411884,-1991.848295,9400.615463
16353.144624,-1554.432478,-1225.752797,8586.388927
16353.144948,-1258.350101,-1072.533697,7920.203579
16353.145272,0.000000,-1378.971896,10066.800811
16353.145597,74.020594,842.705048,10436.903782
16353.145921,1184.329507,459.657299,10214.842000
16353.146245,666.185348,76.609550,8216.285956
16353.146570,296.082377,766.095498,7031.956449
16353.146894,148.041188,1991.848295,7328.038826
16353.147219,1258.350101,1455.581446,7920.203579
16353.147543,2664.741391,1225.752797,8364.327145
16353.147867,1036.288319,1762.019645,8956.491898
16353.148192,0.000000,1838.629195,9844.739029
16353.148516,0.000000,919.314598,10436.903782
16353.148840,-444.123565,229.828649,10214.842000
16353.149165,-888.247130,383.047749,8956.491898
16353.149489,-1332.370696,-766.095498,9326.594869
16353.149814,-1480.411884,0.000000,9474.636058
16353.150138,-814.226536,995.924147,9326.594869
16353.150462,1332.370696,1685.410096,8142.265362
16353.150787,3034.844362,2911.162892,9178.553681
16353.151111,4367.215058,4673.182538,10658.965565
16353.151435,5255.462188,4290.134789,11325.150913
16353.151760,4737.318029,3140.991542,10510.924376
16353.152084,2590.720797,2834.553343,9178.553681
16353.152409,370.102971,1838.629195,8956.491898
16353.152733,-888.247130,1378.971896,9030.512492
16353.153057,-1776.494261,919.314598,9844.739029
16353.153382,-1998.556043,1532.190996,8660.409521
16353.153706,-3849.070898,689.485948,9400.615463
16353.154030,-4589.276840,229.828649,7994.224174
16353.154355,-3182.885551,229.828649,8512.368333
16353.154679,-3108.864956,76.609550,7772.162391
16353.155003,-4737.318029,-306.438199,7550.100608
16353.155328,-5329.482782,612.876398,8290.306550
16353.155652,-2664.741391,689.485948,7476.080014
16353.155977,-814.226536,919.314598,7328.038826
16353.156301,1258.350101,1915.238745,8438.347739
16353.156625,1776.494261,2221.676944,10214.842000
16353.156950,2072.576638,459.657299,11695.253884
16353.157274,1332.370696,-153.219100,10732.986159
16353.157598,1184.329507,-842.705048,9104.533087
16353.157923,518.144159,-459.657299,10066.800811
16353.158247,444.123565,-689.485948,10288.862594
16353.158572,3404.947333,0.000000,10362.883188
16353.158896,4071.132681,459.657299,11621.233289
16353.159220,3478.967927,842.705048,11103.089130
16353.159545,3034.844362,1838.629195,10436.903782
16353.159869,2590.720797,842.705048,9178.553681
16353.160193,518.144159,-383.047749,7328.038826
16353.160518,-1702.473667,-766.095498,7994.224174
16353.160842,-2516.700203,-995.924147,9030.512492
16353.161166,-3701.029710,-2145.067394,8586.388927
16353.161491,-3775.050304,-2528.115143,8808.450710
16353.161815,-3034.844362,-2145.067394,8660.409521
16353.162140,-3478.967927,-1532.190996,9844.739029
16353.162464,-2664.741391,-1302.362347,9992.780217
16353.162788,-222.061783,-612.876398,9326.594869
16353.163113,-592.164754,-536.266849,9326.594869
16353.163437,444.123565,-1072.533697,9252.574275
16353.163761,1850.514855,306.438199,9918.759623
16353.164086,2886.803174,1378.971896,9474.636058
16353.164410,3849.070898,2145.067394,9474.636058
16353.164735,4885.359217,1838.629195,9992.780217
16353.165059,4589.276840,3064.381992,10214.842000
16353.165383,3849.070898,1991.848295,9770.718434
16353.165708,962.267725,1608.800546,10140.821405
16353.166032,-1110.308913,-766.095498,8290.306550
16353.166356,0.000000,842.705048,7402.059420
16353.166681,-1480.411884,0.000000,9474.636058
16353.167005,-1924.535449,-612.876398,7105.977043
16353.167329,-1110.308913,153.219100,9548.656652
16353.167654,148.041188,2911.162892,10955.047942
16353.167978,0.000000,0.000000,10807.006753
16353.168303,-1184.329507,0.000000,9548.656652
16353.168627,222.061783,1838.629195,8956.491898
16353.168951,-592.164754,2604.724693,9696.697840
16353.169276,592.164754,229.828649,9104.533087
16353.169600,296.082377,1225.752797,8290.306550
16353.169924,1110.308913,2987.772442,8734.430116
16353.170249,1184.329507,3753.867940,9844.739029
16353.170573,666.185348,1991.848295,11103.089130
16353.170898,444.123565,1225.752797,9104.533087
16353.171222,-148.041188,2528.115143,8808.450710
16353.171546,-1332.370696,1685.410096,8216.285956
16353.171871,-1258.350101,766.095498,8216.285956
16353.172195,-222.061783,842.705048,7476.080014
16353.172519,-666.185348,2145.067394,7031.956449
16353.172844,-1184.329507,1225.752797,9104.533087
16353.173168,-444.123565,1532.190996,8290.306550
16353.173492,-1332.370696,1532.190996,10362.883188
16353.173817,-1258.350101,689.485948,9474.636058
16353.174141,-1850.514855,-229.828649,9104.533087
16353.174466,-2072.576638,-995.924147,8660.409521
16353.174790,-2368.659014,-383.047749,9326.594869
16353.175114,-666.185348,-383.047749,9104.533087
16353.175439,74.020594,0.000000,9844.739029
16353.175763,1332.370696,153.219100,11695.253884
16353.176087,740.205942,612.876398,11399.171507
16353.176412,1036.288319,-383.047749,10436.903782
16353.176736,1184.329507,-689.485948,8734.430116
16353.177061,518.144159,0.000000,10807.006753
16353.177385,-666.185348,306.438199,9844.739029
16353.177709,-518.144159,-306.438199,8364.327145
16353.178034,1332.370696,-1915.238745,6661.853478
16353.178358,1554.432478,536.266849,6957.935855
16353.178682,518.144159,1838.629195,10732.986159
16353.179007,-370.102971,1072.533697,10658.965565
16353.179331,-222.061783,-2068.457845,8808.450710
16353.179655,-592.164754,-2068.457845,7698.141797
16353.179980,-1110.308913,-229.828649,9252.574275
16353.180304,-1332.370696,-229.828649,10955.047942
16353.180629,-1332.370696,-2145.067394,9696.697840
16353.180953,-444.123565,-1302.362347,9252.574275
16353.181277,1554.432478,229.828649,9030.512492
16353.181602,2072.576638,842.705048,9178.553681
16353.181926,2220.617826,459.657299,9474.636058
16353.182250,1332.370696,1685.410096,9548.656652
16353.182575,1924.535449,0.000000,10658.965565
16353.182899,2664.741391,-383.047749,9252.574275
16353.183224,3330.926739,689.485948,8734.430116
16353.183548,1998.556043,1915.238745,8216.285956
16353.183872,962.267725,2987.772442,11103.089130
16353.184197,2220.617826,1991.848295,12731.542202
16353.184521,1850.514855,1072.533697,10066.800811
16353.184845,592.164754,383.047749,7698.141797
16353.185170,-592.164754,1225.752797,6291.750507
16353.185494,-1924.535449,1532.190996,9178.553681
16353.185819,-4219.173869,1455.581446,10066.800811
16353.186143,-3182.885551,-919.314598,8364.327145
16353.186467,-2072.576638,612.876398,6069.688724
16353.186792,-1184.329507,2987.772442,8216.285956
16353.187116,-2886.803174,3140.991542,10732.986159
16353.187440,-3478.967927,-536.266849,10214.842000
16353.187765,-3404.947333,0.000000,8734.430116
16353.188089,-2146.597232,1302.362347,9474.636058
16353.188413,-4663.297435,2451.505594,11399.171507
16353.188738,-5403.503377,459.657299,10807.006753
16353.189062,-2294.638420,76.609550,6439.791695
16353.189387,-1258.350101,229.828649,9474.636058
16353.189711,-222.061783,842.705048,8364.327145
16353.190035,74.020594,3677.258390,11399.171507
16353.190360,0.000000,2298.286494,9400.615463
16353.190684,222.061783,229.828649,5033.400406
16353.191008,1554.432478,306.438199,6587.832884
16353.191333,2072.576638,4443.353888,8586.388927
16353.191657,2886.803174,2451.505594,9030.512492
16353.191982,2812.782580,-536.266849,7624.121203
16353.192306,1480.411884,-689.485948,8882.471304
16353.192630,-592.164754,536.266849,11103.089130
16353.192955,-2664.741391,-1225.752797,10955.047942
16353.193279,-3256.906145,-4443.353888,7476.080014
16353.193603,-3552.988522,-4443.353888,8660.409521
16353.193928,-5033.400406,-3447.429741,11917.315666
16353.194252,-6069.688724,-4826.401637,10732.986159
16353.194576,-6069.688724,-7967.393179,8956.491898
16353.194901,-5329.482782,-5669.106685,7402.059420
16353.195225,-4663.297435,-2987.772442,10436.903782
16353.195550,-2146.597232,-3753.867940,11029.068536
16353.195874,-814.226536,-5898.935335,10658.965565
16353.196198,-518.144159,-4443.353888,8956.491898
16353.196523,962.267725,-2374.896044,8882.471304
16353.196847,148.041188,-4826.401637,10881.027347
16353.197171,-1332.370696,-5286.058936,10362.883188
16353.197496,-148.041188,-3753.867940,10658.965565
16353.197820,518.144159,-3217.601092,9918.759623
16353.198145,666.185348,-4673.182538,10214.842000
16353.198469,888.247130,-3753.867940,10436.903782
16353.198793,370.102971,-1225.752797,9474.636058
16353.199118,-740.205942,-1608.800546,10362.883188
16353.199442,-1480.411884,-3217.601092,9326.594869
16353.199766,-3849.070898,-2681.334243,8734.430116
16353.200091,-5551.544565,-2987.772442,7920.203579
16353.200415,-6217.729913,-3217.601092,8364.327145
16353.200739,-5033.400406,-3677.258390,8882.471304
16353.201064,-6735.874072,-3217.601092,10140.821405
16353.201388,-7402.059420,-3524.039291,9400.615463
16353.201713,-5403.503377,-1991.848295,7846.182985
16353.202037,-3330.926739,-919.314598,9104.533087
16353.202361,-3849.070898,-229.828649,9252.574275
16353.202686,-2516.700203,153.219100,9548.656652
16353.203010,-1850.514855,229.828649,8586.388927
16353.203334,-370.102971,919.314598,8142.265362
16353.203659,222.061783,1149.143247,7994.224174
16353.203983,-222.061783,1685.410096,7846.182985
16353.204308,444.123565,1762.019645,7772.162391
16353.204632,2146.597232,2374.896044,9252.574275
16353.204956,1480.411884,1762.019645,9992.780217
16353.205281,518.144159,2221.676944,8586.388927
16353.205605,2220.617826,2987.772442,8438.347739
16353.205929,2812.782580,3217.601092,8512.368333
16353.206254,962.267725,2068.457845,9252.574275
16353.206578,-740.205942,1608.800546,10288.862594
16353.206902,-3034.844362,689.485948,9770.718434
16353.207227,-4737.318029,-1915.238745,8586.388927
16353.207551,-5921.647536,-2298.286494,9178.553681
16353.207876,-5255.462188,-2068.457845,9992.780217
16353.208200,-6217.729913,-1991.848295,11177.109724
16353.208524,-5033.400406,-1991.848295,10658.965565
16353.208849,-4293.194464,-1302.362347,10436.903782
16353.209173,-4219.173869,-612.876398,9104.533087
16353.209497,-1850.514855,842.705048,7550.100608
16353.209822,1184.329507,1149.143247,8438.347739
16353.210146,1776.494261,1608.800546,8586.388927
16353.210471,-666.185348,1608.800546,9178.553681
16353.210795,-962.267725,76.609550,8956.491898
16353.211119,-1702.473667,-1915.238745,8808.450710
16353.211444,-2146.597232,-3524.039291,9030.512492
16353.211768,-1628.453072,-2911.162892,9696.697840
16353.212092,-2220.617826,-3447.429741,10584.944971
16353.212417,-2294.638420,-4290.134789,9548.656652
16353.212741,-592.164754,-2451.505594,9474.636058
16353.213066,592.164754,-842.705048,9622.677246
16353.213390,-666.185348,-1608.800546,8512.368333
16353.213714,-148.041188,-2145.067394,7994.224174
16353.214039,-518.144159,-995.924147,9252.574275
16353.214363,-2294.638420,-1455.581446,9992.780217
16353.214687,-5107.421000,-3524.039291,9252.574275
16353.215012,-6735.874072,-5669.106685,7846.182985
16353.215336,-7624.121203,-6281.983084,8660.409521
16353.215660,-8512.368333,-6894.859482,10732.986159
16353.215985,-9104.533087,-8350.440928,11769.274478
16353.216309,-8364.327145,-9346.365076,10658.965565
16353.216634,-5699.585753,-7431.126331,9770.718434
16353.216958,-2294.638420,-5056.230287,10658.965565
16353.217282,74.020594,-2987.772442,10732.986159
16353.217607,2812.782580,-383.047749,10436.903782
16353.217931,4737.318029,1685.410096,9696.697840
16353.218255,5551.544565,2221.676944,8734.430116
16353.218580,4145.153275,2145.067394,7550.100608
16353.218904,2664.741391,1072.533697,6439.791695
16353.219229,148.041188,612.876398,7105.977043
16353.219553,-2220.617826,-1149.143247,8512.368333
16353.219877,-4145.153275,-2757.943793,10140.821405
16353.220202,-4663.297435,-4366.744339,9696.697840
16353.220526,-4885.359217,-4749.792088,9474.636058
16353.220850,-4515.256246,-4519.963438,10732.986159
16353.221175,-3552.988522,-4213.525239,11769.274478
16353.221499,-3997.112087,-3140.991542,11547.212695
16353.221823,-2442.679609,-2374.896044,9178.553681
16353.222148,-592.164754,-383.047749,8068.244768
16353.222472,518.144159,1532.190996,8364.327145
16353.222797,814.226536,2911.162892,9252.574275
16353.223121,296.082377,3294.210641,9326.594869
16353.223445,-296.082377,3524.039291,8586.388927
16353.223770,-2146.597232,2911.162892,7846.182985
16353.224094,-3256.906145,612.876398,6587.832884
16353.224418,-5477.523971,153.219100,7031.956449
16353.224743,-7698.141797,-1762.019645,7179.997637
16353.225067,-7920.203579,-3524.039291,8882.471304
16353.225392,-8142.265362,-4826.401637,9844.739029
16353.225716,-7920.203579,-4826.401637,9474.636058
16353.226040,-6069.688724,-3753.867940,9696.697840
16353.226365,-2146.597232,-1991.848295,10214.842000
16353.226689,1036.288319,-306.438199,11251.130318
16353.227013,4737.318029,1532.190996,11251.130318
16353.227338,6883.915261,3753.867940,9918.759623
16353.227662,7328.038826,4979.620737,9178.553681
16353.227986,7550.100608,5286.058936,9400.615463
16353.228311,6957.935855,4673.182538,8438.347739
16353.228635,4737.318029,3907.087040,9252.574275
16353.228960,518.144159,1072.533697,9474.636058
16353.229284,-3256.906145,-1991.848295,9474.636058
16353.229608,-6735.874072,-4366.744339,10214.842000
16353.229933,-9548.656652,-5745.716235,9844.739029
16353.230257,-11843.295072,-6435.202183,9400.615463
16353.230581,-11029.068536,-6435.202183,8364.327145
16353.230906,-9400.615463,-5822.325785,8438.347739
16353.231230,-6587.832884,-3983.696590,7698.141797
16353.231554,-3923.091493,-1685.410096,8068.244768
16353.231879,-2368.659014,-766.095498,7846.182985
16353.232203,-962.267725,306.438199,7846.182985
16353.232527,1406.391290,1072.533697,8438.347739
16353.232852,3182.885551,612.876398,9104.533087
16353.233176,1776.494261,-612.876398,9474.636058
16353.233500,444.123565,-1762.019645,9400.615463
16353.233825,0.000000,-2834.553343,11103.089130
16353.234149,-222.061783,-4213.525239,11621.233289
16353.234473,-1036.288319,-4903.011187,12065.356855
16353.234798,-2738.761985,-4903.011187,11695.253884
16353.235122,-2960.823768,-4136.915689,10732.986159
16353.235446,-1628.453072,-3983.696590,10881.027347
16353.235771,-1258.350101,-2911.162892,10066.800811
16353.236095,-2146.597232,-2451.505594,8882.471304
16353.236419,-3478.967927,-1838.629195,8808.450710
16353.236744,-3923.091493,-1991.848295,8512.368333
16353.237068,-3627.009116,-2221.676944,9104.533087
16353.237393,-4515.256246,-3217.601092,8956.491898
16353.237717,-6069.688724,-3447.429741,8216.285956
16353.238041,-5551.544565,-3447.429741,8364.327145
16353.238366,-4737.318029,-3830.477490,8364.327145
16353.238690,-4145.153275,-3677.258390,9030.512492
16353.239014,-4737.318029,-3140.991542,8660.409521
16353.239339,-3552.988522,-2221.676944,8142.265362
16353.239663,-222.061783,-842.705048,8956.491898
16353.239987,1628.453072,-612.876398,9474.636058
16353.240312,2146.597232,-383.047749,9548.656652
16353.240636,2516.700203,689.485948,9844.739029
16353.240960,3108.864956,1149.143247,9622.677246
16353.241285,3997.112087,1608.800546,10584.944971
16353.241609,3849.070898,1532.190996,10955.047942
16353.241933,1850.514855,919.314598,10732.986159
16353.242258,148.041188,766.095498,10140.821405
16353.242582,518.144159,306.438199,9696.697840
16353.242906,-888.247130,-459.657299,9622.677246
16353.243231,-3404.947333,0.000000,8956.491898
16353.243555,-4589.276840,229.828649,8142.265362
16353.243879,-4663.297435,0.000000,8290.306550
16353.244204,-4293.194464,0.000000,8808.450710
16353.244528,-4145.153275,612.876398,8660.409521
16353.244852,-5403.503377,689.485948,7994.224174
16353.245177,-4145.153275,612.876398,7846.182985
16353.245501,-2516.700203,383.047749,9252.574275
16353.245826,-1628.453072,766.095498,9326.594869
16353.246150,-1184.329507,1302.362347,9030.512492
16353.246474,-592.164754,1225.752797,9252.574275
16353.246799,814.226536,1225.752797,9252.574275
16353.247123,1110.308913,1838.629195,9770.718434
16353.247447,444.123565,1838.629195,9622.677246
16353.247772,888.247130,1225.752797,9178.553681
16353.248096,888.247130,1455.581446,9178.553681
16353.248420,1406.391290,1608.800546,9474.636058
16353.248745,962.267725,1149.143247,9548.656652
16353.249069,-296.082377,536.266849,9474.636058
16353.249393,-1036.288319,306.438199,9178.553681
16353.249718,-1998.556043,-1225.752797,9474.636058
16353.250042,-4293.194464,-2374.896044,9474.636058
16353.250366,-5107.421000,-2681.334243,8956.491898
16353.250691,-5847.626942,-3140.991542,8734.430116
16353.251015,-6587.832884,-4136.915689,8734.430116
16353.251339,-7031.956449,-4443.353888,8364.327145
16353.251664,-6661.853478,-3983.696590,8142.265362
16353.251988,-6735.874072,-4136.915689,8290.306550
16353.252312,-5921.647536,-4136.915689,8364.327145
16353.252637,-3997.112087,-3983.696590,9326.594869
16353.252961,-3330.926739,-3677.258390,9400.615463
16353.253285,-2442.679609,-3830.477490,9474.636058
16353.253610,-740.205942,-3830.477490,9918.759623
16353.253934,0.000000,-3830.477490,9918.759623
16353.254258,-592.164754,-4519.963438,10288.862594
16353.254583,-370.102971,-4290.134789,10658.965565
16353.254907,444.123565,-4213.525239,10436.903782
16353.255232,-740.205942,-4903.011187,10658.965565
16353.255556,-1776.494261,-4903.011187,11029.068536
16353.255880,-2072.576638,-4673.182538,10066.800811
16353.256205,-2738.761985,-4213.525239,9918.759623
16353.256529,-3256.906145,-3830.477490,9326.594869
16353.256853,-3182.885551,-3677.258390,8882.471304
16353.257178,-4219.173869,-3983.696590,8364.327145
16353.257502,-3849.070898,-3600.648841,8586.388927
16353.257826,-3997.112087,-3600.648841,9400.615463
16353.258151,-4441.235652,-3677.258390,9104.533087
16353.258475,-4071.132681,-3677.258390,9030.512492
16353.258799,-2664.741391,-3217.601092,9474.636058
16353.259124,-1628.453072,-2451.505594,9474.636058
16353.259448,-888.247130,-1685.410096,9844.739029
16353.259772,222.061783,-842.705048,9918.759623
16353.260097,1036.288319,-459.657299,9992.780217
16353.260421,1702.473667,383.047749,9770.718434
16353.260745,1702.473667,995.924147,9844.739029
16353.261070,1258.350101,1838.629195,9178.553681
16353.261394,592.164754,2451.505594,9252.574275
16353.261718,666.185348,2298.286494,9252.574275
16353.262043,-962.267725,1915.238745,8586.388927
16353.262367,-3034.844362,1302.362347,7624.121203
16353.262691,-4071.132681,1532.190996,7105.977043
16353.263016,-4737.318029,1072.533697,7254.018232
16353.263340,-5181.441594,0.000000,7624.121203
16353.263665,-6957.935855,0.000000,7328.038826
16353.263989,-6957.935855,76.609550,6809.894666
16353.264313,-6069.688724,-153.219100,7994.224174
16353.264638,-5181.441594,-536.266849,9326.594869
16353.264962,-4515.256246,-842.705048,9992.780217
16353.265286,-3404.947333,-689.485948,10436.903782
16353.265611,-888.247130,0.000000,11547.212695
16353.265935,1406.391290,383.047749,12509.480420
16353.266259,2516.700203,766.095498,11177.109724
16353.266584,2368.659014,1378.971896,10288.862594
16353.266908,4293.194464,2374.896044,10140.821405
16353.267232,5329.482782,3140.991542,10362.883188
16353.267557,4071.132681,3064.381992,10066.800811
16353.267881,1628.453072,1532.190996,7920.203579
16353.268205,-666.185348,766.095498,7772.162391
16353.268530,-3478.967927,-1685.410096,6735.874072
16353.268854,-5699.585753,-2911.162892,7105.977043
16353.269178,-7994.224174,-4903.011187,7402.059420
16353.269503,-9474.636058,-6281.983084,7105.977043
16353.269827,-8438.347739,-6588.421283,7772.162391
16353.270151,-6513.812290,-5898.935335,8512.368333
16353.270476,-5403.503377,-5822.325785,9622.677246
16353.270800,-3701.029710,-4213.525239,9104.533087
16353.271124,-1406.391290,-2604.724693,9844.739029
16353.271449,1184.329507,-2451.505594,10658.965565
16353.271773,1776.494261,-1991.848295,10658.965565
16353.272097,1406.391290,-2298.286494,10362.883188
16353.272422,148.041188,-2834.553343,9622.677246
16353.272746,148.041188,-4213.525239,10362.883188
16353.273071,666.185348,-4290.134789,11769.274478
16353.273395,-740.205942,-4673.182538,13175.665768
16353.273719,-2516.700203,-5362.668486,12509.480420
16353.274044,-2590.720797,-5745.716235,11843.295072
16353.274368,-2960.823768,-6128.763984,10510.924376
16353.274692,-4219.173869,-5439.278036,9326.594869
16353.275017,-4515.256246,-4596.572988,8142.265362
16353.275341,-3701.029710,-2834.553343,7846.182985
16353.275665,-3923.091493,-2451.505594,7772.162391
16353.275990,-3627.009116,-1532.190996,7328.038826
16353.276314,-3034.844362,-766.095498,6883.915261
16353.276638,-3849.070898,-612.876398,7031.956449
16353.276963,-3849.070898,-919.314598,7624.121203
16353.277287,-2738.761985,-229.828649,7772.162391
16353.277611,-2886.803174,-1149.143247,7624.121203
16353.277936,-2368.659014,-995.924147,7920.203579
16353.278260,-1480.411884,-842.705048,9474.636058
16353.278584,-1702.473667,-1455.581446,10510.924376
16353.278909,-1258.350101,-2451.505594,10732.986159
16353.279233,-666.185348,-2221.676944,11103.089130
16353.279557,-1110.308913,-1225.752797,11547.212695
16353.279882,-1036.288319,-536.266849,11325.150913
16353.280206,0.000000,689.485948,9622.677246
16353.280530,0.000000,2068.457845,9474.636058
16353.280855,-740.205942,2451.505594,9104.533087
16353.281179,-962.267725,2451.505594,7105.977043
16353.281503,-1036.288319,2987.772442,7402.059420
16353.281828,-2516.700203,2604.724693,8364.327145
16353.282152,-4515.256246,1378.971896,8438.347739
16353.282477,-5107.421000,-1302.362347,8586.388927
16353.282801,-6735.874072,-2374.896044,7994.224174
16353.283125,-7624.121203,-4060.306139,8216.285956
16353.283450,-7179.997637,-4519.963438,9622.677246
16353.283774,-5329.482782,-4060.306139,10066.800811
16353.284098,-2368.659014,-3064.381992,10584.944971
16353.284423,1258.350101,-766.095498,10658.965565
16353.284747,3034.844362,766.095498,10807.006753
16353.285071,5033.400406,2374.896044,9770.718434
16353.285396,6439.791695,4060.306139,9992.780217
16353.285720,6365.771101,5286.058936,9474.636058
16353.286044,5329.482782,4366.744339,7920.203579
16353.286369,2368.659014,1532.190996,7105.977043
16353.286693,-2664.741391,-536.266849,8142.265362
16353.287017,-7179.997637,-3140.991542,8808.450710
16353.287342,-10510.924376,-6665.030833,8956.491898
16353.287666,-11399.171507,-8963.317327,8290.306550
16353.287990,-11621.233289,-8120.612279,9696.697840
16353.288315,-10658.965565,-7431.126331,9696.697840
16353.288639,-7476.080014,-7660.954980,9252.574275
16353.288963,-2072.576638,-5362.668486,9622.677246
16353.289288,2220.617826,0.000000,10510.924376
16353.289612,5107.421000,536.266849,10881.027347
16353.289936,6957.935855,995.924147,10881.027347
16353.290261,8068.244768,1838.629195,11029.068536
16353.290585,5921.647536,2528.115143,11177.109724
16353.290910,3034.844362,229.828649,9252.574275
16353.291234,1554.432478,-1608.800546,8364.327145
16353.291558,-444.123565,-1915.238745,9326.594869
16353.291883,-3997.112087,-2451.505594,9770.718434
16353.292207,-6735.874072,-4749.792088,10140.821405
16353.292531,-6809.894666,-5286.058936,8586.388927
16353.292856,-6883.915261,-3830.477490,8290.306550
16353.293180,-6809.894666,-3217.601092,7624.121203
16353.293504,-6883.915261,-3830.477490,7846.182985
16353.293829,-6661.853478,-3370.820191,7698.141797
16353.294153,-5477.523971,-2298.286494,7179.997637
16353.294477,-2738.761985,-1685.410096,8438.347739
16353.294802,-1924.535449,-1378.971896,10140.821405
16353.295126,-1184.329507,-842.705048,10732.986159
16353.295450,1184.329507,229.828649,10288.862594
16353.295775,3552.988522,766.095498,10436.903782
16353.296099,1776.494261,919.314598,11769.274478
16353.296423,-888.247130,459.657299,10362.883188
16353.296748,-1332.370696,-842.705048,7920.203579
16353.297072,-2072.576638,-1302.362347,7846.182985
16353.297396,-2442.679609,-1532.190996,8882.471304
16353.297721,-3478.967927,-919.314598,9918.759623
16353.298045,-3775.050304,-1455.581446,10214.842000
16353.298369,-2220.617826,-2145.067394,10732.986159
16353.298694,74.020594,-383.047749,10732.986159
16353.299018,0.000000,0.000000,11103.089130
16353.299342,-666.185348,689.485948,9104.533087
16353.299667,1036.288319,1149.143247,8068.244768
16353.299991,1776.494261,919.314598,7179.997637
16353.300316,1110.308913,612.876398,8068.244768
16353.300640,0.000000,2604.724693,8216.285956
16353.300964,888.247130,3140.991542,7179.997637
16353.301289,666.185348,1915.238745,7624.121203
16353.301613,518.144159,1455.581446,8956.491898
16353.301937,-370.102971,2604.724693,10066.800811
16353.302262,-1332.370696,1455.581446,8438.347739
16353.302586,-666.185348,-383.047749,7846.182985
16353.302910,-296.082377,459.657299,8364.327145
16353.303235,-2072.576638,689.485948,10214.842000
16353.303559,-1924.535449,0.000000,10066.800811
16353.303883,518.144159,-1149.143247,8734.430116
16353.304208,1480.411884,536.266849,10732.986159
16353.304532,518.144159,1838.629195,12509.480420
16353.304856,148.041188,689.485948,11547.212695
16353.305181,296.082377,0.000000,8512.368333
16353.305505,0.000000,1072.533697,7179.997637
16353.305829,74.020594,3677.258390,9030.512492
16353.306154,370.102971,2911.162892,9844.739029
16353.306478,592.164754,1685.410096,7994.224174
16353.306802,2146.597232,1608.800546,7772.162391
16353.307127,1924.535449,2987.772442,9400.615463
16353.307451,814.226536,2374.896044,11325.150913
16353.307775,740.205942,459.657299,10140.821405
16353.308100,444.123565,-689.485948,7846.182985
16353.308424,-1110.308913,-689.485948,8364.327145
16353.308749,-1184.329507,0.000000,8882.471304
16353.309073,-296.082377,-842.705048,9104.533087
16353.309397,-148.041188,-842.705048,8808.450710
16353.309722,444.123565,842.705048,9474.636058
16353.310046,2220.617826,1991.848295,11029.068536
16353.310370,1776.494261,383.047749,11251.130318
16353.310695,962.267725,383.047749,9474.636058
16353.311019,518.144159,995.924147,9326.594869
16353.311343,0.000000,919.314598,9474.636058
16353.311668,-814.226536,-1302.362347,8660.409521
16353.311992,-1110.308913,-689.485948,7994.224174
16353.312316,-666.185348,229.828649,8956.491898
16353.312641,-1480.411884,-229.828649,10658.965565
16353.312965,-2516.700203,-2528.115143,12509.480420
16353.313289,-2368.659014,-1838.629195,11325.150913
16353.313614,-1480.411884,-1072.533697,9622.677246
16353.313938,-1776.494261,-1838.629195,8734.430116
16353.314262,-1702.473667,-1685.410096,8364.327145
16353.314587,0.000000,459.657299,8142.265362
16353.314911,3701.029710,1991.848295,7846.182985
16353.315235,5255.462188,1991.848295,9252.574275
16353.315560,1702.473667,2221.676944,11029.068536
16353.315884,-666.185348,1378.971896,11177.109724
16353.316208,1480.411884,459.657299,8364.327145
16353.316533,1924.535449,-1072.533697,7920.203579
16353.316857,-962.267725,1302.362347,7994.224174
16353.317181,-1924.535449,536.266849,9474.636058
16353.317506,-1628.453072,0.000000,8290.306550
16353.317830,-740.205942,-1685.410096,8068.244768
16353.318155,-1554.432478,995.924147,9770.718434
16353.318479,-1776.494261,2604.724693,10140.821405
16353.318803,-518.144159,766.095498,10362.883188
16353.319128,1554.432478,766.095498,8364.327145
16353.319452,1110.308913,1072.533697,9030.512492
16353.319776,-1998.556043,1685.410096,9844.739029
16353.320101,-888.247130,1762.019645,8660.409521
16353.320425,1924.535449,2604.724693,8364.327145
16353.320749,2368.659014,2757.943793,9918.759623
16353.321074,1406.391290,3677.258390,11399.171507
16353.321398,1036.288319,2145.067394,10066.800811
16353.321722,148.041188,1915.238745,8216.285956
16353.322047,-296.082377,1685.410096,8438.347739
16353.322371,-1702.473667,1838.629195,10140.821405
16353.322695,-2664.741391,306.438199,9474.636058
16353.323020,-592.164754,383.047749,7624.121203
16353.323344,370.102971,1225.752797,7772.162391
16353.323668,-592.164754,2451.505594,9696.697840
16353.323993,-1480.411884,995.924147,11029.068536
16353.324317,592.164754,229.828649,9844.739029
16353.324641,296.082377,76.609550,9400.615463
16353.324966,444.123565,1302.362347,9252.574275
16353.325290,0.000000,1455.581446,8956.491898
16353.325614,592.164754,306.438199,8068.244768
16353.325939,2664.741391,1532.190996,7920.203579
16353.326263,4663.297435,3830.477490,9326.594869
16353.326587,3627.009116,3064.381992,10214.842000
16353.326912,1480.411884,1149.143247,9622.677246
16353.327236,1554.432478,1685.410096,7698.141797
16353.327561,814.226536,153.219100,8216.285956
16353.327885,-2368.659014,-1532.190996,9474.636058
16353.328209,-3701.029710,-2145.067394,8586.388927
16353.328534,-2368.659014,-1915.238745,7994.224174
16353.328858,-1702.473667,-2451.505594,8290.306550
16353.329182,-1850.514855,-2834.553343,11547.212695
16353.329507,-666.185348,-689.485948,12435.459826
16353.329831,0.000000,-383.047749,11473.192101
16353.330155,1036.288319,-1838.629195,10140.821405
16353.330480,1406.391290,-1149.143247,8734.430116
16353.330804,1332.370696,1378.971896,8364.327145
16353.331128,2368.659014,1685.410096,8364.327145
16353.331453,3034.844362,1225.752797,8364.327145
16353.331777,4145.153275,2145.067394,9622.677246
16353.332101,1924.535449,2528.115143,11547.212695
16353.332426,518.144159,459.657299,9474.636058
16353.332750,-1110.308913,-842.705048,7994.224174
16353.333074,-2516.700203,-1302.362347,7698.141797
16353.333399,-3775.050304,-383.047749,8882.471304
16353.333723,-3627.009116,-1302.362347,9844.739029
16353.334047,-3034.844362,-1838.629195,7476.080014
16353.334371,-2368.659014,-612.876398,7846.182985
16353.334696,-1480.411884,1072.533697,10066.800811
16353.335020,-518.144159,995.924147,11177.109724
16353.335344,1258.350101,536.266849,9844.739029
16353.335669,1998.556043,766.095498,8364.327145
16353.335993,1184.329507,1838.629195,8364.327145
16353.336317,296.082377,2374.896044,9696.697840
16353.336642,222.061783,612.876398,8364.327145
16353.336966,814.226536,459.657299,8808.450710
16353.337290,0.000000,2374.896044,10362.883188
16353.337614,592.164754,2374.896044,10955.047942
16353.337939,148.041188,306.438199,11103.089130
16353.338263,-592.164754,919.314598,9474.636058
16353.338587,0.000000,2374.896044,8438.347739
16353.338912,-296.082377,1225.752797,9178.553681
16353.339236,-444.123565,306.438199,8660.409521
16353.339560,1184.329507,1915.238745,7624.121203
16353.339884,1036.288319,2757.943793,8438.347739
16353.340209,74.020594,2145.067394,8956.491898
16353.340533,222.061783,1302.362347,9622.677246
16353.340857,1554.432478,1991.848295,9474.636058
16353.341182,74.020594,1072.533697,8734.430116
16353.341506,-1554.432478,-306.438199,8882.471304
16353.341830,-1184.329507,-306.438199,8512.368333
16353.342155,-148.041188,689.485948,8438.347739
16353.342479,666.185348,1149.143247,9326.594869
16353.342803,1480.411884,689.485948,10066.800811
16353.343127,1258.350101,1455.581446,11029.068536
16353.343452,1258.350101,1455.581446,12065.356855
16353.343776,1332.370696,1072.533697,9400.615463
16353.344100,296.082377,-689.485948,8216.285956
16353.344425,0.000000,1072.533697,7105.977043
16353.344749,0.000000,1302.362347,8438.347739
16353.345073,666.185348,2221.676944,8734.430116
16353.345397,1554.432478,1072.533697,8808.450710
16353.345722,444.123565,1072.533697,8956.491898
16353.346046,1110.308913,2068.457845,9918.759623
16353.346370,814.226536,1608.800546,10732.986159
16353.346695,1480.411884,0.000000,8364.327145
16353.347019,296.082377,-1149.143247,8512.368333
16353.347343,-1406.391290,0.000000,9770.718434
16353.347668,-1036.288319,229.828649,10362.883188
16353.347992,888.247130,-612.876398,9918.759623
16353.348316,1258.350101,-383.047749,10214.842000
16353.348640,222.061783,2221.676944,11251.130318
16353.348965,740.205942,1302.362347,11325.150913
16353.349289,0.000000,-306.438199,9104.533087
16353.349613,-1110.308913,-689.485948,7550.100608
16353.349938,-2812.782580,1532.190996,7698.141797
16353.350262,-4145.153275,-306.438199,7698.141797
16353.350586,-2812.782580,-1378.971896,7031.956449
16353.350910,-1258.350101,-766.095498,8808.450710
16353.351235,-1480.411884,1302.362347,9696.697840
16353.351559,-444.123565,383.047749,10955.047942
16353.351883,-666.185348,-689.485948,10584.944971
16353.352208,-962.267725,0.000000,7624.121203
16353.352532,-740.205942,689.485948,8068.244768
16353.352856,-518.144159,1072.533697,8216.285956
16353.353181,0.000000,76.609550,8882.471304
16353.353505,296.082377,1225.752797,8438.347739
16353.353829,1480.411884,1302.362347,8512.368333
16353.354153,666.185348,459.657299,10584.944971
16353.354478,0.000000,-459.657299,12065.356855
16353.354802,-1258.350101,-766.095498,10140.821405
16353.355126,-1184.329507,-1455.581446,9474.636058
16353.355451,-1480.411884,-1302.362347,9474.636058
16353.355775,-1850.514855,-842.705048,10140.821405
16353.356099,-1258.350101,-459.657299,8586.388927
16353.356423,-370.102971,-383.047749,8956.491898
16353.356748,148.041188,383.047749,9400.615463
16353.357072,444.123565,1302.362347,10732.986159
16353.357396,0.000000,383.047749,9696.697840
16353.357721,-740.205942,229.828649,8216.285956
16353.358045,-444.123565,0.000000,7402.059420
16353.358369,-592.164754,459.657299,7550.100608
16353.358693,-296.082377,153.219100,8734.430116
16353.359018,962.267725,842.705048,8586.388927
16353.359342,1184.329507,612.876398,9548.656652
16353.359666,1702.473667,766.095498,10510.924376
16353.359991,2886.803174,383.047749,11621.233289
16353.360315,2812.782580,229.828649,10066.800811
16353.360639,2590.720797,689.485948,9474.636058
16353.360964,2886.803174,1685.410096,9474.636058
16353.361288,3256.906145,1302.362347,8438.347739
16353.361612,2812.782580,1378.971896,7994.224174
16353.361936,2812.782580,2834.553343,8364.327145
16353.362261,2146.597232,3294.210641,10362.883188
16353.362585,1110.308913,2374.896044,10510.924376
16353.362909,0.000000,995.924147,9548.656652
16353.363234,-1628.453072,612.876398,6809.894666
16353.363558,-1924.535449,689.485948,6809.894666
16353.363882,-2220.617826,1072.533697,9252.574275
16353.364206,-2146.597232,229.828649,10510.924376
16353.364531,-2294.638420,612.876398,10214.842000
16353.364855,-370.102971,1149.143247,9400.615463
16353.365179,740.205942,1838.629195,10436.903782
16353.365504,222.061783,2068.457845,9770.718434
16353.365828,-888.247130,2145.067394,7772.162391
16353.366152,-74.020594,1762.019645,7698.141797
16353.366477,74.020594,1838.629195,8068.244768
16353.366801,-370.102971,1991.848295,9030.512492
