#time,accel_x,accel_y,accel_z
4948.397065,1628.453072,3140.991542,10584.944971
4948.397379,1036.288319,3370.820191,10140.821405
4948.397694,1406.391290,3447.429741,9326.594869
4948.398008,1406.391290,2757.943793,9252.574275
4948.398323,888.247130,2911.162892,8956.491898
4948.398637,-222.061783,2145.067394,8512.368333
4948.398952,-1036.288319,1225.752797,8364.327145
4948.399266,-1628.453072,383.047749,8142.265362
4948.399581,-2072.576638,-153.219100,8290.306550
4948.399895,-2368.659014,0.000000,8068.244768
4948.400210,-2294.638420,-536.266849,9104.533087
4948.400524,-1628.453072,-919.314598,8882.471304
4948.400839,-1406.391290,-536.266849,9104.533087
4948.401153,-1110.308913,-153.219100,9400.615463
4948.401468,-888.247130,229.828649,9622.677246
4948.401782,0.000000,842.705048,9918.759623
4948.402097,444.123565,1532.190996,10362.883188
4948.402411,74.020594,1608.800546,10584.944971
4948.402726,-222.061783,1455.581446,10140.821405
4948.403040,-1036.288319,1225.752797,10214.842000
4948.403355,-1554.432478,689.485948,10732.986159
4948.403669,-2368.659014,842.705048,11177.109724
4948.403984,-3256.906145,536.266849,11029.068536
4948.404298,-4219.173869,612.876398,11177.109724
4948.404613,-4663.297435,689.485948,10955.047942
4948.404927,-5181.441594,1072.533697,10288.862594
4948.405242,-5255.462188,2298.286494,10140.821405
4948.405556,-5329.482782,2604.724693,9622.677246
4948.405871,-5181.441594,3447.429741,9326.594869
4948.406185,-5033.400406,3830.477490,8512.368333
4948.406500,-4737.318029,4673.182538,8364.327145
4948.406814,-4737.318029,5286.058936,7772.162391
4948.407129,-4811.338623,5592.497135,7476.080014
4948.407443,-4589.276840,6435.202183,7031.956449
4948.407758,-3627.009116,7124.688131,7550.100608
4948.408072,-3849.070898,6665.030833,7550.100608
4948.408387,-4071.132681,6588.421283,7031.956449
4948.408701,-3034.844362,7048.078582,7698.141797
4948.409016,-2368.659014,6741.640382,7698.141797
4948.409330,-1998.556043,6281.983084,7624.121203
4948.409645,-1110.308913,6588.421283,7994.224174
4948.409959,-1184.329507,6435.202183,7920.203579
4948.410274,-962.267725,5515.887586,8438.347739
4948.410588,-962.267725,5439.278036,9030.512492
4948.410903,-888.247130,4673.182538,9992.780217
4948.411217,-1184.329507,3983.696590,11103.089130
4948.411532,-1776.494261,4366.744339,11621.233289
4948.411846,-2368.659014,4213.525239,12287.418637
4948.412161,-2886.803174,4290.134789,12361.439231
4948.412475,-3182.885551,4903.011187,12139.377449
4948.412790,-2886.803174,5439.278036,11843.295072
4948.413104,-2590.720797,5745.716235,11103.089130
4948.413419,-2442.679609,6358.592633,10140.821405
4948.413733,-2442.679609,7048.078582,9548.656652
4948.414048,-2442.679609,6971.469032,8734.430116
4948.414362,-1998.556043,6588.421283,7624.121203
4948.414677,-1480.411884,5669.106685,6883.915261
4948.414991,-740.205942,4826.401637,6513.812290
4948.415306,-888.247130,3677.258390,6217.729913
4948.415620,-444.123565,2374.896044,6143.709319
4948.415935,-222.061783,1455.581446,7031.956449
4948.416249,-518.144159,229.828649,7920.203579
4948.416564,-444.123565,-306.438199,8734.430116
4948.416878,-592.164754,-383.047749,9844.739029
4948.417193,-296.082377,-612.876398,10436.903782
4948.417507,0.000000,229.828649,10881.027347
4948.417822,888.247130,459.657299,10881.027347
4948.418136,1480.411884,689.485948,9696.697840
4948.418451,1998.556043,1762.019645,9178.553681
4948.418765,2220.617826,2145.067394,8438.347739
4948.419079,2368.659014,2145.067394,8216.285956
4948.419394,2294.638420,1149.143247,7994.224174
4948.419708,1850.514855,-536.266849,8586.388927
4948.420022,148.041188,-2528.115143,9474.636058
4948.420336,-1702.473667,-5056.230287,10584.944971
4948.420651,-3552.988522,-5975.544884,12805.562797
4948.420965,-4885.359217,-7814.174080,14137.933492
4948.421279,-5921.647536,-7660.954980,15026.180623
4948.421593,-6217.729913,-6741.640382,14582.057057
4948.421908,-5921.647536,-4519.963438,13767.830521
4948.422222,-4663.297435,-2068.457845,12435.459826
4948.422536,-2886.803174,1072.533697,10436.903782
4948.422850,-740.205942,4749.792088,8512.368333
4948.423165,2220.617826,6971.469032,6365.771101
4948.423479,3923.091493,8044.002729,4663.297435
4948.423793,3923.091493,7507.735880,3627.009116
4948.424107,3478.967927,5362.668486,3108.864956
4948.424422,2220.617826,5132.839837,4737.318029
4948.424736,296.082377,2145.067394,6143.709319
4948.425050,-1554.432478,-689.485948,7846.182985
4948.425364,-3256.906145,-3677.258390,8956.491898
4948.425679,-4737.318029,-4979.620737,9474.636058
4948.425993,-4367.215058,-4060.306139,10066.800811
4948.426307,-3997.112087,-2681.334243,10288.862594
4948.426621,-1628.453072,-689.485948,9474.636058
4948.426936,1406.391290,2068.457845,8734.430116
4948.427250,3701.029710,4749.792088,9104.533087
4948.427564,5033.400406,6435.202183,8512.368333
4948.427878,5477.523971,7584.345430,8808.450710
4948.428193,5107.421000,7967.393179,9770.718434
4948.428507,4071.132681,7354.516781,11769.274478
4948.428821,2072.576638,6358.592633,12879.583391
4948.429136,-518.144159,3753.867940,13545.768739
4948.429450,-2812.782580,1455.581446,13545.768739
4948.429764,-4219.173869,842.705048,12657.521608
4948.430078,-4515.256246,0.000000,11695.253884
4948.430393,-4145.153275,-612.876398,9918.759623
4948.430707,-3256.906145,76.609550,8142.265362
4948.431021,-2294.638420,1302.362347,6883.915261
4948.431335,-888.247130,2221.676944,5847.626942
4948.431650,740.205942,2451.505594,6365.771101
4948.431964,1924.535449,2451.505594,6809.894666
4948.432278,3256.906145,2374.896044,7254.018232
4948.432592,4071.132681,2757.943793,7772.162391
4948.432907,4145.153275,2834.553343,8290.306550
4948.433221,4219.173869,3294.210641,8660.409521
4948.433535,4737.318029,3524.039291,8660.409521
4948.433849,4589.276840,2987.772442,8734.430116
4948.434164,3330.926739,2451.505594,7846.182985
4948.434478,1702.473667,1455.581446,7920.203579
4948.434792,-222.061783,842.705048,8438.347739
4948.435106,-1776.494261,153.219100,9252.574275
4948.435421,-3404.947333,-1378.971896,10140.821405
4948.435735,-4515.256246,-2834.553343,10584.944971
4948.436049,-4737.318029,-3524.039291,11399.171507
4948.436363,-4515.256246,-2987.772442,10807.006753
4948.436678,-3849.070898,-2221.676944,10214.842000
4948.436992,-2146.597232,-2298.286494,10436.903782
4948.437306,-814.226536,-1685.410096,10288.862594
4948.437620,1036.288319,-842.705048,10214.842000
4948.437935,1924.535449,-459.657299,9992.780217
4948.438249,2368.659014,-306.438199,9548.656652
4948.438563,2442.679609,-995.924147,9474.636058
4948.438877,2368.659014,-842.705048,10510.924376
4948.439192,1850.514855,-2221.676944,10436.903782
4948.439506,1036.288319,-2681.334243,10140.821405
4948.439820,148.041188,-3447.429741,9622.677246
4948.440135,148.041188,-3140.991542,9030.512492
4948.440449,222.061783,-2528.115143,7994.224174
4948.440763,740.205942,-1915.238745,7994.224174
4948.441077,296.082377,-612.876398,7179.997637
4948.441392,-666.185348,-919.314598,7105.977043
4948.441706,-1184.329507,766.095498,8142.265362
4948.442020,-1776.494261,1455.581446,8438.347739
4948.442334,-2220.617826,919.314598,9474.636058
4948.442649,-2368.659014,0.000000,9918.759623
4948.442963,-2146.597232,995.924147,10214.842000
4948.443277,-1480.411884,1685.410096,10288.862594
4948.443591,-592.164754,3064.381992,9400.615463
4948.443906,1258.350101,3370.820191,9178.553681
4948.444220,2886.803174,3294.210641,8512.368333
4948.444534,3997.112087,3753.867940,7920.203579
4948.444848,4145.153275,2911.162892,7994.224174
4948.445163,3182.885551,2604.724693,8364.327145
4948.445477,2664.741391,1378.971896,9178.553681
4948.445791,1628.453072,153.219100,10732.986159
4948.446105,74.020594,-1455.581446,11029.068536
4948.446420,-814.226536,-2987.772442,11325.150913
4948.446734,-2368.659014,-1991.848295,10955.047942
4948.447048,-2516.700203,-229.828649,9992.780217
4948.447362,-1332.370696,459.657299,9622.677246
4948.447677,-518.144159,2298.286494,8512.368333
4948.447991,148.041188,2911.162892,7476.080014
4948.448305,518.144159,4366.744339,7550.100608
4948.448619,444.123565,4443.353888,7476.080014
4948.448934,444.123565,4903.011187,8364.327145
4948.449248,296.082377,3983.696590,9178.553681
4948.449562,74.020594,2987.772442,9622.677246
4948.449876,-592.164754,3064.381992,10436.903782
4948.450191,-222.061783,2604.724693,10066.800811
4948.450505,74.020594,2068.457845,9770.718434
4948.450819,592.164754,1302.362347,9252.574275
4948.451134,1628.453072,1455.581446,8290.306550
4948.451448,2072.576638,1915.238745,8068.244768
4948.451762,1702.473667,2068.457845,7624.121203
4948.452076,1332.370696,1608.800546,7920.203579
4948.452391,1036.288319,612.876398,8660.409521
4948.452705,518.144159,-229.828649,8882.471304
4948.453019,0.000000,-919.314598,9696.697840
4948.453333,-1554.432478,-1915.238745,9474.636058
4948.453648,-1998.556043,-2298.286494,9844.739029
4948.453962,-2146.597232,-1838.629195,9696.697840
4948.454276,-1776.494261,-1838.629195,9326.594869
4948.454590,-1480.411884,-1608.800546,9622.677246
4948.454905,-1554.432478,-1532.190996,8956.491898
4948.455219,-1406.391290,-1225.752797,9326.594869
4948.455533,-1406.391290,-1302.362347,9548.656652
4948.455847,-1998.556043,-1225.752797,10214.842000
4948.456162,-1332.370696,-153.219100,11251.130318
4948.456476,-1332.370696,-1378.971896,11325.150913
4948.456790,-1332.370696,-1378.971896,11473.192101
4948.457104,-370.102971,-306.438199,10658.965565
4948.457419,1406.391290,1225.752797,9696.697840
4948.457733,1998.556043,2221.676944,8660.409521
4948.458047,2960.823768,2374.896044,7179.997637
4948.458361,3478.967927,1455.581446,7550.100608
4948.458676,2886.803174,1838.629195,7328.038826
4948.458990,2072.576638,1302.362347,7476.080014
4948.459304,1036.288319,536.266849,8808.450710
4948.459618,814.226536,-995.924147,9252.574275
4948.459933,-962.267725,-2451.505594,9474.636058
4948.460247,-1998.556043,-2681.334243,9400.615463
4948.460561,-2368.659014,-2987.772442,8882.471304
4948.460875,-2442.679609,-1608.800546,9178.553681
4948.461190,-1480.411884,-612.876398,9178.553681
4948.461504,-740.205942,459.657299,9178.553681
4948.461818,-370.102971,1302.362347,8882.471304
4948.462133,0.000000,1685.410096,9104.533087
4948.462447,-74.020594,2757.943793,9474.636058
4948.462761,518.144159,3524.039291,10140.821405
4948.463075,0.000000,2911.162892,11177.109724
4948.463390,-296.082377,2604.724693,11473.192101
4948.463704,-296.082377,2221.676944,11325.150913
4948.464018,0.000000,2987.772442,11029.068536
4948.464332,444.123565,3907.087040,9622.677246
4948.464647,1480.411884,4443.353888,8734.430116
4948.464961,2516.700203,3830.477490,8216.285956
4948.465275,2072.576638,3600.648841,7624.121203
4948.465589,1702.473667,3140.991542,7179.997637
4948.465904,814.226536,2604.724693,7624.121203
4948.466218,222.061783,1762.019645,8660.409521
4948.466532,-444.123565,383.047749,9326.594869
4948.466846,-1702.473667,-612.876398,9326.594869
4948.467161,-2294.638420,-919.314598,9178.553681
4948.467475,-2812.782580,-689.485948,9104.533087
4948.467789,-1036.288319,689.485948,9030.512492
4948.468103,-222.061783,1608.800546,8882.471304
4948.468418,296.082377,2451.505594,8734.430116
4948.468732,222.061783,2757.943793,8512.368333
4948.469046,370.102971,2604.724693,8364.327145
4948.469360,222.061783,2911.162892,9030.512492
4948.469675,0.000000,2145.067394,9918.759623
4948.469989,-666.185348,1225.752797,10658.965565
4948.470303,-1258.350101,919.314598,11399.171507
4948.470617,-1258.350101,689.485948,11399.171507
4948.470932,-1036.288319,766.095498,10732.986159
4948.471246,0.000000,1378.971896,9622.677246
4948.471560,1628.453072,2451.505594,9252.574275
4948.471874,2072.576638,2374.896044,8586.388927
4948.472189,2294.638420,1072.533697,8142.265362
4948.472503,2368.659014,995.924147,8142.265362
4948.472817,1776.494261,612.876398,8586.388927
4948.473132,814.226536,-153.219100,9474.636058
4948.473446,222.061783,-1685.410096,9474.636058
4948.473760,-370.102971,-2528.115143,9474.636058
4948.474074,-1554.432478,-2681.334243,9844.739029
4948.474389,-1702.473667,-1915.238745,9622.677246
4948.474703,-1332.370696,-2374.896044,9178.553681
4948.475017,-444.123565,-1378.971896,8734.430116
4948.475331,-296.082377,-689.485948,8956.491898
4948.475646,-666.185348,-153.219100,8438.347739
4948.475960,-666.185348,153.219100,8734.430116
4948.476274,-370.102971,76.609550,9178.553681
4948.476588,-296.082377,1149.143247,9992.780217
4948.476903,0.000000,1072.533697,11103.089130
4948.477217,-1036.288319,536.266849,10881.027347
4948.477531,-888.247130,1149.143247,10732.986159
4948.477845,0.000000,1608.800546,10732.986159
4948.478160,1258.350101,2528.115143,9474.636058
4948.478474,2590.720797,2145.067394,8512.368333
4948.478788,3330.926739,1915.238745,7846.182985
4948.479102,3182.885551,2298.286494,8142.265362
4948.479417,2442.679609,2757.943793,7846.182985
4948.479731,1924.535449,1455.581446,8586.388927
4948.480045,1036.288319,153.219100,9474.636058
4948.480359,148.041188,-842.705048,9844.739029
4948.480674,-962.267725,-1378.971896,9474.636058
4948.480988,-1332.370696,-1838.629195,9474.636058
4948.481302,-1776.494261,-1685.410096,9474.636058
4948.481616,-1406.391290,-766.095498,9178.553681
4948.481931,-814.226536,306.438199,9400.615463
4948.482245,-592.164754,842.705048,9104.533087
4948.482559,-444.123565,1378.971896,9104.533087
4948.482873,-592.164754,2374.896044,9252.574275
4948.483188,-592.164754,2451.505594,9178.553681
4948.483502,-148.041188,2911.162892,9918.759623
4948.483816,-1406.391290,3294.210641,10288.862594
4948.484131,-1332.370696,2681.334243,10066.800811
4948.484445,-666.185348,3294.210641,10362.883188
4948.484759,-148.041188,4060.306139,9622.677246
4948.485073,962.267725,4366.744339,8586.388927
4948.485388,2072.576638,4060.306139,8068.244768
4948.485702,2812.782580,3753.867940,7624.121203
4948.486016,2368.659014,3447.429741,7031.956449
4948.486330,1998.556043,2528.115143,7179.997637
4948.486645,1258.350101,1991.848295,8142.265362
4948.486959,74.020594,612.876398,9178.553681
4948.487273,-592.164754,-842.705048,9474.636058
4948.487587,-1850.514855,-1455.581446,9992.780217
4948.487902,-2294.638420,-2145.067394,9844.739029
4948.488216,-2146.597232,-1455.581446,9548.656652
4948.488530,-1480.411884,-1225.752797,8512.368333
4948.488844,-666.185348,-306.438199,9104.533087
4948.489159,-222.061783,153.219100,9326.594869
4948.489473,-518.144159,842.705048,9178.553681
4948.489787,-444.123565,1149.143247,9326.594869
4948.490101,-370.102971,1072.533697,9844.739029
4948.490416,-444.123565,766.095498,10288.862594
4948.490730,0.000000,1072.533697,11325.150913
4948.491044,-740.205942,0.000000,10955.047942
4948.491358,74.020594,612.876398,11621.233289
4948.491673,888.247130,1532.190996,10140.821405
4948.491987,2220.617826,1532.190996,8734.430116
4948.492301,3034.844362,1608.800546,7920.203579
4948.492615,3701.029710,1915.238745,7179.997637
4948.492930,3627.009116,1838.629195,7624.121203
4948.493244,2590.720797,1378.971896,7846.182985
4948.493558,1776.494261,76.609550,8364.327145
4948.493872,888.247130,-1532.190996,9104.533087
4948.494187,74.020594,-2451.505594,9696.697840
4948.494501,-1184.329507,-3140.991542,9770.718434
4948.494815,-1702.473667,-3600.648841,9770.718434
4948.495130,-1184.329507,-2604.724693,9770.718434
4948.495444,-1184.329507,-1838.629195,9474.636058
4948.495758,-444.123565,-842.705048,9030.512492
4948.496072,-518.144159,-306.438199,8438.347739
4948.496387,-962.267725,76.609550,9104.533087
4948.496701,-1036.288319,229.828649,9548.656652
4948.497015,-444.123565,153.219100,9992.780217
4948.497329,-444.123565,229.828649,10584.944971
4948.497644,-666.185348,383.047749,10955.047942
4948.497958,-740.205942,0.000000,11103.089130
4948.498272,0.000000,1302.362347,10510.924376
4948.498586,1406.391290,2374.896044,10214.842000
4948.498901,2368.659014,2528.115143,9178.553681
4948.499215,3478.967927,2068.457845,8216.285956
4948.499529,3627.009116,2451.505594,7994.224174
4948.499843,3256.906145,2604.724693,7698.141797
4948.500158,2368.659014,1685.410096,7994.224174
4948.500472,1554.432478,766.095498,8882.471304
4948.500786,518.144159,-229.828649,9548.656652
4948.501100,-1036.288319,-1455.581446,9548.656652
4948.501415,-2442.679609,-2068.457845,9252.574275
4948.501729,-3182.885551,-2068.457845,9400.615463
4948.502043,-3256.906145,-1225.752797,9326.594869
4948.502357,-2442.679609,-383.047749,9030.512492
4948.502672,-1998.556043,76.609550,8660.409521
4948.502986,-1924.535449,383.047749,8734.430116
4948.503300,-1850.514855,2068.457845,8438.347739
4948.503614,-1332.370696,2298.286494,8956.491898
4948.503929,-1036.288319,2298.286494,9474.636058
4948.504243,-1110.308913,2374.896044,10288.862594
4948.504557,-1036.288319,2604.724693,10510.924376
4948.504871,-370.102971,3600.648841,11177.109724
4948.505186,-370.102971,2528.115143,10214.842000
4948.505500,592.164754,3524.039291,9770.718434
4948.505814,1924.535449,3983.696590,9252.574275
4948.506128,2664.741391,3753.867940,7920.203579
4948.506443,2590.720797,3370.820191,7550.100608
4948.506757,2368.659014,3064.381992,7624.121203
4948.507071,1628.453072,2911.162892,7846.182985
4948.507386,814.226536,2221.676944,8438.347739
4948.507700,-444.123565,383.047749,8586.388927
4948.508014,-1628.453072,-1302.362347,9030.512492
4948.508328,-2516.700203,-1532.190996,9474.636058
4948.508643,-3108.864956,-1762.019645,9326.594869
4948.508957,-2886.803174,-1532.190996,9474.636058
4948.509271,-1850.514855,-689.485948,9696.697840
4948.509585,-888.247130,76.609550,9622.677246
4948.509900,-740.205942,383.047749,9400.615463
4948.510214,-296.082377,689.485948,9104.533087
4948.510528,0.000000,1072.533697,9474.636058
4948.510842,296.082377,1378.971896,10362.883188
4948.511157,74.020594,689.485948,10732.986159
4948.511471,0.000000,1685.410096,10955.047942
4948.511785,0.000000,1532.190996,10658.965565
4948.512099,888.247130,1991.848295,10436.903782
4948.512414,1850.514855,1838.629195,9548.656652
4948.512728,2886.803174,1302.362347,8364.327145
4948.513042,3552.988522,1991.848295,7772.162391
4948.513356,3627.009116,1378.971896,7550.100608
4948.513671,2812.782580,1302.362347,7772.162391
4948.513985,2294.638420,766.095498,8216.285956
4948.514299,1110.308913,-306.438199,8808.450710
4948.514613,518.144159,-1149.143247,9622.677246
4948.514928,-1036.288319,-2757.943793,9326.594869
4948.515242,-2072.576638,-3524.039291,9252.574275
4948.515556,-2220.617826,-3294.210641,9252.574275
4948.515870,-2072.576638,-2451.505594,9770.718434
4948.516185,-1406.391290,-1532.190996,9844.739029
4948.516499,-666.185348,-1378.971896,9474.636058
4948.516813,-518.144159,-383.047749,9474.636058
4948.517127,-1036.288319,153.219100,9548.656652
4948.517442,-1036.288319,229.828649,9474.636058
4948.517756,-962.267725,459.657299,10584.944971
4948.518070,-814.226536,536.266849,11251.130318
4948.518385,-1332.370696,995.924147,11769.274478
4948.518699,-888.247130,766.095498,11029.068536
4948.519013,-370.102971,1072.533697,9474.636058
4948.519327,1554.432478,2221.676944,9474.636058
4948.519641,2590.720797,2987.772442,8660.409521
4948.519956,3478.967927,3140.991542,7402.059420
4948.520270,3182.885551,2757.943793,7402.059420
4948.520584,2960.823768,2757.943793,7846.182985
4948.520898,1850.514855,2374.896044,8512.368333
4948.521212,666.185348,1302.362347,8882.471304
4948.521527,74.020594,229.828649,9030.512492
4948.521841,-444.123565,-536.266849,9474.636058
4948.522155,-2294.638420,-1378.971896,8956.491898
4948.522469,-2664.741391,-689.485948,9104.533087
4948.522783,-2072.576638,0.000000,8882.471304
4948.523097,-1628.453072,766.095498,9030.512492
4948.523412,-1406.391290,1072.533697,8882.471304
4948.523726,-1332.370696,1608.800546,8956.491898
4948.524040,-1776.494261,1991.848295,9400.615463
4948.524354,-1480.411884,2298.286494,9474.636058
4948.524668,-1406.391290,2374.896044,10436.903782
4948.524983,-1332.370696,1915.238745,10955.047942
4948.525297,-1406.391290,2298.286494,11029.068536
4948.525611,-962.267725,3524.039291,10732.986159
4948.525925,-148.041188,3140.991542,9844.739029
4948.526239,1036.288319,3447.429741,9326.594869
4948.526554,2442.679609,3447.429741,7920.203579
4948.526868,3034.844362,4136.915689,8216.285956
4948.527182,2886.803174,4290.134789,8290.306550
4948.527496,2664.741391,3447.429741,7920.203579
4948.527810,1998.556043,2528.115143,8512.368333
4948.528124,1036.288319,1762.019645,9400.615463
4948.528439,0.000000,229.828649,8882.471304
4948.528753,-962.267725,-612.876398,8734.430116
4948.529067,-1554.432478,-1302.362347,8734.430116
4948.529381,-1850.514855,-919.314598,9474.636058
4948.529695,-1850.514855,-536.266849,9548.656652
4948.530010,-1110.308913,-459.657299,9696.697840
4948.530324,-1258.350101,-459.657299,9844.739029
4948.530638,-1480.411884,383.047749,9178.553681
4948.530952,-1332.370696,306.438199,9400.615463
4948.531266,-1554.432478,76.609550,9770.718434
4948.531581,-740.205942,383.047749,10510.924376
4948.531895,-814.226536,842.705048,10807.006753
4948.532209,-888.247130,1225.752797,10584.944971
4948.532523,148.041188,2068.457845,10214.842000
4948.532837,1184.329507,2374.896044,9844.739029
4948.533151,2294.638420,2834.553343,9400.615463
4948.533466,3182.885551,1608.800546,8216.285956
4948.533780,3849.070898,1608.800546,8216.285956
4948.534094,3256.906145,1838.629195,7550.100608
4948.534408,2738.761985,1149.143247,8142.265362
4948.534722,1924.535449,0.000000,8808.450710
4948.535037,1184.329507,-995.924147,9252.574275
4948.535351,222.061783,-1838.629195,9104.533087
4948.535665,-814.226536,-2298.286494,9252.574275
4948.535979,-1332.370696,-2911.162892,9030.512492
4948.536293,-1258.350101,-2528.115143,8808.450710
4948.536608,-592.164754,-1072.533697,9030.512492
4948.536922,-740.205942,-1072.533697,9696.697840
4948.537236,-222.061783,-459.657299,9474.636058
4948.537550,0.000000,0.000000,9548.656652
4948.537864,-296.082377,459.657299,9474.636058
4948.538178,-444.123565,153.219100,9696.697840
4948.538493,-518.144159,459.657299,10288.862594
4948.538807,-666.185348,1378.971896,11177.109724
4948.539121,-666.185348,1762.019645,10807.006753
4948.539435,-296.082377,1685.410096,10214.842000
4948.539749,888.247130,1685.410096,9474.636058
4948.540064,1628.453072,1991.848295,8586.388927
4948.540378,2590.720797,2374.896044,8216.285956
4948.540692,3182.885551,1991.848295,7846.182985
4948.541006,2960.823768,1685.410096,8068.244768
4948.541320,2516.700203,1532.190996,8438.347739
4948.541635,1332.370696,919.314598,9252.574275
4948.541949,592.164754,0.000000,9252.574275
4948.542263,-148.041188,-1378.971896,9326.594869
4948.542577,-1184.329507,-1608.800546,9844.739029
4948.542891,-1776.494261,-995.924147,9326.594869
4948.543205,-1480.411884,229.828649,9030.512492
4948.543520,-1480.411884,229.828649,9030.512492
4948.543834,-962.267725,766.095498,9030.512492
4948.544148,-666.185348,842.705048,9104.533087
4948.544462,-666.185348,1838.629195,9400.615463
4948.544776,-740.205942,2298.286494,9326.594869
4948.545091,-1036.288319,2451.505594,9992.780217
4948.545405,-1554.432478,1378.971896,10807.006753
4948.545719,-962.267725,1532.190996,10732.986159
4948.546033,-1184.329507,2451.505594,10214.842000
4948.546347,-518.144159,2911.162892,9622.677246
4948.546662,518.144159,3294.210641,9400.615463
4948.546976,1776.494261,3370.820191,8586.388927
4948.547290,2294.638420,3677.258390,7772.162391
4948.547604,2590.720797,3294.210641,7254.018232
4948.547918,2146.597232,3370.820191,7846.182985
4948.548232,1628.453072,3447.429741,8068.244768
4948.548547,1110.308913,1838.629195,8882.471304
4948.548861,222.061783,229.828649,9178.553681
4948.549175,-1480.411884,-919.314598,8956.491898
4948.549489,-2072.576638,-1378.971896,9178.553681
4948.549803,-2220.617826,-995.924147,9252.574275
4948.550118,-2220.617826,-383.047749,9252.574275
4948.550432,-1332.370696,-306.438199,9474.636058
4948.550746,-592.164754,0.000000,9770.718434
4948.551060,-666.185348,76.609550,9548.656652
4948.551374,-1036.288319,383.047749,9622.677246
4948.551689,-1184.329507,766.095498,9844.739029
4948.552003,-814.226536,536.266849,10288.862594
4948.552317,-518.144159,766.095498,10658.965565
4948.552631,-370.102971,1072.533697,11103.089130
4948.552945,-518.144159,1072.533697,10510.924376
4948.553259,370.102971,2221.676944,9696.697840
4948.553574,1480.411884,2757.943793,8882.471304
4948.553888,2516.700203,2451.505594,8290.306550
4948.554202,3256.906145,2145.067394,7920.203579
4948.554516,3256.906145,1378.971896,7550.100608
4948.554830,2886.803174,1455.581446,8142.265362
4948.555145,1850.514855,995.924147,8734.430116
4948.555459,1036.288319,-536.266849,8882.471304
4948.555773,74.020594,-1532.190996,9252.574275
4948.556087,0.000000,-2757.943793,9178.553681
4948.556401,-1036.288319,-2987.772442,9622.677246
4948.556716,-1480.411884,-2604.724693,9622.677246
4948.557030,-814.226536,-1532.190996,10140.821405
4948.557344,-296.082377,-842.705048,9992.780217
4948.557658,370.102971,-766.095498,9770.718434
4948.557972,222.061783,-383.047749,9918.759623
4948.558286,-148.041188,0.000000,9622.677246
4948.558601,-518.144159,383.047749,9844.739029
4948.558915,-296.082377,306.438199,10584.944971
4948.559229,-888.247130,536.266849,11103.089130
4948.559543,-1110.308913,306.438199,10510.924376
4948.559857,-740.205942,1532.190996,10362.883188
4948.560172,74.020594,2451.505594,9474.636058
4948.560486,1184.329507,2451.505594,8882.471304
4948.560800,2368.659014,2068.457845,7994.224174
4948.561114,2516.700203,1532.190996,7550.100608
4948.561428,2294.638420,1762.019645,7698.141797
4948.561743,1998.556043,2145.067394,7772.162391
4948.562057,1554.432478,1762.019645,8068.244768
4948.562371,1258.350101,459.657299,9104.533087
4948.562685,666.185348,0.000000,9400.615463
4948.562999,-296.082377,-1149.143247,8882.471304
4948.563313,-1480.411884,-919.314598,8808.450710
4948.563628,-1924.535449,-612.876398,8956.491898
4948.563942,-1480.411884,306.438199,9770.718434
4948.564256,-740.205942,842.705048,9696.697840
4948.564570,-814.226536,383.047749,9622.677246
4948.564884,-1332.370696,459.657299,9326.594869
4948.565199,-2146.597232,1149.143247,9326.594869
4948.565513,-2146.597232,1608.800546,9548.656652
4948.565827,-2146.597232,1378.971896,10584.944971
4948.566141,-2146.597232,1685.410096,11325.150913
4948.566455,-2294.638420,2145.067394,11325.150913
4948.566770,-1480.411884,3140.991542,10584.944971
4948.567084,-666.185348,2451.505594,9474.636058
4948.567398,444.123565,3294.210641,8216.285956
4948.567712,1850.514855,2911.162892,7624.121203
4948.568026,2738.761985,3600.648841,7624.121203
4948.568340,2738.761985,3447.429741,7476.080014
4948.568655,2590.720797,2834.553343,8364.327145
4948.568969,1776.494261,2451.505594,8734.430116
4948.569283,1480.411884,1302.362347,9104.533087
4948.569597,0.000000,383.047749,9178.553681
4948.569911,-962.267725,-995.924147,9326.594869
4948.570226,-1406.391290,-1378.971896,9104.533087
4948.570540,-1628.453072,-689.485948,8882.471304
4948.570854,-1258.350101,383.047749,8882.471304
4948.571168,-1036.288319,1072.533697,8734.430116
4948.571482,-962.267725,919.314598,8956.491898
4948.571797,-1924.535449,842.705048,9104.533087
4948.572111,-1628.453072,1072.533697,8882.471304
4948.572425,-1998.556043,153.219100,9474.636058
4948.572739,-2294.638420,76.609550,10584.944971
4948.573053,-2146.597232,153.219100,10955.047942
4948.573367,-1850.514855,919.314598,10955.047942
4948.573682,-1110.308913,1302.362347,10140.821405
4948.573996,296.082377,2068.457845,9622.677246
4948.574310,2368.659014,2374.896044,8734.430116
4948.574624,3256.906145,2298.286494,7846.182985
4948.574938,3849.070898,2451.505594,8068.244768
4948.575253,3627.009116,2145.067394,8660.409521
4948.575567,3182.885551,1378.971896,8808.450710
4948.575881,2442.679609,229.828649,8956.491898
4948.576195,2072.576638,0.000000,9326.594869
4948.576509,1036.288319,-1532.190996,9252.574275
4948.576824,-222.061783,-1915.238745,9178.553681
4948.577138,-740.205942,-2068.457845,9400.615463
4948.577452,-962.267725,-1762.019645,9400.615463
4948.577766,-444.123565,-1149.143247,9474.636058
4948.578080,-296.082377,-1225.752797,9622.677246
4948.578394,-518.144159,-306.438199,9844.739029
4948.578709,-370.102971,-229.828649,9178.553681
4948.579023,-296.082377,-153.219100,9474.636058
4948.579337,-740.205942,383.047749,10288.862594
4948.579651,-1036.288319,153.219100,10807.006753
4948.579965,-1036.288319,689.485948,10881.027347
4948.580280,-1036.288319,1072.533697,10658.965565
4948.580594,-148.041188,2068.457845,10214.842000
4948.580908,740.205942,2528.115143,9104.533087
4948.581222,2072.576638,2068.457845,8438.347739
4948.581536,2368.659014,1991.848295,7402.059420
4948.581851,2368.659014,1915.238745,7698.141797
4948.582165,2294.638420,1762.019645,8216.285956
4948.582479,1850.514855,1149.143247,8512.368333
4948.582793,1554.432478,383.047749,9104.533087
4948.583107,740.205942,-383.047749,9178.553681
4948.583421,-148.041188,-1225.752797,8882.471304
4948.583736,-1480.411884,-1532.190996,8660.409521
4948.584050,-1184.329507,-1378.971896,9622.677246
4948.584364,-814.226536,-383.047749,9696.697840
4948.584678,-222.061783,0.000000,9474.636058
4948.584992,-148.041188,306.438199,9474.636058
4948.585307,-370.102971,1072.533697,9474.636058
4948.585621,-148.041188,1762.019645,9548.656652
4948.585935,-814.226536,1532.190996,9622.677246
4948.586249,-1184.329507,1685.410096,10584.944971
4948.586563,-1702.473667,1685.410096,10362.883188
4948.586878,-1998.556043,1762.019645,10658.965565
4948.587192,-2072.576638,2068.457845,9844.739029
4948.587506,-1258.350101,2834.553343,9400.615463
4948.587820,0.000000,3600.648841,8808.450710
4948.588134,1036.288319,3983.696590,8512.368333
4948.588448,1628.453072,3753.867940,7624.121203
4948.588763,1628.453072,2528.115143,7105.977043
4948.589077,1924.535449,2604.724693,7179.997637
4948.589391,1702.473667,2221.676944,8142.265362
4948.589705,1184.329507,1302.362347,9326.594869
4948.590019,518.144159,-306.438199,9548.656652
4948.590334,-148.041188,-995.924147,9400.615463
4948.590648,-1332.370696,-842.705048,9622.677246
4948.590962,-1184.329507,-306.438199,9326.594869
4948.591276,-592.164754,153.219100,9178.553681
4948.591590,0.000000,459.657299,9326.594869
4948.591905,444.123565,766.095498,9622.677246
4948.592219,0.000000,995.924147,9992.780217
4948.592533,-888.247130,1149.143247,10066.800811
4948.592847,-666.185348,1762.019645,9770.718434
4948.593161,-1554.432478,766.095498,10140.821405
4948.593475,-1554.432478,995.924147,10658.965565
4948.593790,-1850.514855,995.924147,10881.027347
4948.594104,-1924.535449,1225.752797,10288.862594
4948.594418,-814.226536,1915.238745,9548.656652
4948.594732,370.102971,2221.676944,8808.450710
4948.595046,1480.411884,2145.067394,8068.244768
4948.595361,2516.700203,1762.019645,7624.121203
4948.595675,2738.761985,1378.971896,7624.121203
4948.595989,2664.741391,766.095498,8290.306550
4948.596303,2886.803174,919.314598,8808.450710
4948.596617,2738.761985,0.000000,8808.450710
4948.596932,2590.720797,-536.266849,9030.512492
4948.597246,1628.453072,-383.047749,9252.574275
4948.597560,148.041188,-612.876398,8956.491898
4948.597874,-148.041188,-766.095498,8808.450710
4948.598188,0.000000,-1072.533697,9252.574275
4948.598502,222.061783,-1225.752797,9696.697840
4948.598817,0.000000,-689.485948,9918.759623
4948.599131,-888.247130,-766.095498,9992.780217
4948.599445,-1332.370696,-766.095498,9770.718434
4948.599759,-1332.370696,-612.876398,10658.965565
4948.600073,-1776.494261,0.000000,11177.109724
4948.600388,-2516.700203,0.000000,10732.986159
4948.600702,-2664.741391,459.657299,10436.903782
4948.601016,-1850.514855,995.924147,10362.883188
4948.601330,-296.082377,1762.019645,9696.697840
4948.601644,1184.329507,1378.971896,8660.409521
4948.601959,2368.659014,1378.971896,8068.244768
4948.602273,3108.864956,2221.676944,8216.285956
4948.602587,3182.885551,2068.457845,8734.430116
4948.602901,2886.803174,1762.019645,8290.306550
4948.603215,2516.700203,536.266849,8956.491898
4948.603529,2146.597232,-383.047749,9474.636058
4948.603844,1036.288319,-536.266849,9178.553681
4948.604158,0.000000,-612.876398,8956.491898
4948.604472,-888.247130,-766.095498,8808.450710
4948.604786,-518.144159,-306.438199,9030.512492
4948.605100,-222.061783,0.000000,9400.615463
4948.605415,0.000000,383.047749,9178.553681
4948.605729,-666.185348,689.485948,9622.677246
4948.606043,-962.267725,536.266849,9252.574275
4948.606357,-1702.473667,919.314598,9474.636058
4948.606671,-1850.514855,919.314598,9992.780217
4948.606986,-2368.659014,1915.238745,10881.027347
4948.607300,-2886.803174,1302.362347,10214.842000
4948.607614,-2664.741391,1225.752797,10732.986159
4948.607928,-2072.576638,2451.505594,10436.903782
4948.608242,-888.247130,2911.162892,9178.553681
4948.608556,740.205942,3217.601092,8438.347739
4948.608871,1776.494261,3217.601092,7994.224174
4948.609185,2146.597232,3370.820191,7476.080014
4948.609499,2516.700203,2451.505594,7624.121203
4948.609813,2516.700203,2145.067394,8068.244768
4948.610127,2072.576638,1915.238745,8882.471304
4948.610442,1258.350101,612.876398,9252.574275
4948.610756,740.205942,0.000000,9104.533087
4948.611070,74.020594,-229.828649,9474.636058
4948.611384,-370.102971,153.219100,9622.677246
4948.611698,-666.185348,842.705048,9844.739029
4948.612013,0.000000,919.314598,9326.594869
4948.612327,74.020594,383.047749,9178.553681
4948.612641,-296.082377,1149.143247,9548.656652
4948.612955,-888.247130,919.314598,9400.615463
4948.613269,-1184.329507,1149.143247,9696.697840
4948.613584,-1702.473667,1378.971896,10362.883188
4948.613898,-2220.617826,1072.533697,10807.006753
4948.614212,-2738.761985,689.485948,10288.862594
4948.614526,-2442.679609,459.657299,9844.739029
4948.614840,-1924.535449,1225.752797,9326.594869
4948.615154,-518.144159,2451.505594,9104.533087
4948.615469,814.226536,2451.505594,8586.388927
4948.615783,1776.494261,1991.848295,7846.182985
4948.616097,2072.576638,1685.410096,7476.080014
4948.616411,2220.617826,1455.581446,7698.141797
4948.616725,2146.597232,1532.190996,7920.203579
4948.617040,1628.453072,306.438199,8956.491898
4948.617354,1110.308913,-766.095498,9474.636058
4948.617668,296.082377,-1915.238745,9622.677246
4948.617982,-444.123565,-2298.286494,9252.574275
4948.618296,-1110.308913,-1378.971896,9178.553681
4948.618611,-518.144159,-919.314598,8882.471304
4948.618925,222.061783,-383.047749,8956.491898
4948.619239,444.123565,-459.657299,9030.512492
4948.619553,0.000000,-536.266849,9326.594869
4948.619873,-296.082377,0.000000,9178.553681
4948.620188,-370.102971,459.657299,9844.739029
4948.620502,-814.226536,612.876398,10732.986159
4948.620816,-888.247130,306.438199,11621.233289
4948.621131,-740.205942,153.219100,11621.233289
4948.621445,-1036.288319,536.266849,10955.047942
4948.621760,0.000000,1302.362347,10288.862594
4948.622074,1036.288319,2221.676944,9844.739029
4948.622388,2368.659014,2451.505594,8734.430116
4948.622703,3182.885551,2068.457845,8142.265362
4948.623017,3108.864956,1762.019645,7846.182985
4948.623331,2516.700203,1608.800546,7698.141797
4948.623646,1702.473667,1378.971896,8068.244768
4948.623960,1406.391290,919.314598,8660.409521
4948.624274,666.185348,-689.485948,9474.636058
4948.624589,-296.082377,-1455.581446,9474.636058
4948.624903,-1258.350101,-1532.190996,8882.471304
4948.625217,-1850.514855,-1225.752797,8660.409521
4948.625532,-1480.411884,-536.266849,8956.491898
4948.625846,-888.247130,229.828649,8734.430116
4948.626161,-444.123565,1072.533697,9326.594869
4948.626475,0.000000,1225.752797,9400.615463
4948.626789,-740.205942,1072.533697,9696.697840
4948.627104,-888.247130,1455.581446,10140.821405
4948.627418,-740.205942,1302.362347,10510.924376
4948.627732,-1258.350101,1225.752797,11177.109724
4948.628047,-1332.370696,1225.752797,11251.130318
4948.628361,-888.247130,1685.410096,10807.006753
4948.628675,-444.123565,2528.115143,10288.862594
4948.628990,740.205942,3370.820191,8734.430116
4948.629304,1702.473667,2987.772442,7994.224174
4948.629618,1776.494261,3064.381992,7476.080014
4948.629933,1998.556043,2604.724693,7254.018232
4948.630247,1702.473667,1838.629195,7328.038826
4948.630562,1480.411884,1302.362347,8364.327145
4948.630876,814.226536,995.924147,8956.491898
4948.631190,518.144159,-229.828649,9474.636058
4948.631505,0.000000,-689.485948,9918.759623
4948.631819,-1036.288319,-1378.971896,9918.759623
4948.632133,-1332.370696,-842.705048,9918.759623
4948.632448,-592.164754,-306.438199,9622.677246
4948.632762,74.020594,306.438199,9326.594869
4948.633076,296.082377,842.705048,9474.636058
4948.633391,0.000000,1149.143247,10140.821405
4948.633705,0.000000,1455.581446,9992.780217
4948.634019,-592.164754,1455.581446,10066.800811
4948.634334,-1258.350101,1149.143247,10362.883188
4948.634648,-1776.494261,536.266849,10807.006753
4948.634963,-1776.494261,1072.533697,10658.965565
4948.635277,-1480.411884,1455.581446,9918.759623
4948.635591,-592.164754,2451.505594,9326.594869
4948.635906,814.226536,2757.943793,8068.244768
4948.636220,1406.391290,2834.553343,7920.203579
4948.636534,2072.576638,1991.848295,7254.018232
4948.636849,2220.617826,2068.457845,7550.100608
4948.637163,1628.453072,1378.971896,7920.203579
4948.637477,1332.370696,536.266849,8364.327145
4948.637792,1110.308913,-229.828649,8734.430116
4948.638106,370.102971,-842.705048,9252.574275
4948.638420,-296.082377,-2145.067394,9474.636058
4948.638735,-814.226536,-1532.190996,9622.677246
4948.639049,-1110.308913,-1225.752797,9326.594869
4948.639364,296.082377,0.000000,9474.636058
4948.639678,296.082377,76.609550,9474.636058
4948.639992,74.020594,229.828649,9770.718434
4948.640307,0.000000,842.705048,9474.636058
4948.640621,-444.123565,612.876398,9178.553681
4948.640935,-592.164754,612.876398,10066.800811
4948.641250,-740.205942,306.438199,10881.027347
4948.641564,-1406.391290,0.000000,11473.192101
4948.641878,-1406.391290,459.657299,11029.068536
4948.642193,-740.205942,1149.143247,10807.006753
4948.642507,518.144159,1608.800546,10140.821405
4948.642821,1480.411884,1991.848295,8882.471304
4948.643136,2368.659014,2298.286494,7328.038826
4948.643450,2368.659014,2145.067394,7105.977043
4948.643765,2516.700203,1991.848295,7402.059420
4948.644079,2220.617826,1225.752797,7994.224174
4948.644393,1554.432478,766.095498,8734.430116
4948.644708,740.205942,-153.219100,8882.471304
4948.645022,0.000000,-1532.190996,9252.574275
4948.645336,-1036.288319,-1838.629195,9030.512492
4948.645651,-1406.391290,-1225.752797,9030.512492
4948.645965,-888.247130,-1149.143247,9252.574275
4948.646279,-888.247130,-689.485948,8882.471304
4948.646594,-296.082377,76.609550,8882.471304
4948.646908,-222.061783,766.095498,9326.594869
4948.647222,-444.123565,1455.581446,9474.636058
4948.647537,74.020594,1072.533697,9622.677246
4948.647851,74.020594,919.314598,10214.842000
4948.648166,-592.164754,919.314598,11029.068536
4948.648480,-1110.308913,995.924147,11547.212695
4948.648794,-814.226536,1149.143247,11399.171507
4948.649109,-444.123565,1838.629195,10955.047942
4948.649423,592.164754,2374.896044,10214.842000
4948.649737,1480.411884,2757.943793,8660.409521
4948.650052,2294.638420,2451.505594,7698.141797
4948.650366,2072.576638,2374.896044,7550.100608
4948.650680,2220.617826,2298.286494,8068.244768
4948.650995,1628.453072,1532.190996,7994.224174
4948.651309,1036.288319,1225.752797,8660.409521
4948.651623,444.123565,0.000000,9030.512492
4948.651938,-592.164754,-536.266849,8660.409521
4948.652252,-1184.329507,-1378.971896,8142.265362
4948.652567,-1850.514855,-1072.533697,8808.450710
4948.652881,-1480.411884,306.438199,9178.553681
4948.653195,-1036.288319,153.219100,8956.491898
4948.653510,-370.102971,1072.533697,9178.553681
4948.653824,-148.041188,919.314598,9400.615463
4948.654138,-518.144159,1608.800546,9474.636058
4948.654453,-592.164754,1455.581446,9252.574275
4948.654767,-1110.308913,1838.629195,9770.718434
4948.655081,-1406.391290,1838.629195,11251.130318
4948.655396,-2072.576638,842.705048,11399.171507
4948.655710,-2146.597232,1762.019645,10807.006753
4948.656025,-1406.391290,2374.896044,9918.759623
4948.656339,-666.185348,2374.896044,8956.491898
4948.656653,296.082377,2681.334243,8512.368333
4948.656968,1184.329507,2911.162892,7698.141797
4948.657282,1776.494261,2604.724693,7328.038826
4948.657596,1776.494261,2604.724693,7994.224174
4948.657911,1480.411884,1532.190996,8364.327145
4948.658225,1184.329507,995.924147,8882.471304
4948.658539,740.205942,-383.047749,9252.574275
4948.658854,0.000000,-1225.752797,9474.636058
4948.659168,-370.102971,-1532.190996,9992.780217
4948.659482,-814.226536,-1225.752797,9474.636058
4948.659797,-296.082377,-383.047749,9178.553681
4948.660111,0.000000,153.219100,9400.615463
4948.660426,296.082377,383.047749,9252.574275
4948.660740,592.164754,995.924147,9474.636058
4948.661054,74.020594,1302.362347,9622.677246
4948.661369,-148.041188,1225.752797,10066.800811
4948.661683,-740.205942,1302.362347,9770.718434
4948.661997,-962.267725,919.314598,10658.965565
4948.662312,-1406.391290,459.657299,10510.924376
4948.662626,-1480.411884,1149.143247,10288.862594
4948.662940,-1036.288319,1302.362347,10140.821405
4948.663255,148.041188,1762.019645,9400.615463
4948.663569,814.226536,1608.800546,8364.327145
4948.663883,1554.432478,1532.190996,7846.182985
4948.664198,1702.473667,1455.581446,7402.059420
4948.664512,1924.535449,1225.752797,7550.100608
4948.664827,1776.494261,919.314598,7772.162391
4948.665141,1480.411884,0.000000,9104.533087
4948.665455,1110.308913,-919.314598,9548.656652
4948.665770,444.123565,-1532.190996,9696.697840
4948.666084,-296.082377,-1915.238745,9622.677246
4948.666398,-370.102971,-1149.143247,9474.636058
4948.666713,222.061783,-1149.143247,9252.574275
4948.667027,444.123565,-766.095498,8734.430116
4948.667341,666.185348,536.266849,9252.574275
4948.667656,148.041188,766.095498,9326.594869
4948.667970,-296.082377,1072.533697,9400.615463
4948.668284,-518.144159,1302.362347,9696.697840
4948.668599,-814.226536,1225.752797,10288.862594
4948.668913,-1628.453072,1072.533697,11103.089130
4948.669228,-1480.411884,306.438199,10510.924376
4948.669542,-1480.411884,842.705048,10288.862594
4948.669856,-888.247130,1302.362347,9770.718434
4948.670171,0.000000,1915.238745,8956.491898
4948.670485,740.205942,2145.067394,8142.265362
4948.670799,1184.329507,2068.457845,7624.121203
4948.671114,1850.514855,2221.676944,7846.182985
4948.671428,1332.370696,1225.752797,7920.203579
4948.671742,1406.391290,612.876398,8364.327145
4948.672057,222.061783,306.438199,9178.553681
4948.672371,0.000000,-842.705048,9548.656652
4948.672685,-740.205942,-1072.533697,10066.800811
4948.673000,-1110.308913,-1608.800546,9992.780217
4948.673314,-962.267725,-1838.629195,9548.656652
4948.673629,0.000000,0.000000,9252.574275
4948.673943,148.041188,1302.362347,9326.594869
4948.674257,296.082377,1532.190996,9030.512492
4948.674572,592.164754,1762.019645,9326.594869
4948.674886,444.123565,1608.800546,9548.656652
4948.675200,148.041188,1915.238745,9696.697840
4948.675515,-592.164754,2298.286494,10288.862594
4948.675829,-1406.391290,2068.457845,10881.027347
4948.676143,-1406.391290,1685.410096,10732.986159
4948.676458,-1184.329507,1762.019645,10288.862594
4948.676772,-888.247130,2068.457845,9030.512492
4948.677086,148.041188,2528.115143,8290.306550
4948.677401,814.226536,2681.334243,7550.100608
4948.677715,1184.329507,2604.724693,7402.059420
4948.678030,1258.350101,2911.162892,7402.059420
4948.678344,1628.453072,2528.115143,7846.182985
4948.678658,814.226536,459.657299,7994.224174
4948.678973,296.082377,229.828649,9030.512492
4948.679287,0.000000,-459.657299,9622.677246
4948.679601,-666.185348,-1302.362347,9696.697840
4948.679916,-1036.288319,-1378.971896,9770.718434
4948.680230,-592.164754,-1149.143247,9474.636058
4948.680544,148.041188,76.609550,9548.656652
4948.680859,740.205942,536.266849,9400.615463
4948.681173,296.082377,459.657299,8734.430116
4948.681487,666.185348,459.657299,9252.574275
4948.681802,296.082377,1225.752797,9696.697840
4948.682116,-74.020594,1455.581446,10066.800811
4948.682431,-592.164754,1302.362347,10807.006753
4948.682745,-1110.308913,1532.190996,11177.109724
4948.683059,-1332.370696,995.924147,10362.883188
4948.683374,-740.205942,1455.581446,9474.636058
4948.683688,-148.041188,2221.676944,9400.615463
4948.684002,148.041188,2451.505594,8586.388927
4948.684317,1258.350101,2451.505594,8142.265362
4948.684631,1998.556043,1762.019645,7254.018232
4948.684945,2072.576638,1378.971896,7328.038826
4948.685260,2072.576638,1455.581446,8512.368333
4948.685574,1702.473667,766.095498,9178.553681
4948.685888,666.185348,-306.438199,9400.615463
4948.686203,296.082377,-2145.067394,9622.677246
4948.686517,-666.185348,-2298.286494,9918.759623
4948.686832,-592.164754,-2068.457845,9918.759623
4948.687146,-370.102971,-1378.971896,9474.636058
4948.687460,0.000000,-229.828649,9844.739029
4948.687775,74.020594,76.609550,9400.615463
4948.688089,888.247130,612.876398,9474.636058
4948.688403,666.185348,842.705048,9030.512492
4948.688718,296.082377,919.314598,9178.553681
4948.689032,148.041188,1302.362347,9918.759623
4948.689346,-370.102971,1149.143247,10584.944971
4948.689661,-1036.288319,1149.143247,10955.047942
4948.689975,-1036.288319,1225.752797,10881.027347
4948.690290,-592.164754,1455.581446,9770.718434
4948.690604,148.041188,1991.848295,9178.553681
4948.690918,1036.288319,2145.067394,8364.327145
4948.691233,1258.350101,1915.238745,8216.285956
4948.691547,1850.514855,1608.800546,7846.182985
4948.691861,1924.535449,1532.190996,7772.162391
4948.692176,1480.411884,1455.581446,8438.347739
4948.692490,740.205942,919.314598,8882.471304
4948.692804,296.082377,-229.828649,9474.636058
4948.693119,-296.082377,-1302.362347,9622.677246
4948.693433,-1258.350101,-1685.410096,9844.739029
4948.693747,-1628.453072,-995.924147,10066.800811
4948.694062,-1258.350101,-306.438199,9474.636058
4948.694376,-518.144159,383.047749,9178.553681
4948.694691,-592.164754,1149.143247,9104.533087
4948.695005,222.061783,1608.800546,9030.512492
4948.695319,-222.061783,1608.800546,9252.574275
4948.695634,-518.144159,1149.143247,9548.656652
4948.695948,-1184.329507,1838.629195,9548.656652
4948.696262,-1702.473667,1608.800546,10140.821405
4948.696577,-1924.535449,1532.190996,9992.780217
4948.696891,-1480.411884,2068.457845,9918.759623
4948.697205,-666.185348,2298.286494,9474.636058
4948.697520,222.061783,3064.381992,9326.594869
4948.697834,1332.370696,2757.943793,8512.368333
4948.698148,1850.514855,2987.772442,7846.182985
4948.698463,2072.576638,2528.115143,8216.285956
4948.698777,1776.494261,2221.676944,9178.553681
4948.699092,1480.411884,1762.019645,9326.594869
4948.699406,1554.432478,766.095498,9326.594869
4948.699720,740.205942,0.000000,9844.739029
4948.700035,0.000000,-153.219100,10214.842000
4948.700349,-1480.411884,-919.314598,9844.739029
4948.700663,-1628.453072,-612.876398,9326.594869
4948.700978,-1406.391290,-306.438199,9400.615463
4948.701292,-962.267725,229.828649,9252.574275
4948.701606,-740.205942,536.266849,8808.450710
4948.701921,-888.247130,229.828649,8512.368333
4948.702235,-518.144159,919.314598,9252.574275
4948.702549,-370.102971,1072.533697,9770.718434
4948.702864,-444.123565,1072.533697,10732.986159
4948.703178,-814.226536,1072.533697,10436.903782
4948.703493,-592.164754,1685.410096,10510.924376
4948.703807,-370.102971,1991.848295,9992.780217
4948.704121,518.144159,2451.505594,9548.656652
4948.704436,1406.391290,2911.162892,8512.368333
4948.704750,2294.638420,3064.381992,7920.203579
4948.705064,2368.659014,2604.724693,7550.100608
4948.705379,2368.659014,2068.457845,7698.141797
4948.705693,2072.576638,1455.581446,7624.121203
4948.706007,1406.391290,229.828649,8364.327145
4948.706322,518.144159,-612.876398,9178.553681
4948.706636,-296.082377,-1532.190996,9400.615463
4948.706950,-888.247130,-2451.505594,9104.533087
4948.707265,-1332.370696,-2681.334243,9622.677246
4948.707579,-1480.411884,-1991.848295,9622.677246
4948.707894,-444.123565,-1149.143247,9770.718434
4948.708208,592.164754,-536.266849,9622.677246
4948.708522,962.267725,-229.828649,9326.594869
4948.708837,1258.350101,153.219100,9696.697840
4948.709151,740.205942,383.047749,9548.656652
4948.709465,1332.370696,689.485948,10881.027347
4948.709780,0.000000,612.876398,10510.924376
4948.710094,74.020594,229.828649,10955.047942
4948.710408,-592.164754,153.219100,11029.068536
4948.710723,-740.205942,689.485948,10584.944971
4948.711037,-296.082377,1072.533697,9622.677246
4948.711351,444.123565,1149.143247,8586.388927
4948.711666,1184.329507,1608.800546,8068.244768
4948.711980,1258.350101,995.924147,7402.059420
4948.712295,1258.350101,995.924147,7328.038826
4948.712609,1258.350101,306.438199,7698.141797
4948.712923,962.267725,0.000000,8734.430116
4948.713238,666.185348,-689.485948,9178.553681
4948.713552,148.041188,-1225.752797,9474.636058
4948.713866,-740.205942,-1838.629195,9548.656652
4948.714181,-666.185348,-1532.190996,9474.636058
4948.714495,-222.061783,306.438199,9326.594869
4948.714809,666.185348,229.828649,9252.574275
4948.715124,1036.288319,919.314598,9104.533087
4948.715438,1406.391290,1302.362347,9252.574275
4948.715752,814.226536,1685.410096,9104.533087
4948.716067,74.020594,1455.581446,9474.636058
4948.716381,0.000000,1532.190996,9548.656652
4948.716696,-666.185348,1225.752797,10658.965565
4948.717010,-1110.308913,1149.143247,11843.295072
4948.717324,-2072.576638,1608.800546,11325.150913
4948.717639,-2294.638420,1532.190996,9844.739029
4948.717953,-1184.329507,2451.505594,8808.450710
4948.718267,-370.102971,2987.772442,7994.224174
4948.718582,592.164754,3140.991542,7624.121203
4948.718896,666.185348,3753.867940,7254.018232
4948.719210,814.226536,2681.334243,7402.059420
4948.719525,444.123565,2374.896044,8438.347739
4948.719839,74.020594,1149.143247,9326.594869
4948.720153,0.000000,306.438199,9474.636058
4948.720468,-666.185348,-766.095498,9548.656652
4948.720782,-1258.350101,-1072.533697,9548.656652
4948.721096,-1554.432478,-383.047749,9696.697840
4948.721411,-1184.329507,229.828649,9474.636058
4948.721725,-518.144159,842.705048,9104.533087
4948.722039,148.041188,1378.971896,9030.512492
4948.722354,148.041188,1762.019645,8956.491898
4948.722668,0.000000,1762.019645,8808.450710
4948.722982,148.041188,1915.238745,9326.594869
4948.723296,74.020594,2221.676944,9918.759623
4948.723611,-444.123565,1838.629195,10584.944971
4948.723925,-1702.473667,612.876398,10288.862594
4948.724239,-1776.494261,2451.505594,10066.800811
4948.724554,-1184.329507,2681.334243,9474.636058
4948.724868,0.000000,3064.381992,9326.594869
4948.725182,1258.350101,2757.943793,8364.327145
4948.725496,2072.576638,2451.505594,7476.080014
4948.725811,1924.535449,2068.457845,7402.059420
4948.726125,1406.391290,1378.971896,7920.203579
4948.726439,1258.350101,306.438199,9474.636058
4948.726754,740.205942,0.000000,9622.677246
4948.727068,148.041188,-1455.581446,10066.800811
4948.727382,-666.185348,-2528.115143,10140.821405
4948.727696,-1554.432478,-2681.334243,10214.842000
4948.728011,-1332.370696,-2451.505594,10066.800811
4948.728325,-518.144159,-1455.581446,9548.656652
4948.728639,148.041188,-919.314598,9696.697840
4948.728954,0.000000,229.828649,9326.594869
4948.729268,222.061783,153.219100,9104.533087
4948.729582,296.082377,306.438199,9178.553681
4948.729896,296.082377,536.266849,9548.656652
4948.730211,148.041188,919.314598,10436.903782
4948.730525,0.000000,689.485948,11177.109724
4948.730839,-518.144159,459.657299,10510.924376
4948.731154,-592.164754,459.657299,10066.800811
4948.731468,-222.061783,1455.581446,9474.636058
4948.731782,814.226536,1532.190996,8734.430116
4948.732096,1776.494261,1838.629195,7994.224174
4948.732411,2442.679609,1991.848295,7624.121203
4948.732725,2812.782580,1685.410096,7476.080014
4948.733039,2590.720797,1608.800546,7624.121203
4948.733354,2368.659014,995.924147,8290.306550
4948.733668,1480.411884,0.000000,8956.491898
4948.733982,740.205942,-1149.143247,9696.697840
4948.734296,-518.144159,-1915.238745,10288.862594
4948.734611,-1628.453072,-2298.286494,10510.924376
4948.734925,-1776.494261,-2068.457845,10214.842000
4948.735239,-1554.432478,-1072.533697,9918.759623
4948.735554,-814.226536,-766.095498,9474.636058
4948.735868,-222.061783,1225.752797,9474.636058
4948.736182,-518.144159,1762.019645,9178.553681
4948.736496,-1184.329507,1608.800546,8956.491898
4948.736811,-962.267725,1915.238745,8956.491898
4948.737125,-1110.308913,2221.676944,9696.697840
4948.737439,-1406.391290,1915.238745,10658.965565
4948.737754,-1332.370696,1762.019645,10510.924376
4948.738068,-1184.329507,1685.410096,10510.924376
4948.738382,-370.102971,2374.896044,9992.780217
4948.738696,518.144159,3140.991542,8882.471304
4948.739011,1554.432478,2987.772442,7772.162391
4948.739325,2294.638420,3217.601092,7402.059420
4948.739639,2146.597232,3217.601092,7328.038826
4948.739954,1924.535449,2681.334243,7550.100608
4948.740268,1406.391290,1608.800546,7994.224174
4948.740582,518.144159,766.095498,8438.347739
4948.740897,0.000000,153.219100,9252.574275
4948.741211,-1110.308913,-153.219100,9770.718434
4948.741525,-1924.535449,-536.266849,9992.780217
4948.741839,-2146.597232,-459.657299,9696.697840
4948.742154,-1480.411884,-153.219100,9104.533087
4948.742468,-1110.308913,459.657299,8586.388927
4948.742782,-666.185348,1532.190996,8512.368333
4948.743097,-592.164754,1685.410096,8660.409521
4948.743411,-592.164754,1608.800546,9696.697840
4948.743725,-740.205942,842.705048,10066.800811
4948.744039,-1036.288319,1302.362347,10807.006753
4948.744354,-1110.308913,1149.143247,11251.130318
4948.744668,-1332.370696,1302.362347,11177.109724
4948.744982,-592.164754,1608.800546,10510.924376
4948.745297,592.164754,2145.067394,9696.697840
4948.745611,1406.391290,2374.896044,9030.512492
4948.745925,1850.514855,3217.601092,8364.327145
4948.746239,2072.576638,2221.676944,7402.059420
4948.746554,2294.638420,2145.067394,7846.182985
4948.746868,1924.535449,1302.362347,8438.347739
4948.747182,1480.411884,229.828649,9178.553681
4948.747497,296.082377,0.000000,9474.636058
4948.747811,-296.082377,-1991.848295,9400.615463
4948.748125,-888.247130,-1532.190996,9400.615463
4948.748439,-1480.411884,-1762.019645,9400.615463
4948.748754,-1184.329507,-1455.581446,9400.615463
4948.749068,-592.164754,-536.266849,9178.553681
4948.749382,74.020594,0.000000,8956.491898
4948.749697,370.102971,689.485948,8586.388927
4948.750011,222.061783,1225.752797,8734.430116
4948.750325,148.041188,995.924147,9474.636058
4948.750639,370.102971,1608.800546,10214.842000
4948.750954,148.041188,766.095498,10436.903782
4948.751268,0.000000,229.828649,10807.006753
4948.751582,-666.185348,612.876398,10510.924376
4948.751897,-666.185348,919.314598,10362.883188
4948.752211,74.020594,2145.067394,9474.636058
4948.752525,1258.350101,2451.505594,8660.409521
4948.752839,2368.659014,1915.238745,8068.244768
4948.753154,2738.761985,1762.019645,7698.141797
4948.753468,2738.761985,1455.581446,7476.080014
4948.753782,2220.617826,1149.143247,8364.327145
4948.754097,1480.411884,76.609550,9400.615463
4948.754411,888.247130,-1455.581446,10066.800811
4948.754725,74.020594,-2374.896044,9622.677246
4948.755039,-370.102971,-2451.505594,9474.636058
4948.755354,-666.185348,-2528.115143,9918.759623
4948.755668,-296.082377,-1149.143247,9992.780217
4948.755982,444.123565,-306.438199,9770.718434
4948.756297,666.185348,-153.219100,9622.677246
4948.756611,592.164754,612.876398,9474.636058
4948.756925,0.000000,919.314598,9326.594869
4948.757239,-444.123565,919.314598,8734.430116
4948.757554,-370.102971,1455.581446,9770.718434
4948.757868,-370.102971,2145.067394,10955.047942
4948.758182,-1406.391290,1225.752797,11029.068536
4948.758497,-2072.576638,1378.971896,10362.883188
4948.758811,-1628.453072,1608.800546,9696.697840
4948.759125,-1110.308913,2145.067394,8882.471304
4948.759440,74.020594,2451.505594,8290.306550
4948.759754,1258.350101,1991.848295,8068.244768
4948.760068,1480.411884,1991.848295,7550.100608
4948.760382,1776.494261,1838.629195,7179.997637
4948.760697,1036.288319,995.924147,8142.265362
4948.761011,518.144159,306.438199,9326.594869
4948.761325,370.102971,0.000000,10436.903782
4948.761640,0.000000,-689.485948,10510.924376
4948.761954,-222.061783,-1302.362347,9992.780217
4948.762268,-592.164754,-1072.533697,9696.697840
4948.762582,0.000000,-306.438199,9104.533087
4948.762897,888.247130,1455.581446,9252.574275
4948.763211,1184.329507,2145.067394,8956.491898
4948.763525,1110.308913,2528.115143,9548.656652
4948.763840,592.164754,2221.676944,9548.656652
4948.764154,222.061783,2451.505594,9178.553681
4948.764468,-518.144159,1532.190996,9178.553681
4948.764782,-1628.453072,1608.800546,10288.862594
4948.765097,-2072.576638,1991.848295,10658.965565
4948.765411,-2072.576638,1685.410096,10584.944971
4948.765725,-1776.494261,1991.848295,9844.739029
4948.766040,-1258.350101,2451.505594,8882.471304
4948.766354,-444.123565,2987.772442,7402.059420
4948.766668,444.123565,3140.991542,6883.915261
4948.766982,888.247130,2604.724693,7179.997637
4948.767297,1184.329507,2145.067394,7846.182985
4948.767611,1184.329507,1149.143247,8438.347739
4948.767925,888.247130,306.438199,9252.574275
4948.768240,296.082377,-919.314598,9474.636058
4948.768554,0.000000,-1072.533697,9992.780217
4948.768868,-592.164754,-1225.752797,10362.883188
4948.769182,-296.082377,-766.095498,10288.862594
4948.769497,-222.061783,-995.924147,9326.594869
4948.769811,148.041188,-612.876398,8956.491898
4948.770125,814.226536,383.047749,9030.512492
4948.770440,814.226536,1149.143247,9474.636058
4948.770754,740.205942,1225.752797,9844.739029
4948.771068,666.185348,1072.533697,10288.862594
4948.771382,592.164754,689.485948,10584.944971
4948.771697,-444.123565,919.314598,10140.821405
4948.772011,-1036.288319,919.314598,10436.903782
4948.772325,-1554.432478,1149.143247,9770.718434
4948.772640,-888.247130,1149.143247,9622.677246
4948.772954,148.041188,1532.190996,8882.471304
4948.773268,740.205942,1532.190996,7846.182985
4948.773582,1110.308913,766.095498,6957.935855
4948.773897,1480.411884,766.095498,7402.059420
4948.774211,1406.391290,229.828649,7994.224174
4948.774525,1480.411884,-459.657299,8956.491898
4948.774840,1332.370696,-1762.019645,10066.800811
4948.775154,518.144159,-2374.896044,10362.883188
4948.775468,0.000000,-2298.286494,10510.924376
4948.775782,0.000000,-2298.286494,10214.842000
4948.776097,222.061783,-1532.190996,9770.718434
4948.776411,1184.329507,-612.876398,9696.697840
4948.776725,1332.370696,459.657299,9030.512492
4948.777040,1258.350101,919.314598,8660.409521
4948.777354,1184.329507,1302.362347,8956.491898
4948.777668,296.082377,1378.971896,9474.636058
4948.777983,-148.041188,1302.362347,9844.739029
4948.778297,-740.205942,995.924147,10732.986159
4948.778611,-1776.494261,995.924147,10436.903782
4948.778925,-2368.659014,1302.362347,10658.965565
4948.779240,-2516.700203,1532.190996,9992.780217
4948.779554,-1850.514855,1915.238745,9400.615463
4948.779868,-1036.288319,2528.115143,8586.388927
4948.780183,0.000000,3064.381992,7846.182985
4948.780497,888.247130,2834.553343,7476.080014
4948.780811,1332.370696,2221.676944,7105.977043
4948.781125,1258.350101,1762.019645,7105.977043
4948.781440,1332.370696,1072.533697,8512.368333
4948.781754,444.123565,-612.876398,9474.636058
4948.782068,0.000000,-766.095498,10140.821405
4948.782383,-962.267725,-995.924147,10066.800811
4948.782697,-1406.391290,-766.095498,9918.759623
4948.783011,-1036.288319,-229.828649,9548.656652
4948.783325,0.000000,919.314598,9104.533087
4948.783640,444.123565,2221.676944,9252.574275
4948.783954,148.041188,2451.505594,8660.409521
4948.784268,-222.061783,2374.896044,8586.388927
4948.784583,-444.123565,2451.505594,8956.491898
4948.784897,-592.164754,2528.115143,9696.697840
4948.785211,-1036.288319,2298.286494,10288.862594
4948.785525,-1480.411884,2298.286494,11029.068536
4948.785840,-2146.597232,2451.505594,11029.068536
4948.786154,-2220.617826,1532.190996,10140.821405
4948.786468,-1406.391290,2374.896044,9326.594869
4948.786783,0.000000,2757.943793,8438.347739
4948.787097,814.226536,2681.334243,7846.182985
4948.787411,1332.370696,2374.896044,7402.059420
4948.787725,1702.473667,2068.457845,7698.141797
4948.788040,1628.453072,1149.143247,8142.265362
4948.788354,1480.411884,1225.752797,8734.430116
4948.788668,1258.350101,-153.219100,9326.594869
4948.788983,1036.288319,-1149.143247,9992.780217
4948.789297,370.102971,-1608.800546,10066.800811
4948.789611,0.000000,-2068.457845,9770.718434
4948.789925,0.000000,-1608.800546,9474.636058
4948.790240,592.164754,-536.266849,9400.615463
4948.790554,962.267725,383.047749,9030.512492
4948.790868,888.247130,383.047749,8956.491898
4948.791183,666.185348,76.609550,9030.512492
4948.791497,148.041188,459.657299,9474.636058
4948.791811,-148.041188,766.095498,10214.842000
4948.792125,-962.267725,0.000000,10288.862594
4948.792440,-1184.329507,0.000000,10066.800811
4948.792754,-1332.370696,459.657299,10510.924376
4948.793068,-814.226536,1378.971896,10288.862594
4948.793383,74.020594,1762.019645,9326.594869
4948.793697,962.267725,1838.629195,8290.306550
4948.794011,1850.514855,1225.752797,7476.080014
4948.794325,1998.556043,1455.581446,7772.162391
4948.794640,2072.576638,536.266849,7994.224174
4948.794954,1702.473667,229.828649,8734.430116
4948.795268,1332.370696,-383.047749,9696.697840
4948.795583,296.082377,-1378.971896,10584.944971
4948.795897,-148.041188,-2681.334243,10066.800811
4948.796211,-814.226536,-2987.772442,9622.677246
4948.796526,-962.267725,-2298.286494,9178.553681
4948.796840,-962.267725,-1225.752797,9030.512492
4948.797154,-296.082377,-229.828649,9622.677246
4948.797468,444.123565,459.657299,9178.553681
4948.797783,518.144159,766.095498,8586.388927
4948.798097,296.082377,153.219100,9030.512492
4948.798411,222.061783,1378.971896,9104.533087
4948.798726,-370.102971,1455.581446,9400.615463
4948.799040,-518.144159,1838.629195,10584.944971
4948.799354,-1332.370696,1838.629195,11029.068536
4948.799668,-1998.556043,1302.362347,10955.047942
4948.799983,-1998.556043,1838.629195,9992.780217
4948.800297,-1702.473667,2681.334243,8882.471304
4948.800611,-296.082377,3217.601092,7994.224174
4948.800926,1406.391290,2681.334243,7402.059420
4948.801240,1924.535449,2221.676944,7772.162391
4948.801554,1776.494261,2068.457845,7994.224174
4948.801868,1110.308913,2068.457845,8512.368333
4948.802183,444.123565,612.876398,9326.594869
4948.802497,74.020594,-153.219100,9400.615463
4948.802811,-148.041188,-459.657299,10288.862594
4948.803126,-444.123565,-1378.971896,10140.821405
4948.803440,-888.247130,-995.924147,9474.636058
4948.803754,-370.102971,-383.047749,9030.512492
4948.804068,370.102971,995.924147,9252.574275
4948.804383,518.144159,2145.067394,8956.491898
4948.804697,592.164754,1915.238745,8882.471304
4948.805011,592.164754,2374.896044,9326.594869
4948.805326,444.123565,2681.334243,9252.574275
4948.805640,222.061783,2681.334243,9474.636058
4948.805954,-740.205942,2145.067394,10436.903782
4948.806268,-1776.494261,1915.238745,10807.006753
4948.806583,-1702.473667,2221.676944,10510.924376
4948.806897,-1258.350101,2298.286494,9548.656652
4948.807211,-296.082377,2528.115143,8882.471304
4948.807526,592.164754,2757.943793,7994.224174
4948.807840,1110.308913,3447.429741,7179.997637
4948.808154,1332.370696,2604.724693,7105.977043
4948.808468,1184.329507,1532.190996,7550.100608
4948.808783,888.247130,842.705048,8586.388927
4948.809097,370.102971,-306.438199,9474.636058
4948.809411,-222.061783,-1302.362347,9844.739029
4948.809726,-1332.370696,-2145.067394,10288.862594
4948.810040,-1702.473667,-2221.676944,10214.842000
4948.810354,-1332.370696,-2221.676944,9844.739029
4948.810668,-444.123565,-2221.676944,9400.615463
4948.810983,370.102971,-1149.143247,9252.574275
4948.811297,814.226536,0.000000,9104.533087
4948.811611,888.247130,612.876398,9252.574275
4948.811926,1110.308913,1149.143247,9918.759623
4948.812240,1332.370696,1302.362347,9770.718434
4948.812554,1332.370696,1302.362347,9770.718434
4948.812868,1258.350101,919.314598,10214.842000
4948.813183,0.000000,842.705048,10955.047942
4948.813497,-444.123565,1149.143247,10584.944971
4948.813811,0.000000,1378.971896,9696.697840
4948.814126,370.102971,2068.457845,8882.471304
4948.814440,1184.329507,1762.019645,7846.182985
4948.814754,1850.514855,1762.019645,7254.018232
4948.815069,1776.494261,1685.410096,7402.059420
4948.815383,1554.432478,612.876398,7846.182985
4948.815697,740.205942,-153.219100,8586.388927
4948.816011,-370.102971,-1302.362347,9178.553681
4948.816326,-888.247130,-2221.676944,9326.594869
4948.816640,-1332.370696,-2221.676944,9992.780217
4948.816954,-1628.453072,-2757.943793,10066.800811
4948.817269,-888.247130,-1838.629195,9992.780217
4948.817583,-222.061783,-1455.581446,9770.718434
4948.817897,518.144159,-459.657299,9548.656652
4948.818211,740.205942,536.266849,9326.594869
4948.818526,1036.288319,1302.362347,9252.574275
4948.818840,962.267725,1762.019645,9474.636058
4948.819154,962.267725,1915.238745,10140.821405
4948.819469,222.061783,2068.457845,10881.027347
4948.819783,-370.102971,1915.238745,11103.089130
4948.820097,-1628.453072,2145.067394,10732.986159
4948.820411,-1702.473667,2374.896044,10140.821405
4948.820726,-740.205942,2681.334243,9326.594869
4948.821040,592.164754,3140.991542,8808.450710
4948.821354,962.267725,3370.820191,7624.121203
4948.821669,1036.288319,3140.991542,6809.894666
4948.821983,1110.308913,2834.553343,7328.038826
4948.822298,1036.288319,2757.943793,7846.182985
4948.822612,814.226536,1378.971896,8808.450710
4948.822926,0.000000,0.000000,9474.636058
4948.823241,-592.164754,-1225.752797,9474.636058
4948.823555,-1406.391290,-1455.581446,9474.636058
4948.823869,-1702.473667,-1225.752797,9326.594869
4948.824184,-1776.494261,-383.047749,8956.491898
4948.824498,-740.205942,306.438199,9474.636058
4948.824812,-296.082377,842.705048,8882.471304
4948.825127,0.000000,995.924147,8734.430116
4948.825441,-222.061783,1532.190996,9178.553681
4948.825756,-296.082377,1762.019645,9178.553681
4948.826070,-518.144159,1991.848295,10288.862594
4948.826384,-962.267725,1608.800546,11251.130318
4948.826699,-1702.473667,1302.362347,11843.295072
4948.827013,-1480.411884,2068.457845,11103.089130
4948.827327,-1332.370696,2374.896044,10140.821405
4948.827642,-518.144159,3064.381992,9474.636058
4948.827956,1332.370696,3370.820191,8438.347739
4948.828271,2368.659014,3600.648841,7476.080014
4948.828585,2664.741391,3294.210641,7179.997637
4948.828899,3034.844362,3600.648841,7328.038826
4948.829214,2146.597232,1685.410096,7772.162391
4948.829528,2220.617826,919.314598,9030.512492
4948.829842,1184.329507,-842.705048,8882.471304
4948.830157,370.102971,-2451.505594,9326.594869
4948.830471,-740.205942,-3064.381992,9844.739029
4948.830786,-1554.432478,-2604.724693,10066.800811
4948.831100,-1332.370696,-1532.190996,9548.656652
4948.831414,-444.123565,-1608.800546,9030.512492
4948.831729,222.061783,-842.705048,9400.615463
4948.832043,518.144159,-306.438199,8882.471304
4948.832357,296.082377,536.266849,8512.368333
4948.832672,0.000000,766.095498,8660.409521
4948.832986,-74.020594,842.705048,10140.821405
4948.833300,-1036.288319,459.657299,11325.150913
4948.833615,-1628.453072,536.266849,11843.295072
4948.833929,-1554.432478,689.485948,11325.150913
4948.834244,-1110.308913,766.095498,10881.027347
4948.834558,148.041188,919.314598,10362.883188
4948.834872,1258.350101,1455.581446,9252.574275
4948.835187,1776.494261,1685.410096,8364.327145
4948.835501,1850.514855,1455.581446,7772.162391
4948.835815,1628.453072,1608.800546,8364.327145
4948.836130,1702.473667,995.924147,8290.306550
4948.836444,1554.432478,0.000000,8956.491898
4948.836759,296.082377,-1685.410096,9474.636058
4948.837073,-296.082377,-2757.943793,9030.512492
4948.837387,-1258.350101,-2451.505594,9400.615463
4948.837702,-1554.432478,-1685.410096,9030.512492
4948.838016,-1184.329507,-689.485948,8956.491898
4948.838330,-370.102971,-153.219100,9252.574275
4948.838645,0.000000,229.828649,8956.491898
4948.838959,518.144159,1915.238745,8512.368333
4948.839273,0.000000,919.314598,8142.265362
4948.839588,222.061783,1991.848295,9178.553681
4948.839902,148.041188,2145.067394,10140.821405
4948.840217,-444.123565,1991.848295,10732.986159
4948.840531,-1036.288319,1838.629195,11103.089130
4948.840845,-1184.329507,2221.676944,10436.903782
4948.841160,-592.164754,2834.553343,9918.759623
4948.841474,296.082377,2987.772442,8808.450710
4948.841788,1184.329507,3217.601092,8216.285956
4948.842103,2072.576638,2757.943793,8068.244768
4948.842417,1924.535449,2757.943793,8438.347739
4948.842732,2294.638420,2451.505594,8364.327145
4948.843046,1850.514855,1455.581446,8216.285956
4948.843360,1776.494261,383.047749,8956.491898
4948.843675,1406.391290,-383.047749,9844.739029
4948.843989,222.061783,-1149.143247,9992.780217
4948.844303,-296.082377,-1532.190996,9844.739029
4948.844618,-444.123565,-1149.143247,9844.739029
4948.844932,-296.082377,-689.485948,9622.677246
4948.845246,296.082377,-229.828649,9104.533087
4948.845561,444.123565,536.266849,8290.306550
4948.845875,74.020594,842.705048,8808.450710
4948.846190,0.000000,1762.019645,9696.697840
4948.846504,-148.041188,1991.848295,9474.636058
4948.846818,-814.226536,1149.143247,9696.697840
4948.847133,-1406.391290,919.314598,10732.986159
4948.847447,-2368.659014,1225.752797,10881.027347
4948.847761,-2368.659014,1838.629195,10140.821405
4948.848076,-1480.411884,1685.410096,9474.636058
4948.848390,-592.164754,2834.553343,9400.615463
4948.848705,74.020594,2604.724693,8216.285956
4948.849019,814.226536,2374.896044,7550.100608
4948.849333,962.267725,2221.676944,7105.977043
4948.849648,1110.308913,1838.629195,7772.162391
4948.849962,888.247130,995.924147,8660.409521
4948.850276,888.247130,153.219100,9178.553681
4948.850591,518.144159,-1302.362347,9104.533087
4948.850905,0.000000,-1838.629195,9474.636058
4948.851220,-814.226536,-2374.896044,9770.718434
4948.851534,-666.185348,-995.924147,10436.903782
4948.851848,0.000000,-612.876398,10214.842000
4948.852163,666.185348,-536.266849,9696.697840
4948.852477,1036.288319,0.000000,8734.430116
4948.852791,888.247130,612.876398,8808.450710
4948.853106,962.267725,2145.067394,9178.553681
4948.853420,666.185348,2068.457845,9844.739029
4948.853734,-370.102971,1608.800546,10955.047942
4948.854049,-888.247130,995.924147,11325.150913
4948.854363,-1554.432478,1225.752797,10510.924376
4948.854678,-2220.617826,1532.190996,9918.759623
4948.854992,-1924.535449,2604.724693,9474.636058
4948.855306,-592.164754,2145.067394,8734.430116
4948.855621,740.205942,1455.581446,8364.327145
4948.855935,1184.329507,1991.848295,7846.182985
4948.856249,962.267725,1838.629195,7328.038826
4948.856564,666.185348,1991.848295,7402.059420
4948.856878,1184.329507,1302.362347,8586.388927
4948.857193,666.185348,-229.828649,9474.636058
4948.857507,1036.288319,-1991.848295,9770.718434
4948.857821,296.082377,-2298.286494,9104.533087
4948.858136,-444.123565,-1685.410096,9474.636058
4948.858450,148.041188,-612.876398,9400.615463
4948.858764,666.185348,229.828649,9474.636058
4948.859079,1554.432478,766.095498,9844.739029
4948.859393,1332.370696,766.095498,9252.574275
4948.859707,1184.329507,1685.410096,9030.512492
4948.860022,1036.288319,1685.410096,8956.491898
4948.860336,666.185348,1838.629195,9992.780217
4948.860651,-222.061783,1608.800546,10807.006753
4948.860965,-888.247130,1225.752797,11177.109724
4948.861279,-2146.597232,1302.362347,10807.006753
4948.861594,-2072.576638,1838.629195,10214.842000
4948.861908,-1554.432478,2374.896044,9104.533087
4948.862222,222.061783,2451.505594,8956.491898
4948.862537,518.144159,2451.505594,7994.224174
4948.862851,1110.308913,1915.238745,7476.080014
4948.863166,740.205942,1072.533697,7476.080014
4948.863480,814.226536,842.705048,8290.306550
4948.863794,888.247130,306.438199,9178.553681
4948.864109,518.144159,-919.314598,9474.636058
4948.864423,0.000000,-1915.238745,9770.718434
4948.864737,148.041188,-1991.848295,9844.739029
4948.865052,296.082377,-1532.190996,10288.862594
4948.865366,222.061783,-766.095498,9548.656652
4948.865681,962.267725,0.000000,9622.677246
4948.865995,1184.329507,383.047749,9400.615463
4948.866309,1258.350101,919.314598,9178.553681
4948.866624,666.185348,919.314598,9400.615463
4948.866938,222.061783,1072.533697,9104.533087
4948.867252,-814.226536,995.924147,9252.574275
4948.867567,-1184.329507,536.266849,10584.944971
4948.867881,-1924.535449,1072.533697,10807.006753
4948.868195,-2516.700203,1455.581446,10658.965565
4948.868510,-2886.803174,1762.019645,10436.903782
4948.868824,-2368.659014,2298.286494,9326.594869
4948.869139,-888.247130,2374.896044,7846.182985
4948.869453,74.020594,2451.505594,7994.224174
4948.869767,518.144159,2298.286494,7328.038826
4948.870082,666.185348,2298.286494,7476.080014
4948.870396,1184.329507,1838.629195,8216.285956
4948.870710,1110.308913,1532.190996,8956.491898
4948.871025,962.267725,153.219100,9548.656652
4948.871339,370.102971,-842.705048,9400.615463
4948.871654,296.082377,-919.314598,9400.615463
4948.871968,370.102971,-536.266849,9474.636058
4948.872282,444.123565,-536.266849,9474.636058
4948.872597,1184.329507,76.609550,9474.636058
4948.872911,1258.350101,612.876398,9400.615463
4948.873225,1258.350101,919.314598,8956.491898
4948.873540,740.205942,1532.190996,8882.471304
4948.873854,222.061783,1915.238745,9548.656652
4948.874168,-444.123565,1685.410096,10288.862594
4948.874483,-962.267725,2145.067394,11399.171507
4948.874797,-1702.473667,1455.581446,10807.006753
4948.875112,-2072.576638,842.705048,10362.883188
4948.875426,-1406.391290,1455.581446,8956.491898
4948.875740,-740.205942,2681.334243,8882.471304
4948.876055,0.000000,2987.772442,8586.388927
4948.876369,1184.329507,2528.115143,8438.347739
4948.876683,1258.350101,2451.505594,7994.224174
4948.876998,1184.329507,1762.019645,7846.182985
4948.877312,1036.288319,766.095498,7698.141797
4948.877627,1258.350101,-153.219100,8882.471304
4948.877941,1036.288319,-1302.362347,9474.636058
4948.878255,518.144159,-1991.848295,9844.739029
4948.878570,0.000000,-1838.629195,10214.842000
4948.878884,-222.061783,-1762.019645,9548.656652
4948.879198,962.267725,-689.485948,9622.677246
4948.879513,1184.329507,536.266849,9400.615463
4948.879827,1554.432478,76.609550,9622.677246
4948.880142,1628.453072,689.485948,9474.636058
4948.880456,1110.308913,459.657299,9400.615463
4948.880770,74.020594,1225.752797,9548.656652
4948.881085,-518.144159,842.705048,10214.842000
4948.881399,-1184.329507,766.095498,10584.944971
4948.881713,-1554.432478,1455.581446,10066.800811
4948.882028,-1406.391290,1225.752797,10584.944971
4948.882342,-1184.329507,1532.190996,9696.697840
4948.882656,0.000000,2298.286494,8290.306550
4948.882971,222.061783,2068.457845,7846.182985
4948.883285,814.226536,2604.724693,7920.203579
4948.883600,1184.329507,2145.067394,7846.182985
4948.883914,1184.329507,536.266849,8216.285956
4948.884228,1628.453072,383.047749,8586.388927
4948.884543,518.144159,-995.924147,9252.574275
4948.884857,0.000000,-1225.752797,9548.656652
4948.885171,-370.102971,-1685.410096,9770.718434
4948.885486,-518.144159,-1608.800546,10140.821405
4948.885800,-370.102971,-689.485948,10140.821405
4948.886115,0.000000,-689.485948,9622.677246
4948.886429,148.041188,383.047749,9030.512492
4948.886743,1036.288319,536.266849,8438.347739
4948.887058,740.205942,1149.143247,8956.491898
4948.887372,222.061783,1378.971896,9326.594869
4948.887686,-370.102971,1762.019645,10066.800811
4948.888001,-888.247130,2068.457845,10436.903782
4948.888315,-1850.514855,842.705048,10955.047942
4948.888629,-2368.659014,1302.362347,11325.150913
4948.888944,-2220.617826,2221.676944,9548.656652
4948.889258,-1554.432478,2374.896044,9178.553681
4948.889573,-740.205942,2911.162892,8882.471304
4948.889887,592.164754,3140.991542,8364.327145
4948.890201,1184.329507,3064.381992,7402.059420
4948.890516,1480.411884,2374.896044,7105.977043
4948.890830,1406.391290,1915.238745,7994.224174
4948.891144,1258.350101,1685.410096,8660.409521
4948.891459,1036.288319,919.314598,9474.636058
4948.891773,518.144159,-383.047749,9770.718434
4948.892088,222.061783,-1225.752797,10066.800811
4948.892402,-370.102971,-1149.143247,9696.697840
4948.892716,0.000000,-229.828649,9474.636058
4948.893031,148.041188,536.266849,9400.615463
4948.893345,962.267725,1072.533697,9474.636058
4948.893659,1332.370696,1455.581446,9474.636058
4948.893974,814.226536,1302.362347,9030.512492
4948.894288,370.102971,1838.629195,9326.594869
4948.894602,0.000000,1532.190996,9474.636058
4948.894917,-444.123565,1532.190996,10214.842000
4948.895231,-962.267725,1455.581446,10658.965565
4948.895546,-1110.308913,1762.019645,10732.986159
4948.895860,-1628.453072,2221.676944,9918.759623
4948.896174,-962.267725,2604.724693,8882.471304
4948.896489,-148.041188,2834.553343,8142.265362
4948.896803,814.226536,2604.724693,8068.244768
4948.897117,1332.370696,2451.505594,7994.224174
4948.897432,1184.329507,1455.581446,7772.162391
4948.897746,814.226536,766.095498,7698.141797
4948.898061,1258.350101,-383.047749,9030.512492
4948.898375,296.082377,-1225.752797,9326.594869
4948.898689,-370.102971,-1762.019645,9696.697840
4948.899004,-592.164754,-2298.286494,10288.862594
4948.899318,-1036.288319,-2068.457845,10214.842000
4948.899632,-222.061783,-1991.848295,9622.677246
4948.899947,296.082377,-1072.533697,9252.574275
4948.900261,740.205942,-536.266849,9252.574275
4948.900576,888.247130,0.000000,9622.677246
4948.900890,666.185348,995.924147,9770.718434
4948.901204,222.061783,612.876398,9770.718434
4948.901519,-296.082377,689.485948,9696.697840
4948.901833,-1036.288319,689.485948,10140.821405
4948.902147,-1554.432478,383.047749,9918.759623
4948.902462,-2072.576638,1225.752797,9844.739029
4948.902776,-1480.411884,1685.410096,9474.636058
4948.903090,-888.247130,1608.800546,9104.533087
4948.903405,296.082377,2221.676944,8956.491898
4948.903719,1110.308913,1378.971896,7624.121203
4948.904034,1332.370696,1532.190996,7328.038826
4948.904348,1554.432478,1532.190996,7846.182985
4948.904662,1628.453072,689.485948,8068.244768
4948.904977,1406.391290,842.705048,9696.697840
4948.905291,1406.391290,-842.705048,9770.718434
4948.905605,740.205942,-766.095498,10214.842000
4948.905920,-592.164754,-1455.581446,10066.800811
4948.906234,-666.185348,-1608.800546,9844.739029
4948.906549,-148.041188,-689.485948,9622.677246
4948.906863,370.102971,0.000000,10066.800811
4948.907177,666.185348,842.705048,9326.594869
4948.907492,222.061783,1455.581446,8734.430116
4948.907806,148.041188,612.876398,8512.368333
4948.908120,-296.082377,1149.143247,9104.533087
4948.908435,-666.185348,1915.238745,9770.718434
4948.908749,-814.226536,1762.019645,10214.842000
4948.909063,-1258.350101,1762.019645,10066.800811
4948.909378,-888.247130,2374.896044,9696.697840
4948.909692,-666.185348,3064.381992,9474.636058
4948.910007,0.000000,2987.772442,8586.388927
4948.910321,962.267725,2757.943793,8142.265362
4948.910635,1258.350101,2681.334243,7550.100608
4948.910950,1628.453072,2451.505594,7624.121203
4948.911264,2220.617826,2068.457845,8142.265362
4948.911578,1998.556043,1532.190996,8660.409521
4948.911893,1184.329507,153.219100,9770.718434
4948.912207,666.185348,-536.266849,9992.780217
4948.912522,-222.061783,-1149.143247,9770.718434
4948.912836,-962.267725,-1838.629195,10436.903782
4948.913150,-962.267725,-766.095498,10140.821405
4948.913465,-814.226536,0.000000,10288.862594
4948.913779,-814.226536,-459.657299,10066.800811
4948.914093,-518.144159,306.438199,9474.636058
4948.914408,-518.144159,306.438199,8956.491898
4948.914722,-370.102971,995.924147,8956.491898
4948.915037,-888.247130,1149.143247,9326.594869
4948.915351,-962.267725,766.095498,10214.842000
4948.915665,-1480.411884,1072.533697,10881.027347
4948.915980,-2072.576638,1532.190996,11251.130318
4948.916294,-2220.617826,2068.457845,10658.965565
4948.916608,-1184.329507,2221.676944,9030.512492
4948.916923,0.000000,2528.115143,7698.141797
4948.917237,1110.308913,2911.162892,7624.121203
4948.917551,1776.494261,3677.258390,7254.018232
4948.917866,2146.597232,3370.820191,7624.121203
4948.918180,2072.576638,2681.334243,7920.203579
4948.918495,1776.494261,1915.238745,8808.450710
4948.918809,1258.350101,229.828649,9178.553681
4948.919123,1036.288319,-766.095498,9104.533087
4948.919438,370.102971,-1378.971896,9400.615463
4948.919752,-592.164754,-1685.410096,9474.636058
4948.920066,-666.185348,-766.095498,9400.615463
4948.920381,-666.185348,-689.485948,9400.615463
4948.920695,296.082377,0.000000,9474.636058
4948.921010,666.185348,76.609550,9400.615463
4948.921324,518.144159,0.000000,9326.594869
4948.921638,222.061783,1072.533697,9474.636058
4948.921953,0.000000,1149.143247,9918.759623
4948.922267,0.000000,766.095498,10140.821405
4948.922581,-1110.308913,1149.143247,10955.047942
4948.922896,-2220.617826,1149.143247,11251.130318
4948.923210,-2368.659014,1378.971896,10732.986159
4948.923524,-1480.411884,1685.410096,9474.636058
4948.923839,-148.041188,1915.238745,8586.388927
4948.924153,814.226536,1685.410096,8068.244768
4948.924467,1406.391290,2068.457845,7846.182985
4948.924782,1850.514855,1685.410096,7179.997637
4948.925096,2368.659014,2145.067394,8142.265362
4948.925410,2368.659014,995.924147,9178.553681
4948.925725,2146.597232,-229.828649,9474.636058
4948.926039,1776.494261,-1149.143247,9474.636058
4948.926353,1184.329507,-1378.971896,10066.800811
4948.926668,666.185348,-1072.533697,10140.821405
4948.926982,74.020594,-1991.848295,9844.739029
4948.927296,0.000000,-689.485948,9252.574275
4948.927611,888.247130,-229.828649,10214.842000
4948.927925,74.020594,229.828649,9104.533087
4948.928239,0.000000,536.266849,8438.347739
4948.928553,-740.205942,689.485948,8364.327145
4948.928868,-1110.308913,1455.581446,9474.636058
4948.929182,-1702.473667,1225.752797,9992.780217
4948.929496,-2220.617826,612.876398,9770.718434
4948.929811,-2368.659014,1302.362347,10214.842000
4948.930125,-2368.659014,1225.752797,9844.739029
4948.930439,-1332.370696,1838.629195,9104.533087
4948.930754,0.000000,1915.238745,8438.347739
4948.931068,1036.288319,2451.505594,8364.327145
4948.931382,1258.350101,2528.115143,8438.347739
4948.931697,1850.514855,1915.238745,8290.306550
4948.932011,2220.617826,1149.143247,8290.306550
4948.932325,2072.576638,612.876398,9104.533087
4948.932640,1480.411884,-153.219100,10140.821405
4948.932954,444.123565,-1378.971896,10214.842000
4948.933268,0.000000,-1532.190996,10066.800811
4948.933583,-370.102971,-995.924147,10066.800811
4948.933897,-666.185348,-383.047749,10214.842000
4948.934211,-148.041188,842.705048,9844.739029
4948.934526,0.000000,1378.971896,9770.718434
4948.934840,-592.164754,612.876398,8882.471304
4948.935154,-666.185348,612.876398,8364.327145
4948.935469,-1184.329507,995.924147,8882.471304
4948.935783,-1702.473667,1608.800546,9696.697840
4948.936097,-2368.659014,2374.896044,10140.821405
4948.936412,-2368.659014,842.705048,10288.862594
4948.936726,-2442.679609,2068.457845,9844.739029
4948.937040,-2072.576638,1685.410096,8586.388927
4948.937355,-370.102971,3064.381992,7698.141797
4948.937669,1036.288319,3600.648841,7402.059420
4948.937983,1998.556043,3753.867940,7846.182985
4948.938298,2368.659014,3447.429741,8216.285956
4948.938612,2738.761985,2681.334243,8364.327145
4948.938926,2590.720797,1915.238745,8512.368333
4948.939241,2960.823768,1378.971896,8956.491898
4948.939555,2220.617826,-689.485948,10140.821405
4948.939869,1332.370696,-1532.190996,10584.944971
4948.940184,0.000000,-2068.457845,10584.944971
4948.940498,-888.247130,-1685.410096,10658.965565
4948.940812,-1110.308913,-1378.971896,10288.862594
4948.941127,-1036.288319,0.000000,9474.636058
4948.941441,-370.102971,536.266849,8882.471304
4948.941755,0.000000,-76.609550,8586.388927
4948.942070,-370.102971,0.000000,8512.368333
4948.942384,-444.123565,842.705048,9474.636058
4948.942698,-962.267725,919.314598,9992.780217
4948.943013,-1184.329507,1225.752797,10214.842000
4948.943327,-1258.350101,1149.143247,10362.883188
4948.943641,-1110.308913,1225.752797,10288.862594
4948.943956,148.041188,2451.505594,9696.697840
4948.944270,1110.308913,2451.505594,7994.224174
4948.944584,1628.453072,2681.334243,8068.244768
4948.944899,2072.576638,2528.115143,8216.285956
4948.945213,2590.720797,2068.457845,7994.224174
4948.945527,2664.741391,1072.533697,8438.347739
4948.945842,2442.679609,306.438199,9252.574275
4948.946156,1776.494261,0.000000,9178.553681
4948.946470,1554.432478,-919.314598,9178.553681
4948.946785,666.185348,-2068.457845,9474.636058
4948.947099,-444.123565,-2145.067394,10214.842000
4948.947413,-518.144159,-2298.286494,10066.800811
4948.947728,-518.144159,-1608.800546,9770.718434
4948.948042,-148.041188,-536.266849,9696.697840
4948.948356,0.000000,-612.876398,9326.594869
4948.948671,0.000000,0.000000,9178.553681
4948.948985,-592.164754,0.000000,9178.553681
4948.949299,-666.185348,306.438199,9992.780217
4948.949614,-1036.288319,383.047749,10510.924376
4948.949928,-1776.494261,459.657299,10732.986159
4948.950242,-2072.576638,1149.143247,10732.986159
4948.950557,-1702.473667,1532.190996,10881.027347
4948.950871,-1110.308913,2451.505594,9178.553681
4948.951185,-370.102971,2834.553343,8216.285956
4948.951500,444.123565,2451.505594,7698.141797
4948.951814,1036.288319,2681.334243,7624.121203
4948.952128,1702.473667,2757.943793,7402.059420
4948.952443,2220.617826,1762.019645,7846.182985
4948.952757,2146.597232,1532.190996,8956.491898
4948.953071,1110.308913,1072.533697,9178.553681
4948.953386,1184.329507,229.828649,9400.615463
4948.953700,296.082377,-1378.971896,9252.574275
4948.954014,-222.061783,-1225.752797,10140.821405
4948.954329,-666.185348,-536.266849,10066.800811
4948.954643,-370.102971,0.000000,9548.656652
4948.954957,-148.041188,842.705048,9622.677246
4948.955272,-148.041188,995.924147,9252.574275
4948.955586,-592.164754,1685.410096,8660.409521
4948.955900,-666.185348,1991.848295,8882.471304
4948.956215,-888.247130,1838.629195,9400.615463
4948.956529,-1184.329507,1455.581446,10214.842000
4948.956843,-1776.494261,1991.848295,10436.903782
4948.957158,-1924.535449,2221.676944,10584.944971
4948.957472,-1480.411884,2834.553343,10510.924376
4948.957786,-1036.288319,2987.772442,9104.533087
4948.958101,-148.041188,2911.162892,8512.368333
4948.958415,1332.370696,3064.381992,7624.121203
4948.958729,1776.494261,2911.162892,7772.162391
4948.959044,1924.535449,2451.505594,8364.327145
4948.959358,2146.597232,1762.019645,8586.388927
4948.959672,2146.597232,1532.190996,8882.471304
4948.959987,1850.514855,842.705048,9252.574275
4948.960301,1110.308913,153.219100,9844.739029
4948.960615,0.000000,-689.485948,9696.697840
4948.960930,74.020594,-1149.143247,9622.677246
4948.961244,-518.144159,-842.705048,9474.636058
4948.961558,-740.205942,-459.657299,9326.594869
4948.961873,-222.061783,0.000000,9474.636058
4948.962187,-74.020594,536.266849,9474.636058
4948.962501,-592.164754,76.609550,9252.574275
4948.962816,-296.082377,459.657299,9400.615463
4948.963130,0.000000,76.609550,9400.615463
4948.963444,-1258.350101,536.266849,9992.780217
4948.963759,-1110.308913,842.705048,10288.862594
4948.964073,-814.226536,1455.581446,10140.821405
4948.964387,-740.205942,1915.238745,10288.862594
4948.964702,-148.041188,2068.457845,9548.656652
4948.965016,1110.308913,2298.286494,8216.285956
4948.965330,2220.617826,2221.676944,7550.100608
4948.965645,2368.659014,1685.410096,8068.244768
4948.965959,2072.576638,995.924147,8734.430116
4948.966273,1628.453072,0.000000,9030.512492
4948.966587,1110.308913,-612.876398,9474.636058
4948.966902,518.144159,-1302.362347,9770.718434
4948.967216,-296.082377,-2068.457845,9474.636058
4948.967530,-1036.288319,-2911.162892,9178.553681
4948.967845,-1110.308913,-1991.848295,9474.636058
4948.968159,-1258.350101,-1532.190996,9474.636058
4948.968473,-518.144159,-1685.410096,8882.471304
4948.968788,-148.041188,-919.314598,8734.430116
4948.969102,-222.061783,-383.047749,8808.450710
4948.969416,148.041188,383.047749,9252.574275
4948.969731,222.061783,306.438199,10066.800811
4948.970045,296.082377,0.000000,10288.862594
4948.970359,592.164754,229.828649,10658.965565
4948.970674,0.000000,612.876398,10584.944971
4948.970988,-444.123565,1378.971896,10288.862594
4948.971302,-444.123565,1991.848295,10214.842000
4948.971617,296.082377,2834.553343,9844.739029
4948.971931,1406.391290,2757.943793,8660.409521
4948.972245,2590.720797,2221.676944,7698.141797
4948.972560,2368.659014,2145.067394,7698.141797
4948.972874,2072.576638,2068.457845,7772.162391
4948.973188,1702.473667,1378.971896,8586.388927
4948.973503,1480.411884,766.095498,9474.636058
4948.973817,444.123565,-842.705048,9844.739029
4948.974131,-592.164754,-1378.971896,9400.615463
4948.974446,-1776.494261,-2451.505594,9252.574275
4948.974760,-2368.659014,-1455.581446,9844.739029
4948.975074,-1036.288319,-383.047749,9918.759623
4948.975389,-444.123565,0.000000,9548.656652
4948.975703,0.000000,995.924147,9474.636058
4948.976017,0.000000,1532.190996,9104.533087
4948.976332,-444.123565,2681.334243,8734.430116
4948.976646,-370.102971,2757.943793,8586.388927
4948.976960,148.041188,2374.896044,8956.491898
4948.977275,-666.185348,2834.553343,10288.862594
4948.977589,-1480.411884,2834.553343,11547.212695
4948.977903,-2368.659014,3524.039291,11177.109724
4948.978218,-2146.597232,3294.210641,9622.677246
4948.978532,-1184.329507,3294.210641,8882.471304
4948.978846,74.020594,3217.601092,7772.162391
4948.979161,444.123565,3524.039291,7402.059420
4948.979475,592.164754,4060.306139,7179.997637
4948.979789,518.144159,3830.477490,7772.162391
4948.980104,296.082377,2528.115143,8290.306550
4948.980418,740.205942,1532.190996,9178.553681
4948.980732,296.082377,229.828649,9474.636058
4948.981047,-296.082377,-76.609550,9696.697840
4948.981361,-666.185348,-383.047749,9474.636058
4948.981675,-592.164754,306.438199,9696.697840
4948.981990,0.000000,842.705048,9474.636058
4948.982304,148.041188,995.924147,9252.574275
4948.982618,0.000000,1149.143247,8808.450710
4948.982933,0.000000,1685.410096,8512.368333
4948.983247,0.000000,1762.019645,9326.594869
4948.983561,0.000000,1302.362347,9696.697840
4948.983876,296.082377,919.314598,9918.759623
4948.984190,-518.144159,919.314598,10214.842000
4948.984504,-1480.411884,842.705048,10288.862594
4948.984819,-1850.514855,1455.581446,10140.821405
4948.985133,-518.144159,1532.190996,9474.636058
4948.985447,666.185348,1838.629195,8734.430116
4948.985762,1554.432478,1608.800546,8216.285956
4948.986076,1850.514855,1532.190996,7624.121203
4948.986390,2146.597232,1915.238745,7698.141797
4948.986705,2072.576638,1455.581446,8512.368333
4948.987019,1628.453072,0.000000,9474.636058
4948.987333,1480.411884,-1838.629195,10362.883188
4948.987648,666.185348,-2987.772442,10214.842000
4948.987962,0.000000,-4060.306139,9548.656652
4948.988276,-444.123565,-3677.258390,9696.697840
4948.988591,-814.226536,-2757.943793,10510.924376
4948.988905,-370.102971,-2604.724693,10288.862594
4948.989219,740.205942,-1685.410096,9474.636058
4948.989534,1110.308913,-1302.362347,9474.636058
4948.989848,888.247130,-383.047749,8956.491898
4948.990162,518.144159,76.609550,8364.327145
4948.990477,370.102971,153.219100,9252.574275
4948.990791,888.247130,383.047749,9992.780217
4948.991105,0.000000,0.000000,11177.109724
4948.991420,-962.267725,76.609550,11103.089130
4948.991734,-1110.308913,1149.143247,10288.862594
4948.992048,-592.164754,1838.629195,9400.615463
4948.992363,222.061783,1685.410096,9030.512492
4948.992677,1258.350101,1915.238745,8364.327145
4948.992991,1776.494261,1762.019645,7772.162391
4948.993306,1850.514855,2068.457845,7550.100608
4948.993620,1332.370696,2068.457845,7920.203579
4948.993934,1776.494261,1072.533697,8882.471304
4948.994249,962.267725,76.609550,9326.594869
4948.994563,148.041188,-842.705048,9696.697840
4948.994877,-962.267725,-1225.752797,9992.780217
4948.995192,-1554.432478,-1149.143247,10066.800811
4948.995506,-1998.556043,-536.266849,9918.759623
4948.995820,-1332.370696,0.000000,9918.759623
4948.996135,-1110.308913,919.314598,9474.636058
4948.996449,-592.164754,1532.190996,9474.636058
4948.996763,-888.247130,1915.238745,8882.471304
4948.997078,-962.267725,2451.505594,8660.409521
4948.997392,-962.267725,2528.115143,9104.533087
4948.997706,-1332.370696,2757.943793,10140.821405
4948.998021,-2072.576638,2834.553343,10436.903782
4948.998335,-2368.659014,3140.991542,10436.903782
4948.998649,-2220.617826,3983.696590,9622.677246
4948.998964,-1554.432478,3677.258390,8808.450710
4948.999278,-518.144159,3983.696590,8290.306550
4948.999592,296.082377,4136.915689,7698.141797
4948.999907,888.247130,3907.087040,7328.038826
4949.000221,1480.411884,3753.867940,7698.141797
4949.000535,1332.370696,3217.601092,7772.162391
4949.000850,1554.432478,2604.724693,8808.450710
4949.001164,1184.329507,1378.971896,8956.491898
4949.001478,740.205942,-459.657299,9474.636058
4949.001793,-148.041188,-919.314598,9622.677246
4949.002107,-814.226536,-995.924147,10214.842000
4949.002421,-666.185348,-536.266849,9992.780217
4949.002736,-370.102971,229.828649,9696.697840
4949.003050,518.144159,229.828649,9992.780217
4949.003364,888.247130,153.219100,9622.677246
4949.003679,592.164754,76.609550,9104.533087
4949.003993,222.061783,306.438199,9400.615463
4949.004307,148.041188,995.924147,9992.780217
4949.004621,74.020594,919.314598,10732.986159
4949.004936,-518.144159,459.657299,10288.862594
4949.005250,-370.102971,766.095498,9548.656652
4949.005564,-222.061783,919.314598,9030.512492
4949.005879,444.123565,1378.971896,8512.368333
4949.006193,1332.370696,1685.410096,8142.265362
4949.006507,2146.597232,1225.752797,8068.244768
4949.006822,2294.638420,1072.533697,8068.244768
4949.007136,1998.556043,0.000000,7994.224174
4949.007450,2146.597232,-153.219100,8364.327145
4949.007765,1702.473667,-919.314598,9918.759623
4949.008079,1628.453072,-2374.896044,9770.718434
4949.008393,1406.391290,-3447.429741,9622.677246
4949.008708,444.123565,-3830.477490,9548.656652
4949.009022,-740.205942,-3064.381992,9992.780217
4949.009336,-962.267725,-2068.457845,9844.739029
4949.009651,74.020594,-1915.238745,10066.800811
4949.009965,444.123565,-919.314598,10140.821405
4949.010279,74.020594,-1455.581446,9252.574275
4949.010594,-222.061783,-766.095498,8660.409521
4949.010908,-296.082377,-383.047749,9030.512492
4949.011222,-740.205942,536.266849,10214.842000
4949.011537,-888.247130,536.266849,11177.109724
4949.011851,-1184.329507,306.438199,10584.944971
4949.012165,-962.267725,689.485948,9992.780217
4949.012480,-888.247130,1915.238745,9400.615463
4949.012794,74.020594,2451.505594,8216.285956
4949.013108,814.226536,2374.896044,7624.121203
4949.013423,1850.514855,2604.724693,8142.265362
4949.013737,1998.556043,2374.896044,8290.306550
4949.014051,1924.535449,2068.457845,8438.347739
4949.014366,1332.370696,2298.286494,8142.265362
4949.014680,666.185348,1302.362347,8808.450710
4949.014994,814.226536,536.266849,9622.677246
4949.015309,444.123565,-766.095498,9918.759623
4949.015623,-888.247130,-1302.362347,10066.800811
4949.015937,-1480.411884,-536.266849,10214.842000
4949.016252,-1184.329507,459.657299,9844.739029
4949.016566,-444.123565,1149.143247,9696.697840
4949.016880,-296.082377,1762.019645,9474.636058
4949.017195,0.000000,1455.581446,9326.594869
4949.017509,0.000000,1838.629195,9030.512492
4949.017823,-296.082377,2528.115143,9030.512492
4949.018138,-592.164754,2681.334243,9548.656652
4949.018452,-888.247130,2757.943793,10362.883188
4949.018766,-1332.370696,2987.772442,10584.944971
4949.019081,-1628.453072,3294.210641,10066.800811
4949.019395,-1184.329507,3294.210641,9326.594869
4949.019709,-814.226536,3447.429741,8068.244768
4949.020024,518.144159,3830.477490,7402.059420
4949.020338,1628.453072,4366.744339,7476.080014
4949.020652,1776.494261,4290.134789,7846.182985
4949.020967,1702.473667,3370.820191,8364.327145
4949.021281,1406.391290,2451.505594,8808.450710
4949.021595,1332.370696,1225.752797,8956.491898
4949.021910,1036.288319,0.000000,8956.491898
4949.022224,-740.205942,-1225.752797,9400.615463
4949.022538,-1628.453072,-1532.190996,10362.883188
4949.022853,-1924.535449,-1149.143247,10214.842000
4949.023167,-1702.473667,-919.314598,9992.780217
4949.023481,-1554.432478,-612.876398,9918.759623
4949.023796,-814.226536,0.000000,9104.533087
4949.024110,-444.123565,0.000000,8956.491898
4949.024425,-518.144159,383.047749,9104.533087
4949.024739,-740.205942,689.485948,9474.636058
4949.025053,-814.226536,536.266849,10066.800811
4949.025368,-222.061783,1072.533697,10140.821405
4949.025682,-666.185348,1378.971896,10288.862594
4949.025996,-740.205942,1532.190996,10288.862594
4949.026311,370.102971,1532.190996,9622.677246
4949.026625,814.226536,1608.800546,8512.368333
4949.026939,1554.432478,1608.800546,8438.347739
4949.027254,1702.473667,1302.362347,8142.265362
4949.027568,1850.514855,459.657299,7846.182985
4949.027882,2146.597232,229.828649,8216.285956
4949.028197,2146.597232,0.000000,9178.553681
4949.028511,1776.494261,-1378.971896,9474.636058
4949.028826,1110.308913,-2604.724693,9326.594869
4949.029140,518.144159,-2374.896044,9622.677246
4949.029454,-444.123565,-3217.601092,9918.759623
4949.029769,-518.144159,-2681.334243,9474.636058
4949.030083,0.000000,-2374.896044,9474.636058
4949.030397,666.185348,-1149.143247,9696.697840
4949.030712,1036.288319,-536.266849,9992.780217
4949.031026,962.267725,-383.047749,9548.656652
4949.031340,592.164754,-459.657299,9030.512492
4949.031655,814.226536,-612.876398,9622.677246
4949.031969,592.164754,536.266849,10807.006753
4949.032283,148.041188,842.705048,10881.027347
4949.032598,0.000000,919.314598,10362.883188
4949.032912,-296.082377,1225.752797,9844.739029
4949.033227,0.000000,1915.238745,9326.594869
4949.033541,1184.329507,2451.505594,8734.430116
4949.033855,1406.391290,2528.115143,8068.244768
4949.034170,1776.494261,2068.457845,7550.100608
4949.034484,1406.391290,1532.190996,7698.141797
4949.034798,1776.494261,842.705048,8216.285956
4949.035113,1258.350101,842.705048,8808.450710
4949.035427,370.102971,76.609550,9696.697840
4949.035741,0.000000,-1149.143247,9992.780217
4949.036056,-296.082377,-919.314598,10214.842000
4949.036370,-1110.308913,-1302.362347,10584.944971
4949.036684,-1036.288319,-766.095498,9622.677246
4949.036999,-740.205942,153.219100,9178.553681
4949.037313,-296.082377,1455.581446,8882.471304
4949.037628,-518.144159,2451.505594,9252.574275
4949.037942,-1110.308913,2374.896044,9326.594869
4949.038256,-1406.391290,1838.629195,8808.450710
4949.038571,-1036.288319,1838.629195,9104.533087
4949.038885,-1184.329507,2145.067394,9474.636058
4949.039199,-1998.556043,2374.896044,9252.574275
4949.039514,-1998.556043,2834.553343,10214.842000
4949.039828,-1924.535449,3294.210641,10140.821405
4949.040142,-1184.329507,3447.429741,9104.533087
4949.040457,-296.082377,3370.820191,8290.306550
4949.040771,592.164754,3600.648841,7920.203579
4949.041085,1332.370696,3677.258390,7846.182985
4949.041400,1406.391290,3447.429741,7994.224174
4949.041714,1406.391290,1915.238745,9104.533087
4949.042029,1110.308913,1532.190996,9770.718434
4949.042343,370.102971,766.095498,10362.883188
4949.042657,-370.102971,-383.047749,10362.883188
4949.042972,-888.247130,-919.314598,10214.842000
4949.043286,-1702.473667,-995.924147,9474.636058
4949.043600,-888.247130,0.000000,8956.491898
4949.043915,-592.164754,229.828649,8586.388927
4949.044229,-592.164754,459.657299,8956.491898
4949.044543,-444.123565,1225.752797,9030.512492
4949.044858,-666.185348,1149.143247,9178.553681
4949.045172,-518.144159,842.705048,9252.574275
4949.045486,0.000000,995.924147,8956.491898
4949.045801,0.000000,1072.533697,9844.739029
4949.046115,74.020594,1762.019645,10214.842000
4949.046430,0.000000,2221.676944,9918.759623
4949.046744,148.041188,2451.505594,9918.759623
4949.047058,962.267725,2911.162892,9400.615463
4949.047373,1776.494261,2757.943793,8660.409521
4949.047687,2220.617826,2068.457845,7698.141797
4949.048001,2294.638420,383.047749,6957.935855
4949.048316,2442.679609,383.047749,7994.224174
4949.048630,1332.370696,-306.438199,8956.491898
4949.048944,592.164754,-1225.752797,10140.821405
4949.049259,0.000000,-2374.896044,10658.965565
4949.049573,-666.185348,-3983.696590,10807.006753
4949.049887,-1554.432478,-4366.744339,10140.821405
4949.050202,-1258.350101,-3447.429741,9770.718434
4949.050516,-740.205942,-2911.162892,9252.574275
4949.050831,518.144159,-1838.629195,9770.718434
4949.051145,1184.329507,-459.657299,9992.780217
4949.051459,1110.308913,0.000000,9474.636058
4949.051774,1036.288319,0.000000,9474.636058
4949.052088,1110.308913,306.438199,9474.636058
4949.052402,1702.473667,919.314598,9548.656652
4949.052717,1702.473667,0.000000,10362.883188
4949.053031,1184.329507,612.876398,11029.068536
4949.053345,296.082377,1685.410096,10288.862594
4949.053660,0.000000,1991.848295,9326.594869
4949.053974,592.164754,2374.896044,8882.471304
4949.054288,1110.308913,2604.724693,8364.327145
4949.054603,1332.370696,1991.848295,7772.162391
4949.054917,814.226536,1455.581446,7254.018232
4949.055232,0.000000,383.047749,7105.977043
4949.055546,-592.164754,612.876398,7328.038826
4949.055860,-518.144159,153.219100,8734.430116
4949.056175,-1110.308913,-919.314598,9474.636058
4949.056489,-1554.432478,-1608.800546,10066.800811
4949.056803,-2220.617826,-1838.629195,9918.759623
4949.057118,-1924.535449,-1455.581446,9474.636058
4949.057432,-1184.329507,0.000000,9400.615463
4949.057746,-148.041188,689.485948,9622.677246
4949.058061,666.185348,1991.848295,9844.739029
4949.058375,814.226536,2145.067394,9992.780217
4949.058689,814.226536,2604.724693,9770.718434
4949.059004,592.164754,2451.505594,9400.615463
4949.059318,370.102971,2528.115143,9770.718434
4949.059633,-296.082377,2834.553343,10732.986159
4949.059947,-1184.329507,3677.258390,10881.027347
4949.060261,-2146.597232,3600.648841,10510.924376
4949.060576,-1702.473667,3217.601092,9622.677246
4949.060890,-1184.329507,3524.039291,8216.285956
4949.061204,-222.061783,3677.258390,7624.121203
4949.061519,0.000000,3907.087040,6883.915261
4949.061833,148.041188,3983.696590,7105.977043
4949.062147,222.061783,2681.334243,7624.121203
4949.062462,444.123565,2145.067394,8438.347739
4949.062776,444.123565,1225.752797,8882.471304
4949.063090,0.000000,0.000000,9400.615463
4949.063405,-666.185348,-459.657299,9548.656652
4949.063719,-814.226536,-383.047749,9696.697840
4949.064034,-222.061783,-306.438199,9548.656652
4949.064348,444.123565,153.219100,9178.553681
4949.064662,592.164754,766.095498,9326.594869
4949.064977,444.123565,1455.581446,9178.553681
4949.065291,444.123565,1532.190996,9104.533087
4949.065605,222.061783,766.095498,9474.636058
4949.065920,0.000000,536.266849,9918.759623
4949.066234,-148.041188,842.705048,10214.842000
4949.066548,-592.164754,842.705048,10807.006753
4949.066863,-1628.453072,995.924147,10807.006753
4949.067177,-2368.659014,1302.362347,10214.842000
4949.067491,-814.226536,1685.410096,9770.718434
4949.067806,-444.123565,1685.410096,8956.491898
4949.068120,370.102971,1455.581446,8216.285956
4949.068435,1110.308913,995.924147,7624.121203
4949.068749,1628.453072,689.485948,7846.182985
4949.069063,1776.494261,536.266849,8882.471304
4949.069378,1850.514855,153.219100,9474.636058
4949.069692,1776.494261,-1378.971896,9696.697840
4949.070006,962.267725,-2987.772442,10362.883188
4949.070321,592.164754,-3370.820191,9770.718434
4949.070635,296.082377,-3294.210641,9918.759623
4949.070949,592.164754,-2451.505594,10288.862594
4949.071264,1332.370696,-842.705048,9844.739029
4949.071578,1998.556043,0.000000,9474.636058
4949.071892,2072.576638,-229.828649,8660.409521
4949.072207,1480.411884,0.000000,8364.327145
4949.072521,1036.288319,459.657299,8364.327145
4949.072836,814.226536,995.924147,8660.409521
4949.073150,148.041188,1378.971896,9622.677246
4949.073464,-962.267725,689.485948,10066.800811
4949.073779,-1258.350101,766.095498,9992.780217
4949.074093,-1924.535449,919.314598,9400.615463
4949.074407,-1110.308913,1915.238745,8882.471304
4949.074722,-370.102971,1378.971896,8808.450710
4949.075036,518.144159,842.705048,8512.368333
4949.075350,888.247130,689.485948,8660.409521
4949.075665,888.247130,919.314598,8586.388927
4949.075979,888.247130,229.828649,8882.471304
4949.076293,1332.370696,229.828649,9548.656652
4949.076608,1628.453072,-153.219100,10510.924376
4949.076922,1184.329507,-1532.190996,11029.068536
4949.077237,-370.102971,-1991.848295,10732.986159
4949.077551,-1036.288319,-1915.238745,10510.924376
4949.077865,-814.226536,-383.047749,10066.800811
4949.078180,-74.020594,536.266849,9992.780217
4949.078494,-148.041188,1532.190996,9548.656652
4949.078808,74.020594,1455.581446,9474.636058
4949.079123,0.000000,2528.115143,8734.430116
4949.079437,-740.205942,2987.772442,8586.388927
4949.079751,-814.226536,2911.162892,8512.368333
4949.080066,-1036.288319,3140.991542,9178.553681
4949.080380,-1480.411884,2834.553343,9252.574275
4949.080694,-2072.576638,2987.772442,9326.594869
4949.081009,-2072.576638,3907.087040,9252.574275
4949.081323,-1184.329507,4443.353888,8364.327145
4949.081637,74.020594,4519.963438,7105.977043
4949.081952,1184.329507,4136.915689,7105.977043
4949.082266,1258.350101,3370.820191,7402.059420
4949.082581,1258.350101,3064.381992,7846.182985
4949.082895,1110.308913,2528.115143,8734.430116
4949.083209,1406.391290,1378.971896,9548.656652
4949.083524,1036.288319,0.000000,10436.903782
4949.083838,74.020594,-995.924147,10955.047942
4949.084152,-1184.329507,-1685.410096,10807.006753
4949.084467,-1480.411884,-1225.752797,11029.068536
4949.084781,-1184.329507,-766.095498,10510.924376
4949.085095,0.000000,0.000000,10214.842000
4949.085410,0.000000,612.876398,9918.759623
4949.085724,148.041188,919.314598,9474.636058
4949.086038,0.000000,1302.362347,8808.450710
4949.086353,444.123565,1608.800546,9326.594869
4949.086667,296.082377,1608.800546,9770.718434
4949.086982,0.000000,1378.971896,10288.862594
4949.087296,-740.205942,1762.019645,10510.924376
4949.087610,-1406.391290,1608.800546,10066.800811
4949.087925,-1110.308913,2068.457845,9178.553681
4949.088239,-740.205942,2374.896044,8364.327145
4949.088553,518.144159,1991.848295,7846.182985
4949.088868,1110.308913,1532.190996,7328.038826
4949.089182,1258.350101,919.314598,6957.935855
4949.089496,1406.391290,1149.143247,7254.018232
4949.089811,1406.391290,612.876398,8438.347739
4949.090125,1184.329507,-689.485948,9178.553681
4949.090439,814.226536,-1838.629195,9992.780217
4949.090754,74.020594,-2681.334243,9992.780217
4949.091068,-518.144159,-2911.162892,9770.718434
4949.091383,-592.164754,-3447.429741,9696.697840
4949.091697,0.000000,-2298.286494,10436.903782
4949.092011,814.226536,-1072.533697,9992.780217
4949.092326,1184.329507,-919.314598,9844.739029
4949.092640,1184.329507,-459.657299,9474.636058
4949.092954,1036.288319,766.095498,9326.594869
4949.093269,962.267725,842.705048,9622.677246
4949.093583,1036.288319,689.485948,9992.780217
4949.093897,370.102971,536.266849,10732.986159
4949.094212,-666.185348,842.705048,10732.986159
4949.094526,-888.247130,1072.533697,10066.800811
4949.094840,-1110.308913,1838.629195,9178.553681
4949.095155,-222.061783,2451.505594,8734.430116
4949.095469,0.000000,2221.676944,8660.409521
4949.095784,814.226536,2221.676944,7624.121203
4949.096098,888.247130,1685.410096,7254.018232
4949.096412,740.205942,842.705048,7476.080014
4949.096727,444.123565,76.609550,8882.471304
4949.097041,370.102971,-459.657299,9400.615463
4949.097355,222.061783,-1225.752797,10066.800811
4949.097670,-592.164754,-1915.238745,9844.739029
4949.097984,-814.226536,-1915.238745,9548.656652
4949.098298,-444.123565,-1072.533697,9400.615463
4949.098613,444.123565,459.657299,9474.636058
4949.098927,888.247130,1302.362347,9622.677246
4949.099241,1258.350101,1685.410096,9548.656652
4949.099556,962.267725,2374.896044,9474.636058
4949.099870,814.226536,2604.724693,9696.697840
4949.100185,370.102971,1991.848295,9252.574275
4949.100499,0.000000,2221.676944,9104.533087
4949.100813,-148.041188,2528.115143,10288.862594
4949.101128,-1480.411884,3064.381992,10807.006753
4949.101442,-2368.659014,3140.991542,9770.718434
4949.101756,-2442.679609,2834.553343,9178.553681
4949.102071,-1998.556043,3064.381992,8512.368333
4949.102385,-740.205942,3524.039291,7846.182985
4949.102699,296.082377,3217.601092,7031.956449
4949.103014,666.185348,2374.896044,6735.874072
4949.103328,518.144159,1915.238745,7402.059420
4949.103642,370.102971,1532.190996,8660.409521
4949.103957,444.123565,842.705048,9474.636058
4949.104271,0.000000,-153.219100,10510.924376
4949.104586,-148.041188,-995.924147,10955.047942
4949.104900,-148.041188,-1378.971896,10288.862594
4949.105214,-296.082377,-383.047749,10140.821405
4949.105529,0.000000,-459.657299,9400.615463
4949.105843,592.164754,536.266849,9548.656652
4949.106157,1110.308913,1378.971896,9844.739029
4949.106472,1036.288319,1915.238745,9474.636058
4949.106786,222.061783,1915.238745,9326.594869
4949.107100,222.061783,2068.457845,9400.615463
4949.107415,0.000000,1685.410096,9104.533087
4949.107729,-592.164754,1378.971896,9474.636058
4949.108043,-1036.288319,1378.971896,9474.636058
4949.108358,-1850.514855,1838.629195,9696.697840
4949.108672,-1924.535449,2068.457845,9474.636058
4949.108987,-666.185348,1838.629195,8882.471304
4949.109301,444.123565,1455.581446,7550.100608
4949.109615,1184.329507,612.876398,7550.100608
4949.109930,888.247130,842.705048,7994.224174
4949.110244,1406.391290,612.876398,8364.327145
4949.110558,1554.432478,-689.485948,9030.512492
4949.110873,1628.453072,-1915.238745,9844.739029
4949.111187,1110.308913,-2528.115143,10732.986159
4949.111501,444.123565,-2834.553343,10362.883188
4949.111816,74.020594,-2757.943793,10362.883188
4949.112130,74.020594,-2681.334243,10140.821405
4949.112444,814.226536,-1532.190996,10510.924376
4949.112759,1184.329507,-919.314598,10214.842000
4949.113073,962.267725,-612.876398,9178.553681
4949.113388,518.144159,0.000000,9104.533087
4949.113702,518.144159,306.438199,9400.615463
4949.114016,444.123565,536.266849,9548.656652
4949.114331,222.061783,612.876398,9918.759623
4949.114645,-814.226536,1072.533697,10584.944971
4949.114959,-1480.411884,1072.533697,10510.924376
4949.115274,-1480.411884,1838.629195,9474.636058
4949.115588,-740.205942,1991.848295,9326.594869
4949.115902,-148.041188,2145.067394,8808.450710
4949.116217,666.185348,1915.238745,7920.203579
4949.116531,1332.370696,1915.238745,7031.956449
4949.116845,1332.370696,1838.629195,7105.977043
4949.117160,1184.329507,689.485948,8216.285956
4949.117474,1554.432478,0.000000,9104.533087
4949.117789,1554.432478,-306.438199,9696.697840
4949.118103,666.185348,-919.314598,10362.883188
4949.118417,74.020594,-1455.581446,10732.986159
4949.118732,-592.164754,-1762.019645,10288.862594
4949.119046,222.061783,-459.657299,9918.759623
4949.119360,740.205942,766.095498,9696.697840
4949.119675,740.205942,1685.410096,9252.574275
4949.119989,592.164754,1455.581446,9252.574275
4949.120303,740.205942,2451.505594,9252.574275
4949.120618,222.061783,2834.553343,9400.615463
4949.120932,-444.123565,2911.162892,9326.594869
4949.121246,-1184.329507,2681.334243,9548.656652
4949.121561,-1776.494261,2681.334243,9918.759623
4949.121875,-2220.617826,3677.258390,10140.821405
4949.122190,-2368.659014,3064.381992,9696.697840
4949.122504,-2590.720797,2911.162892,8882.471304
4949.122818,-1850.514855,3217.601092,8438.347739
4949.123132,-592.164754,3600.648841,7920.203579
4949.123447,296.082377,2911.162892,7328.038826
4949.123761,518.144159,2145.067394,7550.100608
4949.124075,814.226536,1532.190996,8068.244768
4949.124389,962.267725,842.705048,8068.244768
4949.124704,1258.350101,459.657299,9178.553681
4949.125018,444.123565,-153.219100,10214.842000
4949.125332,-296.082377,-842.705048,10584.944971
4949.125647,-222.061783,-842.705048,10214.842000
4949.125961,148.041188,-459.657299,9844.739029
4949.126275,740.205942,0.000000,9918.759623
4949.126589,1036.288319,-306.438199,9696.697840
4949.126904,666.185348,1149.143247,9178.553681
4949.127218,0.000000,1302.362347,9770.718434
4949.127532,-148.041188,1225.752797,9326.594869
4949.127846,-592.164754,1455.581446,9400.615463
4949.128161,-1184.329507,1302.362347,9696.697840
4949.128475,-1628.453072,2451.505594,10288.862594
4949.128789,-2442.679609,1762.019645,9696.697840
4949.129103,-2220.617826,1762.019645,9474.636058
4949.129418,-888.247130,1838.629195,8512.368333
4949.129732,-222.061783,1608.800546,8290.306550
4949.130046,370.102971,1532.190996,8364.327145
4949.130361,1184.329507,1072.533697,7624.121203
4949.130675,1776.494261,766.095498,7920.203579
4949.130989,1998.556043,0.000000,8734.430116
4949.131303,2294.638420,-1302.362347,9474.636058
4949.131618,1776.494261,-2374.896044,9992.780217
4949.131932,1184.329507,-2374.896044,10584.944971
4949.132246,222.061783,-2834.553343,10510.924376
4949.132560,74.020594,-2451.505594,10732.986159
4949.132875,592.164754,-1991.848295,10436.903782
4949.133189,1110.308913,-689.485948,9474.636058
4949.133503,1628.453072,0.000000,9178.553681
4949.133817,1184.329507,612.876398,8808.450710
4949.134132,1036.288319,612.876398,8956.491898
4949.134446,296.082377,689.485948,9326.594869
4949.134760,0.000000,1225.752797,9548.656652
4949.135075,-740.205942,1225.752797,9992.780217
4949.135389,-1628.453072,995.924147,10214.842000
4949.135703,-1480.411884,1225.752797,9622.677246
4949.136017,-1554.432478,1378.971896,8734.430116
4949.136332,-592.164754,1838.629195,8586.388927
4949.136646,296.082377,2068.457845,7920.203579
4949.136960,740.205942,1915.238745,7254.018232
4949.137274,1258.350101,1762.019645,7920.203579
4949.137589,1406.391290,689.485948,8290.306550
4949.137903,1332.370696,766.095498,9252.574275
4949.138217,888.247130,0.000000,9770.718434
4949.138531,740.205942,-842.705048,9844.739029
4949.138846,518.144159,-1225.752797,9844.739029
4949.139160,-296.082377,-1915.238745,10584.944971
4949.139474,-296.082377,-1149.143247,10140.821405
4949.139789,0.000000,-306.438199,9548.656652
4949.140103,222.061783,229.828649,9622.677246
4949.140417,888.247130,1685.410096,9992.780217
4949.140731,1184.329507,1762.019645,9178.553681
4949.141046,444.123565,1991.848295,8660.409521
4949.141360,0.000000,1838.629195,8512.368333
4949.141674,-740.205942,2221.676944,9252.574275
4949.141988,-1480.411884,2451.505594,10584.944971
4949.142303,-2368.659014,2757.943793,10362.883188
4949.142617,-2590.720797,2451.505594,9696.697840
4949.142931,-2516.700203,2681.334243,8956.491898
4949.143245,-1036.288319,2987.772442,8438.347739
4949.143560,0.000000,3524.039291,7624.121203
4949.143874,740.205942,3064.381992,7476.080014
4949.144188,1036.288319,3064.381992,7550.100608
4949.144503,1036.288319,2221.676944,8142.265362
4949.144817,814.226536,1225.752797,8660.409521
4949.145131,666.185348,612.876398,9252.574275
4949.145445,0.000000,-459.657299,10288.862594
4949.145760,-814.226536,-1225.752797,10362.883188
4949.146074,-814.226536,-1455.581446,10436.903782
4949.146388,-592.164754,-1608.800546,10140.821405
4949.146702,-222.061783,-536.266849,10288.862594
4949.147017,0.000000,459.657299,10066.800811
4949.147331,370.102971,1225.752797,9252.574275
4949.147645,296.082377,1608.800546,8660.409521
4949.147959,222.061783,1225.752797,9326.594869
4949.148274,888.247130,2298.286494,9474.636058
4949.148588,0.000000,1915.238745,9326.594869
4949.148902,-962.267725,2145.067394,10140.821405
4949.149217,-1998.556043,2528.115143,10584.944971
4949.149531,-1850.514855,2068.457845,9400.615463
4949.149845,-814.226536,1685.410096,8660.409521
4949.150159,444.123565,2068.457845,7476.080014
4949.150474,1406.391290,2451.505594,7328.038826
4949.150788,1776.494261,2451.505594,7846.182985
4949.151102,1924.535449,1915.238745,8734.430116
4949.151416,2072.576638,612.876398,9474.636058
4949.151731,1628.453072,-1149.143247,9622.677246
4949.152045,1184.329507,-2374.896044,9992.780217
4949.152359,0.000000,-2451.505594,9918.759623
4949.152673,0.000000,-2757.943793,9992.780217
4949.152988,-148.041188,-2757.943793,10066.800811
4949.153302,222.061783,-1915.238745,10288.862594
4949.153616,592.164754,-766.095498,10066.800811
4949.153931,1332.370696,0.000000,9474.636058
4949.154245,1554.432478,459.657299,8808.450710
4949.154559,1628.453072,76.609550,9030.512492
4949.154873,962.267725,842.705048,9400.615463
4949.155188,666.185348,1378.971896,9622.677246
4949.155502,-148.041188,1455.581446,9844.739029
4949.155816,-1480.411884,919.314598,10362.883188
4949.156130,-1850.514855,1302.362347,10214.842000
4949.156445,-1702.473667,1455.581446,9474.636058
4949.156759,-1184.329507,1991.848295,8882.471304
4949.157073,-222.061783,2068.457845,7920.203579
4949.157387,592.164754,1838.629195,7624.121203
4949.157702,518.144159,1532.190996,7550.100608
4949.158016,814.226536,1532.190996,8364.327145
4949.158330,888.247130,536.266849,8660.409521
4949.158645,1110.308913,0.000000,9104.533087
4949.158959,592.164754,-842.705048,9918.759623
4949.159273,-296.082377,-1455.581446,9548.656652
4949.159587,-444.123565,-1532.190996,10362.883188
4949.159902,-592.164754,-1302.362347,9992.780217
4949.160216,-444.123565,-459.657299,10140.821405
4949.160530,592.164754,0.000000,9622.677246
4949.160844,1184.329507,459.657299,9030.512492
4949.161159,1110.308913,919.314598,8734.430116
4949.161473,592.164754,1378.971896,8956.491898
4949.161787,814.226536,2298.286494,10066.800811
4949.162101,444.123565,2374.896044,9548.656652
4949.162416,-444.123565,2145.067394,10214.842000
4949.162730,-1850.514855,1838.629195,9770.718434
4949.163044,-2664.741391,2451.505594,9844.739029
4949.163359,-2590.720797,3064.381992,9548.656652
4949.163673,-1850.514855,3064.381992,8808.450710
4949.163987,-666.185348,2911.162892,8364.327145
4949.164301,0.000000,2681.334243,7476.080014
4949.164616,0.000000,3064.381992,7846.182985
4949.164930,148.041188,2221.676944,7698.141797
4949.165244,370.102971,1072.533697,8068.244768
4949.165558,814.226536,0.000000,9400.615463
4949.165873,370.102971,-995.924147,9548.656652
4949.166187,0.000000,-1149.143247,9770.718434
4949.166501,0.000000,-1455.581446,9844.739029
4949.166815,222.061783,-612.876398,10288.862594
4949.167130,1628.453072,-153.219100,10066.800811
4949.167444,2368.659014,153.219100,10288.862594
4949.167758,2368.659014,919.314598,9622.677246
4949.168073,2220.617826,1455.581446,9474.636058
4949.168387,1776.494261,1838.629195,9474.636058
4949.168701,1110.308913,1762.019645,9178.553681
4949.169015,592.164754,1915.238745,9918.759623
4949.169330,-518.144159,2298.286494,10584.944971
4949.169644,-2146.597232,2145.067394,9844.739029
4949.169958,-3404.947333,2068.457845,9178.553681
4949.170272,-3478.967927,1915.238745,8290.306550
4949.170587,-2590.720797,2528.115143,8290.306550
4949.170901,-1850.514855,2298.286494,7624.121203
4949.171215,-962.267725,1838.629195,7698.141797
4949.171529,0.000000,1608.800546,7920.203579
4949.171844,74.020594,229.828649,7920.203579
4949.172158,1184.329507,306.438199,8364.327145
4949.172472,1406.391290,-1225.752797,9252.574275
4949.172787,1332.370696,-1608.800546,10955.047942
4949.173101,1036.288319,-1762.019645,11251.130318
4949.173415,1406.391290,-2298.286494,11029.068536
4949.173729,2072.576638,-2374.896044,10658.965565
4949.174044,2220.617826,-1915.238745,9918.759623
4949.174358,2738.761985,0.000000,10362.883188
4949.174672,2738.761985,689.485948,10288.862594
4949.174986,2664.741391,1072.533697,9474.636058
4949.175301,1702.473667,459.657299,9252.574275
4949.175615,518.144159,689.485948,9178.553681
4949.175929,-666.185348,1378.971896,9178.553681
4949.176243,-2072.576638,1149.143247,9178.553681
4949.176558,-3330.926739,1302.362347,9696.697840
4949.176872,-4071.132681,919.314598,9178.553681
4949.177186,-2960.823768,1225.752797,8586.388927
4949.177501,-2146.597232,1838.629195,8068.244768
4949.177815,-1406.391290,1991.848295,7550.100608
4949.178129,-370.102971,2068.457845,7402.059420
4949.178443,518.144159,1608.800546,7698.141797
4949.178758,1258.350101,766.095498,8216.285956
4949.179072,1998.556043,76.609550,8956.491898
4949.179386,1998.556043,-842.705048,9770.718434
4949.179700,1628.453072,-1455.581446,10881.027347
4949.180015,1110.308913,-1608.800546,11399.171507
4949.180329,888.247130,-2145.067394,11547.212695
4949.180643,1110.308913,-1608.800546,10807.006753
4949.180957,1628.453072,-612.876398,10362.883188
4949.181272,1554.432478,229.828649,9474.636058
4949.181586,1776.494261,1685.410096,9104.533087
4949.181900,1184.329507,1532.190996,8512.368333
4949.182215,518.144159,2528.115143,9178.553681
4949.182529,74.020594,2528.115143,8808.450710
4949.182843,-666.185348,2374.896044,8882.471304
4949.183157,-1998.556043,1991.848295,9326.594869
4949.183472,-2516.700203,2911.162892,9474.636058
4949.183786,-3182.885551,2987.772442,9178.553681
4949.184100,-2368.659014,2987.772442,8808.450710
4949.184414,-1628.453072,2451.505594,8586.388927
