#time,accel_x,accel_y,accel_z
87263.490645,740.205942,689.485948,9326.594869
87263.490974,296.082377,995.924147,9474.636058
87263.491303,296.082377,1225.752797,9770.718434
87263.491632,888.247130,1225.752797,9474.636058
87263.491961,888.247130,1608.800546,9622.677246
87263.492290,1406.391290,995.924147,10362.883188
87263.492620,-296.082377,919.314598,9030.512492
87263.492949,-222.061783,612.876398,9400.615463
87263.493278,-518.144159,229.828649,9844.739029
87263.493607,-814.226536,229.828649,9918.759623
87263.493936,-1554.432478,-229.828649,9474.636058
87263.494265,-1480.411884,153.219100,9326.594869
87263.494595,-1110.308913,229.828649,9326.594869
87263.494924,-518.144159,0.000000,9992.780217
87263.495253,-814.226536,612.876398,9474.636058
87263.495582,148.041188,766.095498,9326.594869
87263.495911,962.267725,995.924147,9474.636058
87263.496240,1036.288319,766.095498,9770.718434
87263.496570,518.144159,1149.143247,9696.697840
87263.496899,444.123565,1225.752797,9474.636058
87263.497228,814.226536,689.485948,9844.739029
87263.497557,666.185348,0.000000,9992.780217
87263.497886,-222.061783,383.047749,9770.718434
87263.498215,-222.061783,229.828649,9474.636058
87263.498544,592.164754,536.266849,9770.718434
87263.498874,518.144159,459.657299,9770.718434
87263.499203,0.000000,995.924147,9252.574275
87263.499532,296.082377,1685.410096,9696.697840
87263.499861,962.267725,919.314598,9104.533087
87263.500190,518.144159,842.705048,9400.615463
87263.500519,-444.123565,612.876398,9326.594869
87263.500849,-592.164754,536.266849,9030.512492
87263.501178,-444.123565,536.266849,8734.430116
87263.501507,-888.247130,0.000000,9030.512492
87263.501836,-1258.350101,229.828649,9474.636058
87263.502165,-1480.411884,459.657299,8882.471304
87263.502494,-444.123565,306.438199,9104.533087
87263.502824,222.061783,229.828649,9622.677246
87263.503153,-296.082377,689.485948,9178.553681
87263.503482,0.000000,1991.848295,8586.388927
87263.503811,1406.391290,1378.971896,8660.409521
87263.504140,1258.350101,995.924147,9252.574275
87263.504469,1110.308913,689.485948,9622.677246
87263.504798,666.185348,1225.752797,9252.574275
87263.505128,1332.370696,1149.143247,9030.512492
87263.505457,1480.411884,689.485948,9474.636058
87263.505786,666.185348,1225.752797,9548.656652
87263.506115,296.082377,1762.019645,8438.347739
87263.506444,1258.350101,1455.581446,9030.512492
87263.506773,1258.350101,1378.971896,9474.636058
87263.507103,740.205942,1608.800546,8808.450710
87263.507432,1184.329507,2145.067394,8734.430116
87263.507761,2368.659014,2298.286494,8808.450710
87263.508090,2072.576638,2145.067394,8512.368333
87263.508419,1998.556043,1915.238745,9030.512492
87263.508748,1332.370696,2681.334243,9030.512492
87263.509078,1998.556043,2451.505594,8882.471304
87263.509407,2368.659014,1915.238745,9252.574275
87263.509736,1480.411884,1685.410096,9474.636058
87263.510065,1036.288319,2451.505594,8956.491898
87263.510394,2368.659014,2757.943793,8660.409521
87263.510723,2516.700203,2911.162892,9474.636058
87263.511052,2146.597232,3217.601092,9622.677246
87263.511382,2368.659014,3677.258390,8956.491898
87263.511711,3404.947333,4213.525239,8956.491898
87263.512040,3997.112087,4290.134789,9326.594869
87263.512369,3404.947333,3600.648841,9622.677246
87263.512698,2960.823768,4136.915689,9474.636058
87263.513027,3404.947333,4596.572988,9030.512492
87263.513357,4071.132681,4060.306139,9696.697840
87263.513686,3478.967927,4060.306139,10362.883188
87263.514015,2738.761985,4290.134789,9474.636058
87263.514344,3775.050304,3753.867940,9400.615463
87263.514673,4219.173869,3983.696590,9622.677246
87263.515002,3701.029710,4596.572988,10140.821405
87263.515332,3701.029710,4826.401637,9474.636058
87263.515661,3923.091493,4979.620737,9178.553681
87263.515990,4145.153275,4749.792088,9104.533087
87263.516319,3552.988522,4673.182538,9326.594869
87263.516648,2960.823768,4826.401637,8808.450710
87263.516977,2738.761985,4673.182538,8216.285956
87263.517306,2590.720797,4213.525239,8142.265362
87263.517636,814.226536,4596.572988,8364.327145
87263.517965,-148.041188,3064.381992,8586.388927
87263.518294,-1628.453072,2451.505594,8364.327145
87263.518623,-1924.535449,1302.362347,8734.430116
87263.518952,-2664.741391,842.705048,9474.636058
87263.519281,-2812.782580,612.876398,9474.636058
87263.519611,-2072.576638,383.047749,9326.594869
87263.519940,-962.267725,229.828649,9326.594869
87263.520269,-444.123565,842.705048,9696.697840
87263.520598,-592.164754,1149.143247,9992.780217
87263.520927,222.061783,1072.533697,9844.739029
87263.521256,962.267725,153.219100,10510.924376
87263.521586,666.185348,-766.095498,11177.109724
87263.521915,222.061783,-766.095498,12139.377449
87263.522244,814.226536,-1685.410096,11769.274478
87263.522573,1184.329507,-1915.238745,12139.377449
87263.522902,1332.370696,-2221.676944,11843.295072
87263.523231,1406.391290,-1532.190996,10881.027347
87263.523560,3108.864956,-229.828649,9326.594869
87263.523890,4811.338623,995.924147,8364.327145
87263.524219,5551.544565,2451.505594,7179.997637
87263.524548,6439.791695,4136.915689,6143.709319
87263.524877,7476.080014,5209.449386,6291.750507
87263.525206,7920.203579,5439.278036,7105.977043
87263.525535,7105.977043,4366.744339,8068.244768
87263.525865,5329.482782,3140.991542,8512.368333
87263.526194,3627.009116,1762.019645,9030.512492
87263.526523,2368.659014,995.924147,11251.130318
87263.526852,1110.308913,0.000000,12139.377449
87263.527181,-666.185348,-842.705048,12583.501014
87263.527510,-518.144159,-1532.190996,11177.109724
87263.527840,666.185348,-536.266849,9474.636058
87263.528169,2960.823768,2451.505594,8512.368333
87263.528498,4663.297435,6358.592633,6809.894666
87263.528827,5625.565159,8273.831378,4663.297435
87263.529156,6587.832884,9269.755526,3849.070898
87263.529485,6439.791695,9116.536426,4515.256246
87263.529814,3849.070898,9116.536426,5847.626942
87263.530144,1258.350101,8044.002729,8142.265362
87263.530473,-814.226536,4443.353888,10140.821405
87263.530802,-3182.885551,-383.047749,11695.253884
87263.531131,-4959.379811,-2298.286494,12805.562797
87263.531460,-5255.462188,-1225.752797,13101.645173
87263.531789,-2516.700203,459.657299,14137.933492
87263.532119,0.000000,1991.848295,14211.954086
87263.532448,1998.556043,3294.210641,12509.480420
87263.532777,3478.967927,5592.497135,9474.636058
87263.533106,4441.235652,6818.249932,6439.791695
87263.533435,5773.606348,7660.954980,4515.256246
87263.533764,6069.688724,7814.174080,4737.318029
87263.534094,5033.400406,9039.926876,4959.379811
87263.534423,4293.194464,8656.879127,5329.482782
87263.534752,3775.050304,6281.983084,6291.750507
87263.535081,2294.638420,3983.696590,7179.997637
87263.535410,-740.205942,3064.381992,8512.368333
87263.535739,-1110.308913,1532.190996,8882.471304
87263.536068,-2072.576638,76.609550,10288.862594
87263.536398,-2590.720797,-2681.334243,10510.924376
87263.536727,-2442.679609,-1991.848295,11473.192101
87263.537056,-1776.494261,-612.876398,11695.253884
87263.537385,222.061783,-919.314598,12139.377449
87263.537714,1332.370696,-1149.143247,13545.768739
87263.538043,592.164754,-2145.067394,14137.933492
87263.538373,2072.576638,-1608.800546,12509.480420
87263.538702,3330.926739,-1991.848295,11473.192101
87263.539031,3627.009116,-1302.362347,10510.924376
87263.539360,4145.153275,919.314598,9992.780217
87263.539689,6513.812290,3140.991542,8512.368333
87263.540018,7179.997637,4596.572988,7179.997637
87263.540348,4737.318029,3447.429741,5181.441594
87263.540677,3997.112087,2911.162892,5551.544565
87263.541006,2960.823768,2834.553343,6513.812290
87263.541335,2220.617826,2681.334243,8734.430116
87263.541664,-444.123565,0.000000,10955.047942
87263.541993,-2368.659014,-2911.162892,12139.377449
87263.542322,-2812.782580,-4903.011187,12657.521608
87263.542652,-3552.988522,-4903.011187,14211.954086
87263.542981,-4515.256246,-4903.011187,13619.789333
87263.543310,-3627.009116,-5209.449386,12287.418637
87263.543639,-592.164754,-2604.724693,12361.439231
87263.543968,2442.679609,689.485948,10362.883188
87263.544297,3701.029710,4213.525239,6883.915261
87263.544627,4737.318029,6588.421283,3923.091493
87263.544956,5551.544565,7354.516781,2590.720797
87263.545285,6143.709319,8044.002729,1924.535449
87263.545614,5181.441594,8044.002729,4293.194464
87263.545943,2368.659014,7201.297681,5995.668130
87263.546272,-1480.411884,4596.572988,7550.100608
87263.546602,-3775.050304,229.828649,10881.027347
87263.546931,-7031.956449,-3064.381992,13619.789333
87263.547260,-10510.924376,-5132.839837,15322.262999
87263.547589,-11991.336260,-6894.859482,14063.912898
87263.547918,-10362.883188,-8886.707777,14508.036463
87263.548247,-8512.368333,-6435.202183,15322.262999
87263.548576,-5551.544565,-2145.067394,13545.768739
87263.548906,-1110.308913,1149.143247,9252.574275
87263.549235,3923.091493,3677.258390,5921.647536
87263.549564,8290.306550,6741.640382,2220.617826
87263.549893,11547.212695,11184.994271,1184.329507
87263.550222,13027.624579,14402.595362,1036.288319
87263.550551,12065.356855,13406.671215,3256.906145
87263.550881,9400.615463,9269.755526,6217.729913
87263.551210,4959.379811,4903.011187,8512.368333
87263.551539,-666.185348,1608.800546,10510.924376
87263.551868,-4441.235652,-4366.744339,13915.871710
87263.552198,-7846.182985,-8350.440928,16284.530724
87263.552527,-11325.150913,-9959.241474,16062.468941
87263.552856,-11621.233289,-9882.631924,14211.954086
87263.553186,-8586.388927,-7890.783629,11991.336260
87263.553515,-4811.338623,-4060.306139,9252.574275
87263.553844,814.226536,766.095498,5551.544565
87263.554173,5255.462188,6128.763984,4515.256246
87263.554503,8586.388927,9346.365076,2220.617826
87263.554832,10140.821405,10725.336972,2368.659014
87263.555161,9992.780217,9729.412825,4219.173869
87263.555491,8586.388927,7277.907231,7550.100608
87263.555820,3775.050304,3677.258390,9844.739029
87263.556149,-1036.288319,-2068.457845,11473.192101
87263.556479,-4885.359217,-7660.954980,13249.686362
87263.556808,-6661.853478,-8044.002729,16506.592507
87263.557137,-7994.224174,-7584.345430,15766.386565
87263.557467,-7105.977043,-7124.688131,13397.727550
87263.557796,-5181.441594,-6205.373534,11621.233289
87263.558125,-1776.494261,-2221.676944,7624.121203
87263.558455,3404.947333,3294.210641,7031.956449
87263.558784,7402.059420,7584.345430,7105.977043
87263.559113,6883.915261,9193.145976,5403.503377
87263.559443,5773.606348,6971.469032,4219.173869
87263.559772,5181.441594,4903.011187,7254.018232
87263.560101,1628.453072,2451.505594,9030.512492
87263.560430,-3478.967927,612.876398,11399.171507
87263.560760,-5699.585753,-4443.353888,12361.439231
87263.561089,-6809.894666,-7431.126331,12953.603985
87263.561418,-7624.121203,-7431.126331,12583.501014
87263.561748,-8660.409521,-4749.792088,11621.233289
87263.562077,-7179.997637,-2451.505594,9622.677246
87263.562406,-2960.823768,-1838.629195,7624.121203
87263.562736,1480.411884,-306.438199,6809.894666
87263.563065,3330.926739,4060.306139,7031.956449
87263.563394,3182.885551,7967.393179,7698.141797
87263.563724,4145.153275,6281.983084,7994.224174
87263.564053,4145.153275,1685.410096,9696.697840
87263.564382,1110.308913,-1532.190996,11103.089130
87263.564712,-1850.514855,-2145.067394,12213.398043
87263.565041,-1480.411884,-995.924147,15100.201217
87263.565370,-1184.329507,-2757.943793,14359.995275
87263.565700,-888.247130,-3983.696590,13027.624579
87263.566029,-1332.370696,-2374.896044,9474.636058
87263.566358,592.164754,1685.410096,6365.771101
87263.566688,4071.132681,4749.792088,6069.688724
87263.567017,6735.874072,5592.497135,5773.606348
87263.567346,6809.894666,7354.516781,5995.668130
87263.567675,6513.812290,7737.564530,5329.482782
87263.568005,5181.441594,6281.983084,7624.121203
87263.568334,1776.494261,3140.991542,9770.718434
87263.568663,-3627.009116,-1378.971896,11843.295072
87263.568993,-5995.668130,-5209.449386,11991.336260
87263.569322,-6217.729913,-6435.202183,12805.562797
87263.569651,-7328.038826,-5745.716235,12953.603985
87263.569981,-7328.038826,-4290.134789,11251.130318
87263.570310,-4737.318029,-1762.019645,8216.285956
87263.570639,-1554.432478,153.219100,6587.832884
87263.570969,2146.597232,4136.915689,5107.421000
87263.571298,5551.544565,7737.564530,3478.967927
87263.571627,7994.224174,9346.365076,3923.091493
87263.571957,7846.182985,8503.660028,4367.215058
87263.572286,5477.523971,7048.078582,7105.977043
87263.572615,1998.556043,3907.087040,11399.171507
87263.572945,-1406.391290,-995.924147,12361.439231
87263.573274,-4441.235652,-5439.278036,13693.809927
87263.573603,-5699.585753,-8273.831378,14285.974681
87263.573932,-7476.080014,-6971.469032,14285.974681
87263.574262,-7105.977043,-4443.353888,12287.418637
87263.574591,-3849.070898,-4673.182538,10066.800811
87263.574920,-2516.700203,-1455.581446,6365.771101
87263.575250,666.185348,2068.457845,3997.112087
87263.575579,3775.050304,6128.763984,3923.091493
87263.575908,7105.977043,9193.145976,3552.988522
87263.576238,7105.977043,7660.954980,3404.947333
87263.576567,3775.050304,4903.011187,5699.585753
87263.576896,1184.329507,2374.896044,7920.203579
87263.577226,-1702.473667,-1225.752797,10955.047942
87263.577555,-5773.606348,-5745.716235,12509.480420
87263.577884,-7994.224174,-9576.193725,14063.912898
87263.578214,-9104.533087,-9576.193725,13915.871710
87263.578543,-7698.141797,-7967.393179,14211.954086
87263.578872,-4811.338623,-5669.106685,12953.603985
87263.579202,-2072.576638,-2757.943793,10955.047942
87263.579531,1850.514855,-536.266849,6735.874072
87263.579860,6661.853478,3600.648841,6365.771101
87263.580190,9992.780217,8120.612279,5995.668130
87263.580519,10436.903782,8503.660028,5995.668130
87263.580848,8660.409521,6511.811733,6513.812290
87263.581177,4959.379811,4596.572988,8512.368333
87263.581507,1628.453072,919.314598,9918.759623
87263.581836,-2368.659014,-2834.553343,12065.356855
87263.582165,-4811.338623,-6205.373534,12731.542202
87263.582495,-7105.977043,-6511.811733,12731.542202
87263.582824,-6217.729913,-5669.106685,11621.233289
87263.583153,-4959.379811,-3753.867940,10362.883188
87263.583483,-3701.029710,-459.657299,9178.553681
87263.583812,74.020594,1149.143247,6513.812290
87263.584141,3849.070898,4519.963438,5255.462188
87263.584471,6365.771101,7277.907231,6217.729913
87263.584800,6365.771101,8580.269578,7179.997637
87263.585129,5625.565159,6818.249932,7920.203579
87263.585459,2886.803174,4366.744339,9622.677246
87263.585788,-370.102971,306.438199,11399.171507
87263.586117,-3404.947333,-2681.334243,12065.356855
87263.586447,-3997.112087,-3447.429741,13397.727550
87263.586776,-4589.276840,-4136.915689,14285.974681
87263.587105,-5329.482782,-3370.820191,13175.665768
87263.587435,-3923.091493,-1378.971896,10881.027347
87263.587764,-962.267725,1225.752797,8364.327145
87263.588093,2368.659014,3064.381992,5699.585753
87263.588422,3775.050304,5132.839837,5181.441594
87263.588752,4885.359217,8350.440928,5403.503377
87263.589081,6069.688724,7967.393179,6217.729913
87263.589410,4219.173869,5056.230287,8142.265362
87263.589740,444.123565,1838.629195,10214.842000
87263.590069,-3478.967927,-1149.143247,10807.006753
87263.590398,-4737.318029,-4290.134789,12287.418637
87263.590728,-5181.441594,-5592.497135,14211.954086
87263.591057,-5033.400406,-5056.230287,14359.995275
87263.591386,-4959.379811,-3907.087040,11399.171507
87263.591716,-2146.597232,-2145.067394,8438.347739
87263.592045,888.247130,1762.019645,6661.853478
87263.592374,3404.947333,3983.696590,4885.359217
87263.592704,5773.606348,6665.030833,3849.070898
87263.593033,7254.018232,7431.126331,4441.235652
87263.593362,6513.812290,6205.373534,6365.771101
87263.593692,3330.926739,3907.087040,8216.285956
87263.594021,222.061783,459.657299,11029.068536
87263.594350,-3849.070898,-4366.744339,12287.418637
87263.594679,-6069.688724,-7277.907231,13175.665768
87263.595009,-5995.668130,-7277.907231,15026.180623
87263.595338,-6809.894666,-6281.983084,14285.974681
87263.595667,-5921.647536,-6052.154434,11769.274478
87263.595997,-1850.514855,-3447.429741,9104.533087
87263.596326,1332.370696,766.095498,7254.018232
87263.596655,4441.235652,4673.182538,5403.503377
87263.596985,7624.121203,7584.345430,4663.297435
87263.597314,9474.636058,7660.954980,4589.276840
87263.597643,7920.203579,7124.688131,4441.235652
87263.597973,3997.112087,4903.011187,7105.977043
87263.598302,740.205942,1532.190996,9474.636058
87263.598631,-2960.823768,-2221.676944,11843.295072
87263.598961,-5625.565159,-5975.544884,13175.665768
87263.599290,-7105.977043,-8044.002729,13545.768739
87263.599619,-8660.409521,-5898.935335,12139.377449
87263.599949,-6217.729913,-4826.401637,10362.883188
87263.600278,-4589.276840,-2604.724693,9030.512492
87263.600607,-2664.741391,689.485948,7476.080014
87263.600937,1332.370696,3140.991542,5847.626942
87263.601266,4663.297435,6205.373534,4663.297435
87263.601595,6809.894666,7890.783629,5033.400406
87263.601924,6069.688724,6281.983084,5033.400406
87263.602254,3478.967927,5439.278036,6883.915261
87263.602583,1036.288319,2298.286494,10140.821405
87263.602912,-2442.679609,-2221.676944,11843.295072
87263.603242,-4811.338623,-5209.449386,12361.439231
87263.603571,-6217.729913,-5286.058936,14730.098246
87263.603900,-5773.606348,-3907.087040,15174.221811
87263.604230,-3997.112087,-3677.258390,11917.315666
87263.604559,-2146.597232,-2528.115143,10066.800811
87263.604888,-592.164754,-689.485948,7698.141797
87263.605218,3256.906145,3600.648841,6217.729913
87263.605547,7179.997637,7354.516781,6069.688724
87263.605876,7920.203579,8733.488677,6513.812290
87263.606206,6513.812290,7277.907231,6439.791695
87263.606535,4811.338623,5362.668486,7254.018232
87263.606864,2368.659014,2911.162892,9400.615463
87263.607194,-1776.494261,-153.219100,11991.336260
87263.607523,-4145.153275,-3370.820191,12435.459826
87263.607852,-4145.153275,-4903.011187,13619.789333
87263.608182,-4663.297435,-4673.182538,12953.603985
87263.608511,-5329.482782,-3294.210641,10881.027347
87263.608840,-3552.988522,-995.924147,9474.636058
87263.609169,0.000000,995.924147,8068.244768
87263.609499,2590.720797,3217.601092,5847.626942
87263.609828,5033.400406,5209.449386,5329.482782
87263.610157,6587.832884,7354.516781,5551.544565
87263.610487,6883.915261,7354.516781,6143.709319
87263.610816,5181.441594,5286.058936,9326.594869
87263.611145,2146.597232,3140.991542,11991.336260
87263.611475,-888.247130,-766.095498,12065.356855
87263.611804,-2072.576638,-3600.648841,12953.603985
87263.612133,-2368.659014,-4903.011187,14878.139434
87263.612463,-4663.297435,-3983.696590,14285.974681
87263.612792,-3923.091493,-1991.848295,11917.315666
87263.613121,-1850.514855,-1685.410096,9548.656652
87263.613451,74.020594,-383.047749,7624.121203
87263.613780,1776.494261,2374.896044,4737.318029
87263.614109,3701.029710,5132.839837,4885.359217
87263.614439,5181.441594,7507.735880,5551.544565
87263.614768,4737.318029,5669.106685,6735.874072
87263.615097,2072.576638,3447.429741,8586.388927
87263.615426,-1184.329507,1378.971896,10214.842000
87263.615756,-4811.338623,-2604.724693,10658.965565
87263.616085,-5625.565159,-5822.325785,11917.315666
87263.616414,-6217.729913,-6818.249932,13693.809927
87263.616744,-8068.244768,-5669.106685,13101.645173
87263.617073,-6883.915261,-4060.306139,10807.006753
87263.617402,-3256.906145,-3217.601092,8734.430116
87263.617732,-888.247130,-536.266849,6143.709319
87263.618061,2368.659014,2374.896044,4515.256246
87263.618390,5255.462188,7354.516781,5699.585753
87263.618720,8512.368333,9116.536426,5625.565159
87263.619049,8586.388927,6358.592633,5995.668130
87263.619378,5181.441594,3217.601092,7698.141797
87263.619708,1480.411884,1302.362347,10436.903782
87263.620037,-1776.494261,-536.266849,11917.315666
87263.620366,-2664.741391,-4673.182538,13767.830521
87263.620696,-3997.112087,-7201.297681,15618.345376
87263.621025,-7105.977043,-6971.469032,13323.706956
87263.621354,-6069.688724,-4903.011187,10066.800811
87263.621684,-3330.926739,-2374.896044,8882.471304
87263.622013,-1332.370696,0.000000,7105.977043
87263.622342,1480.411884,2221.676944,3923.091493
87263.622671,4737.318029,6205.373534,3775.050304
87263.623001,5921.647536,7354.516781,4663.297435
87263.623330,4959.379811,7660.954980,5551.544565
87263.623659,2886.803174,4903.011187,6735.874072
87263.623989,1258.350101,1762.019645,9844.739029
87263.624318,-1628.453072,-1915.238745,11177.109724
87263.624647,-3849.070898,-2987.772442,12213.398043
87263.624977,-5033.400406,-4519.963438,14063.912898
87263.625306,-5329.482782,-4519.963438,13397.727550
87263.625635,-2590.720797,-4213.525239,11177.109724
87263.625965,-814.226536,-919.314598,10807.006753
87263.626294,1110.308913,2298.286494,7402.059420
87263.626623,4071.132681,5132.839837,5477.523971
87263.626953,7550.100608,5822.325785,5699.585753
87263.627282,7031.956449,8886.707777,6661.853478
87263.627611,6439.791695,8963.317327,6291.750507
87263.627941,5403.503377,6741.640382,8142.265362
87263.628270,1998.556043,3370.820191,10955.047942
87263.628599,-3923.091493,-1302.362347,11399.171507
87263.628929,-6735.874072,-4443.353888,11621.233289
87263.629258,-6365.771101,-5669.106685,12805.562797
87263.629587,-6735.874072,-5975.544884,12953.603985
87263.629916,-7254.018232,-3983.696590,11103.089130
87263.630246,-5477.523971,-1608.800546,9474.636058
87263.630575,-1628.453072,76.609550,7550.100608
87263.630904,1924.535449,2221.676944,6143.709319
87263.631234,4293.194464,5286.058936,5773.606348
87263.631563,6735.874072,8580.269578,6957.935855
87263.631892,7402.059420,7354.516781,8142.265362
87263.632222,5625.565159,4596.572988,9326.594869
87263.632551,1406.391290,1072.533697,11325.150913
87263.632880,-2294.638420,-1838.629195,12213.398043
87263.633210,-3182.885551,-4596.572988,13175.665768
87263.633539,-4071.132681,-5592.497135,14582.057057
87263.633868,-5551.544565,-5209.449386,13323.706956
87263.634198,-5477.523971,-3907.087040,11029.068536
87263.634527,-2516.700203,-2451.505594,9474.636058
87263.634856,-222.061783,229.828649,7402.059420
87263.635186,2368.659014,2221.676944,5551.544565
87263.635515,5033.400406,5056.230287,6291.750507
87263.635844,6957.935855,7737.564530,7179.997637
87263.636173,6809.894666,6052.154434,6661.853478
87263.636503,3404.947333,2987.772442,8290.306550
87263.636832,518.144159,153.219100,9622.677246
87263.637161,-2368.659014,-2528.115143,10658.965565
87263.637491,-3552.988522,-4213.525239,13175.665768
87263.637820,-3997.112087,-4903.011187,15174.221811
87263.638149,-6217.729913,-5056.230287,12657.521608
87263.638479,-5181.441594,-4826.401637,10658.965565
87263.638808,-2812.782580,-4290.134789,8364.327145
87263.639137,-814.226536,306.438199,7179.997637
87263.639467,2146.597232,3370.820191,6587.832884
87263.639796,5107.421000,5439.278036,6291.750507
87263.640125,6809.894666,6128.763984,5995.668130
87263.640455,5551.544565,6741.640382,7402.059420
87263.640784,2886.803174,4519.963438,8586.388927
87263.641113,592.164754,2298.286494,9474.636058
87263.641443,-2146.597232,-2298.286494,10732.986159
87263.641772,-3478.967927,-4979.620737,12435.459826
87263.642101,-5329.482782,-4060.306139,13397.727550
87263.642431,-5477.523971,-3753.867940,12583.501014
87263.642760,-3923.091493,-4060.306139,11029.068536
87263.643089,-2294.638420,-1608.800546,8956.491898
87263.643418,0.000000,919.314598,7105.977043
87263.643748,3478.967927,4749.792088,6217.729913
87263.644077,6439.791695,7354.516781,5477.523971
87263.644406,6957.935855,7201.297681,5773.606348
87263.644736,4737.318029,6052.154434,5847.626942
87263.645065,2442.679609,4903.011187,7846.182985
87263.645394,0.000000,2451.505594,9548.656652
87263.645724,-3404.947333,-1608.800546,10436.903782
87263.646053,-5699.585753,-4903.011187,11843.295072
87263.646382,-7846.182985,-5056.230287,12361.439231
87263.646712,-7254.018232,-4519.963438,11103.089130
87263.647041,-5329.482782,-3753.867940,9844.739029
87263.647370,-3478.967927,-1991.848295,9326.594869
87263.647700,-518.144159,1532.190996,7846.182985
87263.648029,2812.782580,4596.572988,5921.647536
87263.648358,6365.771101,6052.154434,5699.585753
87263.648688,7105.977043,6052.154434,6957.935855
87263.649017,5255.462188,6281.983084,7254.018232
87263.649346,4293.194464,5439.278036,9178.553681
87263.649676,2220.617826,1302.362347,10658.965565
87263.650005,-2220.617826,-2987.772442,11769.274478
87263.650334,-4737.318029,-5669.106685,11917.315666
87263.650663,-5107.421000,-4749.792088,12805.562797
87263.650993,-4737.318029,-2987.772442,12139.377449
87263.651322,-3849.070898,-2834.553343,10436.903782
87263.651651,-3034.844362,-2298.286494,9030.512492
87263.651981,-814.226536,229.828649,6291.750507
87263.652310,2294.638420,3064.381992,5033.400406
87263.652639,4737.318029,5822.325785,6365.771101
87263.652969,4367.215058,5515.887586,6661.853478
87263.653298,3701.029710,4519.963438,6883.915261
87263.653627,2664.741391,2681.334243,9104.533087
87263.653957,-962.267725,0.000000,11103.089130
87263.654286,-3997.112087,-3983.696590,10881.027347
87263.654615,-4441.235652,-5822.325785,12361.439231
87263.654945,-3775.050304,-4903.011187,14137.933492
87263.655274,-5033.400406,-3370.820191,13027.624579
87263.655603,-3256.906145,-3140.991542,11103.089130
87263.655933,-666.185348,-1915.238745,10214.842000
87263.656262,1480.411884,229.828649,8068.244768
87263.656592,3627.009116,3294.210641,6439.791695
87263.656921,5625.565159,5669.106685,6661.853478
87263.657250,7031.956449,6128.763984,8216.285956
87263.657580,5255.462188,4519.963438,8364.327145
87263.657909,2368.659014,2451.505594,9622.677246
87263.658238,-962.267725,76.609550,10658.965565
87263.658568,-2664.741391,-2987.772442,10881.027347
87263.658897,-2886.803174,-3907.087040,12583.501014
87263.659226,-3923.091493,-3064.381992,13323.706956
87263.659556,-4663.297435,-2298.286494,12213.398043
87263.659885,-2368.659014,-2145.067394,9474.636058
87263.660215,-222.061783,-536.266849,7846.182985
87263.660544,1258.350101,2068.457845,6439.791695
87263.660873,3552.988522,4673.182538,5255.462188
87263.661203,4959.379811,6894.859482,6069.688724
87263.661532,5773.606348,6511.811733,6735.874072
87263.661861,3478.967927,4213.525239,7254.018232
87263.662191,666.185348,2221.676944,8660.409521
87263.662520,-1850.514855,153.219100,10807.006753
87263.662850,-4367.215058,-2451.505594,11769.274478
87263.663179,-5181.441594,-5209.449386,12583.501014
87263.663508,-5699.585753,-4979.620737,13323.706956
87263.663838,-4811.338623,-3217.601092,11621.233289
87263.664167,-2664.741391,-919.314598,9474.636058
87263.664496,-222.061783,1149.143247,8734.430116
87263.664826,1924.535449,2604.724693,6291.750507
87263.665155,3997.112087,4596.572988,4663.297435
87263.665484,5921.647536,6818.249932,6883.915261
87263.665814,6291.750507,7814.174080,7846.182985
87263.666143,4441.235652,5822.325785,8364.327145
87263.666473,2368.659014,2757.943793,8956.491898
87263.666802,-1184.329507,-842.705048,11695.253884
87263.667131,-4293.194464,-3140.991542,11621.233289
87263.667461,-4737.318029,-4673.182538,11991.336260
87263.667790,-5181.441594,-4596.572988,11991.336260
87263.668119,-4293.194464,-4290.134789,10658.965565
87263.668449,-2220.617826,-1915.238745,8882.471304
87263.668778,-222.061783,1149.143247,7920.203579
87263.669107,1110.308913,2757.943793,5551.544565
87263.669437,4367.215058,2987.772442,3849.070898
87263.669766,6587.832884,4290.134789,5921.647536
87263.670096,5329.482782,5975.544884,7476.080014
87263.670425,3182.885551,5209.449386,7698.141797
87263.670754,1110.308913,1302.362347,9474.636058
87263.671084,-1554.432478,-3140.991542,11251.130318
87263.671413,-4959.379811,-4596.572988,12361.439231
87263.671742,-4737.318029,-4826.401637,11917.315666
87263.672072,-4663.297435,-4826.401637,12509.480420
87263.672401,-3997.112087,-5592.497135,11547.212695
87263.672730,-2516.700203,-2757.943793,9992.780217
87263.673060,-962.267725,1532.190996,8734.430116
87263.673389,1998.556043,2528.115143,6291.750507
87263.673719,4589.276840,3217.601092,5921.647536
87263.674048,5847.626942,4060.306139,6513.812290
87263.674377,5255.462188,5975.544884,6883.915261
87263.674707,3997.112087,5745.716235,7698.141797
87263.675036,1998.556043,2834.553343,9992.780217
87263.675365,-2146.597232,-1149.143247,10584.944971
87263.675695,-4589.276840,-3217.601092,11029.068536
87263.676024,-4737.318029,-4366.744339,12435.459826
87263.676353,-4663.297435,-3294.210641,12805.562797
87263.676683,-4589.276840,-3140.991542,11769.274478
87263.677012,-3627.009116,-2834.553343,9770.718434
87263.677342,-1850.514855,306.438199,8142.265362
87263.677671,814.226536,1915.238745,5699.585753
87263.678000,3627.009116,3907.087040,6069.688724
87263.678330,5181.441594,6128.763984,6735.874072
87263.678659,5255.462188,6741.640382,8068.244768
87263.678988,4367.215058,4979.620737,8290.306550
87263.679318,1628.453072,2451.505594,9622.677246
87263.679647,-1702.473667,-689.485948,11547.212695
87263.679976,-3701.029710,-2987.772442,12435.459826
87263.680306,-4737.318029,-3600.648841,14063.912898
87263.680635,-4293.194464,-5132.839837,12879.583391
87263.680965,-4737.318029,-4519.963438,12065.356855
87263.681294,-3997.112087,-1991.848295,10881.027347
87263.681623,-1924.535449,153.219100,9178.553681
87263.681953,740.205942,2068.457845,6661.853478
87263.682282,3552.988522,2298.286494,5847.626942
87263.682611,5255.462188,4519.963438,6735.874072
87263.682941,5921.647536,6818.249932,6809.894666
87263.683270,4589.276840,6435.202183,8216.285956
87263.683599,2220.617826,2681.334243,10807.006753
87263.683929,-888.247130,-459.657299,11103.089130
87263.684258,-1332.370696,-2681.334243,11177.109724
87263.684588,-1850.514855,-3447.429741,12287.418637
87263.684917,-2442.679609,-2987.772442,13767.830521
87263.685246,-3108.864956,-2604.724693,11177.109724
87263.685576,-222.061783,-1685.410096,8956.491898
87263.685905,1702.473667,383.047749,8438.347739
87263.686234,2294.638420,3753.867940,5329.482782
87263.686564,4071.132681,5515.887586,4959.379811
87263.686893,6883.915261,7124.688131,6661.853478
87263.687222,4885.359217,6052.154434,7179.997637
87263.687552,2590.720797,3983.696590,7328.038826
87263.687881,814.226536,1762.019645,9326.594869
87263.688211,-1776.494261,0.000000,10732.986159
87263.688540,-4441.235652,-3294.210641,11991.336260
87263.688869,-5403.503377,-4673.182538,12953.603985
87263.689199,-5699.585753,-5439.278036,12879.583391
87263.689528,-5181.441594,-4443.353888,11917.315666
87263.689857,-2516.700203,-2451.505594,10436.903782
87263.690187,-1036.288319,229.828649,8290.306550
87263.690516,1184.329507,1455.581446,6291.750507
87263.690845,4515.256246,4366.744339,5921.647536
87263.691175,6735.874072,7201.297681,6291.750507
87263.691504,6439.791695,7584.345430,6291.750507
87263.691834,4885.359217,5592.497135,7550.100608
87263.692163,2368.659014,3294.210641,9844.739029
87263.692492,-1110.308913,536.266849,10066.800811
87263.692822,-4589.276840,-2681.334243,10436.903782
87263.693151,-5403.503377,-5592.497135,11325.150913
87263.693480,-5995.668130,-4290.134789,12139.377449
87263.693810,-5921.647536,-3064.381992,10584.944971
87263.694139,-4441.235652,-2374.896044,8808.450710
87263.694468,-3256.906145,-766.095498,6883.915261
87263.694798,-222.061783,459.657299,4885.359217
87263.695127,2664.741391,3907.087040,5625.565159
87263.695457,4885.359217,7201.297681,6587.832884
87263.695786,4589.276840,6971.469032,7105.977043
87263.696115,3849.070898,3447.429741,7254.018232
87263.696445,1332.370696,459.657299,10436.903782
87263.696774,-2442.679609,-1378.971896,11843.295072
87263.697103,-5033.400406,-3140.991542,12583.501014
87263.697433,-4293.194464,-6052.154434,13619.789333
87263.697762,-4885.359217,-6281.983084,13249.686362
87263.698091,-5033.400406,-4673.182538,11029.068536
87263.698421,-3330.926739,-1608.800546,9474.636058
87263.698750,-444.123565,0.000000,8290.306550
87263.699080,2368.659014,1608.800546,6883.915261
87263.699409,5033.400406,4519.963438,5995.668130
87263.699738,7402.059420,7737.564530,6809.894666
87263.700068,7846.182985,8273.831378,6883.915261
87263.700397,6439.791695,4903.011187,7846.182985
87263.700726,2812.782580,2298.286494,10066.800811
87263.701056,-666.185348,76.609550,10807.006753
87263.701385,-2516.700203,-2221.676944,11621.233289
87263.701714,-2590.720797,-3907.087040,13397.727550
87263.702044,-4293.194464,-4290.134789,12805.562797
87263.702373,-5255.462188,-3294.210641,10881.027347
87263.702703,-3108.864956,-919.314598,8808.450710
87263.703032,222.061783,995.924147,8660.409521
87263.703361,1184.329507,2528.115143,6735.874072
87263.703691,3108.864956,4596.572988,5181.441594
87263.704020,4885.359217,7124.688131,6661.853478
87263.704349,6069.688724,6971.469032,7550.100608
87263.704679,3034.844362,5439.278036,8660.409521
87263.705008,0.000000,2604.724693,11177.109724
87263.705337,-3108.864956,-1532.190996,11103.089130
87263.705667,-4515.256246,-4136.915689,11991.336260
87263.705996,-5255.462188,-5132.839837,13915.871710
87263.706326,-6735.874072,-4366.744339,13767.830521
87263.706655,-4811.338623,-3064.381992,10807.006753
87263.706984,-962.267725,-2221.676944,10732.986159
87263.707314,296.082377,1685.410096,9770.718434
87263.707643,1554.432478,4060.306139,6587.832884
87263.707972,5477.523971,5592.497135,5033.400406
87263.708302,7254.018232,6281.983084,6661.853478
87263.708631,5255.462188,6358.592633,7846.182985
87263.708960,2886.803174,4903.011187,7772.162391
87263.709290,1110.308913,2451.505594,9400.615463
87263.709619,-2812.782580,-2834.553343,10807.006753
87263.709949,-5995.668130,-5132.839837,11843.295072
87263.710278,-6439.791695,-6128.763984,11473.192101
87263.710607,-5995.668130,-4749.792088,11991.336260
87263.710937,-5551.544565,-4443.353888,10584.944971
87263.711266,-2960.823768,-3140.991542,8660.409521
87263.711595,74.020594,0.000000,6883.915261
87263.711925,2590.720797,2451.505594,5329.482782
87263.712254,5773.606348,4673.182538,6143.709319
87263.712583,7772.162391,6435.202183,7328.038826
87263.712913,7031.956449,5515.887586,7698.141797
87263.713242,4737.318029,3524.039291,8216.285956
87263.713572,3034.844362,76.609550,10362.883188
87263.713901,-1332.370696,-2145.067394,11991.336260
87263.714230,-4515.256246,-4903.011187,12213.398043
87263.714560,-4441.235652,-5898.935335,12953.603985
87263.714889,-4441.235652,-5439.278036,13323.706956
87263.715218,-4441.235652,-4366.744339,11029.068536
87263.715548,-2886.803174,-2451.505594,8956.491898
87263.715877,-370.102971,459.657299,7624.121203
87263.716206,2590.720797,2604.724693,6513.812290
87263.716536,5699.585753,5439.278036,5329.482782
87263.716865,7105.977043,7201.297681,6069.688724
87263.717195,5625.565159,7584.345430,5921.647536
87263.717524,3404.947333,5056.230287,6587.832884
87263.717853,888.247130,1532.190996,9178.553681
87263.718183,-2812.782580,-459.657299,10658.965565
87263.718512,-5255.462188,-3600.648841,10658.965565
87263.718841,-4219.173869,-4519.963438,13175.665768
87263.719171,-4811.338623,-3294.210641,12731.542202
87263.719500,-4441.235652,-2604.724693,10214.842000
87263.719829,-2442.679609,-995.924147,8290.306550
87263.720159,0.000000,1762.019645,7402.059420
87263.720488,2664.741391,4366.744339,5551.544565
87263.720818,4663.297435,6511.811733,5551.544565
87263.721147,4663.297435,6818.249932,6809.894666
87263.721476,3923.091493,6205.373534,7476.080014
87263.721806,2664.741391,3983.696590,8438.347739
87263.722135,-814.226536,1302.362347,11325.150913
87263.722464,-4737.318029,-2298.286494,11177.109724
87263.722794,-6217.729913,-4673.182538,12213.398043
87263.723123,-6069.688724,-5898.935335,13767.830521
87263.723452,-6365.771101,-4903.011187,13323.706956
87263.723782,-5255.462188,-2528.115143,11769.274478
87263.724111,-1480.411884,-919.314598,9622.677246
87263.724441,1628.453072,1762.019645,7698.141797
87263.724770,3997.112087,2987.772442,6069.688724
87263.725099,5995.668130,6281.983084,5551.544565
87263.725429,8364.327145,7890.783629,6217.729913
87263.725758,7846.182985,6971.469032,7846.182985
87263.726087,5107.421000,4136.915689,9548.656652
87263.726417,1036.288319,1608.800546,10288.862594
87263.726746,-2886.803174,-1838.629195,10436.903782
87263.727075,-4663.297435,-4979.620737,12213.398043
87263.727405,-5181.441594,-6665.030833,13323.706956
87263.727734,-6587.832884,-5209.449386,12213.398043
87263.728064,-5921.647536,-4596.572988,10288.862594
87263.728393,-2516.700203,-2757.943793,9474.636058
87263.728722,-222.061783,0.000000,7920.203579
87263.729052,1924.535449,2374.896044,5699.585753
87263.729381,4737.318029,4749.792088,5921.647536
87263.729710,6957.935855,7124.688131,7179.997637
87263.730040,6291.750507,4519.963438,7920.203579
87263.730369,2960.823768,3907.087040,9400.615463
87263.730698,888.247130,536.266849,11325.150913
87263.731028,-1406.391290,-2221.676944,11917.315666
87263.731357,-3108.864956,-4443.353888,13545.768739
87263.731687,-4441.235652,-5515.887586,13915.871710
87263.732016,-4441.235652,-4519.963438,13397.727550
87263.732345,-3330.926739,-3447.429741,11621.233289
87263.732675,-1406.391290,-1762.019645,10732.986159
87263.733004,0.000000,1149.143247,8512.368333
87263.733333,2886.803174,3140.991542,5477.523971
87263.733663,6143.709319,4979.620737,5033.400406
87263.733992,6291.750507,7354.516781,5403.503377
87263.734321,4441.235652,7660.954980,5403.503377
87263.734651,2442.679609,5592.497135,6513.812290
87263.734980,666.185348,2068.457845,9844.739029
87263.735310,-3849.070898,-1378.971896,10066.800811
87263.735639,-6439.791695,-4213.525239,10584.944971
87263.735968,-6661.853478,-5132.839837,12361.439231
87263.736298,-6365.771101,-5056.230287,12361.439231
87263.736627,-5625.565159,-3830.477490,10436.903782
87263.736956,-3775.050304,-2451.505594,9104.533087
87263.737286,-1036.288319,766.095498,6587.832884
87263.737615,2294.638420,2681.334243,5403.503377
87263.737944,5403.503377,4979.620737,6291.750507
87263.738274,6439.791695,7201.297681,7031.956449
87263.738603,6217.729913,6741.640382,6809.894666
87263.738933,5107.421000,4903.011187,8068.244768
87263.739262,2146.597232,2681.334243,10584.944971
87263.739591,-1702.473667,-459.657299,11325.150913
87263.739921,-3404.947333,-3217.601092,11843.295072
87263.740250,-2960.823768,-5515.887586,12583.501014
87263.740579,-4293.194464,-4903.011187,12657.521608
87263.740909,-4515.256246,-3524.039291,11103.089130
87263.741238,-2886.803174,-919.314598,8438.347739
87263.741567,-592.164754,-229.828649,6809.894666
87263.741897,1924.535449,919.314598,5329.482782
87263.742226,4219.173869,4443.353888,5699.585753
87263.742556,5033.400406,7354.516781,6217.729913
87263.742885,5033.400406,6052.154434,6291.750507
87263.743214,3256.906145,2987.772442,7476.080014
87263.743544,296.082377,306.438199,9770.718434
87263.743873,-2590.720797,-153.219100,11177.109724
87263.744202,-3182.885551,-3064.381992,11325.150913
87263.744532,-3478.967927,-6205.373534,12657.521608
87263.744861,-5329.482782,-6358.592633,13027.624579
87263.745190,-5403.503377,-3600.648841,11251.130318
87263.745520,-2146.597232,-536.266849,9992.780217
87263.745849,518.144159,229.828649,7328.038826
87263.746179,2368.659014,689.485948,5403.503377
87263.746508,4441.235652,3907.087040,5847.626942
87263.746837,6883.915261,8120.612279,7031.956449
87263.747167,6513.812290,7660.954980,8512.368333
87263.747496,3627.009116,4060.306139,8660.409521
87263.747825,444.123565,842.705048,10066.800811
87263.748155,-1776.494261,-995.924147,11621.233289
87263.748484,-2738.761985,-2604.724693,11621.233289
87263.748813,-4441.235652,-4979.620737,14285.974681
87263.749143,-5995.668130,-6205.373534,13397.727550
87263.749472,-5107.421000,-4979.620737,11325.150913
87263.749802,-2812.782580,-1608.800546,10214.842000
87263.750131,-1258.350101,153.219100,8216.285956
87263.750460,592.164754,2451.505594,5551.544565
87263.750790,4145.153275,3753.867940,6143.709319
87263.751119,6291.750507,6511.811733,6883.915261
87263.751448,5033.400406,6894.859482,7476.080014
87263.751778,2738.761985,4826.401637,8438.347739
87263.752107,1332.370696,1915.238745,10881.027347
87263.752436,-1258.350101,-229.828649,11177.109724
87263.752766,-3256.906145,-2757.943793,12731.542202
87263.753095,-3108.864956,-4749.792088,13397.727550
87263.753425,-3997.112087,-4519.963438,12805.562797
87263.753754,-3330.926739,-2834.553343,11621.233289
87263.754083,-1702.473667,-766.095498,10510.924376
87263.754413,-666.185348,2068.457845,7698.141797
87263.754742,2738.761985,2451.505594,6069.688724
87263.755071,5921.647536,4903.011187,5329.482782
87263.755401,6809.894666,7431.126331,7031.956449
87263.755730,4737.318029,7890.783629,8068.244768
87263.756060,3330.926739,5132.839837,8808.450710
87263.756389,1110.308913,1302.362347,9770.718434
87263.756718,-2368.659014,-1762.019645,10436.903782
87263.757048,-4367.215058,-2757.943793,11991.336260
87263.757377,-5773.606348,-3524.039291,12953.603985
87263.757706,-5551.544565,-5056.230287,12065.356855
87263.758036,-5107.421000,-5056.230287,11177.109724
87263.758365,-4367.215058,-2221.676944,9326.594869
87263.758695,-1702.473667,1378.971896,7254.018232
87263.759024,2664.741391,2987.772442,5921.647536
87263.759353,4737.318029,4519.963438,6291.750507
87263.759683,4959.379811,6281.983084,6957.935855
87263.760012,5773.606348,6894.859482,6883.915261
87263.760341,4737.318029,4749.792088,7698.141797
87263.760671,1480.411884,1608.800546,9992.780217
87263.761000,-2664.741391,-919.314598,10881.027347
87263.761330,-3701.029710,-3294.210641,11103.089130
87263.761659,-3330.926739,-4749.792088,12139.377449
87263.761988,-5033.400406,-5822.325785,11991.336260
87263.762318,-6069.688724,-4519.963438,10066.800811
87263.762647,-3330.926739,-1915.238745,8512.368333
87263.762977,0.000000,153.219100,7994.224174
87263.763306,2220.617826,1378.971896,5699.585753
87263.763635,4589.276840,4366.744339,5773.606348
87263.763965,5847.626942,7354.516781,6439.791695
87263.764294,6365.771101,6894.859482,6735.874072
87263.764623,3923.091493,4060.306139,8586.388927
87263.764953,518.144159,766.095498,10362.883188
87263.765282,-2960.823768,-2145.067394,11029.068536
87263.765612,-3404.947333,-4673.182538,11769.274478
87263.765941,-3701.029710,-6205.373534,13989.892304
87263.766270,-6069.688724,-5362.668486,11991.336260
87263.766600,-4811.338623,-4596.572988,9178.553681
87263.766929,-1998.556043,-2221.676944,8734.430116
87263.767258,222.061783,766.095498,7550.100608
87263.767588,2590.720797,3753.867940,5699.585753
87263.767917,5551.544565,6588.421283,5403.503377
87263.768247,7031.956449,7584.345430,5995.668130
87263.768576,5995.668130,6205.373534,6661.853478
87263.768905,3997.112087,4443.353888,8660.409521
87263.769235,222.061783,1685.410096,9770.718434
87263.769564,-3256.906145,-2145.067394,11029.068536
87263.769894,-4441.235652,-4596.572988,12879.583391
87263.770223,-4737.318029,-5132.839837,14878.139434
87263.770552,-5921.647536,-4519.963438,13101.645173
87263.770882,-4367.215058,-3064.381992,10362.883188
87263.771211,-1628.453072,-1302.362347,8882.471304
87263.771540,740.205942,2221.676944,7328.038826
87263.771870,3330.926739,5515.887586,5033.400406
87263.772199,5773.606348,7890.783629,5329.482782
87263.772529,6587.832884,7967.393179,6291.750507
87263.772858,5255.462188,6205.373534,7328.038826
87263.773187,2886.803174,4903.011187,8882.471304
87263.773517,666.185348,1762.019645,10510.924376
87263.773846,-2812.782580,-2221.676944,12139.377449
87263.774175,-4885.359217,-5439.278036,13249.686362
87263.774505,-5773.606348,-5898.935335,14063.912898
87263.774834,-5699.585753,-4749.792088,12805.562797
87263.775164,-3552.988522,-2911.162892,11769.274478
87263.775493,-2368.659014,-995.924147,9622.677246
87263.775822,-444.123565,1762.019645,7772.162391
87263.776152,2738.761985,3677.258390,5847.626942
87263.776481,5329.482782,6358.592633,5255.462188
87263.776811,5551.544565,7124.688131,6735.874072
87263.777140,4367.215058,5669.106685,7031.956449
87263.777469,2664.741391,3677.258390,9104.533087
87263.777799,740.205942,459.657299,11547.212695
87263.778128,-2072.576638,-3217.601092,12583.501014
87263.778457,-5255.462188,-5745.716235,11917.315666
87263.778787,-4219.173869,-6358.592633,12657.521608
87263.779116,-3034.844362,-4136.915689,11991.336260
87263.779446,-1998.556043,-2528.115143,10955.047942
87263.779775,-962.267725,-842.705048,9844.739029
87263.780104,962.267725,1991.848295,7772.162391
87263.780434,5107.421000,3907.087040,6291.750507
87263.780763,7031.956449,5592.497135,6661.853478
87263.781092,6513.812290,6818.249932,7105.977043
87263.781422,4589.276840,5669.106685,6883.915261
87263.781751,2368.659014,3677.258390,9104.533087
87263.782081,-962.267725,-229.828649,10807.006753
87263.782410,-5181.441594,-3677.258390,10140.821405
87263.782739,-6143.709319,-5592.497135,10732.986159
87263.783069,-5551.544565,-5439.278036,13101.645173
87263.783398,-5995.668130,-4136.915689,12213.398043
87263.783728,-5403.503377,-2987.772442,10362.883188
87263.784057,-2368.659014,-1915.238745,8512.368333
87263.784386,666.185348,612.876398,6513.812290
87263.784716,3923.091493,2834.553343,5107.421000
87263.785045,5477.523971,6588.421283,6365.771101
87263.785374,5329.482782,7507.735880,7698.141797
87263.785704,4737.318029,5669.106685,8068.244768
87263.786033,2886.803174,2068.457845,9326.594869
87263.786363,-888.247130,-383.047749,9770.718434
87263.786692,-3923.091493,-2757.943793,10066.800811
87263.787021,-4441.235652,-4596.572988,11251.130318
87263.787351,-4219.173869,-4673.182538,12953.603985
87263.787680,-5699.585753,-3753.867940,12213.398043
87263.788009,-4441.235652,-2451.505594,9474.636058
87263.788339,-888.247130,-153.219100,7254.018232
87263.788668,1036.288319,1532.190996,6217.729913
87263.788998,2220.617826,3524.039291,5773.606348
87263.789327,4145.153275,5592.497135,6291.750507
87263.789656,5255.462188,5975.544884,6587.832884
87263.789986,4515.256246,3983.696590,7402.059420
87263.790315,1406.391290,1532.190996,8734.430116
87263.790644,-1554.432478,459.657299,9770.718434
87263.790974,-2738.761985,-1991.848295,11251.130318
87263.791303,-2738.761985,-4749.792088,12657.521608
87263.791633,-4515.256246,-5056.230287,13323.706956
87263.791962,-4293.194464,-4519.963438,11399.171507
87263.792291,-2294.638420,-2221.676944,9030.512492
87263.792621,0.000000,-689.485948,8512.368333
87263.792950,1480.411884,1225.752797,8290.306550
87263.793280,3478.967927,4136.915689,6957.935855
87263.793609,6587.832884,7584.345430,7031.956449
87263.793938,7179.997637,6128.763984,7624.121203
87263.794268,5181.441594,3294.210641,7772.162391
87263.794597,1924.535449,3064.381992,8734.430116
87263.794926,222.061783,1072.533697,10584.944971
87263.795256,-2886.803174,-2451.505594,12435.459826
87263.795585,-4293.194464,-3983.696590,13397.727550
87263.795915,-4515.256246,-4060.306139,13027.624579
87263.796244,-4589.276840,-3447.429741,10955.047942
87263.796573,-2738.761985,-2221.676944,9548.656652
87263.796903,-444.123565,0.000000,9252.574275
87263.797232,1406.391290,2834.553343,7624.121203
87263.797561,3552.988522,4826.401637,5255.462188
87263.797891,5403.503377,6511.811733,5255.462188
87263.798220,4663.297435,7048.078582,6957.935855
87263.798550,3256.906145,6741.640382,7328.038826
87263.798879,888.247130,4060.306139,8956.491898
87263.799208,-1554.432478,-536.266849,11991.336260
87263.799538,-5255.462188,-3524.039291,11695.253884
87263.799867,-5921.647536,-5286.058936,12213.398043
87263.800197,-4885.359217,-4979.620737,13249.686362
87263.800526,-4737.318029,-3907.087040,12435.459826
87263.800855,-3701.029710,-2528.115143,10955.047942
87263.801185,-1332.370696,-536.266849,9400.615463
87263.801514,1332.370696,2221.676944,7402.059420
87263.801843,3849.070898,4749.792088,6513.812290
87263.802173,5995.668130,6511.811733,6587.832884
87263.802502,6735.874072,7048.078582,6365.771101
87263.802832,4959.379811,4979.620737,7328.038826
87263.803161,2294.638420,2987.772442,10066.800811
87263.803490,-1110.308913,0.000000,11399.171507
87263.803820,-4219.173869,-3753.867940,11029.068536
87263.804149,-4737.318029,-6205.373534,12509.480420
87263.804478,-4589.276840,-6205.373534,13323.706956
87263.804808,-4737.318029,-4366.744339,11843.295072
87263.805137,-2664.741391,-1225.752797,10066.800811
87263.805467,-1184.329507,-766.095498,8808.450710
87263.805796,1036.288319,536.266849,6069.688724
87263.806125,4219.173869,3064.381992,5033.400406
87263.806455,5403.503377,6128.763984,6587.832884
87263.806784,5551.544565,6894.859482,7105.977043
87263.807114,5329.482782,5132.839837,7402.059420
87263.807443,3849.070898,1685.410096,9400.615463
87263.807772,-814.226536,76.609550,10140.821405
87263.808102,-3330.926739,-2987.772442,10436.903782
87263.808431,-2738.761985,-4596.572988,12287.418637
87263.808760,-3182.885551,-4903.011187,13249.686362
87263.809090,-4663.297435,-3600.648841,11917.315666
87263.809419,-2590.720797,-2451.505594,9400.615463
87263.809749,-518.144159,0.000000,8512.368333
87263.810078,1184.329507,1532.190996,7328.038826
87263.810407,2368.659014,3753.867940,5181.441594
87263.810737,4071.132681,5669.106685,5033.400406
87263.811066,4589.276840,5822.325785,6883.915261
87263.811395,3182.885551,4673.182538,8068.244768
87263.811725,74.020594,3294.210641,8956.491898
87263.812054,-2664.741391,-612.876398,10658.965565
87263.812384,-4663.297435,-4213.525239,10362.883188
87263.812713,-4885.359217,-5056.230287,11103.089130
87263.813042,-5921.647536,-4673.182538,12953.603985
87263.813372,-6365.771101,-3370.820191,11325.150913
87263.813701,-4589.276840,-2221.676944,8882.471304
87263.814031,-1258.350101,-612.876398,8290.306550
87263.814360,518.144159,1608.800546,6735.874072
87263.814689,3034.844362,4290.134789,5255.462188
87263.815019,5773.606348,7201.297681,6217.729913
87263.815348,5995.668130,6971.469032,7624.121203
87263.815677,3849.070898,4903.011187,7698.141797
87263.816007,1702.473667,2681.334243,9622.677246
87263.816336,-296.082377,229.828649,10066.800811
87263.816666,-3108.864956,-2987.772442,11177.109724
87263.816995,-4663.297435,-5056.230287,12139.377449
87263.817324,-4219.173869,-4979.620737,12879.583391
87263.817654,-3997.112087,-3983.696590,10807.006753
87263.817983,-1998.556043,-2528.115143,9474.636058
87263.818312,-222.061783,76.609550,8512.368333
87263.818642,1628.453072,1762.019645,6587.832884
87263.818971,4959.379811,3907.087040,5625.565159
87263.819301,7476.080014,5745.716235,7476.080014
87263.819630,5995.668130,6128.763984,7698.141797
87263.819959,3997.112087,5056.230287,8364.327145
87263.820289,3108.864956,2528.115143,10362.883188
87263.820618,296.082377,-1072.533697,11621.233289
87263.820948,-2960.823768,-4519.963438,11251.130318
87263.821277,-3404.947333,-4979.620737,13323.706956
87263.821606,-3552.988522,-3447.429741,13989.892304
87263.821936,-3627.009116,-3524.039291,11695.253884
87263.822265,-1776.494261,-3140.991542,9474.636058
87263.822594,-1036.288319,-229.828649,8660.409521
87263.822924,1110.308913,3600.648841,6291.750507
87263.823253,5329.482782,4979.620737,5773.606348
87263.823583,7105.977043,6435.202183,7550.100608
87263.823912,4959.379811,6818.249932,8512.368333
87263.824241,3775.050304,6205.373534,8512.368333
87263.824571,2294.638420,3370.820191,9548.656652
87263.824900,-1924.535449,-612.876398,10881.027347
87263.825229,-4885.359217,-2911.162892,11325.150913
87263.825559,-4959.379811,-4443.353888,11177.109724
87263.825888,-5033.400406,-4443.353888,12657.521608
87263.826218,-5625.565159,-4443.353888,11325.150913
87263.826547,-5329.482782,-2987.772442,9770.718434
87263.826876,-2812.782580,-842.705048,8068.244768
87263.827206,370.102971,1302.362347,7105.977043
87263.827535,3108.864956,3524.039291,6587.832884
87263.827865,4811.338623,6665.030833,7328.038826
87263.828194,5995.668130,7584.345430,7624.121203
87263.828523,5255.462188,5209.449386,8142.265362
87263.828853,2294.638420,2528.115143,9844.739029
87263.829182,-1480.411884,-229.828649,10436.903782
87263.829511,-3330.926739,-2374.896044,11029.068536
87263.829841,-3256.906145,-4519.963438,12583.501014
87263.830170,-4737.318029,-5132.839837,13397.727550
87263.830500,-6661.853478,-4596.572988,10658.965565
87263.830829,-4589.276840,-3753.867940,9326.594869
87263.831158,-1036.288319,-995.924147,9474.636058
87263.831488,1628.453072,1072.533697,7994.224174
87263.831817,4441.235652,3907.087040,6143.709319
87263.832146,6809.894666,6665.030833,6439.791695
87263.832476,7105.977043,6894.859482,5773.606348
87263.832805,6809.894666,5975.544884,6587.832884
87263.833135,3034.844362,4290.134789,9474.636058
87263.833464,-592.164754,229.828649,9770.718434
87263.833793,-2294.638420,-3294.210641,9992.780217
87263.834123,-2960.823768,-5515.887586,12361.439231
87263.834452,-5995.668130,-6052.154434,13027.624579
87263.834782,-7254.018232,-4979.620737,10955.047942
87263.835111,-3775.050304,-4596.572988,9474.636058
87263.835440,-2368.659014,-2221.676944,9400.615463
87263.835770,0.000000,1378.971896,7105.977043
87263.836099,2590.720797,5362.668486,5403.503377
87263.836428,5773.606348,7431.126331,5551.544565
87263.836758,6217.729913,6511.811733,5403.503377
87263.837087,4737.318029,6052.154434,6809.894666
87263.837417,2960.823768,4519.963438,8586.388927
87263.837746,148.041188,1838.629195,9400.615463
87263.838075,-2368.659014,-2451.505594,11251.130318
87263.838405,-3478.967927,-4519.963438,12805.562797
87263.838734,-4515.256246,-4060.306139,13323.706956
87263.839063,-4145.153275,-3064.381992,11621.233289
87263.839393,-2664.741391,-2681.334243,10140.821405
87263.839722,-1998.556043,0.000000,9696.697840
87263.840052,74.020594,2221.676944,7254.018232
87263.840381,3849.070898,5362.668486,5921.647536
87263.840710,6069.688724,6665.030833,6587.832884
87263.841040,4441.235652,6358.592633,7254.018232
87263.841369,2368.659014,6052.154434,7772.162391
87263.841699,0.000000,3294.210641,9178.553681
87263.842028,-2590.720797,-1455.581446,10288.862594
87263.842357,-6069.688724,-5056.230287,11399.171507
87263.842687,-6809.894666,-5439.278036,12213.398043
87263.843016,-6217.729913,-4366.744339,13101.645173
87263.843345,-4737.318029,-4060.306139,11843.295072
87263.843675,-3108.864956,-3907.087040,10881.027347
87263.844004,-1258.350101,0.000000,8290.306550
87263.844334,3182.885551,3217.601092,6365.771101
87263.844663,6513.812290,6281.983084,6809.894666
87263.844992,7254.018232,7354.516781,7920.203579
87263.845322,6513.812290,6435.202183,7105.977043
87263.845651,4959.379811,5362.668486,8142.265362
87263.845980,2590.720797,3370.820191,10288.862594
87263.846310,-1776.494261,-1455.581446,10584.944971
87263.846639,-4737.318029,-4443.353888,10288.862594
87263.846969,-3701.029710,-6128.763984,11991.336260
87263.847298,-4663.297435,-4290.134789,13915.871710
87263.847627,-4441.235652,-2681.334243,11917.315666
87263.847957,-2368.659014,-2221.676944,9548.656652
87263.848286,148.041188,-1072.533697,7550.100608
87263.848616,2812.782580,919.314598,6217.729913
87263.848945,4737.318029,5669.106685,6513.812290
87263.849274,5921.647536,7431.126331,8290.306550
87263.849604,5403.503377,5286.058936,8512.368333
87263.849933,4515.256246,2298.286494,9400.615463
87263.850262,1406.391290,995.924147,11177.109724
87263.850592,-2368.659014,-689.485948,11473.192101
87263.850921,-3404.947333,-5362.668486,11177.109724
87263.851251,-2590.720797,-6511.811733,12879.583391
87263.851580,-3478.967927,-5439.278036,14063.912898
87263.851909,-3923.091493,-1532.190996,11177.109724
87263.852239,-962.267725,536.266849,9104.533087
87263.852568,1628.453072,1072.533697,8068.244768
87263.852897,2294.638420,2145.067394,6735.874072
87263.853227,3775.050304,5515.887586,6291.750507
87263.853556,5773.606348,7354.516781,6069.688724
87263.853886,4663.297435,5669.106685,6365.771101
87263.854215,2294.638420,2451.505594,8216.285956
87263.854544,-1184.329507,1302.362347,9844.739029
87263.854874,-4293.194464,229.828649,10436.903782
87263.855203,-5255.462188,-4060.306139,10214.842000
87263.855532,-4663.297435,-5669.106685,12583.501014
87263.855861,-5699.585753,-5209.449386,11991.336260
87263.856190,-5329.482782,-2068.457845,9770.718434
87263.856519,-1628.453072,-536.266849,8438.347739
87263.856848,444.123565,306.438199,8216.285956
87263.857178,1924.535449,2681.334243,7105.977043
87263.857507,5033.400406,5592.497135,5921.647536
87263.857836,6143.709319,7507.735880,7698.141797
87263.858165,5773.606348,4903.011187,7846.182985
87263.858494,2442.679609,2987.772442,8956.491898
87263.858823,370.102971,1072.533697,9252.574275
87263.859152,-1776.494261,-1072.533697,10288.862594
87263.859482,-2368.659014,-2987.772442,11695.253884
87263.859811,-3552.988522,-4213.525239,13323.706956
87263.860140,-4663.297435,-4366.744339,11621.233289
87263.860469,-3849.070898,-2757.943793,8808.450710
87263.860798,-1480.411884,-2221.676944,8364.327145
87263.861127,-888.247130,689.485948,7698.141797
87263.861456,1628.453072,2834.553343,6217.729913
87263.861786,4219.173869,4903.011187,5921.647536
87263.862115,5255.462188,6052.154434,7031.956449
87263.862444,4219.173869,4596.572988,7698.141797
87263.862773,2738.761985,2911.162892,6883.915261
87263.863102,962.267725,2068.457845,9104.533087
87263.863431,-2294.638420,-612.876398,11621.233289
87263.863760,-4145.153275,-3600.648841,10955.047942
87263.864090,-3701.029710,-4596.572988,11991.336260
87263.864419,-3849.070898,-3524.039291,11843.295072
87263.864748,-3701.029710,-2221.676944,10288.862594
87263.865077,-2146.597232,-1072.533697,9696.697840
87263.865406,-666.185348,459.657299,8512.368333
87263.865735,1110.308913,1378.971896,6291.750507
87263.866064,3330.926739,3447.429741,6513.812290
87263.866393,4959.379811,5515.887586,7772.162391
87263.866723,3182.885551,6052.154434,7550.100608
87263.867052,2590.720797,3524.039291,9474.636058
87263.867381,370.102971,536.266849,10881.027347
87263.867710,-2886.803174,-2068.457845,11547.212695
87263.868039,-4441.235652,-3677.258390,11325.150913
87263.868368,-3552.988522,-3983.696590,12213.398043
87263.868697,-2960.823768,-4596.572988,12879.583391
87263.869027,-3256.906145,-3370.820191,11399.171507
87263.869356,-1184.329507,-1378.971896,9474.636058
87263.869685,148.041188,1455.581446,8216.285956
87263.870014,2960.823768,1685.410096,7105.977043
87263.870343,4589.276840,2987.772442,7105.977043
87263.870672,5403.503377,5439.278036,8364.327145
87263.871001,4737.318029,5975.544884,8364.327145
87263.871331,3552.988522,3600.648841,8660.409521
87263.871660,888.247130,536.266849,11029.068536
87263.871989,-2960.823768,-2757.943793,11177.109724
87263.872318,-4515.256246,-4136.915689,10140.821405
87263.872647,-2590.720797,-4290.134789,12213.398043
87263.872976,-3627.009116,-3600.648841,13249.686362
87263.873305,-3552.988522,-2374.896044,9622.677246
87263.873635,-1406.391290,-536.266849,8364.327145
87263.873964,518.144159,1532.190996,7698.141797
87263.874293,2294.638420,2604.724693,5847.626942
87263.874622,4663.297435,4290.134789,5921.647536
87263.874951,6217.729913,6281.983084,7624.121203
87263.875280,4737.318029,6818.249932,9104.533087
87263.875609,2812.782580,4519.963438,9104.533087
87263.875939,1850.514855,1072.533697,9844.739029
87263.876268,-1924.535449,-1302.362347,11325.150913
87263.876597,-3478.967927,-3677.258390,10362.883188
87263.876926,-3923.091493,-3907.087040,12509.480420
87263.877255,-4589.276840,-3907.087040,13323.706956
87263.877584,-4737.318029,-3217.601092,11177.109724
87263.877913,-1850.514855,-1532.190996,8956.491898
87263.878243,222.061783,842.705048,7698.141797
87263.878572,2368.659014,2451.505594,6291.750507
87263.878901,4293.194464,5439.278036,5625.565159
87263.879230,5625.565159,6281.983084,7105.977043
87263.879559,4811.338623,5592.497135,7624.121203
87263.879888,2146.597232,4596.572988,8364.327145
87263.880217,-222.061783,2145.067394,9474.636058
87263.880547,-2368.659014,-1608.800546,9548.656652
87263.880876,-3034.844362,-4673.182538,11103.089130
87263.881205,-3849.070898,-4060.306139,13323.706956
87263.881534,-4885.359217,-2987.772442,12213.398043
87263.881863,-3108.864956,-3753.867940,9030.512492
87263.882192,-1628.453072,-2987.772442,8438.347739
87263.882521,-1554.432478,536.266849,7920.203579
87263.882851,592.164754,2987.772442,5847.626942
87263.883180,4811.338623,5056.230287,5255.462188
87263.883509,5921.647536,5362.668486,7920.203579
87263.883838,3775.050304,4826.401637,6883.915261
87263.884167,1702.473667,3600.648841,6883.915261
87263.884496,444.123565,1302.362347,9622.677246
87263.884825,-1184.329507,-2757.943793,11547.212695
87263.885155,-3256.906145,-4366.744339,12139.377449
87263.885484,-2664.741391,-3524.039291,12361.439231
87263.885813,-3330.926739,-3217.601092,10881.027347
87263.886142,-2516.700203,-3830.477490,9178.553681
87263.886471,-1480.411884,-2145.067394,8586.388927
87263.886800,-296.082377,1838.629195,7846.182985
87263.887129,2960.823768,2911.162892,6365.771101
87263.887459,5107.421000,4290.134789,6587.832884
87263.887788,5033.400406,5439.278036,6661.853478
87263.888117,3552.988522,4903.011187,8290.306550
87263.888446,2072.576638,4519.963438,9104.533087
87263.888775,518.144159,1302.362347,10955.047942
87263.889104,-2664.741391,-3064.381992,11251.130318
87263.889433,-4441.235652,-4673.182538,11177.109724
87263.889763,-4367.215058,-4060.306139,11843.295072
87263.890092,-4441.235652,-3983.696590,11177.109724
87263.890421,-3923.091493,-2451.505594,9548.656652
87263.890750,-2590.720797,-1608.800546,9030.512492
87263.891079,0.000000,1532.190996,7772.162391
87263.891408,1628.453072,3370.820191,6735.874072
87263.891737,3404.947333,5975.544884,7031.956449
87263.892067,4293.194464,5439.278036,7994.224174
87263.892396,3627.009116,4443.353888,8068.244768
87263.892725,2664.741391,3447.429741,8956.491898
87263.893054,-222.061783,1225.752797,11621.233289
87263.893383,-3478.967927,-1762.019645,11769.274478
87263.893712,-3849.070898,-3753.867940,11991.336260
87263.894041,-2886.803174,-4903.011187,12805.562797
87263.894371,-3997.112087,-3753.867940,12435.459826
87263.894700,-3404.947333,-2528.115143,10140.821405
87263.895029,-1258.350101,-766.095498,8586.388927
87263.895358,296.082377,995.924147,8734.430116
87263.895687,1702.473667,3140.991542,7402.059420
87263.896016,3923.091493,5439.278036,7254.018232
87263.896345,5329.482782,5362.668486,7550.100608
87263.896675,4219.173869,5209.449386,7994.224174
87263.897004,2072.576638,2911.162892,10066.800811
87263.897333,-814.226536,0.000000,10955.047942
87263.897662,-3404.947333,-2987.772442,10732.986159
87263.897991,-3182.885551,-5439.278036,11399.171507
87263.898320,-2664.741391,-4519.963438,13027.624579
87263.898649,-3330.926739,-2834.553343,11843.295072
87263.898979,-1924.535449,-2145.067394,8882.471304
87263.899308,1036.288319,-383.047749,8068.244768
87263.899637,3256.906145,1378.971896,7402.059420
87263.899966,4737.318029,4903.011187,6513.812290
87263.900295,6439.791695,7431.126331,7179.997637
87263.900624,7402.059420,6894.859482,8438.347739
87263.900953,5329.482782,4519.963438,8660.409521
87263.901283,2220.617826,2068.457845,8734.430116
87263.901612,-962.267725,383.047749,9844.739029
87263.901941,-3552.988522,-2451.505594,11029.068536
87263.902270,-4145.153275,-4826.401637,11769.274478
87263.902599,-5181.441594,-4749.792088,12287.418637
87263.902928,-5773.606348,-3524.039291,10955.047942
87263.903257,-3627.009116,-2451.505594,7920.203579
87263.903587,-814.226536,-306.438199,8808.450710
87263.903916,222.061783,1762.019645,7698.141797
87263.904245,1924.535449,4596.572988,6143.709319
87263.904574,5551.544565,6128.763984,5921.647536
87263.904903,5847.626942,5898.935335,8068.244768
87263.905232,3108.864956,4673.182538,8068.244768
87263.905561,1702.473667,3064.381992,8808.450710
87263.905891,-666.185348,536.266849,10436.903782
87263.906220,-2812.782580,-3907.087040,11843.295072
87263.906549,-5773.606348,-5669.106685,11103.089130
87263.906878,-5181.441594,-4826.401637,10807.006753
87263.907207,-4145.153275,-3294.210641,10955.047942
87263.907536,-2886.803174,-1915.238745,9548.656652
87263.907865,-1554.432478,1072.533697,7698.141797
87263.908195,740.205942,2451.505594,6513.812290
87263.908524,3330.926739,3983.696590,4219.173869
87263.908853,5107.421000,5286.058936,5181.441594
87263.909182,4663.297435,6205.373534,7698.141797
87263.909511,2960.823768,4903.011187,7624.121203
87263.909840,1480.411884,2681.334243,9326.594869
87263.910169,-1110.308913,-689.485948,11177.109724
87263.910499,-4959.379811,-4673.182538,11251.130318
87263.910828,-5995.668130,-5592.497135,11399.171507
87263.911157,-3923.091493,-5592.497135,13323.706956
87263.911486,-3478.967927,-4290.134789,12657.521608
87263.911815,-1924.535449,-2987.772442,10214.842000
87263.912144,0.000000,153.219100,8586.388927
87263.912473,2960.823768,2911.162892,6587.832884
87263.912803,5773.606348,4596.572988,6143.709319
87263.913132,6883.915261,5515.887586,7254.018232
87263.913461,6069.688724,7354.516781,8512.368333
87263.913790,3923.091493,5515.887586,8142.265362
87263.914119,1924.535449,2145.067394,9992.780217
87263.914448,-1776.494261,-1838.629195,11473.192101
87263.914777,-5847.626942,-4366.744339,10955.047942
87263.915107,-5699.585753,-5515.887586,11843.295072
87263.915436,-4737.318029,-5362.668486,12953.603985
87263.915765,-5255.462188,-3830.477490,11621.233289
87263.916094,-3552.988522,-1762.019645,9474.636058
87263.916423,-1110.308913,1532.190996,7772.162391
87263.916752,2368.659014,3600.648841,6291.750507
87263.917081,4737.318029,4749.792088,5773.606348
87263.917411,4959.379811,6971.469032,6143.709319
87263.917740,5995.668130,8197.221829,7254.018232
87263.918069,4293.194464,6358.592633,7994.224174
87263.918398,2220.617826,2681.334243,10584.944971
87263.918727,-2072.576638,-306.438199,11843.295072
87263.919056,-4515.256246,-2834.553343,11177.109724
87263.919385,-2886.803174,-4596.572988,12731.542202
87263.919715,-3182.885551,-4673.182538,13915.871710
87263.920044,-4737.318029,-2528.115143,12287.418637
87263.920373,-1776.494261,-1225.752797,9400.615463
87263.920702,1258.350101,1455.581446,9030.512492
87263.921031,2072.576638,2757.943793,7698.141797
87263.921360,2664.741391,4596.572988,6809.894666
87263.921689,4367.215058,5898.935335,7031.956449
87263.922019,3330.926739,5592.497135,8364.327145
87263.922348,814.226536,3294.210641,7550.100608
87263.922677,-1406.391290,76.609550,9178.553681
87263.923006,-4293.194464,-1762.019645,10881.027347
87263.923335,-5329.482782,-4060.306139,11621.233289
87263.923664,-5551.544565,-5745.716235,11917.315666
87263.923993,-5329.482782,-5439.278036,12287.418637
87263.924323,-3775.050304,-3677.258390,11473.192101
87263.924652,-370.102971,-1378.971896,8512.368333
87263.924981,2146.597232,1225.752797,8290.306550
87263.925310,4367.215058,2987.772442,6217.729913
87263.925639,7031.956449,5975.544884,6365.771101
87263.925968,9178.553681,8044.002729,6883.915261
87263.926297,7846.182985,6818.249932,7624.121203
87263.926627,4737.318029,4749.792088,6735.874072
87263.926956,1110.308913,1838.629195,8956.491898
87263.927285,-1702.473667,-1608.800546,10955.047942
87263.927614,-4515.256246,-4366.744339,11473.192101
87263.927943,-5551.544565,-5975.544884,12657.521608
87263.928272,-6439.791695,-6128.763984,13471.748144
87263.928601,-5551.544565,-4903.011187,10584.944971
87263.928931,-3108.864956,-2528.115143,8808.450710
87263.929260,-962.267725,-383.047749,8290.306550
87263.929589,444.123565,2374.896044,6957.935855
87263.929918,3108.864956,4749.792088,4959.379811
87263.930247,5995.668130,6052.154434,6661.853478
87263.930576,5255.462188,6435.202183,7624.121203
87263.930905,3256.906145,5132.839837,6735.874072
87263.931235,2442.679609,2374.896044,9548.656652
87263.931564,-1036.288319,-995.924147,11029.068536
87263.931893,-4885.359217,-3370.820191,11325.150913
87263.932222,-4663.297435,-5592.497135,11843.295072
87263.932551,-3182.885551,-4749.792088,12509.480420
87263.932880,-3330.926739,-2528.115143,11177.109724
87263.933209,-1850.514855,-383.047749,8956.491898
87263.933539,444.123565,1762.019645,7254.018232
87263.933868,2072.576638,2987.772442,5699.585753
87263.934197,4145.153275,5209.449386,4959.379811
87263.934526,5107.421000,7584.345430,5477.523971
87263.934855,4441.235652,7048.078582,6439.791695
87263.935184,3478.967927,4136.915689,7328.038826
87263.935513,444.123565,1685.410096,9326.594869
87263.935843,-4145.153275,-842.705048,11325.150913
87263.936172,-5847.626942,-3370.820191,11473.192101
87263.936501,-4589.276840,-5822.325785,12509.480420
87263.936830,-4737.318029,-6205.373534,12879.583391
87263.937159,-4885.359217,-4366.744339,11769.274478
87263.937488,-2812.782580,-1838.629195,9696.697840
87263.937817,0.000000,459.657299,8956.491898
87263.938147,2294.638420,2298.286494,7402.059420
87263.938476,3923.091493,3907.087040,6217.729913
87263.938805,5625.565159,6665.030833,6587.832884
87263.939134,6069.688724,7201.297681,7402.059420
87263.939463,4737.318029,4519.963438,8660.409521
87263.939792,1776.494261,2451.505594,11029.068536
87263.940121,-962.267725,-459.657299,11325.150913
87263.940451,-2812.782580,-2681.334243,11325.150913
87263.940780,-2664.741391,-4519.963438,11917.315666
87263.941109,-3478.967927,-4290.134789,13323.706956
87263.941438,-3997.112087,-2757.943793,11843.295072
87263.941767,-2368.659014,-1608.800546,8956.491898
87263.942096,0.000000,0.000000,7994.224174
87263.942425,962.267725,1455.581446,6513.812290
87263.942755,2294.638420,4290.134789,5255.462188
87263.943084,4145.153275,6052.154434,6735.874072
87263.943413,4515.256246,5745.716235,8808.450710
87263.943742,1924.535449,4290.134789,9326.594869
87263.944071,-370.102971,1532.190996,9918.759623
87263.944400,-2368.659014,-1455.581446,9474.636058
87263.944729,-4071.132681,-4213.525239,10066.800811
87263.945059,-5403.503377,-4519.963438,13397.727550
87263.945388,-4663.297435,-3753.867940,14582.057057
87263.945717,-4441.235652,-2681.334243,12361.439231
87263.946046,-1924.535449,-3447.429741,9696.697840
87263.946375,-592.164754,-1532.190996,8956.491898
87263.946704,1110.308913,1608.800546,6365.771101
87263.947033,4663.297435,4903.011187,6217.729913
87263.947363,7105.977043,6818.249932,7846.182985
87263.947692,6143.709319,6205.373534,9104.533087
87263.948021,3034.844362,4903.011187,8364.327145
87263.948350,1776.494261,2834.553343,9030.512492
87263.948679,-1480.411884,-995.924147,10732.986159
87263.949008,-4441.235652,-5056.230287,11029.068536
87263.949337,-4737.318029,-6588.421283,12139.377449
87263.949667,-4515.256246,-3064.381992,12583.501014
87263.949996,-4441.235652,-3447.429741,11177.109724
87263.950325,-3849.070898,-2451.505594,8808.450710
87263.950654,-1628.453072,-919.314598,7179.997637
87263.950983,962.267725,1455.581446,5403.503377
87263.951312,4293.194464,4366.744339,5329.482782
87263.951641,6809.894666,6818.249932,7476.080014
87263.951971,5255.462188,7584.345430,8512.368333
87263.952300,4663.297435,5592.497135,7624.121203
87263.952629,2886.803174,2221.676944,8660.409521
87263.952958,296.082377,-1072.533697,10214.842000
87263.953287,-3478.967927,-2987.772442,11991.336260
87263.953616,-4737.318029,-3983.696590,13101.645173
87263.953946,-3923.091493,-5209.449386,13027.624579
87263.954275,-3478.967927,-5669.106685,10066.800811
87263.954604,-2368.659014,-2911.162892,8438.347739
87263.954933,-888.247130,1915.238745,7772.162391
87263.955263,1776.494261,4060.306139,6513.812290
87263.955592,3775.050304,4290.134789,5477.523971
87263.955921,4367.215058,4826.401637,6365.771101
87263.956250,4071.132681,6665.030833,5773.606348
87263.956580,4219.173869,7354.516781,7031.956449
87263.956909,2886.803174,4443.353888,9918.759623
87263.957238,-2072.576638,0.000000,11547.212695
87263.957567,-5107.421000,-4060.306139,10140.821405
87263.957897,-3478.967927,-5056.230287,10732.986159
87263.958226,-2960.823768,-4060.306139,12657.521608
87263.958555,-3775.050304,-2451.505594,11103.089130
87263.958884,-2294.638420,-306.438199,8734.430116
87263.959214,814.226536,1302.362347,8216.285956
87263.959543,2294.638420,1915.238745,7772.162391
87263.959872,3775.050304,4979.620737,6661.853478
87263.960201,5625.565159,7124.688131,6513.812290
87263.960531,5995.668130,6588.421283,7179.997637
87263.960860,3775.050304,4060.306139,8956.491898
87263.961189,1036.288319,1838.629195,10584.944971
87263.961518,-3256.906145,-766.095498,10288.862594
87263.961848,-5403.503377,-4596.572988,10140.821405
87263.962177,-5107.421000,-6818.249932,12213.398043
87263.962506,-5995.668130,-5745.716235,12731.542202
87263.962835,-6661.853478,-3600.648841,11325.150913
87263.963165,-3404.947333,-2145.067394,9918.759623
87263.963494,0.000000,-1685.410096,9326.594869
87263.963823,1702.473667,536.266849,7031.956449
87263.964152,4737.318029,4443.353888,5847.626942
87263.964482,7254.018232,8044.002729,7476.080014
87263.964811,7402.059420,7354.516781,8882.471304
87263.965140,5107.421000,4366.744339,9104.533087
87263.965469,2442.679609,2298.286494,9474.636058
87263.965799,0.000000,-766.095498,10288.862594
87263.966128,-2368.659014,-2987.772442,11399.171507
87263.966457,-3478.967927,-5132.839837,13249.686362
87263.966786,-5255.462188,-5362.668486,13693.809927
87263.967116,-5033.400406,-5056.230287,10658.965565
87263.967445,-2886.803174,-2757.943793,9104.533087
87263.967774,-814.226536,536.266849,8882.471304
87263.968103,444.123565,2604.724693,6735.874072
87263.968433,2812.782580,4060.306139,6143.709319
87263.968762,5181.441594,5669.106685,7772.162391
87263.969091,4515.256246,6281.983084,8660.409521
87263.969420,3256.906145,4903.011187,8290.306550
87263.969750,1480.411884,2604.724693,9992.780217
87263.970079,-1406.391290,-1149.143247,10732.986159
87263.970408,-3256.906145,-3830.477490,10658.965565
87263.970737,-3627.009116,-4749.792088,13027.624579
87263.971067,-4737.318029,-3600.648841,13323.706956
87263.971396,-4293.194464,-3447.429741,10288.862594
87263.971725,-2738.761985,-2374.896044,10288.862594
87263.972054,-1184.329507,76.609550,9918.759623
87263.972384,962.267725,1838.629195,7105.977043
87263.972713,4293.194464,4443.353888,5699.585753
87263.973042,6809.894666,5209.449386,7179.997637
87263.973371,4515.256246,6741.640382,7179.997637
87263.973701,2812.782580,6358.592633,7031.956449
87263.974030,1406.391290,3677.258390,9622.677246
87263.974359,-2146.597232,-1685.410096,10584.944971
87263.974688,-5847.626942,-4290.134789,9474.636058
87263.975018,-4663.297435,-5056.230287,9918.759623
87263.975347,-4071.132681,-4136.915689,12287.418637
87263.975676,-4293.194464,-3294.210641,11917.315666
87263.976005,-3034.844362,-2221.676944,10288.862594
87263.976335,-148.041188,153.219100,8882.471304
87263.976664,2664.741391,2374.896044,6883.915261
87263.976993,5477.523971,4596.572988,5921.647536
87263.977322,6661.853478,6511.811733,6809.894666
87263.977652,5625.565159,7354.516781,7698.141797
87263.977981,4367.215058,5362.668486,8216.285956
87263.978310,1998.556043,1838.629195,9326.594869
87263.978639,-1850.514855,-1762.019645,9770.718434
87263.978969,-4589.276840,-3983.696590,10288.862594
87263.979298,-3923.091493,-4673.182538,11917.315666
87263.979627,-4145.153275,-4979.620737,12805.562797
87263.979956,-4515.256246,-4443.353888,11029.068536
87263.980286,-2886.803174,-2911.162892,8956.491898
87263.980615,-222.061783,383.047749,7698.141797
87263.980944,2664.741391,2604.724693,5995.668130
87263.981273,4589.276840,4826.401637,5995.668130
87263.981603,5403.503377,6971.469032,7254.018232
87263.981932,5773.606348,6128.763984,7105.977043
87263.982261,4885.359217,3524.039291,6439.791695
87263.982590,1850.514855,1378.971896,8734.430116
87263.982920,-2442.679609,-383.047749,10584.944971
87263.983249,-4145.153275,-2374.896044,11621.233289
87263.983578,-2664.741391,-4443.353888,13989.892304
87263.983907,-4367.215058,-6205.373534,13397.727550
87263.984237,-5477.523971,-5056.230287,9326.594869
87263.984566,-2738.761985,-1915.238745,7624.121203
87263.984895,-444.123565,842.705048,8660.409521
87263.985224,1184.329507,2374.896044,7994.224174
87263.985554,2294.638420,4519.963438,7105.977043
87263.985883,4219.173869,5745.716235,6587.832884
87263.986212,3775.050304,5515.887586,6957.935855
87263.986541,1998.556043,2911.162892,8364.327145
87263.986871,0.000000,459.657299,10140.821405
87263.987200,-2664.741391,-1685.410096,11399.171507
87263.987529,-3997.112087,-4290.134789,12139.377449
87263.987858,-3775.050304,-4290.134789,13619.789333
87263.988188,-3256.906145,-3294.210641,12583.501014
87263.988517,-2960.823768,-2068.457845,9548.656652
87263.988846,-518.144159,0.000000,8438.347739
87263.989175,1924.535449,1378.971896,8586.388927
87263.989505,2960.823768,3370.820191,7105.977043
87263.989834,4219.173869,5209.449386,5921.647536
87263.990163,5033.400406,5975.544884,6587.832884
87263.990492,4293.194464,5669.106685,7994.224174
87263.990822,1924.535449,4366.744339,8734.430116
87263.991151,222.061783,1608.800546,10288.862594
87263.991480,-3182.885551,-2757.943793,10732.986159
87263.991809,-5477.523971,-5132.839837,11325.150913
87263.992139,-5477.523971,-4826.401637,12583.501014
87263.992468,-4515.256246,-3524.039291,12583.501014
87263.992797,-2738.761985,-2604.724693,10807.006753
87263.993126,-666.185348,-995.924147,10066.800811
87263.993456,592.164754,1378.971896,8438.347739
87263.993785,3182.885551,3524.039291,7624.121203
87263.994114,5033.400406,5132.839837,7476.080014
87263.994443,5921.647536,5592.497135,8364.327145
87263.994773,5181.441594,5515.887586,8142.265362
87263.995102,4515.256246,4213.525239,8808.450710
87263.995431,1406.391290,2068.457845,11177.109724
87263.995760,-1850.514855,-612.876398,10658.965565
87263.996090,-3404.947333,-3753.867940,10881.027347
87263.996419,-3108.864956,-3983.696590,11917.315666
87263.996748,-2960.823768,-2757.943793,11547.212695
87263.997077,-2368.659014,-1608.800546,9770.718434
87263.997407,-1184.329507,-306.438199,8216.285956
87263.997736,-962.267725,1225.752797,6809.894666
87263.998065,1036.288319,2145.067394,6587.832884
87263.998394,2738.761985,4136.915689,6291.750507
87263.998724,3256.906145,5286.058936,7402.059420
87263.999053,1850.514855,4443.353888,7772.162391
87263.999382,592.164754,2451.505594,9030.512492
87263.999711,-1184.329507,0.000000,10584.944971
87264.000041,-3997.112087,-2374.896044,11103.089130
87264.000370,-5033.400406,-4213.525239,10436.903782
87264.000699,-4441.235652,-4903.011187,11843.295072
87264.001028,-4145.153275,-3983.696590,12731.542202
87264.001358,-3775.050304,-2374.896044,10732.986159
87264.001687,-1776.494261,-995.924147,8808.450710
87264.002016,518.144159,-76.609550,7994.224174
87264.002345,2072.576638,1225.752797,6439.791695
87264.002675,3997.112087,3983.696590,5625.565159
87264.003004,4367.215058,5515.887586,7254.018232
87264.003333,4145.153275,4673.182538,7624.121203
87264.003662,3182.885551,2987.772442,8734.430116
87264.003992,592.164754,1225.752797,9770.718434
87264.004321,-2072.576638,-919.314598,9770.718434
87264.004650,-3182.885551,-2911.162892,9918.759623
87264.004979,-2812.782580,-5132.839837,11547.212695
87264.005309,-3775.050304,-4290.134789,12065.356855
87264.005638,-3330.926739,-2604.724693,9844.739029
87264.005967,-1036.288319,-1225.752797,8290.306550
87264.006296,666.185348,-229.828649,7994.224174
87264.006626,2146.597232,1149.143247,6587.832884
87264.006955,3775.050304,4596.572988,6217.729913
87264.007284,6143.709319,6435.202183,7476.080014
87264.007613,5477.523971,5745.716235,7920.203579
87264.007943,3330.926739,4136.915689,8438.347739
87264.008272,1036.288319,2221.676944,9474.636058
87264.008601,-1332.370696,0.000000,10362.883188
87264.008930,-1332.370696,-2451.505594,10584.944971
87264.009260,-2220.617826,-3447.429741,12213.398043
87264.009589,-3182.885551,-2374.896044,11769.274478
87264.009918,-2368.659014,-1225.752797,10066.800811
87264.010247,-222.061783,76.609550,9622.677246
87264.010577,0.000000,766.095498,8512.368333
87264.010906,592.164754,2528.115143,5403.503377
87264.011235,4219.173869,4596.572988,5995.668130
87264.011564,5255.462188,6435.202183,9030.512492
87264.011894,2738.761985,6588.421283,8142.265362
87264.012223,1628.453072,4596.572988,8586.388927
87264.012552,0.000000,919.314598,9770.718434
87264.012881,-3034.844362,-1378.971896,10066.800811
87264.013211,-4663.297435,-2298.286494,10362.883188
87264.013540,-4885.359217,-3217.601092,11547.212695
87264.013869,-4811.338623,-4213.525239,11991.336260
87264.014198,-4071.132681,-3140.991542,10732.986159
87264.014528,-2442.679609,-383.047749,10288.862594
87264.014857,-814.226536,1455.581446,8068.244768
87264.015186,1406.391290,1762.019645,6661.853478
87264.015515,4219.173869,3677.258390,7105.977043
87264.015845,4737.318029,5669.106685,8660.409521
87264.016174,3034.844362,6665.030833,8068.244768
87264.016503,3256.906145,3830.477490,9844.739029
87264.016832,1036.288319,459.657299,10658.965565
87264.017162,-2146.597232,-2068.457845,11029.068536
87264.017491,-3775.050304,-2987.772442,11473.192101
87264.017820,-3627.009116,-3677.258390,12213.398043
87264.018149,-3775.050304,-5056.230287,12287.418637
87264.018479,-2886.803174,-4136.915689,9844.739029
87264.018808,-1480.411884,-1762.019645,8660.409521
87264.019137,0.000000,919.314598,8364.327145
87264.019466,2516.700203,1455.581446,7698.141797
87264.019796,5255.462188,3140.991542,7920.203579
87264.020125,6069.688724,4443.353888,8734.430116
87264.020454,4959.379811,3907.087040,8068.244768
87264.020783,3775.050304,2681.334243,8808.450710
87264.021113,444.123565,229.828649,10288.862594
87264.021442,-3256.906145,-2911.162892,11473.192101
87264.021771,-3849.070898,-5362.668486,11251.130318
87264.022100,-3627.009116,-5286.058936,12361.439231
87264.022430,-4589.276840,-5209.449386,12213.398043
87264.022759,-4293.194464,-3447.429741,9918.759623
87264.023088,-2664.741391,-1302.362347,8438.347739
87264.023417,-296.082377,-153.219100,7920.203579
87264.023747,2220.617826,1378.971896,6365.771101
87264.024076,3923.091493,5209.449386,6809.894666
87264.024405,4737.318029,7584.345430,7846.182985
87264.024734,4293.194464,6588.421283,7772.162391
87264.025064,1998.556043,3830.477490,9104.533087
87264.025393,-370.102971,1149.143247,10288.862594
87264.025722,-3404.947333,-1991.848295,9030.512492
87264.026051,-2590.720797,-4443.353888,8956.491898
87264.026381,-3478.967927,-2987.772442,13545.768739
87264.026710,-4737.318029,-766.095498,12657.521608
87264.027039,-3478.967927,229.828649,8586.388927
87264.027368,222.061783,-306.438199,7476.080014
87264.027698,592.164754,1608.800546,7031.956449
87264.028027,1554.432478,5439.278036,5921.647536
87264.028356,4219.173869,8044.002729,6587.832884
87264.028685,5181.441594,6894.859482,7624.121203
87264.029015,2072.576638,3524.039291,7550.100608
87264.029344,-296.082377,2681.334243,8438.347739
87264.029673,-2442.679609,1915.238745,9770.718434
87264.030003,-4589.276840,-1608.800546,10140.821405
87264.030332,-5329.482782,-5669.106685,11399.171507
87264.030661,-5255.462188,-6052.154434,12065.356855
87264.030990,-4737.318029,-3447.429741,9992.780217
87264.031320,-2516.700203,-1302.362347,9104.533087
87264.031649,296.082377,842.705048,9326.594869
87264.031978,2516.700203,2298.286494,9548.656652
87264.032307,4219.173869,4366.744339,7031.956449
87264.032637,7105.977043,5975.544884,7105.977043
87264.032966,7920.203579,5669.106685,7698.141797
87264.033295,5847.626942,4290.134789,7994.224174
87264.033624,3552.988522,2987.772442,9178.553681
87264.033954,518.144159,766.095498,10584.944971
87264.034283,-2368.659014,-1915.238745,11621.233289
87264.034612,-3108.864956,-5975.544884,11843.295072
87264.034941,-4367.215058,-5898.935335,11251.130318
87264.035271,-4293.194464,-4673.182538,9992.780217
87264.035600,-2664.741391,-2757.943793,9178.553681
87264.035929,-888.247130,0.000000,8808.450710
87264.036258,296.082377,2145.067394,8660.409521
87264.036588,2664.741391,3447.429741,6217.729913
87264.036917,4959.379811,5132.839837,6217.729913
87264.037246,4959.379811,5286.058936,7402.059420
87264.037575,3330.926739,4596.572988,7994.224174
87264.037905,2368.659014,2757.943793,9252.574275
87264.038234,148.041188,-536.266849,11177.109724
87264.038563,-3330.926739,-3217.601092,11843.295072
87264.038892,-4737.318029,-4366.744339,10510.924376
87264.039222,-3552.988522,-4366.744339,12213.398043
87264.039551,-3923.091493,-3524.039291,12879.583391
87264.039880,-3404.947333,-2145.067394,11547.212695
87264.040209,-1628.453072,459.657299,9918.759623
87264.040539,1110.308913,1455.581446,7772.162391
87264.040868,3034.844362,2987.772442,6143.709319
87264.041197,3478.967927,5975.544884,7624.121203
87264.041526,3997.112087,6588.421283,8364.327145
87264.041856,2516.700203,5669.106685,8660.409521
87264.042185,814.226536,2451.505594,9326.594869
87264.042514,-2146.597232,-842.705048,10436.903782
87264.042843,-5477.523971,-2221.676944,9548.656652
87264.043173,-6217.729913,-4903.011187,10214.842000
87264.043502,-5033.400406,-4596.572988,13249.686362
87264.043831,-4663.297435,-3983.696590,12879.583391
87264.044160,-3923.091493,-2068.457845,10658.965565
87264.044490,-814.226536,536.266849,8586.388927
87264.044819,1628.453072,1838.629195,6661.853478
87264.045148,4293.194464,4213.525239,6735.874072
87264.045477,6365.771101,5592.497135,7402.059420
87264.045807,6513.812290,7967.393179,7698.141797
87264.046136,5625.565159,5439.278036,7402.059420
87264.046465,3108.864956,2528.115143,8956.491898
87264.046794,-222.061783,383.047749,9400.615463
87264.047124,-3034.844362,-2298.286494,10066.800811
87264.047453,-3108.864956,-4979.620737,11325.150913
87264.047782,-3108.864956,-5669.106685,13027.624579
87264.048111,-4071.132681,-4136.915689,11991.336260
87264.048441,-2146.597232,-2221.676944,9622.677246
87264.048770,-592.164754,-383.047749,8808.450710
87264.049099,1036.288319,612.876398,7105.977043
87264.049428,3108.864956,2681.334243,7550.100608
87264.049758,5107.421000,5362.668486,7328.038826
87264.050087,5551.544565,5286.058936,7624.121203
87264.050416,3404.947333,4213.525239,7772.162391
87264.050745,1554.432478,1532.190996,9030.512492
87264.051075,-1480.411884,-689.485948,10214.842000
87264.051404,-3108.864956,-3753.867940,10436.903782
87264.051733,-3552.988522,-5056.230287,11769.274478
87264.052062,-3330.926739,-3983.696590,13471.748144
87264.052392,-3552.988522,-2145.067394,10436.903782
87264.052721,-444.123565,-1532.190996,7624.121203
87264.053050,1406.391290,306.438199,8142.265362
87264.053379,1924.535449,3217.601092,7772.162391
87264.053709,3701.029710,5439.278036,5847.626942
87264.054038,5403.503377,6128.763984,6439.791695
87264.054367,4737.318029,4903.011187,7698.141797
87264.054696,1332.370696,3907.087040,7254.018232
87264.055026,-296.082377,3524.039291,7624.121203
87264.055355,-2072.576638,-766.095498,9918.759623
87264.055684,-5625.565159,-3983.696590,11621.233289
87264.056013,-6587.832884,-4979.620737,11029.068536
87264.056342,-5847.626942,-3983.696590,11177.109724
87264.056671,-4293.194464,-4366.744339,9918.759623
87264.057001,-2960.823768,-1991.848295,9548.656652
87264.057330,-1554.432478,1072.533697,9030.512492
87264.057659,740.205942,2757.943793,8068.244768
87264.057988,3034.844362,3294.210641,6291.750507
87264.058317,5403.503377,4673.182538,7476.080014
87264.058646,4959.379811,5669.106685,8068.244768
87264.058975,3182.885551,6128.763984,8512.368333
87264.059305,2220.617826,2374.896044,9696.697840
87264.059634,-740.205942,-995.924147,11325.150913
87264.059963,-3330.926739,-3294.210641,10362.883188
87264.060292,-3182.885551,-3524.039291,11325.150913
87264.060621,-2590.720797,-2681.334243,12361.439231
87264.060950,-2590.720797,-2451.505594,10732.986159
87264.061279,-1110.308913,-1532.190996,9178.553681
87264.061609,0.000000,153.219100,8364.327145
87264.061938,1332.370696,2757.943793,6809.894666
87264.062267,3478.967927,4136.915689,5921.647536
87264.062596,4811.338623,4596.572988,7254.018232
87264.062925,3849.070898,4519.963438,8068.244768
87264.063254,2886.803174,3830.477490,8882.471304
87264.063583,1924.535449,2145.067394,9918.759623
87264.063913,-1554.432478,-689.485948,10955.047942
87264.064242,-4145.153275,-3983.696590,11325.150913
87264.064571,-3330.926739,-4826.401637,11769.274478
87264.064900,-2886.803174,-3830.477490,12213.398043
87264.065229,-3108.864956,-2757.943793,11769.274478
87264.065558,-1924.535449,-995.924147,10140.821405
87264.065887,148.041188,766.095498,9474.636058
87264.066217,1702.473667,2451.505594,7550.100608
87264.066546,2812.782580,2987.772442,7031.956449
87264.066875,3627.009116,4060.306139,6957.935855
87264.067204,3997.112087,4826.401637,7846.182985
87264.067533,3330.926739,4596.572988,8956.491898
87264.067862,2072.576638,2221.676944,9844.739029
87264.068192,-1480.411884,153.219100,10436.903782
87264.068521,-3108.864956,-2604.724693,10658.965565
87264.068850,-1924.535449,-4443.353888,12065.356855
87264.069179,-2664.741391,-3447.429741,12953.603985
87264.069508,-3330.926739,-2757.943793,11399.171507
87264.069837,-2516.700203,-1762.019645,9548.656652
87264.070166,0.000000,-383.047749,8734.430116
87264.070496,888.247130,1455.581446,7994.224174
87264.070825,1702.473667,3370.820191,5921.647536
87264.071154,3256.906145,4519.963438,6513.812290
87264.071483,3701.029710,5209.449386,8142.265362
87264.071812,2442.679609,4596.572988,7846.182985
87264.072141,0.000000,2834.553343,9400.615463
87264.072470,-1628.453072,-229.828649,10066.800811
87264.072800,-3627.009116,-3064.381992,9696.697840
87264.073129,-4219.173869,-3370.820191,10955.047942
87264.073458,-3923.091493,-2451.505594,11917.315666
87264.073787,-4145.153275,-1915.238745,10510.924376
87264.074116,-1776.494261,-1608.800546,8734.430116
87264.074445,74.020594,0.000000,8734.430116
87264.074774,518.144159,1991.848295,7031.956449
87264.075104,2886.803174,4060.306139,6661.853478
87264.075433,5847.626942,5362.668486,8290.306550
87264.075762,5329.482782,5669.106685,8882.471304
87264.076091,3478.967927,4826.401637,8438.347739
87264.076420,1406.391290,2451.505594,9104.533087
87264.076749,-666.185348,-459.657299,9400.615463
87264.077078,-1924.535449,-3370.820191,10066.800811
87264.077408,-2368.659014,-4060.306139,10955.047942
87264.077737,-2442.679609,-3140.991542,11843.295072
87264.078066,-2960.823768,-1532.190996,10214.842000
87264.078395,-1406.391290,-1302.362347,8364.327145
87264.078724,-814.226536,229.828649,7624.121203
87264.079053,148.041188,842.705048,6217.729913
87264.079382,2442.679609,2451.505594,6217.729913
87264.079712,4441.235652,5132.839837,8438.347739
87264.080041,3256.906145,4826.401637,9030.512492
87264.080370,962.267725,3447.429741,8956.491898
87264.080699,296.082377,842.705048,9548.656652
87264.081028,-1850.514855,-2298.286494,10510.924376
87264.081357,-4515.256246,-4443.353888,10510.924376
87264.081686,-4737.318029,-4903.011187,11251.130318
87264.082016,-3701.029710,-3753.867940,11473.192101
87264.082345,-2072.576638,-1915.238745,10288.862594
87264.082674,-962.267725,-1302.362347,9178.553681
87264.083003,-148.041188,995.924147,7698.141797
87264.083332,2220.617826,2681.334243,7105.977043
87264.083661,4811.338623,3983.696590,7328.038826
87264.083991,5329.482782,4903.011187,8364.327145
87264.084320,5033.400406,4979.620737,8808.450710
87264.084649,4293.194464,3677.258390,8216.285956
87264.084978,2072.576638,2681.334243,9474.636058
87264.085307,-1184.329507,-995.924147,10658.965565
87264.085636,-3923.091493,-3907.087040,11103.089130
87264.085965,-4145.153275,-4596.572988,11251.130318
87264.086295,-3701.029710,-4136.915689,12287.418637
87264.086624,-4219.173869,-2911.162892,11177.109724
87264.086953,-3108.864956,-1149.143247,8364.327145
87264.087282,-962.267725,0.000000,8512.368333
87264.087611,1406.391290,2145.067394,7994.224174
87264.087940,2590.720797,4366.744339,7624.121203
87264.088269,4293.194464,5822.325785,8512.368333
87264.088599,4589.276840,5439.278036,8142.265362
87264.088928,2812.782580,4519.963438,8438.347739
87264.089257,1258.350101,1532.190996,10436.903782
87264.089586,-1998.556043,-306.438199,11473.192101
87264.089915,-3775.050304,-3524.039291,11325.150913
87264.090244,-3256.906145,-4673.182538,12287.418637
87264.090573,-3330.926739,-3217.601092,11991.336260
87264.090903,-3404.947333,-1762.019645,9992.780217
87264.091232,-1702.473667,0.000000,8142.265362
87264.091561,814.226536,2528.115143,8808.450710
87264.091890,2368.659014,3524.039291,6513.812290
87264.092219,3330.926739,5592.497135,6587.832884
87264.092548,5477.523971,6435.202183,7550.100608
87264.092877,5477.523971,6052.154434,8586.388927
87264.093207,2516.700203,4366.744339,8808.450710
87264.093536,0.000000,1378.971896,10214.842000
87264.093865,-2812.782580,-1225.752797,11399.171507
87264.094194,-4219.173869,-4596.572988,10658.965565
87264.094523,-4811.338623,-5209.449386,11695.253884
87264.094852,-5625.565159,-4826.401637,11325.150913
87264.095181,-4293.194464,-3217.601092,9474.636058
87264.095511,-1924.535449,-842.705048,9252.574275
87264.095840,370.102971,689.485948,9030.512492
87264.096169,1184.329507,2528.115143,7179.997637
87264.096498,2886.803174,3983.696590,6809.894666
87264.096827,5921.647536,4826.401637,8142.265362
87264.097156,4959.379811,4826.401637,8586.388927
87264.097486,2960.823768,3524.039291,9178.553681
87264.097815,1628.453072,1378.971896,11325.150913
87264.098144,-222.061783,-2298.286494,10955.047942
87264.098473,-2368.659014,-4826.401637,10214.842000
87264.098802,-3182.885551,-4443.353888,11177.109724
87264.099131,-3034.844362,-3677.258390,11029.068536
87264.099460,-1628.453072,-2221.676944,9918.759623
87264.099790,592.164754,-1302.362347,8882.471304
87264.100119,1258.350101,1378.971896,7994.224174
87264.100448,1924.535449,3140.991542,6143.709319
87264.100777,4293.194464,4519.963438,5921.647536
87264.101106,5329.482782,4826.401637,7846.182985
87264.101435,2812.782580,4136.915689,8364.327145
87264.101764,1258.350101,3524.039291,8290.306550
87264.102094,222.061783,766.095498,8808.450710
87264.102423,-2590.720797,-2604.724693,9918.759623
87264.102752,-6069.688724,-4060.306139,10288.862594
87264.103081,-6439.791695,-3907.087040,10288.862594
87264.103410,-5329.482782,-3294.210641,10955.047942
87264.103739,-3849.070898,-3677.258390,10436.903782
87264.104068,-2812.782580,-2298.286494,8882.471304
87264.104398,-1554.432478,1378.971896,8586.388927
87264.104727,1998.556043,4519.963438,7698.141797
87264.105056,4737.318029,4596.572988,8216.285956
87264.105385,4663.297435,4596.572988,7994.224174
87264.105714,4071.132681,4826.401637,7920.203579
87264.106043,2960.823768,5132.839837,7698.141797
87264.106372,1184.329507,2145.067394,9696.697840
87264.106702,-2146.597232,-2145.067394,9918.759623
87264.107031,-3849.070898,-3294.210641,9918.759623
87264.107360,-3404.947333,-2451.505594,11399.171507
87264.107689,-3182.885551,-1532.190996,11251.130318
87264.108018,-3701.029710,-2451.505594,9178.553681
87264.108347,-2960.823768,-2068.457845,8438.347739
87264.108676,-740.205942,1072.533697,8290.306550
87264.109006,1332.370696,3524.039291,7476.080014
87264.109335,2812.782580,4749.792088,7476.080014
87264.109664,3552.988522,4136.915689,7624.121203
87264.109993,3478.967927,3753.867940,7550.100608
87264.110322,2516.700203,2987.772442,8438.347739
87264.110651,444.123565,1225.752797,10658.965565
87264.110981,-2146.597232,-1762.019645,11251.130318
87264.111310,-2590.720797,-4213.525239,11177.109724
87264.111639,-2368.659014,-4290.134789,11473.192101
87264.111968,-1850.514855,-3064.381992,11769.274478
87264.112297,-814.226536,-919.314598,11547.212695
87264.112626,1554.432478,612.876398,10140.821405
87264.112955,3552.988522,1225.752797,9252.574275
87264.113285,3775.050304,2145.067394,7476.080014
87264.113614,4145.153275,4290.134789,7402.059420
87264.113943,5625.565159,5975.544884,8956.491898
87264.114272,5033.400406,5286.058936,9770.718434
87264.114601,2664.741391,2757.943793,9474.636058
87264.114930,-592.164754,-766.095498,9474.636058
87264.115259,-3404.947333,-2757.943793,9400.615463
87264.115589,-3923.091493,-3983.696590,10584.944971
87264.115918,-3627.009116,-4060.306139,11991.336260
87264.116247,-2960.823768,-2834.553343,11843.295072
87264.116576,-1702.473667,-1072.533697,10510.924376
87264.116905,0.000000,76.609550,8734.430116
87264.117234,518.144159,2298.286494,8364.327145
87264.117563,1850.514855,2604.724693,6661.853478
87264.117893,3330.926739,3983.696590,6883.915261
87264.118222,4219.173869,5209.449386,7846.182985
87264.118551,2590.720797,5209.449386,9252.574275
87264.118880,1258.350101,3524.039291,8882.471304
87264.119209,-1702.473667,612.876398,9474.636058
87264.119538,-5033.400406,-2604.724693,10584.944971
87264.119867,-5773.606348,-4060.306139,10955.047942
87264.120197,-4219.173869,-3983.696590,10732.986159
87264.120526,-3849.070898,-2374.896044,11251.130318
87264.120855,-3034.844362,-689.485948,9474.636058
87264.121184,-1924.535449,766.095498,8734.430116
87264.121513,148.041188,1991.848295,8142.265362
87264.121842,1850.514855,2374.896044,7328.038826
87264.122171,3775.050304,3447.429741,6957.935855
87264.122501,4589.276840,5286.058936,7994.224174
87264.122830,3552.988522,5822.325785,9252.574275
87264.123159,1406.391290,3677.258390,8734.430116
87264.123488,-518.144159,-536.266849,9178.553681
87264.123817,-2738.761985,-3600.648841,9474.636058
87264.124146,-3478.967927,-4366.744339,10140.821405
87264.124476,-2960.823768,-2757.943793,11917.315666
87264.124805,-2368.659014,-2451.505594,11473.192101
87264.125134,-1332.370696,-3064.381992,9252.574275
87264.125463,-666.185348,-1378.971896,7105.977043
87264.125792,1184.329507,306.438199,7328.038826
87264.126121,3108.864956,3983.696590,7550.100608
87264.126450,4811.338623,4290.134789,8068.244768
87264.126780,4811.338623,4443.353888,8364.327145
87264.127109,3701.029710,3294.210641,7772.162391
87264.127438,2442.679609,2068.457845,8586.388927
87264.127767,0.000000,536.266849,10214.842000
87264.128096,-1554.432478,-2987.772442,10362.883188
87264.128425,-3108.864956,-3753.867940,11029.068536
87264.128754,-3108.864956,-4213.525239,11991.336260
87264.129084,-2812.782580,-2451.505594,11991.336260
87264.129413,-1480.411884,-2145.067394,9548.656652
87264.129742,-296.082377,-1225.752797,8882.471304
87264.130071,666.185348,1302.362347,8142.265362
87264.130400,2812.782580,3294.210641,7105.977043
87264.130729,4737.318029,5056.230287,7105.977043
87264.131058,4663.297435,5592.497135,6587.832884
87264.131388,3108.864956,4443.353888,7105.977043
87264.131717,1332.370696,4136.915689,8586.388927
87264.132046,-1776.494261,2068.457845,9992.780217
87264.132375,-5107.421000,-1991.848295,10584.944971
87264.132704,-5773.606348,-5669.106685,10362.883188
87264.133033,-5403.503377,-5898.935335,11251.130318
87264.133362,-4885.359217,-3753.867940,11769.274478
87264.133692,-3997.112087,-689.485948,10214.842000
87264.134021,-1998.556043,459.657299,8734.430116
87264.134350,222.061783,842.705048,8216.285956
87264.134679,1480.411884,2987.772442,7254.018232
87264.135008,2146.597232,6358.592633,6735.874072
87264.135337,4811.338623,6511.811733,8142.265362
87264.135666,4293.194464,4749.792088,8956.491898
87264.135996,1480.411884,1915.238745,9844.739029
87264.136325,-296.082377,-536.266849,11325.150913
87264.136654,-2590.720797,-1991.848295,12139.377449
87264.136983,-3330.926739,-3600.648841,12583.501014
87264.137312,-2368.659014,-4290.134789,12657.521608
87264.137641,-3108.864956,-3677.258390,10584.944971
87264.137971,-1480.411884,-1915.238745,9474.636058
87264.138300,814.226536,536.266849,8808.450710
87264.138629,2516.700203,2681.334243,8216.285956
87264.138958,3256.906145,3983.696590,7105.977043
87264.139287,4589.276840,5132.839837,6661.853478
87264.139616,5773.606348,5745.716235,8216.285956
87264.139945,3997.112087,5209.449386,8734.430116
87264.140275,1184.329507,2145.067394,8438.347739
87264.140604,-222.061783,-689.485948,9918.759623
87264.140933,-1924.535449,-2987.772442,11029.068536
87264.141262,-3404.947333,-3447.429741,11695.253884
87264.141591,-3923.091493,-3907.087040,12213.398043
87264.141920,-3997.112087,-3983.696590,12065.356855
87264.142249,-2368.659014,-2757.943793,9696.697840
87264.142579,-370.102971,-1072.533697,9178.553681
87264.142908,518.144159,1455.581446,7624.121203
87264.143237,2368.659014,2987.772442,6883.915261
87264.143566,4589.276840,4673.182538,7994.224174
87264.143895,4959.379811,6281.983084,8956.491898
87264.144224,3701.029710,5975.544884,8882.471304
87264.144553,2886.803174,3064.381992,9474.636058
87264.144883,1036.288319,536.266849,10066.800811
87264.145212,-2368.659014,-1532.190996,10584.944971
87264.145541,-3849.070898,-3907.087040,10140.821405
87264.145870,-3552.988522,-4443.353888,11029.068536
87264.146199,-3552.988522,-2604.724693,11103.089130
87264.146528,-1776.494261,-1915.238745,9622.677246
87264.146857,-1110.308913,536.266849,8068.244768
87264.147187,74.020594,1608.800546,6957.935855
87264.147516,2294.638420,2451.505594,6291.750507
87264.147845,3849.070898,4826.401637,7105.977043
87264.148174,3923.091493,6741.640382,7624.121203
87264.148503,3627.009116,5132.839837,7772.162391
87264.148832,2220.617826,2757.943793,8808.450710
87264.149161,-962.267725,536.266849,9548.656652
87264.149491,-4885.359217,-2374.896044,10436.903782
87264.149820,-5255.462188,-4826.401637,10140.821405
87264.150149,-5329.482782,-5822.325785,10955.047942
87264.150478,-5255.462188,-5132.839837,11177.109724
87264.150807,-4663.297435,-3217.601092,9622.677246
87264.151136,-2812.782580,-459.657299,9030.512492
87264.151466,296.082377,459.657299,8364.327145
87264.151795,3404.947333,1838.629195,7624.121203
87264.152124,5181.441594,5056.230287,7105.977043
87264.152453,5921.647536,7584.345430,8216.285956
87264.152782,6291.750507,7124.688131,8216.285956
87264.153111,4441.235652,2911.162892,8364.327145
87264.153440,1406.391290,76.609550,10584.944971
87264.153770,-1480.411884,-1072.533697,11251.130318
87264.154099,-3034.844362,-2681.334243,11029.068536
87264.154428,-2516.700203,-4443.353888,11917.315666
87264.154757,-4589.276840,-5515.887586,11399.171507
87264.155086,-4885.359217,-2528.115143,8808.450710
87264.155415,-1850.514855,-229.828649,7476.080014
87264.155744,888.247130,1532.190996,8216.285956
87264.156074,1850.514855,3294.210641,7698.141797
87264.156403,3256.906145,5209.449386,6587.832884
87264.156732,4663.297435,6435.202183,6809.894666
87264.157061,4145.153275,5209.449386,7698.141797
87264.157390,1702.473667,2911.162892,8734.430116
87264.157722,-1110.308913,1225.752797,9622.677246
87264.158051,-3108.864956,-1838.629195,10881.027347
87264.158380,-3701.029710,-4290.134789,11917.315666
87264.158709,-4441.235652,-5132.839837,13101.645173
87264.159039,-5033.400406,-3983.696590,11991.336260
87264.159368,-3182.885551,-2451.505594,10362.883188
87264.159697,-888.247130,-383.047749,9770.718434
87264.160026,1184.329507,1455.581446,9400.615463
87264.160356,3923.091493,3753.867940,7476.080014
87264.160685,5921.647536,6588.421283,7328.038826
87264.161014,6587.832884,7431.126331,8660.409521
87264.161343,4811.338623,6741.640382,8512.368333
87264.161673,2368.659014,3753.867940,8512.368333
87264.162002,-814.226536,-306.438199,9326.594869
87264.162331,-4293.194464,-2451.505594,10881.027347
87264.162660,-5773.606348,-4519.963438,11843.295072
87264.162990,-6291.750507,-5056.230287,12879.583391
87264.163319,-6291.750507,-5362.668486,10955.047942
87264.163648,-4885.359217,-4290.134789,9548.656652
87264.163977,-2368.659014,-1685.410096,8660.409521
87264.164306,444.123565,1608.800546,7920.203579
87264.164636,2886.803174,3983.696590,6661.853478
87264.164965,6291.750507,6052.154434,7402.059420
87264.165294,7402.059420,7277.907231,9030.512492
87264.165623,6735.874072,6358.592633,8734.430116
87264.165953,4959.379811,3753.867940,9474.636058
87264.166282,1998.556043,229.828649,11843.295072
87264.166611,-1554.432478,-3064.381992,11843.295072
87264.166940,-3627.009116,-4673.182538,11029.068536
87264.167270,-4071.132681,-5439.278036,11621.233289
87264.167599,-4737.318029,-5439.278036,12065.356855
87264.167928,-3627.009116,-2757.943793,10140.821405
87264.168257,-2590.720797,-306.438199,8734.430116
87264.168587,-518.144159,0.000000,6217.729913
87264.168916,2220.617826,1838.629195,5773.606348
87264.169245,3923.091493,5515.887586,6439.791695
87264.169574,5181.441594,7584.345430,7105.977043
87264.169904,3701.029710,6205.373534,7476.080014
87264.170233,2294.638420,2068.457845,8438.347739
87264.170562,-1776.494261,-153.219100,10436.903782
87264.170891,-3923.091493,-2451.505594,9622.677246
87264.171221,-2886.803174,-4673.182538,9252.574275
87264.171550,-2812.782580,-4903.011187,12361.439231
87264.171879,-2886.803174,-3600.648841,12139.377449
87264.172208,-3034.844362,-689.485948,10214.842000
87264.172538,-296.082377,229.828649,8808.450710
87264.172867,1628.453072,536.266849,8586.388927
87264.173196,3552.988522,2681.334243,6661.853478
87264.173525,5329.482782,6435.202183,7476.080014
87264.173854,5773.606348,7967.393179,8142.265362
87264.174184,4367.215058,4979.620737,7698.141797
87264.174513,1184.329507,2145.067394,8586.388927
87264.174842,-1702.473667,76.609550,9400.615463
87264.175171,-4441.235652,-919.314598,9178.553681
87264.175501,-4441.235652,-3370.820191,9548.656652
87264.175830,-4589.276840,-4979.620737,11695.253884
87264.176159,-5329.482782,-4136.915689,10955.047942
87264.176488,-4367.215058,-1991.848295,9178.553681
87264.176818,-1554.432478,383.047749,8216.285956
87264.177147,592.164754,1072.533697,7846.182985
87264.177476,2738.761985,2451.505594,7402.059420
87264.177805,4737.318029,5439.278036,8068.244768
87264.178135,5477.523971,6818.249932,7994.224174
87264.178464,5107.421000,4903.011187,7476.080014
87264.178793,3108.864956,2298.286494,8808.450710
87264.179122,-296.082377,1302.362347,9400.615463
87264.179452,-2368.659014,-383.047749,9918.759623
87264.179781,-2590.720797,-2987.772442,11621.233289
87264.180110,-3182.885551,-4673.182538,12287.418637
87264.180439,-4145.153275,-3294.210641,10881.027347
87264.180769,-2960.823768,-2298.286494,9104.533087
87264.181098,-740.205942,-842.705048,8586.388927
87264.181427,-518.144159,-995.924147,8512.368333
87264.181756,1110.308913,1378.971896,8068.244768
87264.182086,3330.926739,4979.620737,8808.450710
87264.182415,4885.359217,5745.716235,8882.471304
87264.182744,3997.112087,4060.306139,7994.224174
87264.183073,1554.432478,1608.800546,7550.100608
87264.183402,-740.205942,459.657299,9474.636058
87264.183732,-2516.700203,-1378.971896,10807.006753
87264.184061,-2960.823768,-3447.429741,11769.274478
87264.184390,-3775.050304,-4826.401637,12509.480420
87264.184719,-3775.050304,-3447.429741,12139.377449
87264.185049,-2516.700203,-1685.410096,9548.656652
87264.185378,-1184.329507,-995.924147,9992.780217
87264.185707,0.000000,-536.266849,8586.388927
87264.186036,2220.617826,1532.190996,7624.121203
87264.186366,4293.194464,5286.058936,7402.059420
87264.186695,4589.276840,6741.640382,8068.244768
87264.187024,2886.803174,5132.839837,7698.141797
87264.187353,1702.473667,2681.334243,8142.265362
87264.187683,-296.082377,0.000000,10584.944971
87264.188012,-2886.803174,-1608.800546,10807.006753
87264.188341,-3849.070898,-3064.381992,11473.192101
87264.188670,-3701.029710,-4060.306139,12361.439231
87264.189000,-2738.761985,-3907.087040,11695.253884
87264.189329,-2960.823768,-2451.505594,9992.780217
87264.189658,-1628.453072,-536.266849,9400.615463
87264.189987,592.164754,2298.286494,8586.388927
87264.190317,3182.885551,3447.429741,6883.915261
87264.190646,4441.235652,4596.572988,7402.059420
87264.190975,3775.050304,6358.592633,7105.977043
87264.191304,2812.782580,5439.278036,6661.853478
87264.191633,1998.556043,2681.334243,8438.347739
87264.191963,0.000000,-229.828649,10510.924376
87264.192292,-3997.112087,-2221.676944,10584.944971
87264.192621,-4885.359217,-3064.381992,10362.883188
87264.192950,-3552.988522,-4366.744339,11769.274478
87264.193280,-2886.803174,-4366.744339,11399.171507
87264.193609,-2590.720797,-2757.943793,10362.883188
87264.193938,-444.123565,229.828649,8364.327145
87264.194267,2886.803174,2221.676944,7179.997637
87264.194597,5107.421000,3140.991542,8808.450710
87264.194926,5699.585753,5745.716235,7328.038826
87264.195255,5847.626942,7507.735880,5921.647536
87264.195584,5773.606348,5515.887586,7402.059420
87264.195914,3849.070898,3294.210641,9770.718434
87264.196243,-962.267725,995.924147,10658.965565
87264.196572,-3849.070898,-2374.896044,9696.697840
87264.196901,-2220.617826,-4903.011187,10510.924376
87264.197231,-2664.741391,-5362.668486,12509.480420
87264.197560,-4293.194464,-3447.429741,11103.089130
87264.197889,-4145.153275,-1915.238745,8882.471304
87264.198218,-1998.556043,-1072.533697,7624.121203
87264.198548,-296.082377,-383.047749,8068.244768
87264.198877,1184.329507,2298.286494,5847.626942
87264.199206,3849.070898,5898.935335,5921.647536
87264.199535,4811.338623,6281.983084,9178.553681
87264.199865,3404.947333,4213.525239,8734.430116
87264.200194,1036.288319,2298.286494,9178.553681
87264.200523,-888.247130,-383.047749,9696.697840
87264.200852,-2146.597232,-2528.115143,9622.677246
87264.201181,-3108.864956,-2834.553343,11177.109724
87264.201511,-4145.153275,-3447.429741,13175.665768
87264.201840,-3849.070898,-2604.724693,11769.274478
87264.202169,-2516.700203,-2604.724693,10066.800811
87264.202498,-1036.288319,-2068.457845,8512.368333
87264.202828,296.082377,306.438199,7698.141797
87264.203157,1776.494261,3447.429741,7105.977043
87264.203486,3923.091493,5745.716235,7994.224174
87264.203815,4737.318029,5362.668486,8438.347739
87264.204145,2368.659014,3370.820191,8438.347739
87264.204474,888.247130,2911.162892,8216.285956
87264.204803,-370.102971,1072.533697,9400.615463
87264.205132,-2072.576638,-2298.286494,9918.759623
87264.205462,-3627.009116,-4443.353888,11917.315666
87264.205791,-4145.153275,-3753.867940,13027.624579
87264.206120,-3330.926739,-2987.772442,12065.356855
87264.206449,-1924.535449,-2834.553343,9104.533087
87264.206779,-1110.308913,-1225.752797,9474.636058
87264.207108,-518.144159,766.095498,8364.327145
87264.207437,2886.803174,3294.210641,7254.018232
87264.207766,5403.503377,5132.839837,8660.409521
87264.208096,4959.379811,5822.325785,8882.471304
87264.208425,2368.659014,5745.716235,8438.347739
87264.208754,2812.782580,3753.867940,8882.471304
87264.209083,444.123565,612.876398,10436.903782
87264.209413,-2368.659014,-2374.896044,10732.986159
87264.209742,-3256.906145,-3753.867940,11325.150913
87264.210071,-3552.988522,-3064.381992,12139.377449
87264.210400,-3552.988522,-2451.505594,11473.192101
87264.210729,-2812.782580,-2298.286494,9992.780217
87264.211059,-1924.535449,-995.924147,8586.388927
87264.211388,0.000000,995.924147,7476.080014
87264.211717,2886.803174,3140.991542,7402.059420
87264.212046,4441.235652,5286.058936,7476.080014
87264.212376,3627.009116,6358.592633,8216.285956
87264.212705,3108.864956,5515.887586,7476.080014
87264.213034,2812.782580,3753.867940,9104.533087
87264.213363,-592.164754,-306.438199,10510.924376
87264.213693,-4071.132681,-2834.553343,9252.574275
87264.214022,-3775.050304,-4290.134789,9696.697840
87264.214351,-2960.823768,-3753.867940,11917.315666
87264.214680,-3404.947333,-2834.553343,11843.295072
87264.215010,-3034.844362,-1225.752797,10140.821405
87264.215339,-370.102971,-536.266849,8216.285956
87264.215668,1924.535449,229.828649,8142.265362
87264.215997,3478.967927,2528.115143,8068.244768
87264.216327,4737.318029,5515.887586,8216.285956
87264.216656,4737.318029,5975.544884,8142.265362
87264.216985,3701.029710,3677.258390,7624.121203
87264.217314,1554.432478,1532.190996,8956.491898
87264.217644,-2368.659014,0.000000,8734.430116
87264.217973,-4663.297435,-1991.848295,9178.553681
87264.218302,-4515.256246,-5286.058936,10288.862594
87264.218631,-4441.235652,-6358.592633,11325.150913
87264.218961,-5699.585753,-4290.134789,10584.944971
87264.219290,-4663.297435,-2528.115143,8512.368333
87264.219619,-1110.308913,-995.924147,7402.059420
87264.219948,1184.329507,383.047749,7624.121203
87264.220277,3108.864956,2145.067394,6809.894666
87264.220607,5033.400406,6052.154434,7476.080014
87264.220936,6661.853478,6971.469032,7994.224174
87264.221265,5625.565159,4673.182538,8734.430116
87264.221594,2368.659014,2834.553343,9844.739029
87264.221924,-370.102971,689.485948,10288.862594
87264.222253,-1850.514855,-2451.505594,9696.697840
87264.222582,-2664.741391,-4979.620737,11029.068536
87264.222911,-4071.132681,-4903.011187,13027.624579
87264.223241,-4959.379811,-2604.724693,11325.150913
87264.223570,-2368.659014,-1302.362347,9030.512492
87264.223899,-592.164754,-919.314598,7920.203579
87264.224228,222.061783,766.095498,6883.915261
87264.224558,2664.741391,4749.792088,6217.729913
87264.224887,5551.544565,7584.345430,7105.977043
87264.225216,6217.729913,6971.469032,7920.203579
87264.225545,3627.009116,5056.230287,9252.574275
87264.225875,1110.308913,3217.601092,8586.388927
87264.226204,-888.247130,1302.362347,9326.594869
87264.226533,-3404.947333,-1378.971896,10658.965565
87264.226862,-3404.947333,-4903.011187,11991.336260
87264.227192,-4589.276840,-3370.820191,11991.336260
87264.227521,-2886.803174,-1991.848295,10214.842000
87264.227850,-1998.556043,-766.095498,9548.656652
87264.228179,-814.226536,306.438199,9252.574275
87264.228509,444.123565,1838.629195,7772.162391
87264.228838,2960.823768,4673.182538,7402.059420
87264.229167,4959.379811,6281.983084,7772.162391
87264.229496,4293.194464,5362.668486,8660.409521
87264.229825,2220.617826,3447.429741,8364.327145
87264.230155,148.041188,1455.581446,9326.594869
87264.230484,-2220.617826,-1225.752797,11399.171507
87264.230813,-3478.967927,-3524.039291,12287.418637
87264.231142,-3478.967927,-4596.572988,11843.295072
87264.231472,-4219.173869,-4213.525239,11029.068536
87264.231801,-3256.906145,-3140.991542,10214.842000
87264.232130,-1406.391290,-1225.752797,9474.636058
87264.232459,-444.123565,842.705048,8586.388927
87264.232789,3256.906145,2145.067394,7105.977043
87264.233118,5699.585753,6281.983084,7920.203579
87264.233447,7402.059420,7584.345430,9844.739029
87264.233776,5625.565159,5745.716235,8438.347739
87264.234106,3997.112087,2987.772442,7179.997637
87264.234435,1258.350101,76.609550,9918.759623
87264.234764,-2294.638420,-1532.190996,11843.295072
87264.235093,-4293.194464,-2911.162892,10510.924376
87264.235423,-4959.379811,-4826.401637,11029.068536
87264.235752,-5699.585753,-6818.249932,11621.233289
87264.236081,-5107.421000,-4596.572988,9844.739029
87264.236410,-3256.906145,-995.924147,9326.594869
87264.236740,-888.247130,689.485948,8734.430116
87264.237069,1110.308913,1302.362347,7624.121203
87264.237398,3182.885551,3294.210641,7031.956449
87264.237727,4515.256246,6894.859482,7179.997637
87264.238056,4219.173869,7048.078582,8290.306550
87264.238386,3256.906145,3600.648841,7920.203579
87264.238715,1776.494261,459.657299,9770.718434
87264.239044,-1628.453072,-1225.752797,10658.965565
87264.239373,-3923.091493,-1838.629195,10140.821405
87264.239703,-3108.864956,-3600.648841,9918.759623
87264.240032,-2738.761985,-3830.477490,11325.150913
87264.240361,-3330.926739,-2374.896044,10066.800811
87264.240690,-1998.556043,1302.362347,9030.512492
87264.241020,296.082377,2298.286494,7402.059420
87264.241349,1406.391290,1685.410096,6217.729913
87264.241678,1998.556043,3217.601092,6513.812290
87264.242007,3034.844362,6588.421283,7402.059420
87264.242337,3404.947333,6665.030833,8364.327145
87264.242666,1332.370696,3524.039291,8808.450710
87264.242995,-2146.597232,-306.438199,9696.697840
87264.243324,-4885.359217,-2834.553343,8956.491898
87264.243654,-5181.441594,-3907.087040,8956.491898
87264.243983,-4219.173869,-4290.134789,11621.233289
87264.244312,-3849.070898,-4443.353888,11695.253884
87264.244641,-2960.823768,-2451.505594,10436.903782
87264.244971,-888.247130,-229.828649,8808.450710
87264.245300,1924.535449,1072.533697,7920.203579
87264.245629,3552.988522,2374.896044,8216.285956
87264.245958,5107.421000,4366.744339,7550.100608
87264.246288,6809.894666,6588.421283,8586.388927
87264.246617,6809.894666,5592.497135,8364.327145
87264.246946,3923.091493,3294.210641,8882.471304
87264.247275,1110.308913,1072.533697,9400.615463
87264.247604,-962.267725,-1762.019645,9844.739029
87264.247934,-2442.679609,-2987.772442,10658.965565
87264.248263,-3330.926739,-3983.696590,12213.398043
87264.248592,-4515.256246,-3677.258390,11991.336260
87264.248921,-3552.988522,-2757.943793,8882.471304
87264.249251,-1332.370696,-1838.629195,8364.327145
87264.249580,-814.226536,0.000000,8586.388927
87264.249909,296.082377,1991.848295,7328.038826
87264.250238,3108.864956,4290.134789,7698.141797
87264.250568,4737.318029,4979.620737,8956.491898
87264.250897,3404.947333,4519.963438,8438.347739
87264.251226,2294.638420,4519.963438,7846.182985
87264.251555,814.226536,2604.724693,10288.862594
87264.251885,-1406.391290,-1072.533697,10288.862594
87264.252214,-2886.803174,-4060.306139,10807.006753
87264.252543,-3330.926739,-4136.915689,11769.274478
87264.252872,-3627.009116,-2681.334243,11991.336260
87264.253202,-2664.741391,-1532.190996,11029.068536
87264.253531,-592.164754,-536.266849,9770.718434
87264.253860,148.041188,459.657299,8734.430116
87264.254189,1406.391290,1762.019645,7402.059420
87264.254519,3627.009116,4826.401637,7550.100608
87264.254848,4885.359217,6052.154434,8586.388927
87264.255177,4293.194464,5286.058936,8216.285956
87264.255506,1850.514855,3600.648841,8290.306550
87264.255836,148.041188,1149.143247,9326.594869
87264.256165,-2886.803174,-1302.362347,10288.862594
87264.256494,-4885.359217,-3064.381992,10732.986159
87264.256823,-4589.276840,-4979.620737,11029.068536
87264.257152,-4293.194464,-4443.353888,11103.089130
87264.257482,-4441.235652,-3064.381992,10807.006753
87264.257811,-3552.988522,-1532.190996,10066.800811
87264.258140,-1184.329507,0.000000,8956.491898
87264.258469,2220.617826,306.438199,8290.306550
87264.258798,3849.070898,3600.648841,7772.162391
87264.259127,5181.441594,6358.592633,7698.141797
87264.259457,5181.441594,6358.592633,7846.182985
87264.259786,3775.050304,3907.087040,7920.203579
87264.260115,1258.350101,1072.533697,8956.491898
87264.260444,-1776.494261,-995.924147,10140.821405
87264.260773,-3404.947333,-1455.581446,10362.883188
87264.261103,-2664.741391,-3600.648841,11251.130318
87264.261432,-2146.597232,-4749.792088,11029.068536
87264.261761,-3330.926739,-3524.039291,9474.636058
87264.262090,-1776.494261,-1455.581446,7994.224174
87264.262419,518.144159,383.047749,7624.121203
87264.262749,2294.638420,1455.581446,8438.347739
87264.263078,2886.803174,4596.572988,7402.059420
87264.263407,4145.153275,6052.154434,7105.977043
87264.263736,4441.235652,5286.058936,7476.080014
87264.264065,3330.926739,3217.601092,8512.368333
87264.264394,444.123565,1225.752797,9696.697840
87264.264724,-2812.782580,-1455.581446,10066.800811
87264.265053,-4219.173869,-2911.162892,11103.089130
87264.265382,-3478.967927,-3677.258390,11621.233289
87264.265711,-4737.318029,-3677.258390,11251.130318
87264.266040,-4737.318029,-3370.820191,9030.512492
87264.266370,-2812.782580,-1302.362347,8882.471304
87264.266699,-444.123565,689.485948,9622.677246
87264.267028,1702.473667,2068.457845,8290.306550
87264.267357,3330.926739,3524.039291,6217.729913
87264.267686,3552.988522,5515.887586,6513.812290
87264.268016,4441.235652,6971.469032,7698.141797
87264.268345,3330.926739,5132.839837,9252.574275
87264.268674,888.247130,2374.896044,9992.780217
87264.269003,-1332.370696,-1762.019645,9326.594869
87264.269332,-3256.906145,-3294.210641,9178.553681
87264.269661,-3478.967927,-2757.943793,10807.006753
87264.269991,-4071.132681,-1991.848295,11695.253884
87264.270320,-4071.132681,-2451.505594,10140.821405
87264.270649,-2442.679609,-2834.553343,9178.553681
87264.270978,-1332.370696,-1225.752797,8364.327145
87264.271307,518.144159,1072.533697,7698.141797
87264.271637,2516.700203,3753.867940,8068.244768
87264.271966,4145.153275,5286.058936,8956.491898
87264.272295,3627.009116,4366.744339,9474.636058
87264.272624,2072.576638,2451.505594,8882.471304
87264.272953,518.144159,842.705048,9622.677246
87264.273283,-1776.494261,-1378.971896,10584.944971
87264.273612,-2590.720797,-2681.334243,11325.150913
87264.273941,-2368.659014,-2604.724693,12583.501014
87264.274270,-1776.494261,-3217.601092,11991.336260
87264.274599,-1110.308913,-2987.772442,9622.677246
87264.274928,0.000000,-1378.971896,8512.368333
87264.275258,0.000000,919.314598,8882.471304
87264.275587,2368.659014,2987.772442,8068.244768
87264.275916,5255.462188,4443.353888,7476.080014
87264.276245,5477.523971,5745.716235,8438.347739
87264.276574,4737.318029,6128.763984,7550.100608
87264.276904,3256.906145,5745.716235,7179.997637
87264.277233,2146.597232,1378.971896,8808.450710
87264.277562,-666.185348,-1685.410096,10510.924376
87264.277891,-2442.679609,-2681.334243,10807.006753
87264.278220,-2294.638420,-2757.943793,11843.295072
87264.278550,-2590.720797,-3830.477490,11917.315666
87264.278879,-2960.823768,-4290.134789,11695.253884
87264.279208,-1998.556043,-2298.286494,10436.903782
87264.279537,0.000000,919.314598,10066.800811
87264.279866,1480.411884,1225.752797,8586.388927
87264.280195,2368.659014,2528.115143,7105.977043
87264.280525,2812.782580,4673.182538,7698.141797
