#time,accel_x,accel_y,accel_z
5348.433171,148.041188,995.924147,8956.491898
5348.433493,0.000000,995.924147,8660.409521
5348.433816,-518.144159,383.047749,9326.594869
5348.434138,-592.164754,229.828649,9918.759623
5348.434461,-222.061783,459.657299,9696.697840
5348.434784,0.000000,153.219100,9030.512492
5348.435106,-148.041188,995.924147,9030.512492
5348.435429,-222.061783,919.314598,10066.800811
5348.435752,444.123565,689.485948,10140.821405
5348.436074,740.205942,919.314598,8882.471304
5348.436397,0.000000,995.924147,8882.471304
5348.436720,370.102971,459.657299,9548.656652
5348.437042,-296.082377,0.000000,9622.677246
5348.437365,148.041188,153.219100,9030.512492
5348.437688,-222.061783,536.266849,8734.430116
5348.438010,-1776.494261,536.266849,8882.471304
5348.438333,-1036.288319,459.657299,10066.800811
5348.438655,-814.226536,536.266849,9474.636058
5348.438978,-518.144159,689.485948,8956.491898
5348.439301,-592.164754,1072.533697,8956.491898
5348.439623,-148.041188,383.047749,9622.677246
5348.439946,444.123565,995.924147,10066.800811
5348.440269,0.000000,1302.362347,8364.327145
5348.440591,444.123565,1225.752797,9030.512492
5348.440914,222.061783,766.095498,9696.697840
5348.441237,0.000000,995.924147,10140.821405
5348.441559,518.144159,995.924147,9252.574275
5348.441882,518.144159,689.485948,8882.471304
5348.442204,-444.123565,306.438199,9548.656652
5348.442527,-592.164754,995.924147,9918.759623
5348.442850,0.000000,1149.143247,9918.759623
5348.443172,0.000000,1762.019645,9030.512492
5348.443495,0.000000,1685.410096,9770.718434
5348.443818,444.123565,1608.800546,10436.903782
5348.444140,1554.432478,2757.943793,9326.594869
5348.444463,1480.411884,2681.334243,8586.388927
5348.444786,1554.432478,2681.334243,9178.553681
5348.445108,1776.494261,2298.286494,9548.656652
5348.445431,2072.576638,2911.162892,9548.656652
5348.445754,3182.885551,3217.601092,8808.450710
5348.446076,2664.741391,3140.991542,9252.574275
5348.446399,2368.659014,2834.553343,9696.697840
5348.446721,3923.091493,3677.258390,9178.553681
5348.447044,4293.194464,3600.648841,9104.533087
5348.447367,4737.318029,4213.525239,8586.388927
5348.447689,4145.153275,4060.306139,9474.636058
5348.448012,4737.318029,3753.867940,9474.636058
5348.448335,5847.626942,4366.744339,8586.388927
5348.448657,4515.256246,3907.087040,6809.894666
5348.448980,3775.050304,3753.867940,8660.409521
5348.449303,3849.070898,3447.429741,8438.347739
5348.449625,3997.112087,3983.696590,7772.162391
5348.449948,4367.215058,4443.353888,7254.018232
5348.450270,3552.988522,4519.963438,8142.265362
5348.450593,2738.761985,3600.648841,9030.512492
5348.450916,3997.112087,4519.963438,9400.615463
5348.451238,3330.926739,4519.963438,8660.409521
5348.451561,2442.679609,3907.087040,8882.471304
5348.451884,1850.514855,3064.381992,10658.965565
5348.452206,1924.535449,2987.772442,10658.965565
5348.452529,1998.556043,2911.162892,10066.800811
5348.452852,444.123565,2451.505594,9770.718434
5348.453174,0.000000,1838.629195,10140.821405
5348.453497,0.000000,1685.410096,10066.800811
5348.453820,296.082377,2757.943793,8808.450710
5348.454142,1850.514855,3064.381992,8512.368333
5348.454465,1332.370696,2757.943793,9326.594869
5348.454787,1628.453072,3217.601092,9326.594869
5348.455110,2442.679609,4136.915689,9474.636058
5348.455433,2664.741391,4443.353888,8956.491898
5348.455755,1776.494261,3600.648841,9770.718434
5348.456078,814.226536,3064.381992,9474.636058
5348.456401,222.061783,1915.238745,10066.800811
5348.456723,0.000000,1915.238745,8586.388927
5348.457046,-1110.308913,1149.143247,8882.471304
5348.457369,-1184.329507,1149.143247,9474.636058
5348.457691,-814.226536,919.314598,9400.615463
5348.458014,-666.185348,1532.190996,8734.430116
5348.458337,-666.185348,919.314598,7624.121203
5348.458659,-1998.556043,0.000000,8734.430116
5348.458982,-962.267725,536.266849,9326.594869
5348.459304,-444.123565,689.485948,9030.512492
5348.459627,-148.041188,1762.019645,8808.450710
5348.459950,0.000000,1072.533697,10140.821405
5348.460272,740.205942,536.266849,9622.677246
5348.460595,2590.720797,1838.629195,9548.656652
5348.460918,3182.885551,1608.800546,8290.306550
5348.461240,3775.050304,2298.286494,9548.656652
5348.461563,5107.421000,2451.505594,10214.842000
5348.461886,5403.503377,2757.943793,10288.862594
5348.462208,5847.626942,2987.772442,9548.656652
5348.462531,4737.318029,1838.629195,9548.656652
5348.462853,3552.988522,1149.143247,11695.253884
5348.463176,3627.009116,1685.410096,11325.150913
5348.463499,2664.741391,1302.362347,11621.233289
5348.463821,740.205942,1072.533697,11251.130318
5348.464144,0.000000,689.485948,11325.150913
5348.464467,518.144159,1149.143247,10066.800811
5348.464789,3627.009116,3064.381992,8068.244768
5348.465112,4663.297435,4673.182538,6809.894666
5348.465435,5107.421000,4903.011187,8068.244768
5348.465757,5921.647536,5209.449386,8438.347739
5348.466080,6143.709319,5822.325785,7328.038826
5348.466403,6439.791695,5745.716235,7476.080014
5348.466725,3997.112087,4903.011187,9326.594869
5348.467048,1776.494261,3370.820191,11325.150913
5348.467370,962.267725,3447.429741,11621.233289
5348.467693,370.102971,2221.676944,9474.636058
5348.468016,-370.102971,2068.457845,8586.388927
5348.468338,-1850.514855,2221.676944,9548.656652
5348.468661,-962.267725,2757.943793,9178.553681
5348.468984,2220.617826,4366.744339,6661.853478
5348.469306,2738.761985,4979.620737,5329.482782
5348.469629,1998.556043,5669.106685,6069.688724
5348.469952,888.247130,5209.449386,8364.327145
5348.470274,1036.288319,5515.887586,7994.224174
5348.470597,2886.803174,5975.544884,8068.244768
5348.470919,2146.597232,5592.497135,9548.656652
5348.471242,444.123565,4519.963438,11695.253884
5348.471565,1110.308913,3524.039291,11103.089130
5348.471887,1554.432478,3064.381992,10658.965565
5348.472210,222.061783,3370.820191,9030.512492
5348.472533,-888.247130,2298.286494,9918.759623
5348.472855,222.061783,1532.190996,9326.594869
5348.473178,1702.473667,2528.115143,8438.347739
5348.473501,1258.350101,3140.991542,7624.121203
5348.473823,1332.370696,2757.943793,8882.471304
5348.474146,2072.576638,3217.601092,9178.553681
5348.474469,2368.659014,4060.306139,9030.512492
5348.474791,1998.556043,4136.915689,9104.533087
5348.475114,1850.514855,2604.724693,10066.800811
5348.475436,1702.473667,2374.896044,10362.883188
5348.475759,1258.350101,1915.238745,11029.068536
5348.476082,1036.288319,1838.629195,10510.924376
5348.476404,1258.350101,919.314598,10066.800811
5348.476727,1036.288319,536.266849,9622.677246
5348.477050,1776.494261,689.485948,8808.450710
5348.477372,1702.473667,995.924147,6957.935855
5348.477695,3108.864956,536.266849,7179.997637
5348.478018,3256.906145,1149.143247,8142.265362
5348.478340,3627.009116,1455.581446,8734.430116
5348.478663,3627.009116,2221.676944,8956.491898
5348.478986,3552.988522,2834.553343,9474.636058
5348.479308,1924.535449,1455.581446,10362.883188
5348.479631,1998.556043,1302.362347,10140.821405
5348.479953,1850.514855,1378.971896,10510.924376
5348.480276,518.144159,766.095498,9992.780217
5348.480599,-148.041188,-306.438199,10066.800811
5348.480921,-1554.432478,-842.705048,9770.718434
5348.481244,-962.267725,-383.047749,8512.368333
5348.481567,-444.123565,-766.095498,7476.080014
5348.481889,-888.247130,-383.047749,7550.100608
5348.482212,370.102971,0.000000,9030.512492
5348.482535,962.267725,919.314598,10288.862594
5348.482857,1406.391290,1915.238745,9770.718434
5348.483180,592.164754,1225.752797,9918.759623
5348.483502,-148.041188,536.266849,11695.253884
5348.483825,-518.144159,1072.533697,11843.295072
5348.484148,-1110.308913,306.438199,12213.398043
5348.484470,-1776.494261,0.000000,11473.192101
5348.484793,-3849.070898,-1072.533697,11029.068536
5348.485116,-3849.070898,-1532.190996,9400.615463
5348.485438,-1776.494261,-689.485948,8068.244768
5348.485761,-1110.308913,842.705048,6069.688724
5348.486084,-370.102971,1225.752797,7105.977043
5348.486406,148.041188,1455.581446,7772.162391
5348.486729,1776.494261,2221.676944,7402.059420
5348.487052,2886.803174,2757.943793,6883.915261
5348.487374,2220.617826,2834.553343,8956.491898
5348.487697,1332.370696,2221.676944,11103.089130
5348.488019,1554.432478,2145.067394,12361.439231
5348.488342,444.123565,1991.848295,12287.418637
5348.488665,-1184.329507,766.095498,11103.089130
5348.488987,-2368.659014,-536.266849,10732.986159
5348.489310,0.000000,306.438199,9400.615463
5348.489632,1628.453072,1455.581446,7550.100608
5348.489955,1924.535449,1532.190996,6217.729913
5348.490277,1924.535449,1608.800546,6661.853478
5348.490600,1184.329507,1915.238745,5921.647536
5348.490922,1998.556043,2298.286494,5921.647536
5348.491245,2368.659014,3140.991542,7994.224174
5348.491567,666.185348,3447.429741,9696.697840
5348.491890,1406.391290,2451.505594,11843.295072
5348.492212,0.000000,2298.286494,11917.315666
5348.492535,-1628.453072,1225.752797,11177.109724
5348.492857,-814.226536,766.095498,10510.924376
5348.493180,-814.226536,689.485948,10584.944971
5348.493502,666.185348,1915.238745,8956.491898
5348.493825,1702.473667,1608.800546,9030.512492
5348.494147,0.000000,1455.581446,6661.853478
5348.494470,148.041188,689.485948,6883.915261
5348.494792,0.000000,383.047749,7179.997637
5348.495115,0.000000,2987.772442,9326.594869
5348.495437,592.164754,2757.943793,9104.533087
5348.495760,-814.226536,1225.752797,9770.718434
5348.496082,-888.247130,766.095498,9326.594869
5348.496405,-1702.473667,842.705048,9696.697840
5348.496727,-2590.720797,536.266849,9844.739029
5348.497050,-2812.782580,229.828649,10066.800811
5348.497372,-1998.556043,-383.047749,10288.862594
5348.497695,-1332.370696,-459.657299,9548.656652
5348.498017,-1554.432478,0.000000,7994.224174
5348.498340,-2442.679609,-995.924147,7920.203579
5348.498662,-1924.535449,-1532.190996,9400.615463
5348.498985,-888.247130,-536.266849,9474.636058
5348.499307,370.102971,0.000000,9474.636058
5348.499630,0.000000,-459.657299,9844.739029
5348.499952,-1924.535449,-1225.752797,10288.862594
5348.500275,-888.247130,-995.924147,10436.903782
5348.500597,296.082377,-229.828649,10140.821405
5348.500920,-222.061783,-153.219100,10214.842000
5348.501242,-148.041188,-612.876398,10807.006753
5348.501565,-888.247130,-1378.971896,9770.718434
5348.501887,962.267725,-766.095498,7846.182985
5348.502210,592.164754,-612.876398,6883.915261
5348.502532,-296.082377,-766.095498,8216.285956
5348.502855,0.000000,-1991.848295,9992.780217
5348.503177,0.000000,-842.705048,10214.842000
5348.503500,222.061783,-536.266849,9104.533087
5348.503822,-222.061783,-995.924147,9326.594869
5348.504145,-1702.473667,-919.314598,10881.027347
5348.504467,-296.082377,76.609550,10881.027347
5348.504790,1406.391290,-459.657299,9992.780217
5348.505112,592.164754,383.047749,9030.512492
5348.505435,-222.061783,-76.609550,8882.471304
5348.505757,0.000000,-459.657299,8068.244768
5348.506080,888.247130,766.095498,7105.977043
5348.506402,888.247130,1302.362347,7105.977043
5348.506725,1110.308913,1149.143247,8364.327145
5348.507047,-222.061783,153.219100,9548.656652
5348.507370,-592.164754,-306.438199,9104.533087
5348.507692,74.020594,842.705048,9030.512492
5348.508015,-740.205942,229.828649,9844.739029
5348.508337,-888.247130,383.047749,11103.089130
5348.508660,444.123565,842.705048,10881.027347
5348.508982,148.041188,995.924147,10066.800811
5348.509305,-444.123565,919.314598,9104.533087
5348.509627,-740.205942,689.485948,9622.677246
5348.509950,-518.144159,766.095498,9252.574275
5348.510272,1258.350101,919.314598,8364.327145
5348.510595,148.041188,1378.971896,9104.533087
5348.510917,-1554.432478,536.266849,9992.780217
5348.511240,-1850.514855,76.609550,9178.553681
5348.511562,-1554.432478,383.047749,8142.265362
5348.511885,-370.102971,1532.190996,7920.203579
5348.512207,-1998.556043,1072.533697,9326.594869
5348.512530,-814.226536,1532.190996,10066.800811
5348.512852,-148.041188,1302.362347,9104.533087
5348.513175,74.020594,919.314598,7994.224174
5348.513497,222.061783,1455.581446,9104.533087
5348.513820,-518.144159,1378.971896,10436.903782
5348.514142,1554.432478,1608.800546,10658.965565
5348.514465,1776.494261,2145.067394,8882.471304
5348.514787,814.226536,1455.581446,8142.265362
5348.515110,296.082377,842.705048,9844.739029
5348.515432,0.000000,689.485948,9622.677246
5348.515755,1036.288319,1685.410096,8734.430116
5348.516077,2664.741391,2298.286494,7920.203579
5348.516400,1110.308913,1455.581446,8956.491898
5348.516722,222.061783,1991.848295,8512.368333
5348.517045,370.102971,1302.362347,8512.368333
5348.517367,0.000000,1608.800546,7772.162391
5348.517690,148.041188,1532.190996,9326.594869
5348.518012,-962.267725,612.876398,10288.862594
5348.518335,-1406.391290,229.828649,9696.697840
5348.518657,-1554.432478,-766.095498,8216.285956
5348.518980,-2664.741391,-766.095498,9252.574275
5348.519302,-2146.597232,229.828649,9622.677246
5348.519625,-1184.329507,536.266849,10214.842000
5348.519947,-666.185348,842.705048,9992.780217
5348.520270,-592.164754,612.876398,8660.409521
5348.520592,-1258.350101,0.000000,9770.718434
5348.520915,-222.061783,1225.752797,8956.491898
5348.521237,-148.041188,1072.533697,9474.636058
5348.521560,148.041188,1149.143247,9474.636058
5348.521882,-296.082377,-153.219100,9992.780217
5348.522205,-814.226536,-766.095498,9400.615463
5348.522527,444.123565,-383.047749,9178.553681
5348.522850,148.041188,0.000000,8660.409521
5348.523172,0.000000,76.609550,9918.759623
5348.523495,370.102971,0.000000,10807.006753
5348.523817,148.041188,153.219100,10140.821405
5348.524140,1184.329507,153.219100,8956.491898
5348.524462,148.041188,0.000000,9400.615463
5348.524785,-592.164754,-459.657299,10288.862594
5348.525107,518.144159,0.000000,10510.924376
5348.525430,592.164754,383.047749,10066.800811
5348.525752,-740.205942,-383.047749,8956.491898
5348.526075,-1406.391290,-919.314598,8956.491898
5348.526397,-518.144159,-766.095498,9252.574275
5348.526720,370.102971,0.000000,8142.265362
5348.527042,148.041188,459.657299,8364.327145
5348.527365,370.102971,306.438199,9178.553681
5348.527687,148.041188,0.000000,8956.491898
5348.528010,222.061783,0.000000,7772.162391
5348.528332,444.123565,1225.752797,8512.368333
5348.528655,-740.205942,766.095498,9696.697840
5348.528977,-962.267725,-229.828649,11621.233289
5348.529300,-1406.391290,-383.047749,10955.047942
5348.529622,-1332.370696,-536.266849,9548.656652
5348.529945,-1776.494261,-612.876398,9030.512492
5348.530267,-1850.514855,-383.047749,10436.903782
5348.530590,-666.185348,76.609550,9622.677246
5348.530912,1036.288319,919.314598,8438.347739
5348.531235,0.000000,1072.533697,8068.244768
5348.531557,666.185348,842.705048,7772.162391
5348.531880,0.000000,612.876398,9622.677246
5348.532202,814.226536,1685.410096,8438.347739
5348.532525,1110.308913,1915.238745,9844.739029
5348.532847,222.061783,1225.752797,9474.636058
5348.533170,-592.164754,459.657299,10658.965565
5348.533492,148.041188,919.314598,9400.615463
5348.533815,296.082377,1072.533697,10066.800811
5348.534137,814.226536,1455.581446,9030.512492
5348.534460,888.247130,1915.238745,11695.253884
5348.534782,2812.782580,2298.286494,9326.594869
5348.535105,2294.638420,1532.190996,8142.265362
5348.535427,1406.391290,1991.848295,7402.059420
5348.535750,740.205942,2221.676944,9326.594869
5348.536072,666.185348,2451.505594,9400.615463
5348.536395,518.144159,2374.896044,9326.594869
5348.536717,0.000000,1532.190996,8512.368333
5348.537040,-3330.926739,0.000000,7772.162391
5348.537362,-2590.720797,766.095498,7402.059420
5348.537685,-1776.494261,1532.190996,8586.388927
5348.538007,-1406.391290,1685.410096,7179.997637
5348.538330,-1036.288319,1608.800546,9474.636058
5348.538652,-1406.391290,919.314598,8586.388927
5348.538975,222.061783,459.657299,8586.388927
5348.539297,370.102971,1762.019645,8290.306550
5348.539620,-666.185348,1455.581446,10362.883188
5348.539942,1332.370696,1762.019645,11399.171507
5348.540265,1036.288319,1455.581446,11769.274478
5348.540587,1332.370696,1762.019645,9474.636058
5348.540910,740.205942,1225.752797,8586.388927
5348.541232,0.000000,1455.581446,9474.636058
5348.541555,1036.288319,1991.848295,8956.491898
5348.541877,2072.576638,2068.457845,7994.224174
5348.542200,1554.432478,2451.505594,8068.244768
5348.542522,0.000000,1302.362347,7920.203579
5348.542845,-1184.329507,306.438199,8586.388927
5348.543167,-740.205942,689.485948,9030.512492
5348.543490,-1332.370696,229.828649,9104.533087
5348.543812,-2960.823768,-306.438199,10807.006753
5348.544135,-3849.070898,-1225.752797,10881.027347
5348.544457,-3330.926739,-1225.752797,10066.800811
5348.544780,-2368.659014,-1532.190996,8586.388927
5348.545102,-1776.494261,-995.924147,9104.533087
5348.545425,-2590.720797,-1149.143247,9474.636058
5348.545747,-444.123565,-306.438199,10140.821405
5348.546070,592.164754,306.438199,9030.512492
5348.546392,592.164754,0.000000,7624.121203
5348.546715,888.247130,-229.828649,9252.574275
5348.547037,1554.432478,842.705048,10214.842000
5348.547360,2368.659014,612.876398,9918.759623
5348.547682,1702.473667,459.657299,9030.512492
5348.548005,0.000000,-995.924147,9918.759623
5348.548327,-814.226536,-1455.581446,9844.739029
5348.548650,-666.185348,-766.095498,9178.553681
5348.548972,962.267725,0.000000,9326.594869
5348.549295,222.061783,153.219100,9622.677246
5348.549617,74.020594,153.219100,10066.800811
5348.549940,0.000000,76.609550,9030.512492
5348.550262,-592.164754,76.609550,8586.388927
5348.550585,-888.247130,459.657299,9252.574275
5348.550907,-1036.288319,0.000000,10436.903782
5348.551230,-370.102971,76.609550,10288.862594
5348.551552,-370.102971,536.266849,9104.533087
5348.551875,-1110.308913,-536.266849,7476.080014
5348.552197,-1850.514855,-536.266849,8808.450710
5348.552520,-1628.453072,0.000000,9400.615463
5348.552842,-296.082377,229.828649,8660.409521
5348.553165,888.247130,1149.143247,8290.306550
5348.553487,-148.041188,919.314598,9400.615463
5348.553810,74.020594,383.047749,9474.636058
5348.554132,592.164754,1302.362347,10140.821405
5348.554455,-518.144159,1991.848295,9548.656652
5348.554777,296.082377,842.705048,11251.130318
5348.555100,-370.102971,995.924147,11843.295072
5348.555422,148.041188,842.705048,10066.800811
5348.555745,518.144159,536.266849,8660.409521
5348.556067,444.123565,1608.800546,8438.347739
5348.556390,-222.061783,1225.752797,8808.450710
5348.556712,518.144159,1072.533697,8364.327145
5348.557035,1480.411884,1685.410096,8290.306550
5348.557357,1332.370696,1838.629195,6809.894666
5348.557680,-370.102971,1225.752797,9104.533087
5348.558002,148.041188,1915.238745,8734.430116
5348.558325,370.102971,2145.067394,9474.636058
5348.558647,222.061783,2221.676944,8586.388927
5348.558970,-1110.308913,1072.533697,10436.903782
5348.559292,-1998.556043,-306.438199,8956.491898
5348.559615,-740.205942,153.219100,9770.718434
5348.559938,-592.164754,1455.581446,7920.203579
5348.560260,-1258.350101,766.095498,8438.347739
5348.560583,74.020594,0.000000,9326.594869
5348.560905,-296.082377,1072.533697,8734.430116
5348.561228,518.144159,1302.362347,6957.935855
5348.561550,1332.370696,995.924147,8808.450710
5348.561873,518.144159,1532.190996,9474.636058
5348.562195,814.226536,842.705048,10658.965565
5348.562518,1036.288319,1991.848295,10214.842000
5348.562840,0.000000,1149.143247,10066.800811
5348.563163,-1332.370696,0.000000,9548.656652
5348.563485,-592.164754,459.657299,10584.944971
5348.563808,888.247130,536.266849,9104.533087
5348.564130,1184.329507,689.485948,9030.512492
5348.564453,148.041188,842.705048,9770.718434
5348.564775,-222.061783,0.000000,9474.636058
5348.565098,-592.164754,-459.657299,9474.636058
5348.565420,-222.061783,995.924147,9104.533087
5348.565743,-444.123565,-306.438199,9252.574275
5348.566065,-1258.350101,0.000000,10955.047942
5348.566388,-1184.329507,383.047749,10807.006753
5348.566710,-1776.494261,-689.485948,9474.636058
5348.567033,-2664.741391,-1072.533697,8956.491898
5348.567355,-2812.782580,76.609550,9178.553681
5348.567678,-1258.350101,-842.705048,9326.594869
5348.568000,74.020594,229.828649,8438.347739
5348.568323,-666.185348,306.438199,6883.915261
5348.568645,-962.267725,-766.095498,7402.059420
5348.568968,-518.144159,-612.876398,8586.388927
5348.569290,-370.102971,306.438199,8660.409521
5348.569613,518.144159,153.219100,9326.594869
5348.569935,0.000000,76.609550,10436.903782
5348.570258,-1332.370696,-1225.752797,10362.883188
5348.570580,-148.041188,-919.314598,10807.006753
5348.570903,0.000000,-306.438199,9030.512492
5348.571225,0.000000,0.000000,9474.636058
5348.571548,370.102971,0.000000,10510.924376
5348.571870,1480.411884,229.828649,10510.924376
5348.572193,1480.411884,306.438199,7624.121203
5348.572515,1258.350101,229.828649,7624.121203
5348.572838,296.082377,383.047749,8956.491898
5348.573160,370.102971,153.219100,9844.739029
5348.573483,592.164754,842.705048,9770.718434
5348.573805,444.123565,612.876398,9326.594869
5348.574128,-1924.535449,-842.705048,9918.759623
5348.574450,-2590.720797,-1225.752797,9918.759623
5348.574773,-2072.576638,76.609550,9844.739029
5348.575095,-962.267725,459.657299,8512.368333
5348.575418,-296.082377,536.266849,9918.759623
5348.575740,-962.267725,689.485948,9326.594869
5348.576063,-296.082377,306.438199,9104.533087
5348.576385,1036.288319,1455.581446,7476.080014
5348.576708,296.082377,1455.581446,8216.285956
5348.577030,888.247130,536.266849,9844.739029
5348.577353,962.267725,1149.143247,11769.274478
5348.577675,518.144159,689.485948,9770.718434
5348.577998,222.061783,229.828649,8882.471304
5348.578320,-1184.329507,229.828649,9326.594869
5348.578643,-962.267725,459.657299,9918.759623
5348.578965,296.082377,612.876398,9252.574275
5348.579288,666.185348,2221.676944,7846.182985
5348.579610,962.267725,1608.800546,8364.327145
5348.579933,740.205942,1455.581446,9252.574275
5348.580255,962.267725,1838.629195,8956.491898
5348.580578,518.144159,1762.019645,8956.491898
5348.580900,-296.082377,995.924147,10436.903782
5348.581223,-666.185348,306.438199,10732.986159
5348.581545,-1406.391290,-229.828649,9178.553681
5348.581868,-740.205942,0.000000,8586.388927
5348.582190,-1110.308913,459.657299,8290.306550
5348.582513,-1924.535449,0.000000,8882.471304
5348.582835,-296.082377,995.924147,9326.594869
5348.583158,0.000000,1532.190996,7846.182985
5348.583480,74.020594,842.705048,7105.977043
5348.583803,370.102971,1225.752797,8290.306550
5348.584125,0.000000,1685.410096,9252.574275
5348.584448,1480.411884,1838.629195,10140.821405
5348.584770,814.226536,1915.238745,9918.759623
5348.585093,-592.164754,229.828649,10288.862594
5348.585415,0.000000,-383.047749,10807.006753
5348.585738,-444.123565,76.609550,10214.842000
5348.586060,222.061783,383.047749,9400.615463
5348.586383,592.164754,229.828649,9622.677246
5348.586705,-888.247130,229.828649,10214.842000
5348.587028,592.164754,383.047749,9400.615463
5348.587350,296.082377,689.485948,8660.409521
5348.587673,518.144159,1225.752797,8586.388927
5348.587995,-370.102971,919.314598,9844.739029
5348.588318,0.000000,995.924147,10732.986159
5348.588640,888.247130,1915.238745,9992.780217
5348.588963,-592.164754,919.314598,8364.327145
5348.589285,-1184.329507,-306.438199,9326.594869
5348.589608,-1184.329507,0.000000,9844.739029
5348.589930,-1554.432478,0.000000,8808.450710
5348.590253,-518.144159,536.266849,9030.512492
5348.590575,-1480.411884,383.047749,8364.327145
5348.590898,-1850.514855,-1072.533697,8734.430116
5348.591220,-962.267725,689.485948,8586.388927
5348.591543,-370.102971,459.657299,8586.388927
5348.591865,-444.123565,766.095498,9030.512492
5348.592188,-666.185348,689.485948,11251.130318
5348.592510,-592.164754,153.219100,10584.944971
5348.592833,222.061783,76.609550,8512.368333
5348.593155,-370.102971,536.266849,8660.409521
5348.593478,-296.082377,536.266849,9400.615463
5348.593800,740.205942,306.438199,10066.800811
5348.594123,1406.391290,1608.800546,9400.615463
5348.594445,1776.494261,1302.362347,7476.080014
5348.594768,814.226536,306.438199,8734.430116
5348.595090,444.123565,1072.533697,9104.533087
5348.595413,1258.350101,1608.800546,9918.759623
5348.595735,1406.391290,1455.581446,9178.553681
5348.596058,0.000000,766.095498,10214.842000
5348.596380,-1184.329507,229.828649,10510.924376
5348.596703,0.000000,76.609550,10510.924376
5348.597025,-370.102971,1225.752797,9548.656652
5348.597348,74.020594,995.924147,8660.409521
5348.597670,-222.061783,306.438199,9918.759623
5348.597993,296.082377,459.657299,8068.244768
5348.598316,148.041188,766.095498,7624.121203
5348.598638,74.020594,459.657299,7105.977043
5348.598961,-1036.288319,1149.143247,9178.553681
5348.599283,-1258.350101,459.657299,9622.677246
5348.599606,-592.164754,612.876398,9474.636058
5348.599928,-592.164754,536.266849,8956.491898
5348.600251,-1406.391290,0.000000,8956.491898
5348.600573,-814.226536,306.438199,10362.883188
5348.600896,-370.102971,766.095498,9696.697840
5348.601218,518.144159,1149.143247,9178.553681
5348.601541,1258.350101,1225.752797,7772.162391
5348.601863,0.000000,0.000000,9622.677246
5348.602186,0.000000,76.609550,8660.409521
5348.602508,148.041188,1149.143247,9992.780217
5348.602831,148.041188,306.438199,8808.450710
5348.603153,-592.164754,-459.657299,11621.233289
5348.603476,-1036.288319,-306.438199,10214.842000
5348.603798,-1628.453072,-1302.362347,9696.697840
5348.604121,-888.247130,0.000000,9252.574275
5348.604443,-1332.370696,76.609550,10140.821405
5348.604766,-518.144159,153.219100,9696.697840
5348.605088,1332.370696,689.485948,9326.594869
5348.605411,1332.370696,1225.752797,8290.306550
5348.605733,518.144159,842.705048,8364.327145
5348.606056,962.267725,689.485948,9770.718434
5348.606378,888.247130,766.095498,10288.862594
5348.606701,1036.288319,842.705048,9992.780217
5348.607023,-74.020594,153.219100,10436.903782
5348.607346,-1554.432478,-459.657299,10732.986159
5348.607668,-592.164754,229.828649,9770.718434
5348.607991,-518.144159,229.828649,9030.512492
5348.608313,-740.205942,612.876398,8660.409521
5348.608636,74.020594,995.924147,9474.636058
5348.608958,444.123565,1225.752797,9326.594869
5348.609281,1258.350101,1532.190996,7772.162391
5348.609603,888.247130,1378.971896,7105.977043
5348.609926,444.123565,1532.190996,8290.306550
5348.610248,370.102971,1455.581446,9474.636058
5348.610571,370.102971,1149.143247,10362.883188
5348.610893,-592.164754,1072.533697,9474.636058
5348.611216,-2590.720797,0.000000,8808.450710
5348.611538,-3108.864956,-459.657299,9326.594869
5348.611861,-2072.576638,306.438199,9030.512492
5348.612183,-1702.473667,842.705048,9030.512492
5348.612506,-740.205942,1915.238745,8882.471304
5348.612829,-1554.432478,1072.533697,8660.409521
5348.613151,-1406.391290,842.705048,8216.285956
5348.613474,148.041188,1762.019645,7994.224174
5348.613796,0.000000,1838.629195,8364.327145
5348.614119,222.061783,229.828649,9992.780217
5348.614441,-592.164754,1455.581446,11029.068536
5348.614764,-296.082377,536.266849,10140.821405
5348.615086,-370.102971,76.609550,8586.388927
5348.615409,-1480.411884,229.828649,9622.677246
5348.615731,-962.267725,536.266849,9474.636058
5348.616054,962.267725,842.705048,9770.718434
5348.616376,1480.411884,1762.019645,8808.450710
5348.616699,2072.576638,1532.190996,8216.285956
5348.617021,814.226536,1149.143247,9252.574275
5348.617344,1406.391290,1608.800546,9770.718434
5348.617666,1480.411884,1378.971896,9548.656652
5348.617989,962.267725,1302.362347,9918.759623
5348.618311,296.082377,76.609550,11547.212695
5348.618634,-1110.308913,-459.657299,10288.862594
5348.618956,-370.102971,-536.266849,9252.574275
5348.619279,-1110.308913,0.000000,7772.162391
5348.619601,-1110.308913,-766.095498,7624.121203
5348.619924,-1184.329507,-383.047749,8364.327145
5348.620246,-666.185348,306.438199,7550.100608
5348.620569,-1110.308913,76.609550,7772.162391
5348.620891,-518.144159,76.609550,8142.265362
5348.621214,-222.061783,0.000000,10140.821405
5348.621536,0.000000,689.485948,9696.697840
5348.621859,518.144159,306.438199,10362.883188
5348.622181,-1110.308913,-689.485948,9844.739029
5348.622504,-1924.535449,-1455.581446,10732.986159
5348.622826,-1406.391290,-1149.143247,10362.883188
5348.623149,-296.082377,-995.924147,9252.574275
5348.623471,444.123565,-229.828649,9252.574275
5348.623794,-1406.391290,-306.438199,9400.615463
5348.624116,-814.226536,-1072.533697,8734.430116
5348.624439,592.164754,-536.266849,8068.244768
5348.624761,444.123565,153.219100,8512.368333
5348.625084,592.164754,383.047749,9844.739029
5348.625406,888.247130,229.828649,11473.192101
5348.625729,1184.329507,689.485948,10658.965565
5348.626051,518.144159,-842.705048,8660.409521
5348.626374,-518.144159,-1149.143247,9474.636058
5348.626696,-814.226536,-612.876398,10584.944971
5348.627019,-888.247130,-383.047749,10510.924376
5348.627342,148.041188,76.609550,9622.677246
5348.627664,-148.041188,0.000000,8808.450710
5348.627987,-1332.370696,-689.485948,8216.285956
5348.628309,-592.164754,-306.438199,8882.471304
5348.628632,-222.061783,1225.752797,8586.388927
5348.628954,0.000000,995.924147,9030.512492
5348.629277,-592.164754,842.705048,9844.739029
5348.629599,-444.123565,1072.533697,9696.697840
5348.629922,-222.061783,766.095498,8438.347739
5348.630244,0.000000,1378.971896,8068.244768
5348.630567,-814.226536,1685.410096,8216.285956
5348.630889,222.061783,1455.581446,8290.306550
5348.631212,1184.329507,2528.115143,7920.203579
5348.631534,1110.308913,2374.896044,7920.203579
5348.631857,-222.061783,1225.752797,9252.574275
5348.632179,444.123565,1991.848295,9178.553681
5348.632502,1184.329507,1915.238745,10140.821405
5348.632824,1332.370696,2451.505594,9696.697840
5348.633147,-370.102971,1915.238745,10807.006753
5348.633469,-1924.535449,153.219100,10658.965565
5348.633792,-1036.288319,995.924147,9992.780217
5348.634114,888.247130,1685.410096,8660.409521
5348.634437,1184.329507,2145.067394,8068.244768
5348.634759,740.205942,2145.067394,9474.636058
5348.635082,814.226536,2298.286494,9252.574275
5348.635404,2072.576638,2374.896044,7402.059420
5348.635727,1702.473667,2298.286494,8216.285956
5348.636049,148.041188,1991.848295,8882.471304
5348.636372,-962.267725,1302.362347,10288.862594
5348.636694,74.020594,1302.362347,10288.862594
5348.637017,-1258.350101,1225.752797,9770.718434
5348.637339,-2368.659014,-153.219100,8734.430116
5348.637662,-3256.906145,-383.047749,10584.944971
5348.637984,-2590.720797,0.000000,8660.409521
5348.638307,-740.205942,459.657299,8512.368333
5348.638629,-1924.535449,1149.143247,7402.059420
5348.638952,-1628.453072,-153.219100,8512.368333
5348.639274,-1036.288319,-153.219100,7994.224174
5348.639597,148.041188,612.876398,8364.327145
5348.639919,518.144159,1225.752797,7994.224174
5348.640242,222.061783,689.485948,9548.656652
5348.640564,0.000000,383.047749,10362.883188
5348.640887,370.102971,-153.219100,9030.512492
5348.641209,666.185348,0.000000,8512.368333
5348.641532,0.000000,-306.438199,9844.739029
5348.641855,0.000000,-919.314598,10066.800811
5348.642177,1184.329507,76.609550,10214.842000
5348.642500,740.205942,766.095498,9178.553681
5348.642822,444.123565,-689.485948,9178.553681
5348.643145,0.000000,-1225.752797,10066.800811
5348.643467,-296.082377,-766.095498,10214.842000
5348.643790,0.000000,-459.657299,10658.965565
5348.644112,-1554.432478,-919.314598,10955.047942
5348.644435,-3404.947333,-1915.238745,11177.109724
5348.644757,-2072.576638,-2451.505594,9770.718434
5348.645080,-1332.370696,-2221.676944,9474.636058
5348.645402,-1036.288319,0.000000,8808.450710
5348.645725,-592.164754,-229.828649,10288.862594
5348.646047,296.082377,0.000000,9622.677246
5348.646370,1184.329507,383.047749,8290.306550
5348.646692,1628.453072,536.266849,6957.935855
5348.647015,1110.308913,1762.019645,9696.697840
5348.647337,222.061783,1608.800546,10807.006753
5348.647660,592.164754,919.314598,11325.150913
5348.647982,518.144159,153.219100,9252.574275
5348.648305,-1332.370696,-153.219100,9252.574275
5348.648627,-2220.617826,-612.876398,10362.883188
5348.648950,-1480.411884,0.000000,10214.842000
5348.649272,0.000000,306.438199,8512.368333
5348.649595,592.164754,842.705048,7402.059420
5348.649917,0.000000,1072.533697,7698.141797
5348.650240,962.267725,1685.410096,7846.182985
5348.650562,1924.535449,2911.162892,7698.141797
5348.650885,2590.720797,2987.772442,7550.100608
5348.651207,2368.659014,2451.505594,9104.533087
5348.651530,1332.370696,2145.067394,10436.903782
5348.651852,740.205942,1608.800546,9474.636058
5348.652175,1184.329507,919.314598,8956.491898
5348.652497,-296.082377,1225.752797,9178.553681
5348.652820,-740.205942,919.314598,9992.780217
5348.653142,0.000000,1072.533697,9992.780217
5348.653465,148.041188,2068.457845,9178.553681
5348.653787,-518.144159,1608.800546,8586.388927
5348.654110,-814.226536,1302.362347,8512.368333
5348.654432,-444.123565,1225.752797,9400.615463
5348.654755,-370.102971,2528.115143,8068.244768
5348.655077,-740.205942,2145.067394,8956.491898
5348.655400,-1406.391290,1762.019645,9770.718434
5348.655722,-1924.535449,842.705048,9326.594869
5348.656045,-1628.453072,536.266849,8142.265362
5348.656368,-1036.288319,689.485948,7846.182985
5348.656690,-1850.514855,229.828649,8586.388927
5348.657013,-1480.411884,995.924147,9992.780217
5348.657335,-592.164754,536.266849,8660.409521
5348.657658,0.000000,459.657299,7994.224174
5348.657980,148.041188,459.657299,9252.574275
5348.658303,0.000000,689.485948,10510.924376
5348.658625,1332.370696,919.314598,11843.295072
5348.658948,2590.720797,2374.896044,10066.800811
5348.659270,-296.082377,842.705048,10288.862594
5348.659593,74.020594,76.609550,10214.842000
5348.659915,296.082377,0.000000,10288.862594
5348.660238,592.164754,383.047749,8586.388927
5348.660560,1036.288319,689.485948,8808.450710
5348.660883,-296.082377,536.266849,9400.615463
5348.661205,-592.164754,-306.438199,8364.327145
5348.661528,74.020594,0.000000,7624.121203
5348.661850,-370.102971,536.266849,7624.121203
5348.662173,-1258.350101,-383.047749,9400.615463
5348.662495,-1924.535449,-229.828649,10955.047942
5348.662818,-888.247130,-536.266849,11103.089130
5348.663140,-1850.514855,-383.047749,9770.718434
5348.663463,-2368.659014,-1532.190996,9992.780217
5348.663785,-2516.700203,-1378.971896,9844.739029
5348.664108,-1110.308913,-995.924147,9474.636058
5348.664430,888.247130,306.438199,8808.450710
5348.664753,1110.308913,76.609550,7698.141797
5348.665075,-222.061783,-306.438199,8512.368333
5348.665398,740.205942,536.266849,8660.409521
5348.665720,1554.432478,1149.143247,8882.471304
5348.666043,1036.288319,689.485948,8512.368333
5348.666365,592.164754,919.314598,11177.109724
5348.666688,222.061783,383.047749,10658.965565
5348.667010,518.144159,0.000000,10214.842000
5348.667333,296.082377,536.266849,9178.553681
5348.667655,0.000000,306.438199,9622.677246
5348.667978,-148.041188,0.000000,10214.842000
5348.668300,0.000000,-766.095498,9400.615463
5348.668623,0.000000,919.314598,8142.265362
5348.668945,-74.020594,459.657299,8660.409521
5348.669268,-1110.308913,689.485948,9474.636058
5348.669590,-814.226536,612.876398,9326.594869
5348.669913,-666.185348,919.314598,9548.656652
5348.670235,-1332.370696,1532.190996,9918.759623
5348.670558,-2294.638420,612.876398,9844.739029
5348.670881,-1332.370696,-383.047749,9178.553681
5348.671203,-962.267725,153.219100,8438.347739
5348.671526,-296.082377,229.828649,7476.080014
5348.671848,-592.164754,459.657299,9252.574275
5348.672171,-296.082377,766.095498,8808.450710
5348.672493,296.082377,612.876398,8660.409521
5348.672816,740.205942,2068.457845,7476.080014
5348.673138,296.082377,459.657299,9474.636058
5348.673461,370.102971,842.705048,10584.944971
5348.673783,666.185348,1225.752797,11399.171507
5348.674106,-148.041188,919.314598,9844.739029
5348.674428,0.000000,306.438199,9622.677246
5348.674751,962.267725,689.485948,9918.759623
5348.675073,1406.391290,1838.629195,9326.594869
5348.675396,3182.885551,2298.286494,8216.285956
5348.675718,1332.370696,1915.238745,8364.327145
5348.676041,1850.514855,1762.019645,7402.059420
5348.676363,1850.514855,1225.752797,8438.347739
5348.676686,2072.576638,1915.238745,8216.285956
5348.677008,1998.556043,2145.067394,9400.615463
5348.677331,814.226536,1225.752797,10732.986159
5348.677653,-888.247130,766.095498,11695.253884
5348.677976,-296.082377,0.000000,10658.965565
5348.678298,-740.205942,536.266849,9400.615463
5348.678621,-1924.535449,612.876398,9178.553681
5348.678943,-1776.494261,612.876398,10955.047942
5348.679266,-518.144159,1225.752797,9844.739029
5348.679588,222.061783,1608.800546,7550.100608
5348.679911,-1332.370696,536.266849,6439.791695
5348.680233,-1924.535449,459.657299,7624.121203
5348.680556,-1702.473667,536.266849,8808.450710
5348.680878,-1258.350101,612.876398,8882.471304
5348.681201,-518.144159,995.924147,9918.759623
5348.681523,-3108.864956,0.000000,10140.821405
5348.681846,-3108.864956,-766.095498,10362.883188
5348.682168,-1332.370696,76.609550,9474.636058
5348.682491,-518.144159,766.095498,8956.491898
5348.682813,0.000000,383.047749,8660.409521
5348.683136,0.000000,536.266849,10214.842000
5348.683458,592.164754,1455.581446,8808.450710
5348.683781,888.247130,1302.362347,7698.141797
5348.684103,148.041188,1149.143247,8216.285956
5348.684426,0.000000,229.828649,10584.944971
5348.684748,518.144159,459.657299,9844.739029
5348.685071,222.061783,1225.752797,10658.965565
5348.685394,-1036.288319,-612.876398,9844.739029
5348.685716,-2442.679609,-1378.971896,10066.800811
5348.686039,-1406.391290,-919.314598,9252.574275
5348.686361,-444.123565,0.000000,8660.409521
5348.686684,296.082377,306.438199,8660.409521
5348.687006,-666.185348,-459.657299,8734.430116
5348.687329,-814.226536,-306.438199,8956.491898
5348.687651,592.164754,229.828649,8142.265362
5348.687974,592.164754,1072.533697,8734.430116
5348.688296,1628.453072,766.095498,10066.800811
5348.688619,1036.288319,229.828649,11695.253884
5348.688941,740.205942,0.000000,10436.903782
5348.689264,666.185348,0.000000,9622.677246
5348.689586,-444.123565,-689.485948,9474.636058
5348.689909,-518.144159,-306.438199,9622.677246
5348.690231,296.082377,-766.095498,9474.636058
5348.690554,518.144159,0.000000,8512.368333
5348.690876,74.020594,229.828649,8216.285956
5348.691199,0.000000,-153.219100,8956.491898
5348.691521,148.041188,153.219100,9844.739029
5348.691844,1628.453072,383.047749,9326.594869
5348.692166,888.247130,76.609550,9326.594869
5348.692489,0.000000,0.000000,10584.944971
5348.692811,-1110.308913,-459.657299,10807.006753
5348.693134,-962.267725,-153.219100,10658.965565
5348.693456,-296.082377,306.438199,9104.533087
5348.693779,-962.267725,-383.047749,8586.388927
5348.694101,-1258.350101,-842.705048,9326.594869
5348.694424,-740.205942,0.000000,8956.491898
5348.694746,-148.041188,-306.438199,7846.182985
5348.695069,-518.144159,153.219100,8512.368333
5348.695391,-1184.329507,536.266849,9178.553681
5348.695714,444.123565,842.705048,9992.780217
5348.696036,1406.391290,1608.800546,9030.512492
5348.696359,0.000000,1532.190996,9326.594869
5348.696681,-222.061783,76.609550,9918.759623
5348.697004,-518.144159,383.047749,10584.944971
5348.697326,-518.144159,919.314598,9474.636058
5348.697649,-222.061783,612.876398,8956.491898
5348.697971,-1258.350101,459.657299,9178.553681
5348.698294,-962.267725,842.705048,8734.430116
5348.698616,444.123565,842.705048,8364.327145
5348.698939,888.247130,2298.286494,8364.327145
5348.699261,444.123565,2298.286494,9030.512492
5348.699584,814.226536,2298.286494,10288.862594
5348.699907,814.226536,2451.505594,9918.759623
5348.700229,962.267725,2451.505594,8068.244768
5348.700552,0.000000,1608.800546,8364.327145
5348.700874,-518.144159,1762.019645,9030.512492
5348.701197,148.041188,1915.238745,9030.512492
5348.701519,0.000000,1838.629195,8438.347739
5348.701842,-444.123565,1608.800546,8142.265362
5348.702164,-1850.514855,459.657299,8290.306550
5348.702487,-962.267725,383.047749,8512.368333
5348.702809,222.061783,1608.800546,8734.430116
5348.703132,148.041188,1991.848295,9474.636058
5348.703454,-370.102971,1915.238745,10436.903782
5348.703777,-962.267725,689.485948,10436.903782
5348.704099,222.061783,1225.752797,9548.656652
5348.704422,740.205942,1915.238745,8438.347739
5348.704744,74.020594,1302.362347,9474.636058
5348.705067,296.082377,919.314598,9770.718434
5348.705389,222.061783,1149.143247,9474.636058
5348.705712,296.082377,1072.533697,7402.059420
5348.706034,-666.185348,459.657299,7920.203579
5348.706357,-1406.391290,0.000000,9030.512492
5348.706679,-1184.329507,0.000000,10140.821405
5348.707002,-296.082377,76.609550,9770.718434
5348.707324,-1184.329507,153.219100,9474.636058
5348.707647,-2368.659014,0.000000,9474.636058
5348.707969,-1924.535449,-1302.362347,10066.800811
5348.708292,370.102971,0.000000,9030.512492
5348.708614,518.144159,306.438199,8734.430116
5348.708937,740.205942,536.266849,9918.759623
5348.709259,0.000000,0.000000,10658.965565
5348.709582,0.000000,-459.657299,9474.636058
5348.709904,814.226536,76.609550,8290.306550
5348.710227,0.000000,0.000000,8512.368333
5348.710549,-592.164754,-842.705048,10510.924376
5348.710872,-296.082377,0.000000,11251.130318
5348.711194,-148.041188,0.000000,9696.697840
5348.711517,-740.205942,-689.485948,8808.450710
5348.711839,-1184.329507,-995.924147,9474.636058
5348.712162,-296.082377,153.219100,9844.739029
5348.712484,1184.329507,536.266849,9474.636058
5348.712807,1036.288319,1225.752797,8660.409521
5348.713129,0.000000,0.000000,8882.471304
5348.713452,-444.123565,-536.266849,9474.636058
5348.713775,-740.205942,0.000000,9474.636058
5348.714097,222.061783,229.828649,8882.471304
5348.714420,-1110.308913,229.828649,10066.800811
5348.714742,-1924.535449,-459.657299,9918.759623
5348.715065,-1184.329507,-306.438199,9326.594869
5348.715387,-1036.288319,229.828649,8216.285956
5348.715710,-1406.391290,612.876398,8734.430116
5348.716032,-1036.288319,459.657299,9104.533087
5348.716355,0.000000,766.095498,10288.862594
5348.716677,1258.350101,1455.581446,7624.121203
5348.717000,814.226536,612.876398,8142.265362
5348.717322,814.226536,1072.533697,9474.636058
5348.717645,0.000000,1378.971896,9918.759623
5348.717967,74.020594,1149.143247,8956.491898
5348.718290,1110.308913,1225.752797,9252.574275
5348.718612,-1184.329507,842.705048,9326.594869
5348.718935,-666.185348,0.000000,9474.636058
5348.719257,-518.144159,766.095498,9326.594869
5348.719580,666.185348,1915.238745,9252.574275
5348.719902,1036.288319,2068.457845,9474.636058
5348.720225,444.123565,1915.238745,10140.821405
5348.720547,1258.350101,1608.800546,9178.553681
5348.720870,2072.576638,1685.410096,8216.285956
5348.721192,888.247130,1915.238745,9104.533087
5348.721515,518.144159,1378.971896,9992.780217
5348.721837,0.000000,1149.143247,10584.944971
5348.722160,296.082377,1302.362347,9252.574275
5348.722482,-370.102971,0.000000,8660.409521
5348.722805,-1628.453072,306.438199,8290.306550
5348.723127,-962.267725,536.266849,9474.636058
5348.723450,0.000000,842.705048,9178.553681
5348.723772,222.061783,2068.457845,9326.594869
5348.724095,-222.061783,1762.019645,9030.512492
5348.724417,-740.205942,995.924147,9326.594869
5348.724740,370.102971,1838.629195,9474.636058
5348.725062,666.185348,1532.190996,8956.491898
5348.725385,148.041188,1149.143247,9548.656652
5348.725707,-222.061783,995.924147,10362.883188
5348.726030,-1554.432478,459.657299,9548.656652
5348.726352,-888.247130,229.828649,8068.244768
5348.726675,-592.164754,995.924147,7698.141797
5348.726997,-1628.453072,689.485948,8290.306550
5348.727320,-370.102971,536.266849,8364.327145
5348.727642,0.000000,842.705048,8512.368333
5348.727965,-814.226536,766.095498,7698.141797
5348.728288,-1406.391290,536.266849,8956.491898
5348.728610,-1554.432478,76.609550,9844.739029
5348.728933,-1258.350101,0.000000,9622.677246
5348.729255,-296.082377,76.609550,9252.574275
5348.729578,-888.247130,0.000000,10732.986159
5348.729900,-962.267725,-612.876398,10214.842000
5348.730223,-888.247130,-766.095498,11473.192101
5348.730545,0.000000,-229.828649,7920.203579
5348.730868,0.000000,-536.266849,9548.656652
5348.731190,-370.102971,153.219100,9326.594869
5348.731513,-370.102971,383.047749,10658.965565
5348.731835,444.123565,0.000000,8660.409521
5348.732158,0.000000,0.000000,9178.553681
5348.732480,-148.041188,0.000000,10140.821405
5348.732803,0.000000,-306.438199,10881.027347
5348.733125,296.082377,459.657299,11251.130318
5348.733448,-1554.432478,229.828649,9326.594869
5348.733770,-1332.370696,-919.314598,9844.739029
5348.734093,-296.082377,-689.485948,8734.430116
5348.734415,0.000000,-76.609550,8216.285956
5348.734738,1036.288319,306.438199,7772.162391
5348.735060,0.000000,689.485948,8734.430116
5348.735383,592.164754,153.219100,8956.491898
5348.735705,1110.308913,1072.533697,9104.533087
5348.736028,592.164754,689.485948,8438.347739
5348.736350,-444.123565,0.000000,8808.450710
5348.736673,-296.082377,689.485948,9696.697840
5348.736995,0.000000,612.876398,10732.986159
5348.737318,-222.061783,306.438199,8734.430116
5348.737640,-1406.391290,-306.438199,9030.512492
5348.737963,-1628.453072,-383.047749,8512.368333
5348.738285,-1036.288319,-995.924147,9326.594869
5348.738608,740.205942,766.095498,8142.265362
5348.738930,-148.041188,536.266849,9104.533087
5348.739253,-740.205942,0.000000,8586.388927
5348.739575,-592.164754,0.000000,9918.759623
5348.739898,222.061783,995.924147,9474.636058
5348.740220,370.102971,2145.067394,10658.965565
5348.740543,222.061783,1072.533697,10214.842000
5348.740865,-1036.288319,306.438199,10807.006753
5348.741188,296.082377,-229.828649,8660.409521
5348.741510,814.226536,536.266849,8068.244768
5348.741833,-518.144159,995.924147,8438.347739
5348.742156,-1258.350101,306.438199,10140.821405
5348.742478,-1332.370696,76.609550,9400.615463
5348.742801,222.061783,0.000000,7994.224174
5348.743123,740.205942,536.266849,7550.100608
5348.743446,-814.226536,306.438199,10214.842000
5348.743768,-962.267725,612.876398,10955.047942
5348.744091,-296.082377,536.266849,10881.027347
5348.744413,-148.041188,1225.752797,10066.800811
5348.744736,0.000000,842.705048,9178.553681
5348.745058,1258.350101,0.000000,9548.656652
5348.745381,1110.308913,1455.581446,8956.491898
5348.745703,2072.576638,1762.019645,8438.347739
5348.746026,2368.659014,2145.067394,8290.306550
5348.746348,1998.556043,1762.019645,9104.533087
5348.746671,1332.370696,1225.752797,8290.306550
5348.746993,1480.411884,1378.971896,8586.388927
5348.747316,1628.453072,2451.505594,8068.244768
5348.747638,74.020594,919.314598,10140.821405
5348.747961,-296.082377,76.609550,10732.986159
5348.748283,-1702.473667,229.828649,10436.903782
5348.748606,-1924.535449,306.438199,8734.430116
5348.748928,-1998.556043,459.657299,9252.574275
5348.749251,-1776.494261,919.314598,9178.553681
5348.749573,444.123565,1532.190996,9178.553681
5348.749896,518.144159,1838.629195,7772.162391
5348.750218,-222.061783,1762.019645,7402.059420
5348.750541,-370.102971,1455.581446,9030.512492
5348.750863,-740.205942,1762.019645,9622.677246
5348.751186,0.000000,1762.019645,9474.636058
5348.751508,-444.123565,689.485948,9844.739029
5348.751831,-1702.473667,153.219100,10140.821405
5348.752153,-1628.453072,76.609550,10066.800811
5348.752476,-2146.597232,-229.828649,9252.574275
5348.752798,-1702.473667,536.266849,8734.430116
5348.753121,-1480.411884,76.609550,9622.677246
5348.753443,0.000000,383.047749,9918.759623
5348.753766,1036.288319,1149.143247,9104.533087
5348.754088,592.164754,689.485948,8068.244768
5348.754411,1036.288319,842.705048,8364.327145
5348.754733,888.247130,1762.019645,10436.903782
5348.755056,444.123565,1608.800546,10436.903782
5348.755378,740.205942,1302.362347,10362.883188
5348.755701,-1184.329507,-229.828649,10066.800811
5348.756024,-1258.350101,-1072.533697,9178.553681
5348.756346,-296.082377,-689.485948,9400.615463
5348.756669,0.000000,153.219100,8068.244768
5348.756991,-370.102971,76.609550,8956.491898
5348.757314,-814.226536,76.609550,9474.636058
5348.757636,-296.082377,0.000000,8956.491898
5348.757959,814.226536,383.047749,7772.162391
5348.758281,444.123565,459.657299,8586.388927
5348.758604,148.041188,76.609550,9918.759623
5348.758926,222.061783,-229.828649,10140.821405
5348.759249,-296.082377,766.095498,9400.615463
5348.759571,-666.185348,-383.047749,9622.677246
5348.759894,-1554.432478,-383.047749,8734.430116
5348.760216,-1332.370696,-612.876398,9622.677246
5348.760539,666.185348,76.609550,8586.388927
5348.760861,444.123565,766.095498,9548.656652
5348.761184,666.185348,612.876398,8956.491898
5348.761506,370.102971,0.000000,9252.574275
5348.761829,1850.514855,766.095498,9992.780217
5348.762151,2072.576638,1532.190996,8808.450710
5348.762474,962.267725,919.314598,10436.903782
5348.762796,518.144159,689.485948,11029.068536
5348.763119,-370.102971,-153.219100,10955.047942
5348.763441,296.082377,0.000000,8660.409521
5348.763764,444.123565,612.876398,8512.368333
5348.764086,-518.144159,153.219100,9104.533087
5348.764409,-222.061783,229.828649,9844.739029
5348.764731,148.041188,612.876398,9104.533087
5348.765054,74.020594,459.657299,7698.141797
5348.765376,-888.247130,0.000000,8438.347739
5348.765699,-1998.556043,306.438199,10140.821405
5348.766021,-962.267725,76.609550,10140.821405
5348.766344,-296.082377,612.876398,9400.615463
5348.766666,-1850.514855,383.047749,9400.615463
5348.766989,-2442.679609,-995.924147,9326.594869
5348.767311,-2146.597232,-612.876398,9178.553681
5348.767634,-1184.329507,842.705048,8586.388927
5348.767956,296.082377,1302.362347,8808.450710
5348.768279,0.000000,1302.362347,9326.594869
5348.768601,444.123565,1302.362347,9252.574275
5348.768924,888.247130,1302.362347,8142.265362
5348.769246,814.226536,1915.238745,8660.409521
5348.769569,1924.535449,2298.286494,9326.594869
5348.769891,2368.659014,2298.286494,10732.986159
5348.770214,2590.720797,2604.724693,11029.068536
5348.770537,1406.391290,2757.943793,9474.636058
5348.770859,1480.411884,1685.410096,8660.409521
5348.771182,740.205942,1685.410096,8586.388927
5348.771504,444.123565,1225.752797,8808.450710
5348.771827,74.020594,1149.143247,8808.450710
5348.772149,-1258.350101,1225.752797,8808.450710
5348.772472,-2146.597232,536.266849,8586.388927
5348.772794,-2664.741391,-229.828649,8512.368333
5348.773117,-2812.782580,842.705048,8586.388927
5348.773439,-2960.823768,536.266849,8956.491898
5348.773762,-3849.070898,0.000000,10510.924376
5348.774084,-2146.597232,229.828649,10214.842000
5348.774407,-1776.494261,536.266849,8734.430116
5348.774729,-1628.453072,766.095498,8142.265362
5348.775052,-888.247130,689.485948,8660.409521
5348.775374,444.123565,1225.752797,9178.553681
5348.775697,1850.514855,1685.410096,9622.677246
5348.776019,2738.761985,1915.238745,8808.450710
5348.776342,1480.411884,1302.362347,10066.800811
5348.776664,1036.288319,689.485948,9992.780217
5348.776987,1184.329507,689.485948,10955.047942
5348.777309,1480.411884,1225.752797,9918.759623
5348.777632,444.123565,919.314598,11103.089130
5348.777954,-444.123565,76.609550,9696.697840
5348.778277,0.000000,-306.438199,9400.615463
5348.778599,1184.329507,689.485948,7402.059420
5348.778922,0.000000,1149.143247,7698.141797
5348.779244,-444.123565,306.438199,8808.450710
5348.779567,-962.267725,0.000000,9548.656652
5348.779889,-666.185348,459.657299,7772.162391
5348.780212,370.102971,0.000000,8438.347739
5348.780534,-1184.329507,306.438199,9178.553681
5348.780857,-2368.659014,-612.876398,10732.986159
5348.781179,-740.205942,-842.705048,9992.780217
5348.781502,-1036.288319,-459.657299,9844.739029
5348.781824,-740.205942,-383.047749,9030.512492
5348.782147,-888.247130,-612.876398,9548.656652
5348.782469,1036.288319,0.000000,9252.574275
5348.782792,2294.638420,1225.752797,8882.471304
5348.783114,666.185348,995.924147,8956.491898
5348.783437,666.185348,306.438199,9474.636058
5348.783759,74.020594,-229.828649,9326.594869
5348.784082,666.185348,229.828649,8808.450710
5348.784405,1036.288319,76.609550,8586.388927
5348.784727,-666.185348,229.828649,10362.883188
5348.785050,-1924.535449,-1072.533697,11399.171507
5348.785372,-1924.535449,-1072.533697,10214.842000
5348.785695,-2146.597232,-1149.143247,8808.450710
5348.786017,-1480.411884,-766.095498,9252.574275
5348.786340,-1628.453072,-536.266849,9918.759623
5348.786662,444.123565,0.000000,9844.739029
5348.786985,1776.494261,689.485948,8882.471304
5348.787307,1036.288319,1072.533697,8586.388927
5348.787630,1332.370696,612.876398,9696.697840
5348.787952,592.164754,1149.143247,10214.842000
5348.788275,740.205942,1302.362347,9844.739029
5348.788597,1184.329507,306.438199,9770.718434
5348.788920,-1110.308913,0.000000,9770.718434
5348.789243,-1850.514855,-459.657299,9844.739029
5348.789565,-518.144159,306.438199,9400.615463
5348.789888,-814.226536,1072.533697,8438.347739
5348.790211,-444.123565,995.924147,8660.409521
5348.790534,-518.144159,1072.533697,9400.615463
5348.790856,740.205942,1762.019645,8364.327145
5348.791179,1184.329507,1991.848295,7402.059420
5348.791502,444.123565,2374.896044,8364.327145
5348.791824,666.185348,1762.019645,9178.553681
5348.792147,1110.308913,1915.238745,9104.533087
5348.792470,962.267725,2451.505594,9844.739029
5348.792793,-518.144159,1608.800546,9474.636058
5348.793115,-1184.329507,0.000000,9326.594869
5348.793438,-370.102971,459.657299,8364.327145
5348.793761,-444.123565,1532.190996,8438.347739
5348.794083,222.061783,1915.238745,8068.244768
5348.794406,-740.205942,1762.019645,9400.615463
5348.794729,296.082377,1072.533697,8586.388927
5348.795052,1406.391290,1455.581446,7920.203579
5348.795374,0.000000,1762.019645,8512.368333
5348.795697,-740.205942,1762.019645,10658.965565
5348.796020,-814.226536,919.314598,11843.295072
5348.796342,-1332.370696,612.876398,10732.986159
5348.796665,-1554.432478,306.438199,9400.615463
5348.796988,-2146.597232,-229.828649,8882.471304
5348.797311,-2220.617826,0.000000,9104.533087
5348.797633,-962.267725,383.047749,9474.636058
5348.797956,-518.144159,612.876398,8068.244768
5348.798279,-518.144159,536.266849,8364.327145
5348.798601,-1332.370696,689.485948,8512.368333
5348.798924,444.123565,536.266849,9992.780217
5348.799247,1850.514855,689.485948,9474.636058
5348.799570,1184.329507,1302.362347,9326.594869
5348.799892,-148.041188,229.828649,10955.047942
5348.800215,-1258.350101,-306.438199,11325.150913
5348.800538,-814.226536,-153.219100,10510.924376
5348.800860,0.000000,459.657299,8512.368333
5348.801183,-444.123565,459.657299,9030.512492
5348.801506,222.061783,-689.485948,9400.615463
5348.801829,814.226536,153.219100,8956.491898
5348.802151,370.102971,536.266849,7698.141797
5348.802474,444.123565,612.876398,8364.327145
5348.802797,518.144159,306.438199,10436.903782
5348.803119,1554.432478,766.095498,10140.821405
5348.803442,1184.329507,689.485948,10362.883188
5348.803765,0.000000,919.314598,9844.739029
5348.804088,-370.102971,-383.047749,10140.821405
5348.804410,-1110.308913,-842.705048,9474.636058
5348.804733,-740.205942,-383.047749,8364.327145
5348.805056,-296.082377,0.000000,8142.265362
5348.805378,-888.247130,153.219100,8142.265362
5348.805701,-740.205942,76.609550,7772.162391
5348.806024,-444.123565,-229.828649,7994.224174
5348.806347,-1406.391290,-153.219100,8364.327145
5348.806669,-1110.308913,229.828649,9770.718434
5348.806992,-962.267725,0.000000,10510.924376
5348.807315,148.041188,766.095498,11473.192101
5348.807637,222.061783,536.266849,10214.842000
5348.807960,-148.041188,-689.485948,9844.739029
5348.808283,296.082377,-153.219100,10436.903782
5348.808606,370.102971,-383.047749,9326.594869
5348.808928,1036.288319,459.657299,9474.636058
5348.809251,962.267725,536.266849,9474.636058
5348.809574,-592.164754,0.000000,9400.615463
5348.809896,222.061783,-1072.533697,9178.553681
5348.810219,1258.350101,76.609550,9548.656652
5348.810542,0.000000,459.657299,9844.739029
5348.810865,-1628.453072,306.438199,11325.150913
5348.811187,-1554.432478,-383.047749,12139.377449
5348.811510,-740.205942,-383.047749,10066.800811
5348.811833,-814.226536,0.000000,8956.491898
5348.812155,-2590.720797,-612.876398,9400.615463
5348.812478,-1110.308913,0.000000,9474.636058
5348.812801,296.082377,995.924147,8364.327145
5348.813124,296.082377,2068.457845,7624.121203
5348.813446,444.123565,1302.362347,6957.935855
5348.813769,-666.185348,689.485948,8882.471304
5348.814092,0.000000,1762.019645,8734.430116
5348.814414,1332.370696,1838.629195,8882.471304
5348.814737,740.205942,1685.410096,8956.491898
5348.815060,-1332.370696,919.314598,9474.636058
5348.815382,-666.185348,766.095498,9400.615463
5348.815705,888.247130,1149.143247,9030.512492
5348.816028,962.267725,1991.848295,7994.224174
5348.816351,1110.308913,1762.019645,9252.574275
5348.816673,1110.308913,1455.581446,9770.718434
5348.816996,1110.308913,1915.238745,8438.347739
5348.817319,2738.761985,2987.772442,8364.327145
5348.817641,1036.288319,2374.896044,8586.388927
5348.817964,-148.041188,2068.457845,9770.718434
5348.818287,-592.164754,1225.752797,11029.068536
5348.818610,-740.205942,1608.800546,9696.697840
5348.818932,-1332.370696,1149.143247,9030.512492
5348.819255,-1776.494261,153.219100,9104.533087
5348.819578,-2146.597232,229.828649,9548.656652
5348.819900,-1110.308913,383.047749,8808.450710
5348.820223,-1554.432478,995.924147,7698.141797
5348.820546,-370.102971,1302.362347,7772.162391
5348.820869,-814.226536,842.705048,9474.636058
5348.821191,0.000000,1455.581446,9326.594869
5348.821514,0.000000,1378.971896,9918.759623
5348.821837,-592.164754,1149.143247,10214.842000
5348.822159,-1184.329507,229.828649,11769.274478
5348.822482,-1628.453072,0.000000,10436.903782
5348.822805,-1628.453072,-536.266849,9548.656652
5348.823128,-888.247130,0.000000,9252.574275
5348.823450,-592.164754,229.828649,9622.677246
5348.823773,1702.473667,995.924147,8734.430116
5348.824096,1998.556043,1455.581446,7698.141797
5348.824418,962.267725,1225.752797,7031.956449
5348.824741,1036.288319,536.266849,8512.368333
5348.825064,1406.391290,383.047749,8882.471304
5348.825387,814.226536,842.705048,9622.677246
5348.825709,370.102971,689.485948,9844.739029
5348.826032,-1776.494261,-995.924147,11177.109724
5348.826355,-1776.494261,-1302.362347,9696.697840
5348.826677,-740.205942,-1762.019645,9696.697840
5348.827000,-962.267725,-1072.533697,8290.306550
5348.827323,-1036.288319,-383.047749,9104.533087
5348.827646,-814.226536,-459.657299,10066.800811
5348.827968,444.123565,-229.828649,9326.594869
5348.828291,1332.370696,-536.266849,7254.018232
5348.828614,222.061783,0.000000,8068.244768
5348.828936,592.164754,612.876398,10436.903782
5348.829259,444.123565,306.438199,11029.068536
5348.829582,222.061783,0.000000,10732.986159
5348.829905,-1332.370696,-153.219100,10288.862594
5348.830227,-2368.659014,-1685.410096,10288.862594
5348.830550,-2146.597232,-1302.362347,10510.924376
5348.830873,-962.267725,-383.047749,8956.491898
5348.831195,0.000000,76.609550,8290.306550
5348.831518,0.000000,-306.438199,7698.141797
5348.831841,222.061783,459.657299,8512.368333
5348.832164,1924.535449,1302.362347,8660.409521
5348.832486,2146.597232,2068.457845,8586.388927
5348.832809,1332.370696,1685.410096,9770.718434
5348.833132,666.185348,995.924147,11103.089130
5348.833454,-370.102971,2604.724693,11029.068536
5348.833777,370.102971,1149.143247,9474.636058
5348.834100,518.144159,459.657299,9104.533087
5348.834423,-740.205942,459.657299,9030.512492
5348.834745,-444.123565,995.924147,9548.656652
5348.835068,-592.164754,842.705048,9252.574275
5348.835391,-1184.329507,1149.143247,7920.203579
5348.835713,-1480.411884,612.876398,7846.182985
5348.836036,-1332.370696,459.657299,9030.512492
5348.836359,0.000000,1302.362347,9178.553681
5348.836682,-592.164754,1915.238745,9622.677246
5348.837004,-1406.391290,1532.190996,10732.986159
5348.837327,-962.267725,766.095498,10362.883188
5348.837650,-1184.329507,536.266849,8808.450710
5348.837972,222.061783,1378.971896,8586.388927
5348.838295,-148.041188,2068.457845,9030.512492
5348.838618,74.020594,1149.143247,9622.677246
5348.838941,1184.329507,1455.581446,8438.347739
5348.839263,888.247130,1608.800546,7772.162391
5348.839586,1406.391290,2068.457845,7624.121203
5348.839909,888.247130,2068.457845,9770.718434
5348.840231,1850.514855,2298.286494,10214.842000
5348.840554,2812.782580,1838.629195,9548.656652
5348.840877,1184.329507,1685.410096,9326.594869
5348.841200,0.000000,995.924147,10288.862594
5348.841522,-740.205942,842.705048,11029.068536
5348.841845,-962.267725,842.705048,8956.491898
5348.842168,74.020594,995.924147,7994.224174
5348.842490,-518.144159,766.095498,8142.265362
5348.842813,-1850.514855,536.266849,8586.388927
5348.843136,-1628.453072,0.000000,8068.244768
5348.843458,-1110.308913,536.266849,7550.100608
5348.843781,-1406.391290,536.266849,8586.388927
5348.844104,-2146.597232,153.219100,10214.842000
5348.844427,-1184.329507,306.438199,11621.233289
5348.844749,-1406.391290,842.705048,10362.883188
5348.845072,-1406.391290,0.000000,8142.265362
5348.845395,-740.205942,-306.438199,9474.636058
5348.845717,-666.185348,76.609550,9770.718434
5348.846040,962.267725,842.705048,9548.656652
5348.846363,1776.494261,1378.971896,8956.491898
5348.846686,518.144159,689.485948,8808.450710
5348.847008,962.267725,76.609550,8808.450710
5348.847331,1184.329507,306.438199,9474.636058
5348.847654,962.267725,1225.752797,10214.842000
5348.847976,444.123565,612.876398,10881.027347
5348.848299,-222.061783,0.000000,11029.068536
5348.848622,0.000000,-383.047749,10658.965565
5348.848945,-592.164754,-383.047749,8734.430116
5348.849267,-1332.370696,0.000000,9252.574275
5348.849590,222.061783,-153.219100,8586.388927
5348.849913,-296.082377,-229.828649,9252.574275
5348.850235,148.041188,1225.752797,7846.182985
5348.850558,-1036.288319,-383.047749,7624.121203
5348.850881,-1776.494261,-383.047749,8216.285956
5348.851204,-1184.329507,0.000000,8734.430116
5348.851526,0.000000,0.000000,9474.636058
5348.851849,0.000000,383.047749,10732.986159
5348.852172,-1332.370696,-536.266849,10955.047942
5348.852494,-962.267725,-995.924147,10214.842000
5348.852817,0.000000,-995.924147,9696.697840
5348.853140,-296.082377,0.000000,8956.491898
5348.853463,148.041188,-306.438199,9696.697840
5348.853785,222.061783,0.000000,10510.924376
5348.854108,740.205942,612.876398,9548.656652
5348.854431,1332.370696,766.095498,8660.409521
5348.854753,-1036.288319,306.438199,8660.409521
5348.855076,-1554.432478,0.000000,9548.656652
5348.855399,148.041188,229.828649,10436.903782
5348.855722,-444.123565,383.047749,9992.780217
5348.856044,-962.267725,153.219100,9104.533087
5348.856367,-2368.659014,-459.657299,9548.656652
5348.856690,-1702.473667,0.000000,9252.574275
5348.857012,-1184.329507,0.000000,8660.409521
5348.857335,-296.082377,766.095498,7698.141797
5348.857658,-888.247130,229.828649,8660.409521
5348.857981,370.102971,-306.438199,9252.574275
5348.858303,444.123565,612.876398,9178.553681
5348.858626,1406.391290,1685.410096,9326.594869
5348.858949,296.082377,1225.752797,11177.109724
5348.859271,-740.205942,1225.752797,10955.047942
5348.859594,370.102971,842.705048,10955.047942
5348.859917,888.247130,689.485948,8216.285956
5348.860240,962.267725,1378.971896,8216.285956
5348.860562,0.000000,1149.143247,9030.512492
5348.860885,518.144159,1072.533697,9178.553681
5348.861208,2368.659014,1838.629195,7772.162391
5348.861530,1332.370696,1302.362347,6735.874072
5348.861853,1036.288319,1532.190996,7550.100608
5348.862176,444.123565,919.314598,9326.594869
5348.862499,518.144159,1915.238745,9622.677246
5348.862821,1480.411884,1838.629195,9844.739029
5348.863144,-740.205942,612.876398,10658.965565
5348.863467,-2146.597232,306.438199,11399.171507
5348.863789,-1184.329507,-1455.581446,10881.027347
5348.864112,-1702.473667,76.609550,9474.636058
5348.864435,-814.226536,995.924147,9104.533087
5348.864758,-518.144159,536.266849,9474.636058
5348.865080,444.123565,1302.362347,8660.409521
5348.865403,1628.453072,1991.848295,7031.956449
5348.865726,592.164754,2068.457845,7476.080014
5348.866048,444.123565,1378.971896,8512.368333
5348.866371,0.000000,1302.362347,10881.027347
5348.866694,0.000000,919.314598,9844.739029
5348.867017,-888.247130,766.095498,10584.944971
5348.867339,-2442.679609,-306.438199,9474.636058
5348.867662,-2072.576638,-919.314598,9918.759623
5348.867985,-1554.432478,536.266849,9252.574275
5348.868307,-1406.391290,1225.752797,8882.471304
5348.868630,-1332.370696,1072.533697,8882.471304
5348.868953,-666.185348,459.657299,8512.368333
5348.869275,814.226536,536.266849,8068.244768
5348.869598,1332.370696,842.705048,7698.141797
5348.869921,-444.123565,1608.800546,9696.697840
5348.870244,444.123565,1455.581446,11103.089130
5348.870566,0.000000,0.000000,11177.109724
5348.870889,-370.102971,459.657299,9474.636058
5348.871212,0.000000,0.000000,8512.368333
5348.871534,-1850.514855,-919.314598,9178.553681
5348.871857,-888.247130,-383.047749,9474.636058
5348.872180,74.020594,0.000000,8956.491898
5348.872503,-148.041188,229.828649,8290.306550
5348.872825,-888.247130,-612.876398,8290.306550
5348.873148,-222.061783,76.609550,9548.656652
5348.873471,1480.411884,766.095498,9474.636058
5348.873793,2072.576638,1072.533697,9770.718434
5348.874116,962.267725,766.095498,10214.842000
5348.874439,0.000000,383.047749,11103.089130
5348.874762,-222.061783,383.047749,9992.780217
5348.875084,518.144159,919.314598,8586.388927
5348.875407,444.123565,153.219100,8068.244768
5348.875730,-444.123565,0.000000,8068.244768
5348.876052,-740.205942,0.000000,8660.409521
5348.876375,0.000000,153.219100,8586.388927
5348.876698,0.000000,0.000000,7402.059420
5348.877021,-666.185348,-306.438199,8808.450710
5348.877343,-444.123565,-306.438199,9992.780217
5348.877666,222.061783,383.047749,10658.965565
5348.877989,-666.185348,1072.533697,9770.718434
5348.878311,-1258.350101,76.609550,10658.965565
5348.878634,-814.226536,-689.485948,10066.800811
5348.878957,-222.061783,229.828649,10288.862594
5348.879280,296.082377,919.314598,10066.800811
5348.879602,222.061783,229.828649,9252.574275
5348.879925,0.000000,-306.438199,8660.409521
5348.880248,222.061783,76.609550,7846.182985
5348.880570,296.082377,1225.752797,8068.244768
5348.880893,-814.226536,919.314598,9252.574275
5348.881216,-666.185348,459.657299,10214.842000
5348.881539,148.041188,306.438199,10732.986159
5348.881861,370.102971,536.266849,9178.553681
5348.882184,-740.205942,306.438199,9474.636058
5348.882507,-888.247130,383.047749,10214.842000
5348.882829,-296.082377,1072.533697,9992.780217
5348.883152,518.144159,1072.533697,8808.450710
5348.883475,962.267725,1685.410096,8364.327145
5348.883798,-666.185348,1225.752797,8364.327145
5348.884120,-592.164754,919.314598,8512.368333
5348.884443,518.144159,536.266849,8068.244768
5348.884766,518.144159,1608.800546,7402.059420
5348.885088,-444.123565,1149.143247,9030.512492
5348.885411,-1258.350101,689.485948,10362.883188
5348.885734,-740.205942,383.047749,9844.739029
5348.886057,666.185348,919.314598,8364.327145
5348.886379,74.020594,1608.800546,8364.327145
5348.886702,1110.308913,1532.190996,9400.615463
5348.887025,370.102971,1072.533697,9474.636058
5348.887347,1036.288319,1838.629195,8142.265362
5348.887670,1332.370696,2068.457845,7254.018232
5348.887993,74.020594,1991.848295,8364.327145
5348.888316,-444.123565,1225.752797,10140.821405
5348.888638,0.000000,1302.362347,10066.800811
5348.888961,0.000000,1149.143247,9770.718434
5348.889284,-740.205942,995.924147,9548.656652
5348.889606,-2590.720797,306.438199,9844.739029
5348.889929,-1110.308913,612.876398,9696.697840
5348.890252,148.041188,1149.143247,9030.512492
5348.890575,0.000000,1225.752797,8734.430116
5348.890897,-370.102971,689.485948,9992.780217
5348.891220,-888.247130,459.657299,9030.512492
5348.891543,-592.164754,612.876398,8808.450710
5348.891865,444.123565,1455.581446,8216.285956
5348.892188,-1332.370696,1072.533697,10066.800811
5348.892511,-1332.370696,306.438199,10288.862594
5348.892834,-888.247130,306.438199,10140.821405
5348.893156,-1702.473667,-229.828649,8660.409521
5348.893479,-1998.556043,-689.485948,9104.533087
5348.893802,-1480.411884,0.000000,9252.574275
5348.894125,-296.082377,306.438199,9622.677246
5348.894447,1184.329507,306.438199,8142.265362
5348.894770,148.041188,153.219100,9252.574275
5348.895093,-296.082377,-306.438199,9104.533087
5348.895416,148.041188,-229.828649,8660.409521
5348.895738,222.061783,0.000000,8808.450710
5348.896061,666.185348,536.266849,9178.553681
5348.896384,-740.205942,-383.047749,9918.759623
5348.896707,-148.041188,-612.876398,9474.636058
5348.897029,148.041188,-1225.752797,9326.594869
5348.897352,-444.123565,-383.047749,9030.512492
5348.897675,-222.061783,-612.876398,10140.821405
5348.897998,296.082377,-536.266849,10214.842000
5348.898320,1480.411884,842.705048,9548.656652
5348.898643,1554.432478,383.047749,7476.080014
5348.898966,1036.288319,76.609550,9326.594869
5348.899289,444.123565,0.000000,10436.903782
5348.899611,-296.082377,0.000000,10066.800811
5348.899934,0.000000,0.000000,9326.594869
5348.900257,-1480.411884,-306.438199,10140.821405
5348.900580,-3701.029710,-1149.143247,10362.883188
5348.900902,-2072.576638,-1455.581446,9474.636058
5348.901225,-1332.370696,76.609550,9252.574275
5348.901548,-740.205942,612.876398,7994.224174
5348.901871,-814.226536,153.219100,9400.615463
5348.902193,-814.226536,842.705048,9252.574275
5348.902516,1110.308913,1149.143247,8290.306550
5348.902839,1406.391290,1532.190996,7179.997637
5348.903162,1036.288319,1762.019645,9400.615463
5348.903484,1406.391290,2298.286494,10658.965565
5348.903807,1406.391290,1838.629195,10584.944971
5348.904130,814.226536,2145.067394,9030.512492
5348.904453,-888.247130,919.314598,9326.594869
5348.904775,-814.226536,459.657299,8808.450710
5348.905098,74.020594,919.314598,9622.677246
5348.905421,666.185348,1378.971896,8512.368333
5348.905744,-222.061783,1225.752797,9252.574275
5348.906066,-1406.391290,0.000000,8216.285956
5348.906389,-518.144159,0.000000,8956.491898
5348.906712,296.082377,1455.581446,8364.327145
5348.907035,0.000000,1915.238745,9474.636058
5348.907357,370.102971,1378.971896,9992.780217
5348.907680,-518.144159,919.314598,9696.697840
5348.908003,-222.061783,842.705048,8364.327145
5348.908326,814.226536,1072.533697,7772.162391
5348.908648,-666.185348,919.314598,8808.450710
5348.908971,-1036.288319,459.657299,9400.615463
5348.909294,592.164754,459.657299,8956.491898
5348.909617,370.102971,919.314598,8364.327145
5348.909939,296.082377,1225.752797,8734.430116
5348.910262,-444.123565,919.314598,10214.842000
5348.910585,1110.308913,306.438199,9844.739029
5348.910908,2146.597232,1149.143247,10510.924376
5348.911231,740.205942,1072.533697,10510.924376
5348.911553,-222.061783,459.657299,11325.150913
5348.911876,0.000000,0.000000,10214.842000
5348.912199,370.102971,459.657299,9474.636058
5348.912522,370.102971,1149.143247,8660.409521
5348.912844,74.020594,1225.752797,9770.718434
5348.913167,-592.164754,536.266849,9918.759623
5348.913490,-666.185348,229.828649,8882.471304
5348.913813,-814.226536,153.219100,8438.347739
5348.914135,-1480.411884,842.705048,9252.574275
5348.914458,-1628.453072,689.485948,11103.089130
5348.914781,-592.164754,536.266849,10584.944971
5348.915104,-814.226536,459.657299,9400.615463
5348.915426,-1924.535449,229.828649,8290.306550
5348.915749,-1998.556043,0.000000,9326.594869
5348.916072,-1924.535449,459.657299,9104.533087
5348.916395,-444.123565,1302.362347,8216.285956
5348.916717,296.082377,766.095498,7031.956449
5348.917040,-592.164754,1225.752797,7772.162391
5348.917363,222.061783,1685.410096,7920.203579
5348.917686,444.123565,1762.019645,8808.450710
5348.918008,592.164754,2298.286494,8216.285956
5348.918331,296.082377,1608.800546,9548.656652
5348.918654,74.020594,1149.143247,10214.842000
5348.918977,1332.370696,1532.190996,9992.780217
5348.919299,1702.473667,1455.581446,8364.327145
5348.919622,1258.350101,1302.362347,8734.430116
5348.919945,1036.288319,383.047749,9474.636058
5348.920268,1480.411884,1455.581446,9252.574275
5348.920590,1628.453072,1608.800546,8882.471304
5348.920913,296.082377,612.876398,8734.430116
5348.921236,-1110.308913,-383.047749,9548.656652
5348.921559,-370.102971,0.000000,9992.780217
5348.921881,-370.102971,689.485948,10362.883188
5348.922204,-1332.370696,153.219100,9992.780217
5348.922527,-2368.659014,-919.314598,10436.903782
5348.922850,-1998.556043,-1225.752797,10066.800811
5348.923172,-1258.350101,-612.876398,8956.491898
5348.923495,-1480.411884,-459.657299,8586.388927
5348.923818,-1332.370696,-612.876398,8956.491898
5348.924141,-814.226536,-383.047749,9548.656652
5348.924463,-222.061783,-919.314598,8956.491898
5348.924786,148.041188,-306.438199,8216.285956
5348.925109,-370.102971,-306.438199,9770.718434
5348.925432,-962.267725,-689.485948,11029.068536
5348.925754,-296.082377,-766.095498,11177.109724
5348.926077,-370.102971,-306.438199,10584.944971
5348.926400,-1110.308913,-459.657299,9622.677246
5348.926723,-1110.308913,-689.485948,9104.533087
5348.927045,148.041188,-1302.362347,8882.471304
5348.927368,888.247130,0.000000,7846.182985
5348.927691,518.144159,153.219100,8142.265362
5348.928014,148.041188,-459.657299,8882.471304
5348.928336,-74.020594,-383.047749,9326.594869
5348.928659,222.061783,0.000000,8512.368333
5348.928982,222.061783,689.485948,8364.327145
5348.929305,-370.102971,459.657299,9918.759623
5348.929627,-888.247130,0.000000,11029.068536
5348.929950,0.000000,0.000000,10288.862594
5348.930273,-666.185348,153.219100,8808.450710
5348.930596,-444.123565,76.609550,9030.512492
5348.930918,0.000000,383.047749,9696.697840
5348.931241,1554.432478,1225.752797,9548.656652
5348.931564,2738.761985,1685.410096,8882.471304
5348.931887,888.247130,1532.190996,8586.388927
5348.932209,962.267725,1532.190996,9178.553681
5348.932532,962.267725,1378.971896,9326.594869
5348.932855,1110.308913,2145.067394,9474.636058
5348.933178,1110.308913,2068.457845,9474.636058
5348.933500,-518.144159,1915.238745,9918.759623
5348.933823,-1406.391290,842.705048,9992.780217
5348.934146,-1184.329507,919.314598,9252.574275
5348.934469,-888.247130,689.485948,7772.162391
5348.934791,-1184.329507,1072.533697,8364.327145
5348.935114,-1258.350101,1149.143247,8364.327145
5348.935437,-222.061783,1608.800546,8808.450710
5348.935760,74.020594,2834.553343,7624.121203
5348.936082,-370.102971,1378.971896,8660.409521
5348.936405,-740.205942,1072.533697,9104.533087
5348.936728,0.000000,1225.752797,9326.594869
5348.937051,592.164754,2374.896044,9770.718434
5348.937373,148.041188,1455.581446,9696.697840
5348.937696,-1332.370696,306.438199,9770.718434
5348.938019,-740.205942,0.000000,9104.533087
5348.938342,148.041188,689.485948,8512.368333
5348.938664,148.041188,1762.019645,8882.471304
5348.938987,-444.123565,1302.362347,9770.718434
5348.939310,-1036.288319,689.485948,10214.842000
5348.939633,1258.350101,536.266849,8882.471304
5348.939955,1998.556043,1455.581446,8216.285956
5348.940278,0.000000,1302.362347,10807.006753
5348.940601,0.000000,612.876398,11843.295072
5348.940924,-2072.576638,0.000000,11991.336260
5348.941246,-814.226536,0.000000,8956.491898
5348.941569,-1184.329507,-766.095498,8290.306550
5348.941892,-1924.535449,-612.876398,9104.533087
5348.942215,-1924.535449,0.000000,9992.780217
5348.942537,-814.226536,536.266849,8438.347739
5348.942860,-740.205942,459.657299,8142.265362
5348.943183,-518.144159,229.828649,7698.141797
5348.943506,0.000000,459.657299,8512.368333
5348.943828,1110.308913,1149.143247,9030.512492
5348.944151,1702.473667,2068.457845,8956.491898
5348.944474,1702.473667,1378.971896,10214.842000
5348.944797,518.144159,919.314598,10436.903782
5348.945119,0.000000,306.438199,9622.677246
5348.945442,518.144159,459.657299,8290.306550
5348.945765,740.205942,919.314598,7920.203579
5348.946088,740.205942,995.924147,8586.388927
5348.946410,1184.329507,1378.971896,9030.512492
5348.946733,-222.061783,1762.019645,7772.162391
5348.947056,-592.164754,1302.362347,7920.203579
5348.947379,-962.267725,536.266849,8068.244768
5348.947701,-888.247130,842.705048,8438.347739
5348.948024,296.082377,1302.362347,9474.636058
5348.948347,-1406.391290,536.266849,9400.615463
5348.948670,-2146.597232,-536.266849,9474.636058
5348.948992,-1332.370696,-1225.752797,8660.409521
5348.949315,-888.247130,-612.876398,8438.347739
5348.949638,0.000000,306.438199,8438.347739
5348.949961,370.102971,0.000000,9400.615463
5348.950283,740.205942,-459.657299,10214.842000
5348.950606,1110.308913,306.438199,10362.883188
5348.950929,1776.494261,76.609550,9622.677246
5348.951252,962.267725,76.609550,10807.006753
5348.951574,74.020594,0.000000,12879.583391
5348.951897,1332.370696,-689.485948,12583.501014
5348.952220,1184.329507,-383.047749,11473.192101
5348.952543,-296.082377,-842.705048,10436.903782
5348.952865,-296.082377,-1915.238745,10288.862594
5348.953188,-1110.308913,-1685.410096,10362.883188
5348.953511,-296.082377,-995.924147,8586.388927
5348.953834,0.000000,-995.924147,8068.244768
5348.954156,-1776.494261,-1072.533697,9030.512492
5348.954479,-1850.514855,-612.876398,9474.636058
5348.954802,-1110.308913,-995.924147,9030.512492
5348.955125,-1332.370696,383.047749,8956.491898
5348.955447,-962.267725,306.438199,9178.553681
5348.955770,-1480.411884,-306.438199,11177.109724
5348.956093,-370.102971,306.438199,9844.739029
5348.956416,296.082377,689.485948,7846.182985
5348.956738,740.205942,383.047749,6883.915261
5348.957061,370.102971,536.266849,8216.285956
5348.957384,1184.329507,1455.581446,7698.141797
5348.957707,2294.638420,2451.505594,8364.327145
5348.958029,1554.432478,2068.457845,7698.141797
5348.958352,888.247130,1838.629195,9104.533087
5348.958675,1554.432478,2451.505594,9178.553681
5348.958998,666.185348,2911.162892,10288.862594
5348.959320,0.000000,2604.724693,10140.821405
5348.959643,-1184.329507,2451.505594,10140.821405
5348.959966,-1776.494261,1838.629195,9770.718434
5348.960289,-1184.329507,1762.019645,8660.409521
5348.960611,-1554.432478,1991.848295,7846.182985
5348.960934,-2294.638420,1838.629195,8216.285956
5348.961257,-1628.453072,1455.581446,9030.512492
5348.961580,-1554.432478,1991.848295,8512.368333
5348.961902,-1258.350101,2374.896044,8364.327145
5348.962225,-1036.288319,1532.190996,9030.512492
5348.962548,-1924.535449,1685.410096,10214.842000
5348.962871,-1332.370696,1685.410096,10658.965565
5348.963193,-962.267725,1608.800546,10214.842000
5348.963516,-1332.370696,1455.581446,9474.636058
5348.963839,-814.226536,766.095498,9844.739029
5348.964162,-888.247130,842.705048,10881.027347
5348.964485,2220.617826,2451.505594,8660.409521
5348.964807,3552.988522,2451.505594,7920.203579
5348.965130,2294.638420,1685.410096,8586.388927
5348.965453,2072.576638,1608.800546,10140.821405
5348.965776,2516.700203,1378.971896,8882.471304
5348.966098,2960.823768,1838.629195,8808.450710
5348.966421,2294.638420,1225.752797,9844.739029
5348.966744,518.144159,306.438199,11177.109724
5348.967067,-370.102971,76.609550,10881.027347
5348.967389,-518.144159,-229.828649,9696.697840
5348.967712,-296.082377,-919.314598,7920.203579
5348.968035,-1406.391290,-1378.971896,8882.471304
5348.968358,-888.247130,-995.924147,9844.739029
5348.968680,-296.082377,-1225.752797,8660.409521
5348.969003,-1258.350101,-1225.752797,7254.018232
5348.969326,-1110.308913,-1608.800546,8734.430116
5348.969649,-1258.350101,-1378.971896,9474.636058
5348.969971,-1332.370696,-766.095498,10140.821405
5348.970294,-444.123565,-536.266849,9992.780217
5348.970617,-1406.391290,-1378.971896,10732.986159
5348.970940,-1628.453072,-2451.505594,10140.821405
5348.971262,-1036.288319,-1302.362347,9992.780217
5348.971585,444.123565,-766.095498,9474.636058
5348.971908,1036.288319,-459.657299,9622.677246
5348.972231,962.267725,-689.485948,10214.842000
5348.972553,1850.514855,0.000000,9474.636058
5348.972876,2442.679609,383.047749,8512.368333
5348.973199,1628.453072,383.047749,9104.533087
5348.973522,1702.473667,306.438199,9622.677246
5348.973844,1628.453072,919.314598,10732.986159
5348.974167,740.205942,1149.143247,10066.800811
5348.974490,-370.102971,-76.609550,10066.800811
5348.974813,-2738.761985,-1149.143247,9474.636058
5348.975135,-2368.659014,-1225.752797,9548.656652
5348.975458,-2146.597232,-383.047749,9252.574275
5348.975781,-2294.638420,-229.828649,8586.388927
5348.976104,-1998.556043,229.828649,8956.491898
5348.976426,-2516.700203,0.000000,8808.450710
5348.976749,-1480.411884,306.438199,8364.327145
5348.977072,-592.164754,1072.533697,7550.100608
5348.977395,-888.247130,1838.629195,9030.512492
5348.977717,-370.102971,2068.457845,10955.047942
5348.978040,0.000000,2145.067394,10584.944971
5348.978363,-592.164754,1838.629195,9770.718434
5348.978686,666.185348,2451.505594,8586.388927
5348.979008,-296.082377,1608.800546,9474.636058
5348.979331,444.123565,2451.505594,9770.718434
5348.979654,2516.700203,3064.381992,9548.656652
5348.979977,2368.659014,3447.429741,8512.368333
5348.980299,2072.576638,3140.991542,7698.141797
5348.980622,1480.411884,3064.381992,9548.656652
5348.980945,2294.638420,4060.306139,9474.636058
5348.981268,1258.350101,3830.477490,9696.697840
5348.981590,0.000000,2834.553343,9326.594869
5348.981913,-1110.308913,1378.971896,10066.800811
5348.982236,-2516.700203,995.924147,8512.368333
5348.982559,-1998.556043,1532.190996,7846.182985
5348.982881,-1480.411884,1225.752797,6587.832884
5348.983204,-2738.761985,689.485948,7772.162391
5348.983527,-1702.473667,766.095498,6513.812290
5348.983850,-1776.494261,536.266849,7328.038826
5348.984172,-1480.411884,1685.410096,6661.853478
5348.984495,-1036.288319,1302.362347,8734.430116
5348.984818,-296.082377,766.095498,9770.718434
5348.985141,1110.308913,689.485948,9696.697840
5348.985463,370.102971,1072.533697,9326.594869
5348.985786,74.020594,612.876398,10066.800811
5348.986109,1480.411884,0.000000,11177.109724
5348.986432,1776.494261,153.219100,10066.800811
5348.986754,3627.009116,1149.143247,9474.636058
5348.987077,3182.885551,689.485948,10288.862594
5348.987400,2220.617826,459.657299,10288.862594
5348.987723,2368.659014,1608.800546,9992.780217
5348.988045,2664.741391,689.485948,9030.512492
5348.988368,1480.411884,229.828649,10140.821405
5348.988691,296.082377,689.485948,11251.130318
5348.989014,-296.082377,-153.219100,12361.439231
5348.989336,-296.082377,-842.705048,10214.842000
5348.989659,-2960.823768,-1302.362347,9474.636058
5348.989982,-3997.112087,-2911.162892,8882.471304
5348.990305,-4737.318029,-2757.943793,9622.677246
5348.990627,-4441.235652,-1991.848295,8660.409521
5348.990950,-1850.514855,-1225.752797,7254.018232
5348.991273,-3775.050304,-1225.752797,8586.388927
5348.991596,-3701.029710,-1302.362347,8882.471304
5348.991918,-1850.514855,-919.314598,9400.615463
5348.992241,-1406.391290,-229.828649,8956.491898
5348.992564,-592.164754,766.095498,9030.512492
5348.992887,-1110.308913,-766.095498,10214.842000
5348.993209,-888.247130,-612.876398,10584.944971
5348.993532,222.061783,0.000000,9104.533087
5348.993855,370.102971,-459.657299,7254.018232
5348.994177,962.267725,-229.828649,9030.512492
5348.994500,1406.391290,0.000000,8956.491898
5348.994823,1998.556043,229.828649,8364.327145
5348.995146,2960.823768,1149.143247,7772.162391
5348.995468,592.164754,153.219100,9844.739029
5348.995791,666.185348,76.609550,10066.800811
5348.996114,370.102971,536.266849,11177.109724
5348.996436,740.205942,1225.752797,10362.883188
5348.996759,-370.102971,612.876398,10881.027347
5348.997082,-962.267725,0.000000,10362.883188
5348.997405,74.020594,0.000000,10066.800811
5348.997727,370.102971,612.876398,8438.347739
5348.998050,-592.164754,612.876398,8734.430116
5348.998373,0.000000,383.047749,8956.491898
5348.998696,0.000000,459.657299,9548.656652
5348.999018,296.082377,689.485948,8068.244768
5348.999341,1332.370696,459.657299,8290.306550
5348.999664,-592.164754,1302.362347,9844.739029
5348.999986,148.041188,1455.581446,10807.006753
5349.000309,1110.308913,1991.848295,10732.986159
5349.000632,0.000000,1838.629195,9770.718434
5349.000955,1036.288319,1838.629195,9178.553681
5349.001277,1258.350101,2221.676944,9326.594869
5349.001600,2072.576638,2987.772442,8586.388927
5349.001923,2516.700203,3370.820191,7402.059420
5349.002245,2220.617826,2911.162892,7402.059420
5349.002568,1184.329507,2604.724693,8290.306550
5349.002891,1110.308913,2834.553343,7846.182985
5349.003214,1184.329507,2987.772442,7994.224174
5349.003536,740.205942,2757.943793,8290.306550
5349.003859,-1110.308913,2068.457845,8808.450710
5349.004182,-1924.535449,1532.190996,9844.739029
5349.004505,-3034.844362,1532.190996,9178.553681
5349.004827,-2960.823768,842.705048,8142.265362
5349.005150,-3108.864956,459.657299,7920.203579
5349.005473,-3034.844362,383.047749,8512.368333
5349.005795,-1702.473667,229.828649,7920.203579
5349.006118,-1702.473667,0.000000,7772.162391
5349.006441,-2442.679609,306.438199,8068.244768
5349.006764,-1998.556043,-842.705048,9474.636058
5349.007086,-2368.659014,-842.705048,9474.636058
5349.007409,-1924.535449,-459.657299,10140.821405
5349.007732,-2442.679609,-766.095498,10881.027347
5349.008054,-3182.885551,-2298.286494,11325.150913
5349.008377,-1184.329507,-1608.800546,10732.986159
5349.008700,-888.247130,-995.924147,9770.718434
5349.009023,-444.123565,-919.314598,10066.800811
5349.009345,444.123565,-995.924147,10288.862594
5349.009668,1628.453072,-995.924147,10584.944971
5349.009991,2886.803174,0.000000,10436.903782
5349.010313,2220.617826,383.047749,9622.677246
5349.010636,1332.370696,-536.266849,11473.192101
5349.010959,2368.659014,0.000000,12139.377449
5349.011282,2368.659014,-459.657299,11399.171507
5349.011604,1776.494261,-842.705048,11029.068536
5349.011927,0.000000,-995.924147,11251.130318
5349.012250,-1184.329507,-1455.581446,11103.089130
5349.012573,-592.164754,-383.047749,10510.924376
5349.012895,444.123565,612.876398,9400.615463
5349.013218,370.102971,766.095498,7920.203579
5349.013541,-444.123565,306.438199,8290.306550
5349.013863,0.000000,612.876398,8142.265362
5349.014186,888.247130,1455.581446,7254.018232
5349.014509,-1110.308913,1378.971896,8364.327145
5349.014832,-2516.700203,459.657299,9104.533087
5349.015154,-2664.741391,153.219100,9252.574275
5349.015477,-2220.617826,995.924147,7254.018232
5349.015800,-1110.308913,995.924147,6809.894666
5349.016122,-2368.659014,995.924147,6809.894666
5349.016445,-1998.556043,76.609550,7328.038826
5349.016768,-666.185348,1149.143247,7105.977043
5349.017091,148.041188,2451.505594,5847.626942
5349.017413,444.123565,2757.943793,6735.874072
5349.017736,1110.308913,2451.505594,7550.100608
5349.018059,2664.741391,2451.505594,9400.615463
5349.018382,3997.112087,3830.477490,8808.450710
5349.018704,2960.823768,3677.258390,11029.068536
5349.019027,2294.638420,2221.676944,11843.295072
5349.019350,1406.391290,1915.238745,11843.295072
5349.019672,2886.803174,2068.457845,9770.718434
5349.019995,3182.885551,2451.505594,9400.615463
5349.020318,2072.576638,1762.019645,10362.883188
5349.020641,1776.494261,306.438199,10658.965565
5349.020963,444.123565,459.657299,11029.068536
5349.021286,-592.164754,995.924147,10066.800811
5349.021609,-1480.411884,0.000000,11325.150913
5349.021931,-2886.803174,-766.095498,12435.459826
5349.022254,-2368.659014,76.609550,12509.480420
5349.022577,-2738.761985,-919.314598,10881.027347
5349.022900,-4737.318029,-2221.676944,10066.800811
5349.023222,-4885.359217,-2221.676944,9326.594869
5349.023545,-4811.338623,-2068.457845,8586.388927
5349.023868,-3404.947333,-766.095498,7476.080014
5349.024191,-2146.597232,-536.266849,6513.812290
5349.024513,-1998.556043,-612.876398,7476.080014
5349.024836,-222.061783,536.266849,7105.977043
5349.025159,1480.411884,0.000000,7624.121203
5349.025481,2220.617826,2451.505594,8438.347739
5349.025804,1628.453072,2145.067394,10436.903782
5349.026127,2960.823768,1149.143247,9400.615463
5349.026450,4293.194464,1455.581446,9844.739029
5349.026772,3849.070898,2221.676944,8290.306550
5349.027095,3256.906145,919.314598,9326.594869
5349.027418,2220.617826,1072.533697,9326.594869
5349.027740,2590.720797,1302.362347,8290.306550
5349.028063,2590.720797,1225.752797,7698.141797
5349.028386,740.205942,1302.362347,7550.100608
5349.028709,-1036.288319,536.266849,9030.512492
5349.029031,-962.267725,0.000000,8734.430116
5349.029354,-1480.411884,459.657299,9770.718434
5349.029677,-2516.700203,0.000000,9400.615463
5349.030000,-4293.194464,-1072.533697,10955.047942
5349.030322,-5181.441594,-766.095498,11547.212695
5349.030645,-3552.988522,-689.485948,9474.636058
5349.030968,-3627.009116,-383.047749,9178.553681
5349.031290,-3478.967927,-153.219100,9178.553681
5349.031613,-3330.926739,-766.095498,10732.986159
5349.031936,-2072.576638,76.609550,8956.491898
5349.032259,-666.185348,459.657299,9252.574275
5349.032581,-1332.370696,306.438199,8290.306550
5349.032904,-1184.329507,229.828649,10807.006753
5349.033227,370.102971,995.924147,10584.944971
5349.033549,1110.308913,842.705048,10140.821405
5349.033872,888.247130,842.705048,9474.636058
5349.034195,444.123565,536.266849,9622.677246
5349.034518,1110.308913,995.924147,9030.512492
5349.034840,2738.761985,1608.800546,7624.121203
5349.035163,2886.803174,1762.019645,6513.812290
5349.035486,2886.803174,612.876398,6957.935855
5349.035809,2368.659014,919.314598,7476.080014
5349.036131,2220.617826,1072.533697,6957.935855
5349.036454,2368.659014,1072.533697,7254.018232
5349.036777,0.000000,-306.438199,8660.409521
5349.037099,-888.247130,-1455.581446,10140.821405
5349.037422,-1110.308913,-1762.019645,10807.006753
5349.037745,-2368.659014,-1302.362347,10510.924376
5349.038068,-2220.617826,-1915.238745,9918.759623
5349.038390,-2516.700203,-2528.115143,10584.944971
5349.038713,-1184.329507,-1685.410096,10362.883188
5349.039036,592.164754,-459.657299,9844.739029
5349.039358,148.041188,-459.657299,9696.697840
5349.039681,888.247130,76.609550,11621.233289
5349.040004,1036.288319,-306.438199,10955.047942
5349.040327,814.226536,0.000000,11695.253884
5349.040649,962.267725,766.095498,11843.295072
5349.040972,0.000000,153.219100,12509.480420
5349.041295,-370.102971,-612.876398,12213.398043
5349.041618,-222.061783,0.000000,10955.047942
5349.041940,-370.102971,-153.219100,9548.656652
5349.042263,-1258.350101,0.000000,9918.759623
5349.042586,-1480.411884,383.047749,9104.533087
5349.042908,296.082377,995.924147,8142.265362
5349.043231,666.185348,2374.896044,6587.832884
5349.043554,-296.082377,2221.676944,6883.915261
5349.043877,148.041188,2298.286494,6957.935855
5349.044199,-518.144159,2451.505594,7846.182985
5349.044522,74.020594,3370.820191,6809.894666
5349.044845,148.041188,2757.943793,7031.956449
5349.045167,-1480.411884,2528.115143,7476.080014
5349.045490,-518.144159,3294.210641,6957.935855
5349.045813,1110.308913,3064.381992,6143.709319
5349.046136,1258.350101,3830.477490,5773.606348
5349.046458,1406.391290,4136.915689,8068.244768
5349.046781,1406.391290,3524.039291,8512.368333
5349.047104,2664.741391,3294.210641,8290.306550
5349.047427,3182.885551,3217.601092,7920.203579
5349.047749,2368.659014,3447.429741,9992.780217
5349.048072,592.164754,3140.991542,11991.336260
5349.048395,0.000000,2068.457845,12065.356855
5349.048717,-444.123565,1455.581446,11251.130318
5349.049040,-1924.535449,766.095498,9918.759623
5349.049363,-3108.864956,-153.219100,10288.862594
5349.049686,-3478.967927,-612.876398,10066.800811
5349.050008,-3182.885551,-383.047749,9400.615463
5349.050331,-3256.906145,-459.657299,8956.491898
5349.050654,-4219.173869,-842.705048,8512.368333
5349.050976,-4441.235652,-1225.752797,8956.491898
5349.051299,-1850.514855,-995.924147,7994.224174
5349.051622,-1776.494261,-383.047749,9030.512492
5349.051945,-1554.432478,-766.095498,10214.842000
5349.052267,-814.226536,-1532.190996,11473.192101
5349.052590,-148.041188,-1378.971896,10362.883188
5349.052913,1332.370696,-1685.410096,9474.636058
5349.053235,1776.494261,-1149.143247,9696.697840
5349.053558,962.267725,-1302.362347,10955.047942
5349.053881,3108.864956,-459.657299,10066.800811
5349.054204,4219.173869,0.000000,9252.574275
5349.054526,3404.947333,-383.047749,8586.388927
5349.054849,2368.659014,-459.657299,9178.553681
5349.055172,2146.597232,-842.705048,9770.718434
5349.055495,2294.638420,-306.438199,10140.821405
5349.055817,1480.411884,-459.657299,9992.780217
5349.056140,-740.205942,-1455.581446,10288.862594
5349.056463,-1850.514855,-1915.238745,10510.924376
5349.056785,-1850.514855,-2298.286494,8734.430116
5349.057108,-2368.659014,-1532.190996,7920.203579
5349.057431,-3404.947333,-1225.752797,8586.388927
5349.057754,-3330.926739,-1608.800546,9474.636058
5349.058076,-3552.988522,-1915.238745,9178.553681
5349.058399,-2590.720797,-1225.752797,7550.100608
5349.058722,-1554.432478,-689.485948,8068.244768
5349.059044,-1850.514855,153.219100,9548.656652
5349.059367,-666.185348,612.876398,11029.068536
5349.059690,-370.102971,1225.752797,9992.780217
5349.060013,-222.061783,1608.800546,8956.491898
5349.060335,1554.432478,1685.410096,8882.471304
5349.060658,2590.720797,2451.505594,8882.471304
5349.060981,3034.844362,3524.039291,9104.533087
5349.061304,3627.009116,3677.258390,9178.553681
5349.061626,2516.700203,3524.039291,9030.512492
5349.061949,2812.782580,3140.991542,8290.306550
5349.062272,3330.926739,3524.039291,7698.141797
5349.062594,1702.473667,3983.696590,7994.224174
5349.062917,1258.350101,3753.867940,9178.553681
5349.063240,444.123565,2604.724693,9918.759623
5349.063563,74.020594,2374.896044,9918.759623
5349.063885,-1332.370696,1838.629195,8512.368333
5349.064208,-3108.864956,766.095498,9104.533087
5349.064531,-3627.009116,689.485948,9326.594869
5349.064853,-3256.906145,153.219100,8290.306550
5349.065176,-2664.741391,766.095498,7476.080014
5349.065499,-3552.988522,612.876398,7772.162391
5349.065822,-4293.194464,-459.657299,8438.347739
5349.066144,-3256.906145,-536.266849,8734.430116
5349.066467,-2738.761985,229.828649,9474.636058
5349.066790,-1850.514855,689.485948,9622.677246
5349.067113,-2516.700203,-459.657299,10584.944971
5349.067435,-2220.617826,-919.314598,11103.089130
5349.067758,814.226536,-766.095498,10214.842000
5349.068081,1554.432478,-612.876398,8586.388927
5349.068403,1036.288319,-229.828649,9770.718434
5349.068726,2072.576638,-536.266849,10214.842000
5349.069049,1776.494261,-689.485948,9770.718434
5349.069372,2590.720797,459.657299,8956.491898
5349.069694,3775.050304,-306.438199,7920.203579
5349.070017,1628.453072,-1378.971896,10510.924376
5349.070340,1184.329507,-689.485948,10658.965565
5349.070662,1480.411884,-842.705048,10955.047942
5349.070985,666.185348,-1225.752797,9474.636058
5349.071308,-370.102971,-1455.581446,9992.780217
5349.071631,74.020594,-1149.143247,9992.780217
5349.071953,1406.391290,-612.876398,9918.759623
5349.072276,1702.473667,612.876398,8512.368333
5349.072599,1480.411884,-919.314598,9548.656652
5349.072922,740.205942,-766.095498,10510.924376
5349.073244,296.082377,76.609550,10510.924376
5349.073567,444.123565,689.485948,10140.821405
5349.073890,-1184.329507,153.219100,11029.068536
5349.074212,-1406.391290,919.314598,10807.006753
5349.074535,-1776.494261,0.000000,11177.109724
5349.074858,-2886.803174,306.438199,10066.800811
5349.075181,-3108.864956,459.657299,9622.677246
5349.075503,-3330.926739,0.000000,8808.450710
5349.075826,-2886.803174,383.047749,8364.327145
5349.076149,-1776.494261,919.314598,7328.038826
5349.076471,-2442.679609,1149.143247,5995.668130
5349.076794,-2664.741391,1608.800546,6883.915261
5349.077117,-1258.350101,1455.581446,7105.977043
5349.077440,814.226536,2681.334243,7476.080014
5349.077762,1184.329507,4366.744339,8068.244768
5349.078085,1258.350101,4519.963438,9178.553681
5349.078408,962.267725,3830.477490,10214.842000
5349.078731,1628.453072,4213.525239,8512.368333
5349.079053,2590.720797,4673.182538,7402.059420
5349.079376,2886.803174,4596.572988,7920.203579
5349.079699,3627.009116,4903.011187,9474.636058
5349.080021,3849.070898,4903.011187,10732.986159
5349.080344,3923.091493,4903.011187,8216.285956
5349.080667,2442.679609,3830.477490,8068.244768
5349.080990,2072.576638,2298.286494,9030.512492
5349.081312,0.000000,2374.896044,11473.192101
5349.081635,-148.041188,2987.772442,10658.965565
5349.081958,-518.144159,1991.848295,10807.006753
5349.082280,-3330.926739,1149.143247,10510.924376
5349.082603,-4145.153275,-229.828649,9622.677246
5349.082926,-4219.173869,0.000000,8882.471304
5349.083249,-3997.112087,536.266849,8068.244768
5349.083571,-3552.988522,76.609550,7624.121203
5349.083894,-3478.967927,-459.657299,8068.244768
5349.084217,-2886.803174,0.000000,7920.203579
5349.084540,-1776.494261,-383.047749,6735.874072
5349.084862,-2516.700203,-842.705048,7550.100608
5349.085185,-1702.473667,-612.876398,9178.553681
5349.085508,-592.164754,-995.924147,9770.718434
5349.085830,888.247130,-612.876398,8956.491898
5349.086153,962.267725,-536.266849,8364.327145
5349.086476,1258.350101,-995.924147,8512.368333
5349.086799,2442.679609,-1149.143247,9252.574275
5349.087121,3404.947333,-459.657299,8364.327145
5349.087444,3997.112087,-689.485948,9104.533087
5349.087767,3775.050304,0.000000,9400.615463
5349.088089,3775.050304,-1608.800546,10881.027347
5349.088412,4367.215058,-1378.971896,10066.800811
5349.088735,2960.823768,-1608.800546,10807.006753
5349.089058,518.144159,-2298.286494,11621.233289
5349.089380,-370.102971,-3447.429741,12583.501014
5349.089703,-1554.432478,-3753.867940,12213.398043
5349.090026,-1110.308913,-3600.648841,10955.047942
5349.090349,-2368.659014,-4136.915689,10807.006753
5349.090671,-5181.441594,-4366.744339,10362.883188
5349.090994,-4663.297435,-4060.306139,11473.192101
5349.091317,-4737.318029,-3830.477490,9844.739029
5349.091639,-4589.276840,-2528.115143,9992.780217
5349.091962,-4071.132681,-2911.162892,10066.800811
5349.092285,-3552.988522,-2374.896044,10658.965565
5349.092607,-1332.370696,-689.485948,10510.924376
5349.092930,-814.226536,153.219100,9992.780217
5349.093252,-1702.473667,-306.438199,9844.739029
5349.093575,-740.205942,-306.438199,9696.697840
5349.093898,1036.288319,612.876398,8068.244768
5349.094220,2442.679609,2068.457845,8290.306550
5349.094543,3330.926739,3064.381992,7846.182985
5349.094865,2812.782580,2911.162892,8216.285956
5349.095188,4145.153275,3677.258390,7846.182985
5349.095511,3552.988522,4136.915689,7031.956449
5349.095833,2738.761985,4519.963438,7772.162391
5349.096156,2442.679609,4826.401637,8956.491898
5349.096478,2146.597232,4443.353888,9548.656652
5349.096801,2590.720797,4519.963438,8216.285956
5349.097124,0.000000,4060.306139,7254.018232
5349.097446,-740.205942,2911.162892,7105.977043
5349.097769,-2146.597232,2604.724693,7698.141797
5349.098091,-2368.659014,2604.724693,7105.977043
5349.098414,-1332.370696,3064.381992,6809.894666
5349.098737,-2886.803174,2757.943793,7698.141797
5349.099059,-3923.091493,2374.896044,8808.450710
5349.099382,-3330.926739,2068.457845,8808.450710
5349.099704,-2146.597232,1838.629195,9252.574275
5349.100027,-2590.720797,2757.943793,10140.821405
5349.100350,-3552.988522,2757.943793,11917.315666
5349.100672,-2072.576638,1608.800546,12287.418637
5349.100995,-666.185348,1991.848295,9400.615463
5349.101317,592.164754,2145.067394,7920.203579
5349.101640,666.185348,2221.676944,9178.553681
5349.101963,1110.308913,1991.848295,10066.800811
5349.102285,2294.638420,2298.286494,9030.512492
5349.102608,2368.659014,2298.286494,8068.244768
5349.102930,2294.638420,1302.362347,8808.450710
5349.103253,2072.576638,1378.971896,10214.842000
5349.103576,2146.597232,1685.410096,11325.150913
5349.103898,1480.411884,1149.143247,10584.944971
5349.104221,1110.308913,306.438199,10362.883188
5349.104543,-740.205942,-153.219100,10732.986159
5349.104866,74.020594,-766.095498,8882.471304
5349.105189,1628.453072,-919.314598,7179.997637
5349.105511,518.144159,-383.047749,7105.977043
5349.105834,444.123565,-766.095498,7846.182985
5349.106156,-592.164754,-1378.971896,7846.182985
5349.106479,-296.082377,-842.705048,7328.038826
5349.106802,0.000000,-919.314598,7920.203579
5349.107124,-1776.494261,-1762.019645,9992.780217
5349.107447,-1110.308913,-1149.143247,10807.006753
5349.107769,-592.164754,-1608.800546,11177.109724
5349.108092,-1406.391290,-2068.457845,9992.780217
5349.108415,-2146.597232,-2451.505594,10140.821405
5349.108737,-2072.576638,-2374.896044,9474.636058
5349.109060,0.000000,-1762.019645,9696.697840
5349.109382,518.144159,-919.314598,8956.491898
5349.109705,666.185348,-1532.190996,9178.553681
5349.110028,0.000000,-1838.629195,10214.842000
5349.110350,-444.123565,-1685.410096,9770.718434
5349.110673,0.000000,-1685.410096,9918.759623
5349.110995,-666.185348,-1072.533697,10436.903782
5349.111318,-2516.700203,-1455.581446,11695.253884
5349.111641,-1036.288319,-1455.581446,11103.089130
5349.111963,-1924.535449,-1532.190996,9992.780217
5349.112286,-2294.638420,-2145.067394,8512.368333
5349.112608,-1850.514855,-2145.067394,8660.409521
5349.112931,-1850.514855,-1608.800546,9400.615463
5349.113254,0.000000,-612.876398,9178.553681
5349.113576,-148.041188,-919.314598,8290.306550
5349.113899,-444.123565,-459.657299,8956.491898
5349.114221,1036.288319,-383.047749,10066.800811
5349.114544,1406.391290,383.047749,11177.109724
5349.114867,2516.700203,1685.410096,11547.212695
5349.115189,2146.597232,1532.190996,12139.377449
5349.115512,518.144159,1225.752797,11547.212695
5349.115834,592.164754,1915.238745,10584.944971
5349.116157,1998.556043,2681.334243,9030.512492
5349.116480,3108.864956,3753.867940,8586.388927
5349.116802,2294.638420,3064.381992,9474.636058
5349.117125,1332.370696,2451.505594,9326.594869
5349.117447,1110.308913,2681.334243,8586.388927
5349.117770,296.082377,2757.943793,7328.038826
5349.118093,-1406.391290,2374.896044,7920.203579
5349.118415,-1924.535449,1915.238745,9326.594869
5349.118738,-2368.659014,2451.505594,9030.512492
5349.119060,-1554.432478,2604.724693,7994.224174
5349.119383,-3775.050304,2068.457845,7105.977043
5349.119706,-3701.029710,2068.457845,7476.080014
5349.120028,-2294.638420,2987.772442,6513.812290
5349.120351,-1184.329507,4213.525239,6069.688724
5349.120673,0.000000,4596.572988,5625.565159
5349.120996,1554.432478,4673.182538,7031.956449
5349.121319,1628.453072,4443.353888,7476.080014
5349.121641,3108.864956,5056.230287,6957.935855
5349.121964,2516.700203,4673.182538,7920.203579
5349.122286,2812.782580,4366.744339,8882.471304
5349.122609,2812.782580,3294.210641,9770.718434
5349.122932,2812.782580,3140.991542,9326.594869
5349.123254,2220.617826,2834.553343,9400.615463
5349.123577,740.205942,1838.629195,9696.697840
5349.123899,0.000000,1302.362347,10807.006753
5349.124222,1332.370696,1915.238745,10584.944971
5349.124545,518.144159,2298.286494,11251.130318
5349.124867,-592.164754,1762.019645,10807.006753
5349.125190,-1258.350101,153.219100,10732.986159
5349.125512,-1480.411884,153.219100,10807.006753
5349.125835,-1628.453072,0.000000,10362.883188
5349.126158,-4441.235652,-919.314598,10510.924376
5349.126480,-5107.421000,-2374.896044,11177.109724
5349.126803,-6291.750507,-3524.039291,11029.068536
5349.127125,-5329.482782,-3677.258390,8290.306550
5349.127448,-4441.235652,-3753.867940,7698.141797
5349.127771,-5033.400406,-2987.772442,9030.512492
5349.128093,-3923.091493,-3217.601092,9030.512492
5349.128416,-2146.597232,-2834.553343,8512.368333
5349.128738,-1036.288319,-2068.457845,7846.182985
5349.129061,222.061783,-1762.019645,8512.368333
5349.129384,666.185348,-1608.800546,10214.842000
5349.129706,3552.988522,-1072.533697,10140.821405
5349.130029,4737.318029,-306.438199,9622.677246
5349.130351,3330.926739,-612.876398,9548.656652
5349.130674,3034.844362,-1378.971896,10510.924376
5349.130997,3256.906145,-1762.019645,9252.574275
5349.131319,3775.050304,-1149.143247,8290.306550
5349.131642,3404.947333,-1455.581446,8142.265362
5349.131964,1258.350101,-2221.676944,9104.533087
5349.132287,518.144159,-2451.505594,9696.697840
5349.132610,0.000000,-1838.629195,9770.718434
5349.132932,-296.082377,-1685.410096,10066.800811
5349.133255,-2368.659014,-1991.848295,11177.109724
5349.133577,-2886.803174,-2068.457845,12583.501014
5349.133900,-1924.535449,-1762.019645,12139.377449
5349.134223,-2590.720797,-1378.971896,10436.903782
5349.134545,-3108.864956,-1378.971896,9770.718434
5349.134868,-2516.700203,-1608.800546,10584.944971
5349.135190,-2368.659014,-536.266849,10436.903782
5349.135513,-666.185348,306.438199,9252.574275
5349.135836,-222.061783,612.876398,8364.327145
5349.136158,-740.205942,383.047749,9326.594869
5349.136481,296.082377,1838.629195,9400.615463
5349.136803,296.082377,2451.505594,10214.842000
5349.137126,1480.411884,3447.429741,9622.677246
5349.137449,1406.391290,2911.162892,9622.677246
5349.137771,1332.370696,2757.943793,10066.800811
5349.138094,2368.659014,3677.258390,8586.388927
5349.138417,2516.700203,3983.696590,7254.018232
5349.138739,2368.659014,4136.915689,7624.121203
5349.139062,2072.576638,3830.477490,7698.141797
5349.139384,2072.576638,3983.696590,6661.853478
5349.139707,2368.659014,4596.572988,5847.626942
5349.140030,1036.288319,4136.915689,6143.709319
5349.140352,296.082377,3907.087040,7105.977043
5349.140675,0.000000,3753.867940,8068.244768
5349.140997,-666.185348,3983.696590,7846.182985
5349.141320,-666.185348,2987.772442,7846.182985
5349.141643,-3108.864956,2681.334243,8882.471304
5349.141965,-1480.411884,1762.019645,9030.512492
5349.142288,-592.164754,2451.505594,7624.121203
5349.142610,-1406.391290,2681.334243,7772.162391
5349.142933,-2146.597232,2145.067394,9770.718434
5349.143256,-1924.535449,1302.362347,10140.821405
5349.143578,-1702.473667,1762.019645,9474.636058
5349.143901,0.000000,1762.019645,8586.388927
5349.144223,-1184.329507,1072.533697,11621.233289
5349.144546,-2220.617826,919.314598,11991.336260
5349.144869,-1036.288319,536.266849,12731.542202
5349.145191,-1110.308913,229.828649,10881.027347
5349.145514,-1184.329507,0.000000,10584.944971
5349.145836,-888.247130,-459.657299,9992.780217
5349.146159,0.000000,-229.828649,10288.862594
5349.146482,2368.659014,0.000000,8142.265362
5349.146804,1258.350101,0.000000,8216.285956
5349.147127,444.123565,-306.438199,9400.615463
5349.147449,740.205942,-459.657299,9474.636058
5349.147772,1554.432478,-383.047749,8956.491898
5349.148095,1480.411884,-383.047749,9326.594869
5349.148417,0.000000,-842.705048,9770.718434
5349.148740,-222.061783,-1685.410096,10436.903782
5349.149062,-370.102971,-1762.019645,9548.656652
5349.149385,-518.144159,-1225.752797,8142.265362
5349.149708,148.041188,-1762.019645,7846.182985
5349.150030,0.000000,-1455.581446,8956.491898
5349.150353,1036.288319,-612.876398,8956.491898
5349.150675,888.247130,-919.314598,8438.347739
5349.150998,-148.041188,-1149.143247,8660.409521
5349.151321,-148.041188,-1532.190996,9326.594869
5349.151643,-740.205942,-1685.410096,10436.903782
5349.151966,-962.267725,-995.924147,10658.965565
5349.152288,-814.226536,-1532.190996,10658.965565
5349.152611,-2590.720797,-2374.896044,10288.862594
5349.152934,-1850.514855,-2298.286494,9622.677246
5349.153256,-1036.288319,-2374.896044,8586.388927
5349.153579,-1036.288319,-1149.143247,8290.306550
5349.153901,-296.082377,-612.876398,9400.615463
5349.154224,-148.041188,-689.485948,10510.924376
5349.154547,740.205942,-153.219100,10214.842000
5349.154869,518.144159,0.000000,9548.656652
5349.155192,74.020594,76.609550,10658.965565
5349.155514,-148.041188,-459.657299,12213.398043
5349.155837,-518.144159,-306.438199,11991.336260
5349.156160,-518.144159,-306.438199,10658.965565
5349.156482,-148.041188,0.000000,8364.327145
5349.156805,-1998.556043,-612.876398,9474.636058
5349.157127,-888.247130,153.219100,7846.182985
5349.157450,-740.205942,1149.143247,9178.553681
5349.157773,74.020594,1991.848295,6661.853478
5349.158095,-888.247130,1532.190996,9326.594869
5349.158418,-518.144159,1991.848295,8438.347739
5349.158740,1924.535449,2451.505594,8808.450710
5349.159063,1776.494261,2911.162892,8438.347739
5349.159386,444.123565,2681.334243,10436.903782
5349.159708,370.102971,2068.457845,11177.109724
5349.160031,-1258.350101,1915.238745,8882.471304
5349.160353,0.000000,1685.410096,7698.141797
5349.160676,-444.123565,1915.238745,6957.935855
5349.160999,-1480.411884,1608.800546,8290.306550
5349.161321,0.000000,2451.505594,7994.224174
5349.161644,592.164754,2451.505594,7846.182985
5349.161966,-518.144159,2145.067394,7698.141797
5349.162289,-814.226536,2451.505594,8512.368333
5349.162612,592.164754,2528.115143,9770.718434
5349.162934,2072.576638,3907.087040,9252.574275
5349.163257,1480.411884,3830.477490,8808.450710
5349.163579,1184.329507,2987.772442,8512.368333
5349.163902,518.144159,2604.724693,9252.574275
5349.164225,444.123565,2834.553343,8512.368333
5349.164547,1924.535449,3140.991542,7476.080014
5349.164870,1554.432478,2681.334243,7772.162391
5349.165192,2368.659014,2451.505594,8660.409521
5349.165515,1184.329507,1608.800546,9474.636058
5349.165838,0.000000,1685.410096,9474.636058
5349.166160,-740.205942,1685.410096,10214.842000
5349.166483,-222.061783,1302.362347,10955.047942
5349.166805,592.164754,536.266849,11251.130318
5349.167128,222.061783,1149.143247,9326.594869
5349.167451,-1850.514855,995.924147,9326.594869
5349.167773,-2368.659014,0.000000,9104.533087
5349.168096,-1998.556043,-766.095498,8586.388927
5349.168418,-1776.494261,0.000000,7846.182985
5349.168741,-740.205942,229.828649,8216.285956
5349.169064,-1628.453072,-459.657299,8882.471304
5349.169386,-1924.535449,-689.485948,9548.656652
5349.169709,-666.185348,-536.266849,9844.739029
5349.170031,-814.226536,-1072.533697,9770.718434
5349.170354,-1406.391290,-612.876398,11695.253884
5349.170677,-1406.391290,-842.705048,12657.521608
5349.170999,0.000000,-1532.190996,12065.356855
5349.171322,296.082377,-1072.533697,9770.718434
5349.171644,-222.061783,-1072.533697,8734.430116
5349.171967,0.000000,-1608.800546,9178.553681
5349.172290,666.185348,-1455.581446,9252.574275
5349.172612,1628.453072,-612.876398,7328.038826
5349.172935,1406.391290,-612.876398,7550.100608
5349.173257,-592.164754,-842.705048,9252.574275
5349.173580,-222.061783,-842.705048,10214.842000
5349.173903,0.000000,-995.924147,10140.821405
5349.174225,-444.123565,-689.485948,9548.656652
5349.174548,-962.267725,-1455.581446,10066.800811
5349.174870,-2368.659014,-1915.238745,11251.130318
5349.175193,-1480.411884,-1149.143247,10066.800811
5349.175516,-888.247130,-1072.533697,8660.409521
5349.175838,-1184.329507,-306.438199,7476.080014
5349.176161,-296.082377,-1532.190996,8882.471304
5349.176483,-814.226536,-842.705048,8142.265362
5349.176806,-444.123565,536.266849,9474.636058
5349.177129,-518.144159,459.657299,9326.594869
5349.177451,-1036.288319,0.000000,10288.862594
5349.177774,-1554.432478,0.000000,10214.842000
5349.178096,-370.102971,229.828649,10066.800811
5349.178419,-1110.308913,766.095498,9918.759623
5349.178742,-1332.370696,919.314598,9474.636058
5349.179064,-1184.329507,536.266849,9770.718434
5349.179387,518.144159,612.876398,7698.141797
5349.179709,1480.411884,1685.410096,7179.997637
5349.180032,1406.391290,1991.848295,7476.080014
5349.180355,1554.432478,1991.848295,9622.677246
5349.180677,1110.308913,2221.676944,9548.656652
5349.181000,2516.700203,2681.334243,8734.430116
5349.181322,1924.535449,2834.553343,9030.512492
5349.181645,518.144159,2374.896044,10955.047942
5349.181968,740.205942,2145.067394,10732.986159
5349.182290,0.000000,2145.067394,9770.718434
5349.182613,-222.061783,1915.238745,8586.388927
5349.182935,-444.123565,995.924147,8290.306550
5349.183258,0.000000,1225.752797,7846.182985
5349.183581,1406.391290,2451.505594,7920.203579
5349.183903,148.041188,2374.896044,6883.915261
5349.184226,-518.144159,2068.457845,9104.533087
5349.184548,-888.247130,1915.238745,9622.677246
5349.184871,-148.041188,1608.800546,9400.615463
5349.185194,592.164754,1915.238745,9770.718434
5349.185516,-518.144159,2298.286494,9622.677246
5349.185839,-1258.350101,612.876398,10881.027347
5349.186161,-1110.308913,1149.143247,9474.636058
5349.186484,-1036.288319,842.705048,8512.368333
5349.186807,-888.247130,1072.533697,7476.080014
5349.187129,-1036.288319,689.485948,9030.512492
5349.187452,962.267725,1302.362347,8068.244768
5349.187774,2886.803174,1838.629195,7402.059420
5349.188097,1332.370696,2221.676944,7698.141797
5349.188420,1554.432478,1762.019645,9474.636058
5349.188742,1332.370696,995.924147,10955.047942
5349.189065,1110.308913,1838.629195,9918.759623
5349.189387,1332.370696,1532.190996,9844.739029
5349.189710,-592.164754,229.828649,10510.924376
5349.190033,-1332.370696,0.000000,9474.636058
5349.190355,-370.102971,-383.047749,8586.388927
5349.190678,-814.226536,-153.219100,7328.038826
5349.191000,-2294.638420,0.000000,8734.430116
5349.191323,-2812.782580,-919.314598,9474.636058
5349.191646,-1702.473667,-1225.752797,9622.677246
5349.191968,-518.144159,-306.438199,8216.285956
5349.192291,-1036.288319,-306.438199,9622.677246
5349.192614,-2368.659014,-459.657299,11547.212695
5349.192936,-2738.761985,-1532.190996,11991.336260
5349.193259,-2590.720797,-1915.238745,9992.780217
5349.193582,-2368.659014,-1608.800546,9178.553681
5349.193904,-3034.844362,-1762.019645,9844.739029
5349.194227,-2590.720797,-1455.581446,9622.677246
5349.194550,-1332.370696,-459.657299,9178.553681
5349.194873,296.082377,-1072.533697,6957.935855
5349.195195,296.082377,-536.266849,7698.141797
5349.195518,0.000000,-459.657299,9992.780217
5349.195841,1850.514855,536.266849,10436.903782
5349.196163,2442.679609,919.314598,10658.965565
5349.196486,1998.556043,1378.971896,10288.862594
5349.196809,2146.597232,459.657299,11547.212695
5349.197131,370.102971,383.047749,11029.068536
5349.197454,1480.411884,1225.752797,9696.697840
5349.197777,1628.453072,306.438199,7920.203579
5349.198100,370.102971,-229.828649,7624.121203
5349.198422,74.020594,229.828649,8438.347739
5349.198745,0.000000,689.485948,7698.141797
5349.199068,-296.082377,995.924147,7624.121203
5349.199390,-222.061783,536.266849,7920.203579
5349.199713,0.000000,0.000000,9400.615463
5349.200036,0.000000,1762.019645,10140.821405
5349.200358,0.000000,1532.190996,10214.842000
5349.200681,-1258.350101,919.314598,10510.924376
5349.201004,-1184.329507,306.438199,10140.821405
5349.201326,-1036.288319,0.000000,8586.388927
5349.201649,74.020594,766.095498,8290.306550
5349.201972,0.000000,1149.143247,7994.224174
5349.202295,-1258.350101,1072.533697,9030.512492
5349.202617,0.000000,536.266849,8586.388927
5349.202940,148.041188,612.876398,7624.121203
5349.203263,-666.185348,383.047749,7920.203579
5349.203585,-1184.329507,689.485948,10362.883188
5349.203908,-1924.535449,229.828649,11473.192101
5349.204231,-370.102971,919.314598,11251.130318
5349.204553,-1258.350101,1072.533697,10436.903782
5349.204876,-1258.350101,-306.438199,9844.739029
5349.205199,-740.205942,-306.438199,9474.636058
5349.205521,148.041188,536.266849,8512.368333
5349.205844,1406.391290,1838.629195,8290.306550
5349.206167,888.247130,1838.629195,8882.471304
5349.206490,0.000000,536.266849,9696.697840
5349.206812,740.205942,995.924147,8512.368333
5349.207135,1998.556043,459.657299,8586.388927
5349.207458,1850.514855,1072.533697,9474.636058
5349.207780,740.205942,842.705048,12065.356855
5349.208103,0.000000,459.657299,12213.398043
5349.208426,740.205942,995.924147,10362.883188
5349.208748,1184.329507,689.485948,8364.327145
5349.209071,1480.411884,766.095498,7698.141797
5349.209394,1776.494261,1302.362347,9030.512492
5349.209717,1998.556043,1838.629195,8364.327145
5349.210039,1702.473667,2374.896044,9252.574275
5349.210362,-814.226536,2298.286494,8956.491898
5349.210685,-1628.453072,1302.362347,9548.656652
5349.211007,-1776.494261,919.314598,9400.615463
5349.211330,-1776.494261,1302.362347,8956.491898
5349.211653,-2146.597232,919.314598,9178.553681
5349.211975,-3404.947333,383.047749,9548.656652
5349.212298,-2664.741391,76.609550,9474.636058
5349.212621,-2146.597232,76.609550,6587.832884
5349.212943,-2516.700203,383.047749,6809.894666
5349.213266,-962.267725,1608.800546,7105.977043
5349.213589,-148.041188,1685.410096,8956.491898
5349.213912,1406.391290,2987.772442,7994.224174
5349.214234,2368.659014,2987.772442,9030.512492
5349.214557,1628.453072,2451.505594,9474.636058
5349.214880,1406.391290,2145.067394,11029.068536
5349.215202,1924.535449,2451.505594,11251.130318
5349.215525,1110.308913,2834.553343,10881.027347
5349.215848,0.000000,1762.019645,10066.800811
5349.216170,-74.020594,76.609550,9474.636058
5349.216493,296.082377,0.000000,9326.594869
5349.216816,74.020594,306.438199,7402.059420
5349.217138,-1776.494261,0.000000,8734.430116
5349.217461,-1776.494261,-306.438199,9474.636058
5349.217784,-2442.679609,-842.705048,9918.759623
5349.218107,-814.226536,-229.828649,8512.368333
5349.218429,-1110.308913,-229.828649,9400.615463
5349.218752,-3404.947333,-536.266849,9844.739029
5349.219075,-3108.864956,-1225.752797,10732.986159
5349.219397,-2294.638420,-1225.752797,9770.718434
5349.219720,-2368.659014,-1072.533697,8734.430116
5349.220043,-1406.391290,-1915.238745,8068.244768
5349.220365,-1554.432478,-919.314598,9178.553681
5349.220688,1110.308913,-612.876398,7772.162391
5349.221011,2368.659014,-1225.752797,7698.141797
5349.221334,1776.494261,0.000000,9178.553681
5349.221656,1998.556043,0.000000,11177.109724
5349.221979,2738.761985,0.000000,10955.047942
5349.222302,2738.761985,459.657299,11251.130318
5349.222624,2220.617826,612.876398,10140.821405
5349.222947,0.000000,-766.095498,10436.903782
5349.223270,-1702.473667,-306.438199,10881.027347
5349.223592,148.041188,-612.876398,8660.409521
5349.223915,74.020594,-919.314598,6957.935855
5349.224238,-1406.391290,-612.876398,7994.224174
5349.224560,-1258.350101,-536.266849,8734.430116
5349.224883,0.000000,-1072.533697,7328.038826
5349.225206,-370.102971,689.485948,7994.224174
5349.225529,-518.144159,689.485948,9474.636058
5349.225851,-370.102971,0.000000,11769.274478
5349.226174,-148.041188,919.314598,11251.130318
5349.226497,444.123565,1225.752797,11177.109724
5349.226819,-888.247130,612.876398,10658.965565
5349.227142,-2220.617826,0.000000,11399.171507
5349.227465,0.000000,383.047749,9622.677246
5349.227787,-74.020594,995.924147,9030.512492
5349.228110,592.164754,2221.676944,6809.894666
5349.228433,0.000000,1685.410096,7772.162391
5349.228755,222.061783,1762.019645,8216.285956
5349.229078,296.082377,2145.067394,8364.327145
5349.229401,296.082377,2451.505594,7846.182985
5349.229724,0.000000,2298.286494,9474.636058
5349.230046,-666.185348,2298.286494,10140.821405
5349.230369,-962.267725,1838.629195,9844.739029
5349.230692,-1406.391290,1838.629195,7920.203579
5349.231014,-1406.391290,612.876398,7994.224174
5349.231337,-1184.329507,689.485948,7476.080014
5349.231660,-740.205942,1149.143247,7846.182985
5349.231982,-666.185348,2374.896044,6661.853478
5349.232305,-814.226536,1302.362347,7772.162391
5349.232628,-740.205942,842.705048,7920.203579
5349.232950,1110.308913,612.876398,8438.347739
5349.233273,1998.556043,1149.143247,8216.285956
5349.233596,296.082377,1838.629195,10584.944971
5349.233919,814.226536,1302.362347,10807.006753
5349.234241,370.102971,306.438199,11103.089130
5349.234564,666.185348,995.924147,8882.471304
5349.234887,1998.556043,459.657299,8660.409521
5349.235209,-148.041188,0.000000,9844.739029
5349.235532,222.061783,153.219100,10436.903782
5349.235855,1110.308913,229.828649,10362.883188
5349.236177,74.020594,0.000000,10140.821405
5349.236500,-888.247130,-383.047749,10807.006753
5349.236823,-1702.473667,-1302.362347,11399.171507
5349.237146,-888.247130,-689.485948,11473.192101
5349.237468,0.000000,229.828649,10732.986159
5349.237791,-2590.720797,-689.485948,10955.047942
5349.238114,-2516.700203,-1072.533697,10658.965565
5349.238436,-1850.514855,-766.095498,9252.574275
5349.238759,-518.144159,-459.657299,7402.059420
5349.239082,296.082377,0.000000,8068.244768
5349.239404,-666.185348,0.000000,8290.306550
5349.239727,-888.247130,-689.485948,9030.512492
5349.240050,0.000000,383.047749,8586.388927
5349.240372,444.123565,612.876398,8364.327145
5349.240695,148.041188,842.705048,9178.553681
5349.241018,74.020594,995.924147,10658.965565
5349.241341,2220.617826,1378.971896,10140.821405
5349.241663,2368.659014,612.876398,8808.450710
5349.241986,2220.617826,1302.362347,7846.182985
5349.242309,1332.370696,1532.190996,8512.368333
5349.242631,518.144159,1149.143247,8586.388927
5349.242954,1258.350101,2145.067394,8660.409521
5349.243277,962.267725,1838.629195,8216.285956
5349.243599,-962.267725,1072.533697,8660.409521
5349.243922,-814.226536,1072.533697,8660.409521
5349.244245,-888.247130,1072.533697,9252.574275
5349.244567,-1924.535449,1762.019645,9622.677246
5349.244890,-3034.844362,1072.533697,10140.821405
5349.245213,-3701.029710,459.657299,10658.965565
5349.245536,-3108.864956,612.876398,9770.718434
5349.245858,-2516.700203,459.657299,7550.100608
5349.246181,-2812.782580,-306.438199,8734.430116
5349.246504,-1850.514855,459.657299,8438.347739
5349.246826,-444.123565,1072.533697,9400.615463
