#time,accel_x,accel_y,accel_z
20931.480207,1924.535449,4213.525239,7920.203579
20931.480531,2368.659014,3447.429741,8438.347739
20931.480854,2664.741391,2987.772442,9252.574275
20931.481178,1628.453072,2834.553343,9326.594869
20931.481501,1258.350101,2374.896044,9474.636058
20931.481825,1036.288319,1685.410096,10066.800811
20931.482149,666.185348,1302.362347,10362.883188
20931.482472,666.185348,1991.848295,9992.780217
20931.482796,666.185348,229.828649,10510.924376
20931.483119,0.000000,842.705048,10732.986159
20931.483443,0.000000,689.485948,10658.965565
20931.483766,-296.082377,612.876398,10436.903782
20931.484090,-222.061783,0.000000,10658.965565
20931.484413,-222.061783,383.047749,10732.986159
20931.484737,-1036.288319,383.047749,10362.883188
20931.485061,-1332.370696,-383.047749,10288.862594
20931.485384,-2738.761985,-459.657299,9104.533087
20931.485708,-2738.761985,-612.876398,9178.553681
20931.486031,-3701.029710,-995.924147,9400.615463
20931.486355,-4219.173869,-1225.752797,9474.636058
20931.486678,-4737.318029,0.000000,8956.491898
20931.487002,-4663.297435,-1225.752797,8808.450710
20931.487325,-4589.276840,-306.438199,8734.430116
20931.487649,-4663.297435,0.000000,9030.512492
20931.487972,-4737.318029,0.000000,9030.512492
20931.488296,-5625.565159,383.047749,8734.430116
20931.488620,-5847.626942,383.047749,8364.327145
20931.488943,-5995.668130,306.438199,8586.388927
20931.489267,-6143.709319,459.657299,8660.409521
20931.489590,-6439.791695,0.000000,8660.409521
20931.489914,-6291.750507,-306.438199,8660.409521
20931.490237,-6291.750507,-459.657299,9030.512492
20931.490561,-5625.565159,76.609550,9474.636058
20931.490884,-5107.421000,76.609550,9400.615463
20931.491208,-4515.256246,689.485948,9474.636058
20931.491532,-4071.132681,1225.752797,9918.759623
20931.491855,-3256.906145,1149.143247,10584.944971
20931.492179,-3108.864956,2528.115143,10955.047942
20931.492502,-3627.009116,2834.553343,10436.903782
20931.492826,-2886.803174,3294.210641,10362.883188
20931.493149,-2812.782580,3983.696590,10584.944971
20931.493473,-3108.864956,4366.744339,10066.800811
20931.493796,-2664.741391,5745.716235,9622.677246
20931.494120,-2664.741391,4903.011187,9104.533087
20931.494443,-2886.803174,5209.449386,7476.080014
20931.494767,-2960.823768,6281.983084,8364.327145
20931.495091,-2812.782580,6511.811733,7920.203579
20931.495414,-2516.700203,7048.078582,7254.018232
20931.495738,-1702.473667,6435.202183,6513.812290
20931.496061,-1406.391290,5975.544884,5773.606348
20931.496385,-1036.288319,5669.106685,5181.441594
20931.496708,518.144159,5209.449386,4959.379811
20931.497032,1628.453072,5286.058936,5181.441594
20931.497355,888.247130,4136.915689,5403.503377
20931.497679,592.164754,3217.601092,6587.832884
20931.498003,592.164754,2221.676944,7846.182985
20931.498326,518.144159,1991.848295,9770.718434
20931.498650,444.123565,1608.800546,10732.986159
20931.498973,296.082377,1915.238745,11251.130318
20931.499297,1332.370696,1378.971896,11991.336260
20931.499620,1924.535449,1838.629195,12287.418637
20931.499944,2220.617826,2068.457845,12065.356855
20931.500267,2590.720797,1991.848295,11325.150913
20931.500591,3256.906145,1685.410096,10732.986159
20931.500914,3923.091493,689.485948,9696.697840
20931.501238,2294.638420,-306.438199,9104.533087
20931.501562,370.102971,-1225.752797,8956.491898
20931.501885,-1406.391290,-3217.601092,9696.697840
20931.502209,-3108.864956,-4596.572988,10955.047942
20931.502532,-5847.626942,-5286.058936,12509.480420
20931.502856,-7994.224174,-5439.278036,13471.748144
20931.503179,-8808.450710,-4979.620737,14063.912898
20931.503503,-9548.656652,-3370.820191,13767.830521
20931.503826,-9474.636058,-1225.752797,13471.748144
20931.504150,-9252.574275,919.314598,11843.295072
20931.504473,-7920.203579,2834.553343,8660.409521
20931.504797,-5255.462188,4443.353888,5625.565159
20931.505121,-3701.029710,5286.058936,3627.009116
20931.505444,-4515.256246,5209.449386,2294.638420
20931.505768,-4589.276840,3983.696590,1406.391290
20931.506091,-4589.276840,1991.848295,2886.803174
20931.506415,-6439.791695,0.000000,3552.988522
20931.506738,-7105.977043,-2221.676944,5403.503377
20931.507062,-6957.935855,-3983.696590,7254.018232
20931.507385,-6069.688724,-4519.963438,8660.409521
20931.507709,-4219.173869,-4060.306139,9918.759623
20931.508032,-2960.823768,-3294.210641,10807.006753
20931.508356,-2294.638420,-1225.752797,11769.274478
20931.508679,-962.267725,842.705048,12805.562797
20931.509003,444.123565,2604.724693,13249.686362
20931.509326,-296.082377,4519.963438,13989.892304
20931.509650,-1628.453072,5898.935335,13397.727550
20931.509973,-1924.535449,6358.592633,12509.480420
20931.510297,-444.123565,6435.202183,11843.295072
20931.510620,1110.308913,6818.249932,11399.171507
20931.510944,1776.494261,5975.544884,10658.965565
20931.511267,1110.308913,5515.887586,9400.615463
20931.511591,1998.556043,3677.258390,7179.997637
20931.511914,3034.844362,2451.505594,5995.668130
20931.512238,2220.617826,995.924147,6439.791695
20931.512561,1480.411884,-229.828649,6217.729913
20931.512885,1850.514855,-995.924147,5181.441594
20931.513208,3404.947333,-1149.143247,5699.585753
20931.513532,2442.679609,-383.047749,6957.935855
20931.513855,444.123565,612.876398,7920.203579
20931.514179,148.041188,1455.581446,9622.677246
20931.514502,0.000000,3217.601092,10955.047942
20931.514826,-962.267725,5209.449386,12509.480420
20931.515150,-1998.556043,6511.811733,12361.439231
20931.515473,-1406.391290,7277.907231,10658.965565
20931.515797,666.185348,8273.831378,8142.265362
20931.516120,1628.453072,8044.002729,7550.100608
20931.516444,888.247130,7277.907231,5699.585753
20931.516767,296.082377,5592.497135,4737.318029
20931.517091,148.041188,2451.505594,4441.235652
20931.517414,-1258.350101,-1762.019645,4589.276840
20931.517738,-2220.617826,-4903.011187,4737.318029
20931.518061,-2812.782580,-7814.174080,7254.018232
20931.518385,-3775.050304,-9269.755526,10732.986159
20931.518708,-6069.688724,-9806.022374,12731.542202
20931.519032,-7328.038826,-9729.412825,14359.995275
20931.519355,-7031.956449,-8580.269578,16950.716072
20931.519679,-6661.853478,-5745.716235,18875.251521
20931.520002,-5921.647536,-1915.238745,19467.416275
20931.520326,-3849.070898,1072.533697,16506.592507
20931.520649,-1554.432478,3983.696590,12065.356855
20931.520973,74.020594,6358.592633,9400.615463
20931.521296,1332.370696,8503.660028,6143.709319
20931.521620,3182.885551,7967.393179,2368.659014
20931.521943,3330.926739,4596.572988,-518.144159
20931.522267,2294.638420,1072.533697,-1332.370696
20931.522590,888.247130,-3677.258390,-1554.432478
20931.522914,-1924.535449,-7354.516781,888.247130
20931.523237,-4737.318029,-10495.508323,5477.523971
20931.523561,-7254.018232,-12563.966167,8882.471304
20931.523884,-7328.038826,-13713.109414,12435.459826
20931.524208,-7550.100608,-12410.747068,17024.736666
20931.524531,-5921.647536,-8197.221829,20503.704593
20931.524855,-2072.576638,-2604.724693,19319.375086
20931.525179,962.267725,1302.362347,17394.839637
20931.525502,4219.173869,5669.106685,14582.057057
20931.525826,6217.729913,9499.584175,9252.574275
20931.526149,9474.636058,11874.480219,4441.235652
20931.526473,12139.377449,11797.870669,2146.597232
20931.526796,12509.480420,9806.022374,666.185348
20931.527120,9548.656652,5362.668486,-0.000000
20931.527443,5181.441594,76.609550,1702.473667
20931.527767,1480.411884,-4443.353888,6957.935855
20931.528090,-3108.864956,-10265.679673,10288.862594
20931.528414,-8512.368333,-13176.842566,13767.830521
20931.528737,-10066.800811,-14249.376263,17616.901420
20931.529061,-8660.409521,-12870.404366,19319.375086
20931.529384,-7031.956449,-8120.612279,19097.313304
20931.529708,-3108.864956,-2068.457845,17542.880825
20931.530031,518.144159,3907.087040,15470.304188
20931.530355,3034.844362,8580.269578,10510.924376
20931.530678,7772.162391,12870.404366,5033.400406
20931.531002,12879.583391,15704.957709,666.185348
20931.531325,12509.480420,15475.129060,-1184.329507
20931.531649,10140.821405,13330.061665,-2664.741391
20931.531972,7920.203579,8273.831378,-1480.411884
20931.532296,4145.153275,2374.896044,3256.906145
20931.532619,-2072.576638,-2834.553343,7179.997637
20931.532943,-7920.203579,-7660.954980,11251.130318
20931.533266,-11325.150913,-11491.432470,15766.386565
20931.533590,-13027.624579,-12870.404366,17172.777854
20931.533913,-12953.603985,-10801.946522,16062.468941
20931.534237,-9030.512492,-6435.202183,14434.015869
20931.534560,-5773.606348,0.000000,13397.727550
20931.534884,-2886.803174,4826.401637,10362.883188
20931.535208,370.102971,8656.879127,5995.668130
20931.535531,5477.523971,10572.117872,2664.741391
20931.535855,7994.224174,10648.727422,740.205942
20931.536178,7476.080014,9193.145976,740.205942
20931.536502,5625.565159,5515.887586,3108.864956
20931.536825,1110.308913,76.609550,7105.977043
20931.537149,-4071.132681,-4213.525239,11177.109724
20931.537472,-7105.977043,-8580.269578,14285.974681
20931.537796,-8734.430116,-12717.185267,17172.777854
20931.538119,-10362.883188,-14325.985813,18727.210333
20931.538443,-7698.141797,-12027.699319,17912.983796
20931.538766,-4145.153275,-7967.393179,15988.448347
20931.539090,-2368.659014,-2987.772442,12435.459826
20931.539413,74.020594,1915.238745,7179.997637
20931.539737,4737.318029,5592.497135,3330.926739
20931.540060,7920.203579,7354.516781,1924.535449
20931.540384,9918.759623,8044.002729,-296.082377
20931.540707,9326.594869,7048.078582,-1110.308913
20931.541031,5995.668130,2757.943793,2072.576638
20931.541354,1924.535449,-1149.143247,6735.874072
20931.541678,-740.205942,-4519.963438,11177.109724
20931.542001,-4885.359217,-8503.660028,13323.706956
20931.542325,-8364.327145,-11184.994271,17320.819043
20931.542648,-8438.347739,-11644.651570,17838.963202
20931.542972,-4367.215058,-10265.679673,15766.386565
20931.543295,-2368.659014,-7584.345430,13545.768739
20931.543619,-1184.329507,-1149.143247,11843.295072
20931.543942,3108.864956,4213.525239,7550.100608
20931.544266,7624.121203,5822.325785,4219.173869
20931.544589,9030.512492,7201.297681,2812.782580
20931.544913,7698.141797,7584.345430,2368.659014
20931.545237,6439.791695,4290.134789,1850.514855
20931.545560,4589.276840,459.657299,4515.256246
20931.545884,222.061783,-2528.115143,10214.842000
20931.546207,-4737.318029,-6205.373534,13619.789333
20931.546531,-8586.388927,-9193.145976,15470.304188
20931.546854,-10732.986159,-10955.165621,18209.066173
20931.547178,-9474.636058,-9422.974625,19245.354492
20931.547501,-5551.544565,-5975.544884,16506.592507
20931.547825,-962.267725,-1532.190996,12287.418637
20931.548148,1850.514855,3753.867940,9696.697840
20931.548472,2590.720797,9346.365076,4293.194464
20931.548795,7476.080014,11644.651570,-74.020594
20931.549119,10584.944971,11031.775171,-814.226536
20931.549442,7402.059420,9806.022374,-1406.391290
20931.549766,4589.276840,6741.640382,-962.267725
20931.550089,2368.659014,1072.533697,1998.556043
20931.550413,-3923.091493,-2987.772442,8142.265362
20931.550736,-9252.574275,-6052.154434,11769.274478
20931.551060,-11325.150913,-9806.022374,14730.098246
20931.551383,-12213.398043,-11568.042020,18283.086767
20931.551707,-12435.459826,-9346.365076,19245.354492
20931.552030,-8512.368333,-5669.106685,17246.798449
20931.552354,-2664.741391,-2221.676944,14063.912898
20931.552677,0.000000,4903.011187,11547.212695
20931.553001,3256.906145,9346.365076,6883.915261
20931.553324,8660.409521,10725.336972,2146.597232
20931.553648,12139.377449,11568.042020,370.102971
20931.553971,10807.006753,10112.460574,148.041188
20931.554295,8068.244768,5898.935335,296.082377
20931.554618,3997.112087,536.266849,4367.215058
20931.554942,0.000000,-4213.525239,9400.615463
20931.555266,-4441.235652,-8350.440928,13841.851115
20931.555589,-9474.636058,-12640.575717,16876.695478
20931.555913,-11325.150913,-14249.376263,19467.416275
20931.556236,-10955.047942,-12257.527968,20651.745782
20931.556560,-8142.265362,-8350.440928,18505.148550
20931.556883,-3330.926739,-2604.724693,14137.933492
20931.557207,962.267725,3140.991542,10140.821405
20931.557530,4885.359217,8810.098227,6069.688724
20931.557854,8660.409521,11797.870669,518.144159
20931.558177,11473.192101,12793.794817,-2960.823768
20931.558501,12213.398043,10725.336972,-3552.988522
20931.558824,9474.636058,6971.469032,-2146.597232
20931.559148,4885.359217,919.314598,1258.350101
20931.559471,-1036.288319,-4596.572988,7328.038826
20931.559795,-6069.688724,-9806.022374,11769.274478
20931.560118,-9400.615463,-14096.157163,16358.551318
20931.560442,-10140.821405,-15704.957709,20577.725188
20931.560765,-10510.924376,-14555.814462,20725.766376
20931.561089,-6883.915261,-10189.070123,19319.375086
20931.561412,-1406.391290,-4673.182538,16580.613101
20931.561736,1184.329507,2451.505594,13323.706956
20931.562059,3923.091493,7354.516781,7624.121203
20931.562383,8734.430116,10265.679673,1702.473667
20931.562706,11695.253884,11184.994271,-1554.432478
20931.563030,11251.130318,10495.508323,-1258.350101
20931.563353,9918.759623,7584.345430,666.185348
20931.563677,6069.688724,2221.676944,3923.091493
20931.564000,-962.267725,-3064.381992,7476.080014
20931.564324,-5329.482782,-8197.221829,11917.315666
20931.564647,-8512.368333,-12027.699319,16580.613101
20931.564971,-11177.109724,-13866.328514,19837.519246
20931.565295,-12509.480420,-13406.671215,19467.416275
20931.565618,-8956.491898,-10418.898773,16654.633695
20931.565942,-3775.050304,-4979.620737,15396.283594
20931.566265,-2294.638420,2451.505594,12287.418637
20931.566589,1702.473667,7584.345430,6661.853478
20931.566912,7031.956449,10265.679673,1998.556043
20931.567236,10066.800811,11491.432470,-1776.494261
20931.567559,8512.368333,13100.233016,-2960.823768
20931.567883,7772.162391,9729.412825,-2072.576638
20931.568206,5921.647536,4673.182538,1554.432478
20931.568530,0.000000,0.000000,6957.935855
20931.568853,-6291.750507,-5898.935335,10436.903782
20931.569177,-9178.553681,-11031.775171,15026.180623
20931.569500,-11621.233289,-12793.794817,19467.416275
20931.569824,-13545.768739,-11644.651570,20429.683999
20931.570147,-10881.027347,-10495.508323,18209.066173
20931.570471,-5107.421000,-5898.935335,14211.954086
20931.570794,-1036.288319,1302.362347,12953.603985
20931.571118,1406.391290,7201.297681,9252.574275
20931.571441,5847.626942,10878.556072,2590.720797
20931.571765,10658.965565,12180.918418,-592.164754
20931.572088,11399.171507,12717.185267,-1554.432478
20931.572412,11177.109724,10495.508323,666.185348
20931.572735,7254.018232,5439.278036,3701.029710
20931.573059,0.000000,0.000000,8068.244768
20931.573382,-4293.194464,-5362.668486,11843.295072
20931.573706,-6735.874072,-10572.117872,15840.407159
20931.574029,-11399.171507,-12563.966167,19689.478057
20931.574353,-11843.295072,-12027.699319,18949.272115
20931.574676,-8216.285956,-9269.755526,17024.736666
20931.575000,-3849.070898,-5209.449386,14730.098246
20931.575324,-444.123565,2451.505594,11917.315666
20931.575647,2812.782580,7890.783629,6883.915261
20931.575971,6809.894666,9346.365076,444.123565
20931.576294,10436.903782,11184.994271,-1628.453072
20931.576618,12435.459826,11414.822920,-1998.556043
20931.576941,10362.883188,8580.269578,-1406.391290
20931.577265,4219.173869,3140.991542,1776.494261
20931.577588,518.144159,-1762.019645,7698.141797
20931.577912,-2368.659014,-7124.688131,12953.603985
20931.578235,-7624.121203,-11108.384721,16728.654289
20931.578559,-10510.924376,-13100.233016,20429.683999
20931.578882,-11103.089130,-14402.595362,20207.622217
20931.579206,-9326.594869,-10265.679673,17394.839637
20931.579529,-3775.050304,-4903.011187,13989.892304
20931.579853,1110.308913,1838.629195,11843.295072
20931.580176,3478.967927,6894.859482,6809.894666
20931.580500,8068.244768,9806.022374,1110.308913
20931.580823,11473.192101,11721.261119,-518.144159
20931.581147,10362.883188,10572.117872,-444.123565
20931.581470,7476.080014,7584.345430,-74.020594
20931.581794,3775.050304,1378.971896,2960.823768
20931.582117,-1776.494261,-4979.620737,9030.512492
20931.582441,-7994.224174,-9729.412825,13693.809927
20931.582764,-11843.295072,-12717.185267,18209.066173
20931.583088,-13397.727550,-14709.033562,20799.786970
20931.583411,-13397.727550,-13559.890315,19467.416275
20931.583735,-8438.347739,-9499.584175,16728.654289
20931.584058,-2516.700203,-2374.896044,13767.830521
20931.584382,0.000000,4596.572988,10584.944971
20931.584705,2886.803174,9346.365076,5625.565159
20931.585029,7328.038826,11261.603821,296.082377
20931.585353,10510.924376,11644.651570,-3108.864956
20931.585676,9474.636058,11031.775171,-2368.659014
20931.586000,8142.265362,7354.516781,-592.164754
20931.586323,4589.276840,1991.848295,3182.885551
20931.586647,-2368.659014,-3294.210641,8808.450710
20931.586970,-6143.709319,-8197.221829,12361.439231
20931.587294,-9400.615463,-11644.651570,16654.633695
20931.587617,-10584.944971,-13176.842566,20355.663405
20931.587941,-11917.315666,-11184.994271,20429.683999
20931.588264,-7254.018232,-7201.297681,17024.736666
20931.588588,222.061783,-1532.190996,14656.077652
20931.588911,1776.494261,5669.106685,11251.130318
20931.589235,4293.194464,10342.289223,4737.318029
20931.589558,10140.821405,12793.794817,222.061783
20931.589882,13693.809927,13253.452115,-1184.329507
20931.590205,10584.944971,13330.061665,-888.247130
20931.590529,7254.018232,8656.879127,-444.123565
20931.590852,5699.585753,2298.286494,2146.597232
20931.591176,-1184.329507,-3064.381992,8216.285956
20931.591499,-7254.018232,-8427.050478,13471.748144
20931.591823,-9252.574275,-12257.527968,17542.880825
20931.592146,-11473.192101,-13866.328514,19911.539840
20931.592470,-12213.398043,-12027.699319,19689.478057
20931.592793,-7920.203579,-7890.783629,17690.922014
20931.593117,-2368.659014,-2757.943793,12657.521608
20931.593440,1998.556043,4443.353888,11177.109724
20931.593764,5847.626942,9882.631924,7179.997637
20931.594087,10288.862594,12257.527968,962.267725
20931.594411,11769.274478,12640.575717,-2368.659014
20931.594734,11399.171507,11721.261119,-2072.576638
20931.595058,9326.594869,8427.050478,-444.123565
20931.595382,3627.009116,1838.629195,2442.679609
20931.595705,-1850.514855,-3983.696590,8882.471304
20931.596029,-5403.503377,-8580.269578,13101.645173
20931.596352,-10732.986159,-13636.499864,16728.654289
20931.596676,-14137.933492,-15628.348159,19615.457463
20931.596999,-12879.583391,-13253.452115,20503.704593
20931.597323,-9252.574275,-9882.631924,18875.251521
20931.597646,-5329.482782,-4673.182538,14656.077652
20931.597970,-1110.308913,2298.286494,10807.006753
20931.598293,2146.597232,7814.174080,7105.977043
20931.598617,5181.441594,9499.584175,1554.432478
20931.598940,8290.306550,11031.775171,-1258.350101
20931.599264,10510.924376,9422.974625,-1184.329507
20931.599587,6735.874072,6358.592633,296.082377
20931.599911,2146.597232,1991.848295,3552.988522
20931.600234,-814.226536,-3140.991542,9696.697840
20931.600558,-4367.215058,-8656.879127,12065.356855
20931.600881,-9104.533087,-12180.918418,16580.613101
20931.601205,-10732.986159,-13406.671215,20503.704593
20931.601528,-10510.924376,-12563.966167,18875.251521
20931.601852,-9104.533087,-9039.926876,16580.613101
20931.602175,-2886.803174,-3600.648841,13323.706956
20931.602499,1406.391290,2834.553343,11399.171507
20931.602822,3330.926739,8427.050478,6069.688724
20931.603146,8068.244768,11184.994271,-0.000000
20931.603469,11621.233289,12180.918418,-1628.453072
20931.603793,9992.780217,11491.432470,-1406.391290
20931.604116,8586.388927,8733.488677,-740.205942
20931.604440,6883.915261,3140.991542,3108.864956
20931.604763,814.226536,-1915.238745,8290.306550
20931.605086,-5477.523971,-7354.516781,12805.562797
20931.605410,-8142.265362,-11184.994271,16580.613101
20931.605733,-10066.800811,-13636.499864,20429.683999
20931.606056,-12065.356855,-12793.794817,19541.436869
20931.606379,-6661.853478,-8810.098227,17394.839637
20931.606703,-1184.329507,-3830.477490,15840.407159
20931.607026,-592.164754,3064.381992,12065.356855
20931.607349,3330.926739,8580.269578,6217.729913
20931.607672,8290.306550,10112.460574,74.020594
20931.607996,9474.636058,11491.432470,-2516.700203
20931.608319,9474.636058,11338.213370,-666.185348
20931.608642,9918.759623,8580.269578,370.102971
20931.608966,6217.729913,3294.210641,3923.091493
20931.609289,-1628.453072,-2068.457845,9252.574275
20931.609612,-5329.482782,-7431.126331,11029.068536
20931.609935,-7994.224174,-11338.213370,15248.242405
20931.610259,-10288.862594,-12870.404366,20429.683999
20931.610582,-11177.109724,-11261.603821,20133.601622
20931.610905,-8808.450710,-8044.002729,16284.530724
20931.611228,-3034.844362,-3830.477490,13323.706956
20931.611552,74.020594,3064.381992,11621.233289
20931.611875,2220.617826,8503.660028,5699.585753
20931.612198,7105.977043,10572.117872,296.082377
20931.612521,10881.027347,11568.042020,-1036.288319
20931.612845,10066.800811,11491.432470,-814.226536
20931.613168,6365.771101,8044.002729,-518.144159
20931.613491,3182.885551,2145.067394,2072.576638
20931.613814,-1036.288319,-3140.991542,7994.224174
20931.614138,-7105.977043,-8580.269578,12879.583391
20931.614461,-10658.965565,-12257.527968,17246.798449
20931.614784,-13027.624579,-14632.424012,20207.622217
20931.615107,-14211.954086,-14096.157163,19689.478057
20931.615431,-10510.924376,-10112.460574,17172.777854
20931.615754,-3701.029710,-5362.668486,14211.954086
20931.616077,296.082377,1991.848295,11843.295072
20931.616400,4737.318029,7890.783629,7105.977043
20931.616724,9918.759623,11261.603821,740.205942
20931.617047,13989.892304,12180.918418,-1776.494261
20931.617370,14063.912898,12257.527968,-1184.329507
20931.617693,11695.253884,9039.926876,296.082377
20931.618017,7105.977043,2987.772442,2960.823768
20931.618340,444.123565,-2757.943793,8808.450710
20931.618663,-3849.070898,-7737.564530,13545.768739
20931.618986,-8364.327145,-12717.185267,17098.757260
20931.619310,-12731.542202,-14709.033562,19541.436869
20931.619633,-12287.418637,-13483.280765,19023.292709
20931.619956,-8068.244768,-9576.193725,18061.024985
20931.620279,-3775.050304,-4213.525239,15322.262999
20931.620603,-1332.370696,2834.553343,11251.130318
20931.620926,3404.947333,7737.564530,4737.318029
20931.621249,8512.368333,9959.241474,222.061783
20931.621572,11325.150913,11721.261119,-2220.617826
20931.621896,11621.233289,11721.261119,-2220.617826
20931.622219,9326.594869,7431.126331,-0.000000
20931.622542,3923.091493,2451.505594,3108.864956
20931.622865,0.000000,-3140.991542,8956.491898
20931.623189,-3849.070898,-8733.488677,12657.521608
20931.623512,-9918.759623,-12410.747068,16728.654289
20931.623835,-12657.521608,-13789.718964,21465.972318
20931.624158,-10807.006753,-12257.527968,21021.848753
20931.624482,-8216.285956,-9346.365076,18209.066173
20931.624805,-3108.864956,-4136.915689,14359.995275
20931.625128,1110.308913,2834.553343,10436.903782
20931.625451,3997.112087,8580.269578,5181.441594
20931.625775,8808.450710,11797.870669,740.205942
20931.626098,12213.398043,13176.842566,-814.226536
20931.626421,9918.759623,12180.918418,-1776.494261
20931.626744,5921.647536,8350.440928,-2368.659014
20931.627068,2664.741391,1455.581446,1924.535449
20931.627391,-2664.741391,-4213.525239,7772.162391
20931.627714,-9030.512492,-9039.926876,12435.459826
20931.628037,-11547.212695,-12487.356617,17838.963202
20931.628361,-14137.933492,-15245.300410,20799.786970
20931.628684,-15174.221811,-13253.452115,19911.539840
20931.629007,-9474.636058,-9729.412825,17246.798449
20931.629330,-2146.597232,-3907.087040,14434.015869
20931.629654,-592.164754,3524.039291,12139.377449
20931.629977,3404.947333,9652.803275,6587.832884
20931.630300,9844.739029,12257.527968,666.185348
20931.630623,11843.295072,12180.918418,-2960.823768
20931.630947,10066.800811,11031.775171,-3478.967927
20931.631270,9030.512492,7814.174080,-74.020594
20931.631593,5255.462188,1991.848295,3404.947333
20931.631917,-1776.494261,-3140.991542,9326.594869
20931.632240,-5033.400406,-8503.660028,12139.377449
20931.632563,-9326.594869,-12640.575717,16062.468941
20931.632886,-12435.459826,-14249.376263,20281.642811
20931.633210,-11103.089130,-11721.261119,20947.828159
20931.633533,-6883.915261,-8120.612279,18061.024985
20931.633856,-3034.844362,-2528.115143,14137.933492
20931.634179,888.247130,3370.820191,10584.944971
20931.634503,4737.318029,8580.269578,4589.276840
20931.634826,9696.697840,11338.213370,-444.123565
20931.635149,12953.603985,12257.527968,-1554.432478
20931.635472,11991.336260,11644.651570,-1258.350101
20931.635796,7476.080014,7737.564530,-0.000000
20931.636119,4441.235652,1915.238745,3330.926739
20931.636442,592.164754,-3907.087040,9030.512492
20931.636765,-6365.771101,-8656.879127,14063.912898
20931.637089,-10436.903782,-12563.966167,17764.942608
20931.637412,-10510.924376,-14249.376263,21391.951724
20931.637735,-11621.233289,-12487.356617,19985.560434
20931.638058,-10140.821405,-8733.488677,18727.210333
20931.638382,-5255.462188,-4213.525239,15026.180623
20931.638705,962.267725,1072.533697,10140.821405
20931.639028,4663.297435,8197.221829,6291.750507
20931.639351,9030.512492,11644.651570,1258.350101
20931.639675,10584.944971,12717.185267,-2072.576638
20931.639998,9622.677246,11491.432470,-2664.741391
20931.640321,9104.533087,7354.516781,-1258.350101
20931.640644,4663.297435,1915.238745,3108.864956
20931.640968,-2886.803174,-3524.039291,8216.285956
20931.641291,-6661.853478,-8044.002729,12213.398043
20931.641614,-9030.512492,-12257.527968,17764.942608
20931.641937,-12509.480420,-14709.033562,20577.725188
20931.642261,-13767.830521,-11874.480219,19763.498651
20931.642584,-8586.388927,-8427.050478,15914.427753
20931.642907,-2738.761985,-3983.696590,13471.748144
20931.643230,-1258.350101,3983.696590,10362.883188
20931.643554,3478.967927,9499.584175,4811.338623
20931.643877,8512.368333,11644.651570,-888.247130
20931.644200,9474.636058,12027.699319,-2886.803174
20931.644523,10214.842000,11108.384721,-2516.700203
20931.644847,9548.656652,6894.859482,592.164754
20931.645170,4737.318029,1685.410096,5699.585753
20931.645493,222.061783,-2374.896044,10140.821405
20931.645816,-2294.638420,-8197.221829,12805.562797
20931.646140,-7550.100608,-12257.527968,17838.963202
20931.646463,-9622.677246,-13330.061665,22280.198854
20931.646786,-9992.780217,-10725.336972,21984.116477
20931.647109,-7402.059420,-8733.488677,18283.086767
20931.647433,-2812.782580,-3447.429741,14434.015869
20931.647756,0.000000,3447.429741,10214.842000
20931.648079,3330.926739,8273.831378,4071.132681
20931.648402,7772.162391,11184.994271,-222.061783
20931.648726,10066.800811,11951.089769,-1628.453072
20931.649049,9104.533087,11108.384721,-1036.288319
20931.649372,6217.729913,7507.735880,-592.164754
20931.649695,4293.194464,1072.533697,1702.473667
20931.650019,-1702.473667,-5286.058936,7624.121203
20931.650342,-7031.956449,-9039.926876,12213.398043
20931.650665,-8956.491898,-11874.480219,18283.086767
20931.650988,-10881.027347,-13713.109414,21317.931130
20931.651312,-12953.603985,-12104.308868,19689.478057
20931.651635,-8586.388927,-8733.488677,16876.695478
20931.651958,-1332.370696,-3447.429741,14359.995275
20931.652281,1850.514855,3983.696590,11473.192101
20931.652605,4441.235652,9806.022374,6069.688724
20931.652928,9474.636058,11951.089769,-74.020594
20931.653251,11547.212695,12257.527968,-2442.679609
20931.653574,10955.047942,11108.384721,-2516.700203
20931.653898,9326.594869,7584.345430,296.082377
20931.654221,3997.112087,1378.971896,3997.112087
20931.654544,-2072.576638,-3983.696590,9326.594869
20931.654868,-5255.462188,-8733.488677,13397.727550
20931.655191,-10362.883188,-13100.233016,18135.045579
20931.655514,-14137.933492,-14555.814462,21465.972318
20931.655837,-13323.706956,-13023.623466,21095.869347
20931.656161,-9252.574275,-9652.803275,18135.045579
20931.656484,-3552.988522,-3447.429741,14285.974681
20931.656807,518.144159,4519.963438,11769.274478
20931.657130,3627.009116,9422.974625,5255.462188
20931.657454,8956.491898,11951.089769,-1480.411884
20931.657777,13027.624579,13176.842566,-2886.803174
20931.658100,11325.150913,11874.480219,-2220.617826
20931.658423,6217.729913,8273.831378,-1036.288319
20931.658747,3034.844362,1838.629195,1702.473667
20931.659070,666.185348,-3753.867940,7476.080014
20931.659393,-6291.750507,-8580.269578,13101.645173
20931.659716,-11547.212695,-13100.233016,17320.819043
20931.660040,-12953.603985,-15092.081311,19985.560434
20931.660363,-12805.562797,-13713.109414,19985.560434
20931.660686,-9326.594869,-8580.269578,17912.983796
20931.661009,-2368.659014,-2834.553343,14211.954086
20931.661333,1998.556043,3370.820191,10658.965565
20931.661656,6143.709319,9652.803275,5625.565159
20931.661979,10807.006753,12947.013916,592.164754
20931.662302,13767.830521,14325.985813,-1258.350101
20931.662626,12509.480420,12640.575717,-1036.288319
20931.662949,9992.780217,7967.393179,-592.164754
20931.663272,4737.318029,1072.533697,2516.700203
20931.663595,-2368.659014,-4903.011187,8734.430116
20931.663919,-7772.162391,-9729.412825,13915.871710
20931.664242,-11621.233289,-13406.671215,19097.313304
20931.664565,-14063.912898,-16547.662757,20873.807564
20931.664888,-13397.727550,-13636.499864,21169.889941
20931.665212,-8068.244768,-9806.022374,17172.777854
20931.665535,-2960.823768,-3370.820191,14508.036463
20931.665858,74.020594,4519.963438,11399.171507
20931.666181,4071.132681,11338.213370,5921.647536
20931.666505,10288.862594,13789.718964,740.205942
20931.666828,11917.315666,13406.671215,-2886.803174
20931.667151,11251.130318,12257.527968,-4589.276840
20931.667474,9770.718434,7660.954980,-1850.514855
20931.667798,4959.379811,2298.286494,4515.256246
20931.668121,-1406.391290,-2681.334243,8956.491898
20931.668444,-5921.647536,-8044.002729,12509.480420
20931.668767,-10214.842000,-13636.499864,17320.819043
20931.669091,-13471.748144,-15398.519510,20799.786970
20931.669414,-13101.645173,-12104.308868,20429.683999
20931.669737,-8438.347739,-9039.926876,17838.963202
20931.670060,-3330.926739,-3447.429741,14804.118840
20931.670384,-1406.391290,4596.572988,11325.150913
20931.670707,3256.906145,9116.536426,5033.400406
20931.671030,8808.450710,11721.261119,-0.000000
20931.671353,10584.944971,12410.747068,-2368.659014
20931.671677,9918.759623,11184.994271,-2442.679609
20931.672000,8512.368333,7890.783629,-1480.411884
20931.672323,6143.709319,2451.505594,2368.659014
20931.672646,-222.061783,-3217.601092,9104.533087
20931.672970,-6883.915261,-8197.221829,13027.624579
20931.673293,-9770.718434,-12410.747068,17838.963202
20931.673616,-10140.821405,-14938.862211,21762.054695
20931.673939,-10436.903782,-12793.794817,21465.972318
20931.674263,-7179.997637,-8273.831378,17912.983796
20931.674586,-2368.659014,-2987.772442,15174.221811
20931.674909,1184.329507,3677.258390,13175.665768
20931.675232,4737.318029,9729.412825,6513.812290
20931.675556,9326.594869,12487.356617,-0.000000
20931.675879,11991.336260,11644.651570,-2442.679609
20931.676202,11103.089130,11261.603821,-3775.050304
20931.676525,9548.656652,8044.002729,-2516.700203
20931.676849,5255.462188,2298.286494,3034.844362
20931.677172,-1332.370696,-3294.210641,8438.347739
20931.677495,-5625.565159,-9269.755526,11029.068536
20931.677819,-9918.759623,-13406.671215,16654.633695
20931.678142,-12435.459826,-15168.690860,21169.889941
20931.678465,-11399.171507,-13023.623466,21910.095883
20931.678788,-7772.162391,-9422.974625,18653.189738
20931.679112,-3330.926739,-4826.401637,14656.077652
20931.679435,962.267725,3370.820191,12657.521608
20931.679758,3923.091493,8503.660028,7476.080014
20931.680081,7031.956449,10112.460574,592.164754
20931.680405,11399.171507,11874.480219,-3108.864956
20931.680728,11769.274478,10878.556072,-2960.823768
20931.681051,8882.471304,7431.126331,-1554.432478
20931.681374,3775.050304,2987.772442,2146.597232
20931.681698,-666.185348,-3217.601092,7328.038826
20931.682021,-6661.853478,-9116.536426,12509.480420
20931.682344,-11621.233289,-13636.499864,16802.674883
20931.682667,-13249.686362,-15628.348159,21317.931130
20931.682991,-14434.015869,-14785.643111,22206.178260
20931.683314,-10732.986159,-11568.042020,18949.272115
20931.683637,-5107.421000,-4749.792088,16062.468941
20931.683960,-1850.514855,1608.800546,12953.603985
20931.684284,2220.617826,8273.831378,7105.977043
20931.684607,8438.347739,12027.699319,1406.391290
20931.684930,11843.295072,12870.404366,-2072.576638
20931.685253,13249.686362,13330.061665,-3701.029710
20931.685577,11843.295072,10189.070123,-2812.782580
20931.685900,6365.771101,3830.477490,1258.350101
20931.686223,-1480.411884,-2451.505594,7179.997637
20931.686546,-5033.400406,-8044.002729,11473.192101
20931.686870,-8142.265362,-13176.842566,17912.983796
20931.687193,-13027.624579,-15781.567259,22280.198854
20931.687516,-13471.748144,-13330.061665,22132.157666
20931.687839,-9326.594869,-9652.803275,18209.066173
20931.688163,-3997.112087,-3677.258390,15322.262999
20931.688486,370.102971,3907.087040,12213.398043
20931.688809,3478.967927,10418.898773,5921.647536
20931.689132,7328.038826,12717.185267,-740.205942
20931.689456,10881.027347,14096.157163,-4293.194464
20931.689779,13471.748144,13406.671215,-5033.400406
20931.690102,11325.150913,10112.460574,-3627.009116
20931.690425,5477.523971,3983.696590,2368.659014
20931.690749,-1554.432478,-1762.019645,8512.368333
20931.691072,-4219.173869,-8350.440928,11769.274478
20931.691395,-8512.368333,-12947.013916,17912.983796
20931.691718,-11917.315666,-16011.395908,21910.095883
20931.692042,-13471.748144,-13559.890315,21762.054695
20931.692365,-9252.574275,-10495.508323,19319.375086
20931.692688,-1628.453072,-4443.353888,16506.592507
20931.693011,222.061783,4136.915689,15026.180623
20931.693335,1406.391290,9193.145976,6883.915261
20931.693658,7846.182985,11721.261119,222.061783
20931.693981,13915.871710,12257.527968,-2960.823768
20931.694304,12879.583391,12563.966167,-2220.617826
20931.694628,8142.265362,10265.679673,-592.164754
20931.694951,5033.400406,3600.648841,-296.082377
20931.695274,-148.041188,-3217.601092,5255.462188
20931.695597,-6143.709319,-9422.974625,11917.315666
20931.695921,-10288.862594,-12563.966167,17764.942608
20931.696244,-12509.480420,-15781.567259,21391.951724
20931.696567,-14434.015869,-14709.033562,20429.683999
20931.696890,-10658.965565,-11031.775171,17024.736666
20931.697214,-3923.091493,-5592.497135,14582.057057
20931.697537,-962.267725,2451.505594,11843.295072
20931.697860,1850.514855,9422.974625,6809.894666
20931.698183,9474.636058,11874.480219,148.041188
20931.698507,12657.521608,12334.137518,-2072.576638
20931.698830,11251.130318,11874.480219,-1702.473667
20931.699153,9770.718434,8733.488677,-3256.906145
20931.699476,4959.379811,2298.286494,1628.453072
20931.699800,0.000000,-3830.477490,10066.800811
20931.700123,-3627.009116,-9039.926876,13397.727550
20931.700446,-8882.471304,-13253.452115,18283.086767
20931.700770,-13989.892304,-16241.224558,21614.013506
20931.701093,-13027.624579,-14249.376263,20577.725188
20931.701416,-7179.997637,-10955.165621,19319.375086
20931.701739,-4145.153275,-4136.915689,16802.674883
20931.702063,-1480.411884,3140.991542,12139.377449
20931.702386,3552.988522,8810.098227,6439.791695
20931.702709,7624.121203,10648.727422,-370.102971
20931.703032,11177.109724,12717.185267,-3034.844362
20931.703356,12509.480420,11414.822920,-1998.556043
20931.703679,9252.574275,8044.002729,-666.185348
20931.704002,4441.235652,3753.867940,1258.350101
20931.704325,962.267725,-2911.162892,5847.626942
20931.704649,-4811.338623,-8350.440928,11029.068536
20931.704972,-9548.656652,-12257.527968,16802.674883
20931.705295,-10955.047942,-13789.718964,20651.745782
20931.705618,-10362.883188,-12870.404366,20429.683999
20931.705942,-8438.347739,-9039.926876,18653.189738
20931.706265,-3849.070898,-3753.867940,14508.036463
20931.706588,-518.144159,2604.724693,11029.068536
20931.706911,2960.823768,9193.145976,7105.977043
20931.707235,9844.739029,12334.137518,1702.473667
20931.707558,12509.480420,13176.842566,-1110.308913
20931.707881,10807.006753,12180.918418,-2886.803174
20931.708204,9548.656652,9422.974625,-2368.659014
20931.708528,6143.709319,3140.991542,1850.514855
20931.708851,-740.205942,-2451.505594,7476.080014
20931.709174,-4663.297435,-7660.954980,12435.459826
20931.709497,-8142.265362,-12487.356617,17987.004391
20931.709821,-13397.727550,-15015.471761,21910.095883
20931.710144,-12583.501014,-13176.842566,21095.869347
20931.710467,-5921.647536,-10112.460574,18283.086767
20931.710790,-3182.885551,-4903.011187,17172.777854
20931.711114,-1480.411884,2604.724693,13767.830521
20931.711437,3849.070898,8656.879127,8068.244768
20931.711760,7105.977043,10648.727422,2368.659014
20931.712083,7846.182985,11338.213370,-2368.659014
20931.712407,8216.285956,11184.994271,-4441.235652
20931.712730,8512.368333,7431.126331,-3478.967927
20931.713053,3182.885551,2911.162892,2220.617826
20931.713377,-3849.070898,-1072.533697,8142.265362
20931.713700,-7105.977043,-7660.954980,10066.800811
20931.714023,-10362.883188,-12257.527968,15174.221811
20931.714346,-12435.459826,-14862.252661,20207.622217
20931.714670,-12213.398043,-13253.452115,20651.745782
20931.714993,-9844.739029,-10035.851024,17616.901420
20931.715316,-3256.906145,-4443.353888,14878.139434
20931.715639,1628.453072,2681.334243,12657.521608
20931.715963,2442.679609,7584.345430,7179.997637
20931.716286,8142.265362,11108.384721,1332.370696
20931.716609,13545.768739,12257.527968,-888.247130
20931.716932,12879.583391,11338.213370,-1110.308913
20931.717256,8216.285956,9346.365076,370.102971
20931.717579,6809.894666,3830.477490,1924.535449
20931.717902,2220.617826,-1915.238745,5921.647536
20931.718225,-5995.668130,-7354.516781,11103.089130
20931.718549,-8660.409521,-11721.261119,16876.695478
20931.718872,-9770.718434,-13636.499864,21391.951724
20931.719195,-12953.603985,-13559.890315,20725.766376
20931.719518,-11695.253884,-10112.460574,17172.777854
20931.719842,-5181.441594,-6281.983084,14656.077652
20931.720165,-2294.638420,383.047749,12509.480420
20931.720488,1258.350101,6741.640382,8438.347739
20931.720811,7402.059420,10878.556072,2294.638420
20931.721135,10510.924376,12180.918418,-1258.350101
20931.721458,10362.883188,10801.946522,-3182.885551
20931.721781,10807.006753,9039.926876,-1924.535449
20931.722104,7772.162391,4443.353888,3034.844362
20931.722428,370.102971,76.609550,8882.471304
20931.722751,-2590.720797,-5822.325785,12139.377449
20931.723074,-5329.482782,-11568.042020,15692.365970
20931.723397,-10658.965565,-13559.890315,19837.519246
20931.723721,-11547.212695,-12257.527968,20503.704593
20931.724044,-6513.812290,-9346.365076,17394.839637
20931.724367,-2590.720797,-5209.449386,15248.242405
20931.724691,-888.247130,2451.505594,12731.542202
20931.725014,2886.803174,8427.050478,7179.997637
20931.725337,6291.750507,9806.022374,2146.597232
20931.725660,8068.244768,11031.775171,-2368.659014
20931.725984,10881.027347,11491.432470,-3552.988522
20931.726307,9548.656652,8427.050478,-0.000000
20931.726630,2960.823768,4366.744339,3182.885551
20931.726953,-2072.576638,-689.485948,6883.915261
20931.727277,-4293.194464,-7124.688131,10881.027347
20931.727600,-9326.594869,-11568.042020,16062.468941
20931.727923,-12731.542202,-12947.013916,20429.683999
20931.728246,-12065.356855,-13789.718964,19615.457463
20931.728570,-9770.718434,-11031.775171,17246.798449
20931.728893,-5033.400406,-5362.668486,15914.427753
20931.729216,222.061783,1378.971896,13101.645173
20931.729539,3034.844362,7354.516781,8586.388927
20931.729863,7328.038826,10342.289223,2738.761985
20931.730186,12287.418637,11797.870669,-370.102971
20931.730509,12879.583391,11568.042020,-1850.514855
20931.730832,11621.233289,9806.022374,-1036.288319
20931.731156,7105.977043,4903.011187,2590.720797
20931.731479,1480.411884,-1225.752797,6439.791695
20931.731802,-2886.803174,-6588.421283,10214.842000
20931.732125,-6883.915261,-10112.460574,16580.613101
20931.732449,-11917.315666,-12487.356617,20651.745782
20931.732772,-13175.665768,-12793.794817,19615.457463
20931.733095,-8586.388927,-11031.775171,14878.139434
20931.733418,-3775.050304,-5592.497135,14508.036463
20931.733742,-2664.741391,2145.067394,12657.521608
20931.734065,0.000000,7584.345430,5921.647536
20931.734388,6513.812290,9422.974625,1036.288319
20931.734712,9326.594869,10801.946522,-888.247130
20931.735035,9030.512492,11414.822920,-1998.556043
20931.735358,7994.224174,7967.393179,-888.247130
20931.735681,5625.565159,2298.286494,3997.112087
20931.736005,0.000000,-1915.238745,9104.533087
20931.736328,-4293.194464,-7431.126331,12139.377449
20931.736651,-8142.265362,-11797.870669,16432.571912
20931.736974,-11103.089130,-13483.280765,20133.601622
20931.737298,-9622.677246,-13176.842566,19985.560434
20931.737621,-6587.832884,-9346.365076,18283.086767
20931.737944,-2072.576638,-3830.477490,15692.365970
20931.738267,1924.535449,2528.115143,13397.727550
20931.738591,3923.091493,6894.859482,7698.141797
20931.738914,7254.018232,9806.022374,2294.638420
20931.739237,10955.047942,11261.603821,296.082377
20931.739560,10658.965565,10418.898773,-814.226536
20931.739884,6809.894666,7660.954980,-370.102971
20931.740207,3627.009116,2987.772442,1702.473667
20931.740530,0.000000,-2221.676944,6513.812290
20931.740853,-6957.935855,-7354.516781,11473.192101
20931.741177,-11621.233289,-10725.336972,15470.304188
20931.741500,-12435.459826,-13559.890315,19319.375086
20931.741823,-13101.645173,-12334.137518,18505.148550
20931.742146,-10732.986159,-9039.926876,14804.118840
20931.742470,-4959.379811,-3600.648841,13323.706956
20931.742793,-592.164754,1225.752797,10807.006753
20931.743116,2590.720797,7660.954980,7031.956449
20931.743439,7550.100608,10955.165621,3034.844362
20931.743763,9918.759623,11338.213370,222.061783
20931.744086,8808.450710,10112.460574,-1702.473667
20931.744409,9104.533087,7354.516781,-962.267725
20931.744733,5847.626942,2911.162892,4071.132681
20931.745056,-1628.453072,-2068.457845,9844.739029
20931.745379,-5477.523971,-6435.202183,12065.356855
20931.745702,-7476.080014,-10342.289223,16950.716072
20931.746026,-11399.171507,-13023.623466,20429.683999
20931.746349,-11991.336260,-11108.384721,18727.210333
20931.746672,-6365.771101,-8044.002729,15470.304188
20931.746995,-2368.659014,-4290.134789,15248.242405
20931.747319,-1258.350101,3140.991542,11473.192101
20931.747642,3478.967927,8350.440928,5995.668130
20931.747965,8882.471304,9806.022374,1554.432478
20931.748288,9104.533087,11184.994271,-1036.288319
20931.748612,9400.615463,10725.336972,-2442.679609
20931.748935,9548.656652,7124.688131,-148.041188
20931.749258,3478.967927,2834.553343,3849.070898
20931.749581,-740.205942,-919.314598,7031.956449
20931.749905,-2960.823768,-6741.640382,11325.150913
20931.750228,-7254.018232,-10955.165621,15174.221811
20931.750551,-10658.965565,-11338.213370,19911.539840
20931.750874,-9400.615463,-9806.022374,19689.478057
20931.751198,-6143.709319,-8503.660028,15618.345376
20931.751521,-3849.070898,-3983.696590,13175.665768
20931.751844,0.000000,2298.286494,10807.006753
20931.752167,3849.070898,6818.249932,6735.874072
20931.752491,7328.038826,9499.584175,2738.761985
20931.752814,8734.430116,10495.508323,370.102971
20931.753137,8586.388927,9499.584175,-148.041188
20931.753460,6217.729913,5439.278036,148.041188
20931.753784,4367.215058,536.266849,3256.906145
20931.754107,-370.102971,-3830.477490,9474.636058
20931.754430,-5107.421000,-7660.954980,12731.542202
20931.754753,-7994.224174,-10189.070123,17246.798449
20931.755077,-9548.656652,-12027.699319,20725.766376
20931.755400,-9474.636058,-11261.603821,18727.210333
20931.755723,-6809.894666,-8044.002729,14730.098246
20931.756047,-1258.350101,-2834.553343,14211.954086
20931.756370,1184.329507,3524.039291,12435.459826
20931.756693,2590.720797,8044.002729,6069.688724
20931.757016,7105.977043,9269.755526,1406.391290
20931.757340,8734.430116,9806.022374,-888.247130
20931.757663,7254.018232,9116.536426,-3108.864956
20931.757986,6809.894666,6205.373534,-370.102971
20931.758309,4811.338623,1991.848295,4515.256246
20931.758633,-1776.494261,-1302.362347,8734.430116
20931.758956,-5329.482782,-7048.078582,11103.089130
20931.759279,-8290.306550,-10572.117872,14952.160028
20931.759602,-10807.006753,-12257.527968,19245.354492
20931.759926,-10362.883188,-10878.556072,18653.189738
20931.760249,-6883.915261,-8427.050478,15618.345376
20931.760572,-2960.823768,-3140.991542,12805.562797
20931.760895,-148.041188,3370.820191,11103.089130
20931.761219,2516.700203,6588.421283,5625.565159
20931.761542,6809.894666,8963.317327,1628.453072
20931.761865,9918.759623,9499.584175,592.164754
20931.762188,9622.677246,8656.879127,740.205942
20931.762512,7920.203579,6052.154434,2590.720797
20931.762835,5255.462188,1302.362347,4885.359217
20931.763158,1406.391290,-3064.381992,9474.636058
20931.763481,-3330.926739,-7354.516781,13027.624579
20931.763805,-6735.874072,-10035.851024,16728.654289
20931.764128,-7994.224174,-11031.775171,20355.663405
20931.764451,-9400.615463,-10035.851024,18949.272115
20931.764774,-7994.224174,-7354.516781,15914.427753
20931.765098,-4071.132681,-2911.162892,13693.809927
20931.765421,74.020594,1378.971896,9474.636058
20931.765744,2516.700203,6205.373534,5107.421000
20931.766068,5181.441594,9882.631924,1924.535449
20931.766391,7328.038826,10342.289223,-1110.308913
20931.766714,8734.430116,9116.536426,-1110.308913
20931.767037,7698.141797,5132.839837,-592.164754
20931.767361,2590.720797,1072.533697,4367.215058
20931.767684,-2960.823768,-2451.505594,9474.636058
20931.768007,-4885.359217,-7890.783629,11917.315666
20931.768330,-8216.285956,-10801.946522,16802.674883
20931.768654,-11325.150913,-12180.918418,19467.416275
20931.768977,-10881.027347,-10572.117872,17542.880825
20931.769300,-6143.709319,-7124.688131,15396.283594
20931.769623,-518.144159,-1225.752797,13989.892304
20931.769947,814.226536,5209.449386,11547.212695
20931.770270,2886.803174,8427.050478,4811.338623
20931.770593,6365.771101,10035.851024,814.226536
20931.770916,8660.409521,10495.508323,-1110.308913
20931.771240,8882.471304,9806.022374,-666.185348
20931.771563,6957.935855,5362.668486,2146.597232
20931.771886,1554.432478,842.705048,5477.523971
20931.772209,-2146.597232,-3907.087040,9104.533087
20931.772533,-4293.194464,-8350.440928,12953.603985
20931.772856,-9030.512492,-11108.384721,16580.613101
20931.773179,-11769.274478,-11568.042020,19763.498651
20931.773502,-9252.574275,-9882.631924,18949.272115
20931.773826,-4367.215058,-7124.688131,16432.571912
20931.774149,-1628.453072,-995.924147,14063.912898
20931.774472,222.061783,3907.087040,10288.862594
20931.774795,4811.338623,7814.174080,4737.318029
20931.775119,8734.430116,10342.289223,1850.514855
20931.775442,9326.594869,10801.946522,814.226536
20931.775765,8364.327145,9959.241474,-444.123565
20931.776088,5995.668130,4443.353888,-888.247130
20931.776412,2590.720797,-842.705048,3478.967927
20931.776735,-2368.659014,-5056.230287,9474.636058
20931.777058,-6513.812290,-8273.831378,12435.459826
20931.777382,-8068.244768,-10878.556072,16654.633695
20931.777705,-10140.821405,-12257.527968,19023.292709
20931.778028,-10362.883188,-10418.898773,16358.551318
20931.778351,-4811.338623,-7277.907231,14211.954086
20931.778675,740.205942,-1225.752797,13471.748144
20931.778998,2590.720797,5439.278036,11621.233289
20931.779321,4737.318029,9193.145976,5921.647536
20931.779644,9622.677246,10955.165621,1554.432478
20931.779968,10436.903782,10342.289223,-148.041188
20931.780291,8438.347739,8580.269578,-666.185348
20931.780614,7328.038826,4749.792088,1554.432478
20931.780937,2886.803174,-383.047749,7105.977043
20931.781261,-2738.761985,-4979.620737,11621.233289
20931.781584,-7698.141797,-9039.926876,12509.480420
20931.781907,-10214.842000,-12027.699319,15692.365970
20931.782230,-11917.315666,-13713.109414,19763.498651
20931.782554,-11103.089130,-11261.603821,18579.169144
20931.782877,-7031.956449,-6971.469032,15692.365970
20931.783200,-1924.535449,-1302.362347,13027.624579
20931.783523,296.082377,4749.792088,10584.944971
20931.783847,2368.659014,7967.393179,5033.400406
20931.784170,7105.977043,9959.241474,296.082377
20931.784493,9918.759623,9806.022374,-888.247130
20931.784816,8808.450710,9652.803275,-888.247130
20931.785140,6513.812290,6281.983084,222.061783
20931.785463,2960.823768,766.095498,3627.009116
20931.785786,-2146.597232,-3983.696590,8438.347739
20931.786109,-5847.626942,-7814.174080,12731.542202
20931.786433,-7920.203579,-10572.117872,16432.571912
20931.786756,-9770.718434,-11414.822920,18949.272115
20931.787079,-9104.533087,-9193.145976,18061.024985
20931.787403,-5847.626942,-6281.983084,15840.407159
20931.787726,-2368.659014,-1455.581446,12805.562797
20931.788049,1258.350101,4519.963438,9548.656652
20931.788372,6143.709319,8733.488677,5699.585753
20931.788696,7402.059420,11338.213370,2072.576638
20931.789019,7772.162391,10955.165621,-148.041188
20931.789342,9326.594869,9806.022374,-888.247130
20931.789665,7994.224174,4519.963438,444.123565
20931.789989,1776.494261,-383.047749,5255.462188
20931.790312,-3108.864956,-4290.134789,10732.986159
20931.790635,-5625.565159,-8656.879127,13249.686362
20931.790958,-8438.347739,-11797.870669,18061.024985
20931.791282,-9992.780217,-12487.356617,21317.931130
20931.791605,-8290.306550,-10955.165621,18209.066173
20931.791928,-4811.338623,-8120.612279,14804.118840
20931.792251,148.041188,-1685.410096,14063.912898
20931.792575,2442.679609,5439.278036,11769.274478
20931.792898,4811.338623,8810.098227,5995.668130
20931.793221,7254.018232,9959.241474,1258.350101
20931.793544,9474.636058,10725.336972,-2072.576638
20931.793868,9252.574275,8963.317327,-2072.576638
20931.794191,8734.430116,5056.230287,1184.329507
20931.794514,3404.947333,766.095498,6217.729913
20931.794837,-2368.659014,-3830.477490,8882.471304
20931.795161,-5699.585753,-8886.707777,11769.274478
20931.795484,-8216.285956,-11951.089769,16654.633695
20931.795807,-10658.965565,-12257.527968,20355.663405
20931.796130,-11251.130318,-10035.851024,19467.416275
20931.796454,-5699.585753,-7507.735880,15470.304188
20931.796777,-2146.597232,-2145.067394,13619.789333
20931.797100,-2146.597232,3677.258390,9474.636058
20931.797424,740.205942,7814.174080,4145.153275
20931.797747,6587.832884,9499.584175,444.123565
20931.798070,8364.327145,9806.022374,-222.061783
20931.798393,6587.832884,9806.022374,592.164754
20931.798717,4885.359217,5592.497135,592.164754
20931.799040,2294.638420,-536.266849,4219.173869
20931.799363,-3478.967927,-5515.887586,9474.636058
20931.799686,-6513.812290,-8810.098227,12879.583391
20931.800010,-7624.121203,-10725.336972,18283.086767
20931.800333,-9474.636058,-11568.042020,21169.889941
20931.800656,-9992.780217,-9422.974625,18209.066173
20931.800979,-4959.379811,-6358.592633,15618.345376
20931.801303,74.020594,-995.924147,13471.748144
20931.801626,2738.761985,6205.373534,9844.739029
20931.801949,4293.194464,9959.241474,4219.173869
20931.802272,7624.121203,10801.946522,-370.102971
20931.802596,9770.718434,12180.918418,-1850.514855
20931.802919,9030.512492,10418.898773,-1702.473667
20931.803242,6217.729913,5209.449386,888.247130
20931.803565,1406.391290,229.828649,5033.400406
20931.803889,-3404.947333,-4136.915689,10807.006753
20931.804212,-5921.647536,-9039.926876,14211.954086
20931.804535,-9548.656652,-11568.042020,16728.654289
20931.804858,-10658.965565,-12410.747068,18949.272115
20931.805182,-8808.450710,-10955.165621,18061.024985
20931.805505,-5625.565159,-6894.859482,15026.180623
20931.805828,0.000000,-153.219100,12509.480420
20931.806152,2516.700203,6052.154434,9696.697840
20931.806475,3330.926739,8273.831378,4885.359217
20931.806798,6587.832884,10265.679673,444.123565
20931.807122,11473.192101,10342.289223,-370.102971
20931.807445,11399.171507,8733.488677,2146.597232
20931.807768,7105.977043,5132.839837,2886.803174
20931.808092,2442.679609,-459.657299,4737.318029
20931.808415,-814.226536,-5515.887586,10436.903782
20931.808738,-4441.235652,-8427.050478,14508.036463
20931.809062,-7698.141797,-10418.898773,18135.045579
20931.809385,-9622.677246,-11721.261119,19615.457463
20931.809708,-10214.842000,-10725.336972,17320.819043
20931.810032,-5921.647536,-7124.688131,15100.201217
20931.810355,-1628.453072,-1225.752797,12805.562797
20931.810678,-888.247130,4596.572988,9252.574275
20931.811002,2590.720797,8810.098227,3627.009116
20931.811325,8364.327145,10725.336972,-0.000000
20931.811648,9252.574275,10801.946522,-814.226536
20931.811972,7772.162391,9422.974625,-1110.308913
20931.812295,5551.544565,4826.401637,222.061783
20931.812618,1036.288319,-1608.800546,4441.235652
20931.812941,-3034.844362,-6205.373534,9696.697840
20931.813265,-6069.688724,-8810.098227,14434.015869
20931.813588,-9474.636058,-11721.261119,19393.395680
20931.813911,-11695.253884,-12717.185267,20133.601622
20931.814235,-7994.224174,-11031.775171,17468.860231
20931.814558,-2812.782580,-7048.078582,15914.427753
20931.814881,74.020594,383.047749,13989.892304
20931.815205,2590.720797,7201.297681,10584.944971
20931.815528,6143.709319,8886.707777,4663.297435
20931.815851,8660.409521,10572.117872,-0.000000
20931.816175,9178.553681,11031.775171,-666.185348
20931.816498,8216.285956,8733.488677,-296.082377
20931.816821,5847.626942,3907.087040,1554.432478
20931.817145,1554.432478,-1532.190996,6587.832884
20931.817468,-3330.926739,-6435.202183,10881.027347
20931.817791,-7772.162391,-9959.241474,12509.480420
20931.818115,-10288.862594,-11261.603821,16136.489536
20931.818438,-10140.821405,-13176.842566,18875.251521
20931.818761,-8660.409521,-10265.679673,18283.086767
20931.819085,-3775.050304,-5515.887586,15470.304188
20931.819408,0.000000,306.438199,13249.686362
20931.819731,370.102971,5592.497135,8882.471304
20931.820055,4959.379811,8580.269578,2664.741391
20931.820378,9992.780217,9806.022374,-148.041188
20931.820701,9918.759623,10725.336972,444.123565
20931.821024,6883.915261,10112.460574,1332.370696
20931.821348,6143.709319,4826.401637,296.082377
20931.821671,2516.700203,-2145.067394,4663.297435
20931.821994,-4219.173869,-6128.763984,10881.027347
20931.822318,-7402.059420,-8810.098227,13693.809927
20931.822641,-8438.347739,-10878.556072,18209.066173
20931.822964,-9992.780217,-12027.699319,19837.519246
20931.823288,-10214.842000,-9193.145976,17838.963202
20931.823611,-4515.256246,-6588.421283,14878.139434
20931.823934,74.020594,-919.314598,12731.542202
20931.824258,2368.659014,6281.983084,10362.883188
20931.824581,5255.462188,9576.193725,5033.400406
20931.824904,8438.347739,11261.603821,814.226536
20931.825228,9030.512492,10572.117872,-370.102971
20931.825551,7846.182985,9806.022374,-814.226536
20931.825874,4811.338623,4213.525239,740.205942
20931.826198,-1110.308913,-1072.533697,6069.688724
20931.826521,-4885.359217,-4673.182538,11325.150913
20931.826844,-7624.121203,-9039.926876,13397.727550
20931.827168,-11769.274478,-12257.527968,16136.489536
20931.827491,-12953.603985,-12257.527968,17838.963202
20931.827814,-9474.636058,-9882.631924,16950.716072
20931.828138,-5477.523971,-6281.983084,14878.139434
20931.828461,-1924.535449,536.266849,11695.253884
20931.828784,2146.597232,6128.763984,8882.471304
20931.829108,5181.441594,8810.098227,5107.421000
20931.829431,6883.915261,10725.336972,-148.041188
20931.829754,10066.800811,10648.727422,-740.205942
20931.830077,10436.903782,8427.050478,1184.329507
20931.830401,6513.812290,4596.572988,1924.535449
20931.830724,3330.926739,-383.047749,5033.400406
20931.831047,0.000000,-5132.839837,10288.862594
20931.831371,-4219.173869,-8503.660028,13989.892304
20931.831694,-6883.915261,-10112.460574,17912.983796
20931.832017,-7328.038826,-11261.603821,19541.436869
20931.832341,-7920.203579,-10189.070123,17468.860231
20931.832664,-5773.606348,-6818.249932,14656.077652
20931.832987,-962.267725,-2221.676944,12065.356855
20931.833311,666.185348,3524.039291,10066.800811
20931.833634,3404.947333,7660.954980,4441.235652
20931.833957,7105.977043,9806.022374,1110.308913
20931.834281,8068.244768,8733.488677,-666.185348
20931.834604,6291.750507,7507.735880,-444.123565
20931.834927,5329.482782,3524.039291,1998.556043
20931.835251,1332.370696,-1532.190996,7105.977043
20931.835574,-3478.967927,-5975.544884,10658.965565
20931.835897,-5255.462188,-9806.022374,13619.789333
20931.836221,-7920.203579,-12870.404366,17394.839637
20931.836544,-9844.739029,-12640.575717,20651.745782
20931.836867,-8142.265362,-10035.851024,18875.251521
20931.837191,-2886.803174,-6588.421283,15322.262999
20931.837514,296.082377,-919.314598,12953.603985
20931.837837,1702.473667,5592.497135,8734.430116
20931.838161,5773.606348,9346.365076,4663.297435
20931.838484,8660.409521,10418.898773,1332.370696
20931.838807,8586.388927,11568.042020,-962.267725
20931.839130,7994.224174,9269.755526,-1332.370696
20931.839454,7105.977043,4749.792088,888.247130
20931.839777,1702.473667,-459.657299,6439.791695
20931.840100,-3849.070898,-4673.182538,9992.780217
20931.840424,-6883.915261,-9269.755526,11991.336260
20931.840747,-10066.800811,-11414.822920,16284.530724
20931.841070,-11917.315666,-11644.651570,19245.354492
20931.841394,-11917.315666,-9422.974625,18727.210333
20931.841717,-6957.935855,-6281.983084,15396.283594
20931.842040,-2146.597232,-1302.362347,12657.521608
20931.842364,-1110.308913,4673.182538,9252.574275
20931.842687,1924.535449,8503.660028,4441.235652
20931.843010,6957.935855,10725.336972,1110.308913
20931.843334,9178.553681,11414.822920,-0.000000
20931.843657,8734.430116,11108.384721,666.185348
20931.843980,7254.018232,5515.887586,296.082377
20931.844304,4441.235652,0.000000,3923.091493
20931.844627,-740.205942,-3447.429741,10955.047942
20931.844950,-3627.009116,-7277.907231,14656.077652
20931.845274,-5107.421000,-9806.022374,18579.169144
20931.845597,-8216.285956,-11338.213370,20281.642811
20931.845920,-8734.430116,-9959.241474,17616.901420
20931.846244,-5329.482782,-6588.421283,15544.324782
20931.846567,1036.288319,-612.876398,12509.480420
20931.846890,2886.803174,5898.935335,9918.759623
20931.847214,5107.421000,10112.460574,5699.585753
20931.847537,8586.388927,11184.994271,-0.000000
20931.847860,10362.883188,11108.384721,-2146.597232
20931.848183,9400.615463,9039.926876,-2220.617826
20931.848507,5181.441594,4443.353888,-0.000000
20931.848830,-296.082377,-229.828649,5403.503377
20931.849153,-3404.947333,-5669.106685,10510.924376
20931.849477,-6661.853478,-10035.851024,13693.809927
20931.849800,-12139.377449,-13330.061665,17320.819043
20931.850123,-14730.098246,-14096.157163,19837.519246
20931.850447,-10881.027347,-12410.747068,17690.922014
20931.850770,-4589.276840,-7354.516781,16284.530724
20931.851093,-1332.370696,-919.314598,13101.645173
20931.851417,74.020594,4826.401637,9474.636058
20931.851740,4737.318029,7814.174080,3997.112087
20931.852063,9400.615463,9576.193725,-222.061783
20931.852387,11325.150913,10112.460574,-148.041188
20931.852710,10214.842000,9193.145976,1998.556043
20931.853033,6365.771101,4213.525239,3701.029710
20931.853357,2294.638420,-1378.971896,5995.668130
20931.853680,-296.082377,-6435.202183,11399.171507
20931.854003,-5477.523971,-9959.241474,15100.201217
20931.854327,-9992.780217,-11721.261119,18061.024985
20931.854650,-10436.903782,-12334.137518,19837.519246
20931.854973,-8142.265362,-10342.289223,18875.251521
20931.855297,-5921.647536,-5898.935335,14582.057057
20931.855620,-2516.700203,-229.828649,10066.800811
20931.855943,222.061783,4443.353888,6735.874072
20931.856267,3404.947333,8886.707777,2442.679609
20931.856590,6439.791695,11031.775171,444.123565
20931.856913,6735.874072,10725.336972,-370.102971
20931.857236,4441.235652,8273.831378,-1110.308913
20931.857560,2812.782580,2451.505594,-296.082377
20931.857883,74.020594,-2757.943793,6217.729913
20931.858206,-4737.318029,-6511.811733,11029.068536
20931.858530,-7994.224174,-8120.612279,14508.036463
20931.858853,-8882.471304,-11338.213370,19023.292709
20931.859176,-10140.821405,-12027.699319,19393.395680
20931.859500,-8882.471304,-9269.755526,17172.777854
20931.859823,-1702.473667,-5132.839837,15248.242405
20931.860146,2442.679609,1302.362347,14137.933492
20931.860470,2886.803174,8197.221829,9992.780217
20931.860793,7402.059420,10725.336972,4663.297435
20931.861116,10955.047942,11951.089769,296.082377
20931.861440,9474.636058,10725.336972,-1332.370696
20931.861763,8216.285956,8963.317327,-888.247130
20931.862086,7698.141797,4213.525239,2072.576638
20931.862410,2516.700203,0.000000,7550.100608
20931.862733,-2516.700203,-4443.353888,11029.068536
20931.863056,-6143.709319,-8886.707777,11917.315666
20931.863380,-9178.553681,-11644.651570,15692.365970
20931.863703,-10436.903782,-11184.994271,19097.313304
20931.864026,-7994.224174,-7737.564530,19541.436869
20931.864350,-3108.864956,-4290.134789,14730.098246
20931.864673,-1036.288319,229.828649,11029.068536
20931.864996,-148.041188,5056.230287,8438.347739
20931.865320,3997.112087,9499.584175,3034.844362
20931.865643,8512.368333,10189.070123,444.123565
20931.865966,9030.512492,10112.460574,-0.000000
20931.866289,6513.812290,8273.831378,296.082377
20931.866613,3256.906145,3447.429741,1036.288319
20931.866936,592.164754,-2451.505594,5033.400406
20931.867259,-3330.926739,-6205.373534,11399.171507
20931.867583,-6957.935855,-9806.022374,14730.098246
20931.867906,-9104.533087,-12027.699319,18431.127956
20931.868229,-9326.594869,-12257.527968,20799.786970
20931.868553,-8808.450710,-9806.022374,19023.292709
20931.868876,-5181.441594,-6435.202183,15840.407159
20931.869199,518.144159,-842.705048,12065.356855
20931.869523,4737.318029,6281.983084,9622.677246
20931.869846,6217.729913,9806.022374,5033.400406
20931.870169,8216.285956,10801.946522,-0.000000
20931.870493,10140.821405,10112.460574,-2072.576638
20931.870816,8660.409521,6894.859482,-2220.617826
20931.871139,4515.256246,2451.505594,444.123565
20931.871463,0.000000,-2068.457845,6439.791695
20931.871786,-3701.029710,-6281.983084,10807.006753
20931.872109,-7476.080014,-10801.946522,13693.809927
20931.872433,-10066.800811,-12947.013916,17690.922014
20931.872756,-11621.233289,-14325.985813,18653.189738
20931.873079,-10214.842000,-10495.508323,18505.148550
20931.873403,-4293.194464,-5669.106685,16062.468941
20931.873726,148.041188,612.876398,13175.665768
20931.874049,1184.329507,5515.887586,8734.430116
20931.874373,4145.153275,8733.488677,2886.803174
20931.874696,8216.285956,9806.022374,-592.164754
20931.875019,9178.553681,9729.412825,-1184.329507
20931.875342,8882.471304,7967.393179,592.164754
20931.875666,6587.832884,3830.477490,3478.967927
20931.875989,1258.350101,-1608.800546,6365.771101
20931.876312,-2072.576638,-6205.373534,10658.965565
20931.876636,-4885.359217,-9576.193725,15100.201217
20931.876959,-7698.141797,-11031.775171,19541.436869
20931.877282,-8956.491898,-11874.480219,20947.828159
20931.877606,-6587.832884,-8656.879127,18283.086767
20931.877929,-2664.741391,-4903.011187,15470.304188
20931.878252,-1332.370696,1455.581446,12657.521608
20931.878576,1924.535449,6894.859482,8290.306550
20931.878899,7550.100608,10342.289223,3108.864956
20931.879222,9474.636058,12257.527968,-1184.329507
20931.879546,8068.244768,12257.527968,-1776.494261
20931.879869,7328.038826,10495.508323,-1332.370696
20931.880192,5033.400406,4213.525239,-148.041188
20931.880516,148.041188,-1149.143247,5847.626942
20931.880839,-5181.441594,-6052.154434,10510.924376
20931.881162,-8734.430116,-9269.755526,14211.954086
20931.881486,-11843.295072,-12257.527968,18949.272115
20931.881809,-13619.789333,-12487.356617,19837.519246
20931.882132,-12879.583391,-10495.508323,17468.860231
20931.882456,-7179.997637,-6665.030833,14804.118840
20931.882779,-1036.288319,459.657299,13693.809927
20931.883102,666.185348,7660.954980,10584.944971
20931.883426,3108.864956,11031.775171,4441.235652
20931.883749,9326.594869,12334.137518,-888.247130
20931.884072,11399.171507,12257.527968,-2738.761985
20931.884395,11399.171507,9806.022374,-1554.432478
20931.884719,7920.203579,5592.497135,2072.576638
20931.885042,3701.029710,459.657299,7476.080014
20931.885365,-1332.370696,-4443.353888,12657.521608
20931.885689,-4367.215058,-9729.412825,14582.057057
20931.886012,-8142.265362,-12640.575717,17320.819043
20931.886335,-9844.739029,-14019.547613,19467.416275
20931.886659,-8882.471304,-10112.460574,20577.725188
20931.886982,-3701.029710,-6435.202183,16654.633695
20931.887305,518.144159,0.000000,12583.501014
20931.887629,0.000000,5898.935335,9474.636058
20931.887952,2516.700203,9422.974625,1998.556043
20931.888275,8956.491898,10801.946522,-2220.617826
20931.888599,11399.171507,9959.241474,-1924.535449
20931.888922,8068.244768,8886.707777,-296.082377
20931.889245,2590.720797,4290.134789,296.082377
20931.889569,74.020594,-3140.991542,2442.679609
20931.889892,-4071.132681,-7660.954980,9770.718434
20931.890215,-8586.388927,-11414.822920,15840.407159
20931.890539,-10732.986159,-13942.938064,19689.478057
20931.890862,-11177.109724,-15015.471761,21095.869347
20931.891185,-9844.739029,-12563.966167,18431.127956
20931.891509,-4737.318029,-7584.345430,16358.551318
20931.891832,222.061783,-1225.752797,13693.809927
20931.892155,3627.009116,5592.497135,10807.006753
20931.892479,7920.203579,10112.460574,4959.379811
20931.892802,11473.192101,12104.308868,-0.000000
20931.893125,13175.665768,12180.918418,-1110.308913
20931.893448,11769.274478,9576.193725,-1480.411884
20931.893772,7476.080014,4366.744339,370.102971
20931.894095,1776.494261,-842.705048,6587.832884
20931.894418,-3182.885551,-6281.983084,11621.233289
20931.894742,-8586.388927,-10878.556072,13989.892304
20931.895065,-11843.295072,-14709.033562,18431.127956
20931.895388,-13249.686362,-14938.862211,21836.075289
20931.895712,-11103.089130,-11568.042020,19911.539840
20931.896035,-5625.565159,-5975.544884,15470.304188
20931.896358,-962.267725,383.047749,12287.418637
20931.896682,0.000000,6281.983084,7846.182985
20931.897005,2812.782580,10648.727422,1702.473667
20931.897328,8068.244768,12180.918418,-2146.597232
20931.897652,10066.800811,11874.480219,-2886.803174
20931.897975,7994.224174,9806.022374,-2590.720797
20931.898298,5995.668130,4749.792088,518.144159
20931.898622,592.164754,-995.924147,4959.379811
20931.898945,-4145.153275,-5898.935335,9474.636058
20931.899268,-5551.544565,-9806.022374,15248.242405
20931.899592,-7105.977043,-12410.747068,19467.416275
20931.899915,-9844.739029,-12027.699319,21169.889941
20931.900238,-7402.059420,-8350.440928,20651.745782
20931.900562,-1480.411884,-4443.353888,16876.695478
20931.900885,1850.514855,536.266849,13915.871710
20931.901208,2738.761985,6741.640382,9696.697840
20931.901532,7254.018232,11108.384721,4293.194464
20931.901855,11695.253884,13023.623466,-0.000000
20931.902178,11843.295072,12257.527968,-1998.556043
20931.902501,8364.327145,10035.851024,-814.226536
20931.902825,5699.585753,4826.401637,222.061783
20931.903148,1110.308913,-995.924147,4737.318029
20931.903471,-2738.761985,-6818.249932,10362.883188
20931.903795,-7550.100608,-9882.631924,14508.036463
20931.904118,-10732.986159,-12410.747068,19245.354492
20931.904441,-11621.233289,-12870.404366,20429.683999
20931.904765,-10288.862594,-10725.336972,17320.819043
20931.905088,-6365.771101,-6818.249932,14508.036463
20931.905410,-1776.494261,459.657299,13323.706956
20931.905733,814.226536,7201.297681,9474.636058
20931.906057,4737.318029,10648.727422,4145.153275
20931.906380,8512.368333,11031.775171,-1406.391290
20931.906703,8586.388927,11108.384721,-4663.297435
20931.907027,7698.141797,8580.269578,-3256.906145
20931.907350,5403.503377,4136.915689,888.247130
20931.907674,1332.370696,-1455.581446,7179.997637
20931.907997,-3256.906145,-6435.202183,12287.418637
20931.908320,-6957.935855,-11184.994271,14434.015869
20931.908644,-10288.862594,-14019.547613,18727.210333
20931.908967,-10807.006753,-14402.595362,21465.972318
20931.909291,-9030.512492,-11338.213370,21317.931130
20931.909614,-5181.441594,-6818.249932,18135.045579
20931.909937,-296.082377,76.609550,13619.789333
20931.910261,1110.308913,5822.325785,10732.986159
20931.910584,2368.659014,8580.269578,3404.947333
20931.910908,8660.409521,10725.336972,-1702.473667
20931.911231,10288.862594,11261.603821,-888.247130
20931.911554,8364.327145,9346.365076,-962.267725
20931.911878,3701.029710,5439.278036,296.082377
20931.912201,148.041188,-1838.629195,2960.823768
20931.912525,-5033.400406,-6741.640382,8734.430116
20931.912848,-8068.244768,-10955.165621,13841.851115
20931.913171,-9030.512492,-13713.109414,18283.086767
20931.913495,-11325.150913,-13636.499864,20651.745782
20931.913818,-11399.171507,-10801.946522,18801.230927
20931.914142,-6217.729913,-7584.345430,14878.139434
20931.914465,-814.226536,-1378.971896,11991.336260
20931.914788,2220.617826,6358.592633,9474.636058
20931.915112,7624.121203,11031.775171,4219.173869
20931.915435,11325.150913,13100.233016,-296.082377
20931.915759,12731.542202,13483.280765,-3108.864956
20931.916082,12065.356855,11568.042020,-1924.535449
20931.916405,9474.636058,6052.154434,740.205942
20931.916729,3256.906145,0.000000,7105.977043
20931.917052,-1702.473667,-4979.620737,11399.171507
20931.917376,-5403.503377,-10189.070123,15470.304188
20931.917699,-10140.821405,-13789.718964,20281.642811
20931.918022,-11843.295072,-14862.252661,21317.931130
20931.918346,-10214.842000,-12257.527968,20429.683999
20931.918669,-5847.626942,-8044.002729,16950.716072
20931.918992,-1036.288319,0.000000,14434.015869
20931.919316,1628.453072,6435.202183,10066.800811
20931.919639,3256.906145,11338.213370,3404.947333
20931.919963,7254.018232,12027.699319,-1332.370696
20931.920286,9770.718434,11414.822920,-4959.379811
20931.920609,9548.656652,9576.193725,-4145.153275
20931.920933,6661.853478,6205.373534,666.185348
20931.921256,814.226536,689.485948,6735.874072
20931.921580,-4293.194464,-5362.668486,9844.739029
20931.921903,-6957.935855,-10801.946522,13101.645173
20931.922226,-9474.636058,-13636.499864,18653.189738
20931.922550,-12361.439231,-14249.376263,21688.034101
20931.922873,-11473.192101,-10495.508323,20429.683999
20931.923197,-4737.318029,-7124.688131,16580.613101
20931.923520,-666.185348,-1149.143247,13693.809927
20931.923843,-370.102971,6281.983084,9400.615463
20931.924167,2516.700203,10648.727422,3478.967927
20931.924490,8512.368333,12180.918418,-0.000000
20931.924814,11917.315666,11951.089769,-2220.617826
20931.925137,7920.203579,11261.603821,-888.247130
20931.925460,3997.112087,5975.544884,-0.000000
20931.925784,1332.370696,-919.314598,3627.009116
20931.926107,-1776.494261,-6358.592633,9252.574275
20931.926431,-6661.853478,-9652.803275,14434.015869
20931.926754,-9548.656652,-11414.822920,20947.828159
20931.927077,-10214.842000,-12257.527968,22428.240043
20931.927401,-8808.450710,-11108.384721,18431.127956
20931.927724,-3849.070898,-7507.735880,15322.262999
20931.928048,888.247130,0.000000,14211.954086
20931.928371,3478.967927,7660.954980,11473.192101
20931.928694,7031.956449,11797.870669,3849.070898
20931.929018,11547.212695,12717.185267,-1702.473667
20931.929341,11325.150913,11108.384721,-3923.091493
20931.929665,8364.327145,9806.022374,-3256.906145
20931.929988,4959.379811,5209.449386,370.102971
20931.930311,1332.370696,-689.485948,6513.812290
20931.930635,-3182.885551,-6511.811733,10436.903782
20931.930958,-7402.059420,-11184.994271,13397.727550
20931.931282,-13027.624579,-15321.909960,17246.798449
20931.931605,-13767.830521,-15628.348159,19171.333898
20931.931928,-7698.141797,-12410.747068,19837.519246
20931.932252,-2960.823768,-6894.859482,18357.107362
20931.932575,-74.020594,612.876398,13841.851115
20931.932899,3404.947333,6358.592633,9622.677246
20931.933222,6365.771101,9806.022374,3775.050304
20931.933545,9252.574275,10878.556072,-962.267725
20931.933869,12213.398043,11031.775171,-888.247130
20931.934192,11103.089130,8886.707777,-296.082377
20931.934516,6439.791695,4903.011187,1554.432478
20931.934839,1702.473667,-1532.190996,5477.523971
20931.935162,-2886.803174,-7277.907231,10584.944971
20931.935486,-7698.141797,-10572.117872,15692.365970
20931.935809,-9918.759623,-14096.157163,18875.251521
20931.936133,-10658.965565,-13789.718964,20799.786970
20931.936456,-10658.965565,-11721.261119,19911.539840
20931.936779,-7994.224174,-7354.516781,16580.613101
20931.937103,-3478.967927,-1378.971896,13249.686362
20931.937426,-518.144159,4903.011187,8808.450710
20931.937750,3775.050304,9652.803275,3552.988522
20931.938073,7105.977043,11951.089769,-0.000000
20931.938396,7624.121203,11874.480219,-1258.350101
20931.938720,6735.874072,9269.755526,-3182.885551
20931.939043,4441.235652,4366.744339,-518.144159
20931.939367,-666.185348,-995.924147,5403.503377
20931.939690,-4515.256246,-5439.278036,9326.594869
20931.940013,-7031.956449,-8963.317327,13545.768739
20931.940337,-9770.718434,-12410.747068,18505.148550
20931.940660,-11547.212695,-12257.527968,19615.457463
20931.940984,-7105.977043,-9806.022374,18357.107362
20931.941307,-2442.679609,-5669.106685,16728.654289
20931.941630,370.102971,1915.238745,13323.706956
20931.941954,3330.926739,7814.174080,8956.491898
20931.942277,7920.203579,10648.727422,3701.029710
20931.942601,8956.491898,13483.280765,592.164754
20931.942924,7994.224174,11797.870669,-2368.659014
20931.943247,8142.265362,10112.460574,-2812.782580
20931.943571,7031.956449,4903.011187,1258.350101
20931.943894,814.226536,-153.219100,6883.915261
20931.944218,-4441.235652,-4903.011187,10584.944971
20931.944541,-7550.100608,-9959.241474,13249.686362
20931.944864,-9770.718434,-12717.185267,17098.757260
20931.945188,-10140.821405,-13330.061665,19985.560434
20931.945511,-8290.306550,-9806.022374,19689.478057
20931.945835,-4441.235652,-5898.935335,16136.489536
20931.946158,-148.041188,-229.828649,13915.871710
20931.946481,2738.761985,5362.668486,9770.718434
20931.946805,5773.606348,9806.022374,4737.318029
20931.947128,9178.553681,11184.994271,1184.329507
20931.947452,10436.903782,9882.631924,-1110.308913
20931.947775,7105.977043,9269.755526,-1702.473667
20931.948098,5551.544565,4443.353888,-296.082377
20931.948422,3404.947333,-229.828649,6439.791695
20931.948745,-1406.391290,-5439.278036,10362.883188
20931.949069,-5847.626942,-9116.536426,12953.603985
20931.949392,-7179.997637,-12104.308868,18579.169144
20931.949715,-8956.491898,-12410.747068,19689.478057
20931.950039,-9030.512492,-10112.460574,18727.210333
20931.950362,-4737.318029,-7967.393179,15248.242405
20931.950686,0.000000,-1685.410096,12805.562797
20931.951009,2368.659014,4979.620737,10214.842000
20931.951332,4145.153275,9039.926876,4737.318029
20931.951656,6883.915261,9806.022374,962.267725
20931.951979,7328.038826,9269.755526,-1036.288319
20931.952303,6069.688724,7048.078582,-1702.473667
20931.952626,5181.441594,2834.553343,1184.329507
20931.952949,-444.123565,-1455.581446,6809.894666
20931.953273,-4367.215058,-5898.935335,11621.233289
20931.953596,-6957.935855,-10342.289223,14137.933492
20931.953920,-10214.842000,-13559.890315,17098.757260
20931.954243,-11177.109724,-12947.013916,19393.395680
20931.954566,-7476.080014,-10725.336972,18949.272115
20931.954890,-3552.988522,-6128.763984,17246.798449
20931.955213,-1332.370696,612.876398,12361.439231
20931.955537,2812.782580,6665.030833,8734.430116
20931.955860,6439.791695,9346.365076,3701.029710
20931.956183,6809.894666,11184.994271,-0.000000
20931.956507,8660.409521,11568.042020,-1628.453072
20931.956830,9992.780217,8963.317327,-518.144159
20931.957153,6365.771101,4749.792088,1480.411884
20931.957477,370.102971,0.000000,6291.750507
20931.957800,-2590.720797,-5056.230287,8882.471304
20931.958124,-5773.606348,-8733.488677,12657.521608
20931.958447,-9548.656652,-11261.603821,18283.086767
20931.958770,-10584.944971,-11108.384721,18949.272115
20931.959094,-8586.388927,-9652.803275,16654.633695
20931.959417,-4737.318029,-5745.716235,14285.974681
20931.959741,-1850.514855,995.924147,13767.830521
20931.960064,1628.453072,6741.640382,8882.471304
20931.960387,5773.606348,10265.679673,2886.803174
20931.960711,9030.512492,11184.994271,1332.370696
20931.961034,8882.471304,11644.651570,370.102971
20931.961358,8808.450710,9806.022374,-1554.432478
20931.961681,7105.977043,4443.353888,1924.535449
20931.962004,2220.617826,-689.485948,7031.956449
20931.962328,-1998.556043,-5209.449386,10510.924376
20931.962651,-4663.297435,-9039.926876,14137.933492
20931.962975,-8586.388927,-11797.870669,19763.498651
20931.963298,-11547.212695,-11721.261119,21021.848753
20931.963621,-8216.285956,-10265.679673,17320.819043
20931.963945,-2146.597232,-6511.811733,14730.098246
20931.964268,444.123565,766.095498,12213.398043
20931.964592,962.267725,7814.174080,9104.533087
20931.964915,4663.297435,10572.117872,4737.318029
20931.965238,7920.203579,10878.556072,222.061783
20931.965562,6957.935855,9959.241474,-1332.370696
20931.965885,6143.709319,7431.126331,-592.164754
20931.966209,4811.338623,2834.553343,1184.329507
20931.966532,814.226536,-1532.190996,6957.935855
20931.966855,-3849.070898,-6205.373534,10881.027347
20931.967179,-7031.956449,-9193.145976,13323.706956
20931.967502,-9844.739029,-11338.213370,17098.757260
20931.967826,-10658.965565,-12104.308868,18653.189738
20931.968149,-8068.244768,-9269.755526,17838.963202
20931.968472,-2146.597232,-5439.278036,14952.160028
20931.968796,0.000000,459.657299,12805.562797
20931.969119,666.185348,6741.640382,8956.491898
20931.969443,4219.173869,9422.974625,3997.112087
20931.969766,7698.141797,9499.584175,2072.576638
20931.970089,7624.121203,8656.879127,1036.288319
20931.970413,4885.359217,7048.078582,370.102971
20931.970736,2812.782580,2145.067394,1628.453072
20931.971060,222.061783,-2145.067394,6365.771101
20931.971383,-4663.297435,-6128.763984,9992.780217
20931.971706,-9104.533087,-9959.241474,12805.562797
20931.972030,-9548.656652,-12334.137518,17542.880825
20931.972353,-9844.739029,-12410.747068,19097.313304
20931.972677,-9252.574275,-9959.241474,16876.695478
20931.973000,-4219.173869,-6588.421283,14656.077652
20931.973323,1332.370696,383.047749,12509.480420
20931.973647,4737.318029,5592.497135,9844.739029
20931.973970,6587.832884,9422.974625,5033.400406
20931.974294,9844.739029,10878.556072,1628.453072
20931.974617,10066.800811,10342.289223,592.164754
20931.974940,8068.244768,7814.174080,-740.205942
20931.975264,6069.688724,3753.867940,592.164754
20931.975587,1702.473667,-1915.238745,6291.750507
20931.975911,-3701.029710,-6128.763984,10955.047942
20931.976234,-6809.894666,-9116.536426,13471.748144
20931.976557,-9844.739029,-11874.480219,17394.839637
20931.976881,-10807.006753,-12257.527968,18209.066173
20931.977204,-7031.956449,-9346.365076,17616.901420
20931.977528,-2146.597232,-4826.401637,15840.407159
20931.977851,-222.061783,536.266849,11843.295072
20931.978174,2072.576638,6588.421283,8512.368333
20931.978498,6809.894666,8656.879127,4071.132681
20931.978821,8142.265362,10265.679673,1702.473667
20931.979145,8290.306550,9959.241474,888.247130
20931.979468,7994.224174,7584.345430,1406.391290
20931.979791,5255.462188,2681.334243,2812.782580
20931.980115,-1332.370696,-1072.533697,7698.141797
20931.980438,-2960.823768,-5822.325785,10881.027347
20931.980762,-6883.915261,-8580.269578,13175.665768
20931.981085,-10066.800811,-11031.775171,16802.674883
20931.981408,-10214.842000,-10342.289223,18727.210333
20931.981732,-7105.977043,-8120.612279,16654.633695
20931.982055,-4515.256246,-4596.572988,13841.851115
20931.982379,-2072.576638,1225.752797,11843.295072
20931.982702,1480.411884,6128.763984,8142.265362
20931.983025,5551.544565,8656.879127,3182.885551
20931.983349,6883.915261,10648.727422,888.247130
20931.983672,6735.874072,10572.117872,666.185348
20931.983996,6217.729913,8197.221829,-740.205942
20931.984319,4737.318029,3294.210641,518.144159
20931.984642,1702.473667,-1302.362347,6661.853478
20931.984966,-2368.659014,-4903.011187,10881.027347
20931.985289,-5625.565159,-7584.345430,14137.933492
20931.985613,-7105.977043,-10342.289223,19023.292709
20931.985936,-7994.224174,-10342.289223,19023.292709
20931.986259,-6513.812290,-8886.707777,16580.613101
20931.986583,-1776.494261,-5515.887586,14656.077652
20931.986906,1554.432478,766.095498,12731.542202
20931.987230,2220.617826,6281.983084,9622.677246
20931.987553,4737.318029,8503.660028,3923.091493
20931.987876,7328.038826,9039.926876,592.164754
20931.988200,7179.997637,8044.002729,-370.102971
20931.988523,5699.585753,6665.030833,-370.102971
20931.988847,5403.503377,2451.505594,3108.864956
20931.989170,962.267725,-1915.238745,8068.244768
20931.989493,-4441.235652,-5975.544884,10510.924376
20931.989817,-6143.709319,-9652.803275,12213.398043
20931.990140,-8068.244768,-11874.480219,16728.654289
20931.990464,-9622.677246,-11184.994271,19171.333898
20931.990787,-7179.997637,-8120.612279,18209.066173
20931.991110,-1850.514855,-5362.668486,14211.954086
20931.991434,666.185348,-689.485948,11769.274478
20931.991757,1628.453072,5515.887586,8660.409521
20931.992081,5847.626942,8656.879127,3923.091493
20931.992404,8734.430116,9499.584175,1924.535449
20931.992727,8512.368333,9116.536426,-74.020594
20931.993051,7254.018232,7890.783629,740.205942
20931.993374,4663.297435,2834.553343,1776.494261
20931.993697,592.164754,-2068.457845,6957.935855
20931.994021,-3997.112087,-6052.154434,11177.109724
20931.994344,-7476.080014,-9499.584175,13323.706956
20931.994668,-10214.842000,-11414.822920,18579.169144
20931.994991,-11029.068536,-12257.527968,19097.313304
20931.995314,-10362.883188,-10265.679673,16432.571912
20931.995638,-6365.771101,-7124.688131,14211.954086
20931.995961,-1110.308913,-229.828649,12213.398043
20931.996285,2590.720797,5975.544884,9400.615463
20931.996608,4589.276840,9499.584175,4219.173869
20931.996931,7105.977043,10801.946522,444.123565
20931.997255,9178.553681,10418.898773,-444.123565
20931.997578,8438.347739,7354.516781,-222.061783
20931.997902,5477.523971,3907.087040,2146.597232
20931.998225,222.061783,-536.266849,7402.059420
20931.998548,-3775.050304,-4979.620737,11029.068536
20931.998872,-6661.853478,-9346.365076,14211.954086
20931.999195,-10436.903782,-11568.042020,17838.963202
20931.999519,-12287.418637,-11951.089769,18135.045579
20931.999842,-8808.450710,-9269.755526,16506.592507
20932.000165,-2220.617826,-5056.230287,14656.077652
20932.000489,296.082377,1455.581446,11473.192101
20932.000812,592.164754,6894.859482,8068.244768
20932.001136,5107.421000,9116.536426,2442.679609
20932.001459,9178.553681,10189.070123,-444.123565
20932.001782,10658.965565,10572.117872,-296.082377
20932.002106,10362.883188,9193.145976,814.226536
20932.002429,6069.688724,4213.525239,2738.761985
20932.002753,592.164754,-1378.971896,7105.977043
20932.003076,-1480.411884,-5822.325785,11769.274478
20932.003399,-4663.297435,-9422.974625,14804.118840
20932.003723,-9030.512492,-11108.384721,18801.230927
20932.004046,-10955.047942,-12180.918418,20133.601622
20932.004370,-7179.997637,-9729.412825,18135.045579
20932.004693,-3108.864956,-5898.935335,14656.077652
20932.005016,-2368.659014,306.438199,12287.418637
20932.005340,-148.041188,5822.325785,8068.244768
20932.005663,4811.338623,8656.879127,3256.906145
20932.005986,8142.265362,10801.946522,740.205942
20932.006310,6735.874072,10878.556072,148.041188
20932.006633,4219.173869,8427.050478,-1628.453072
20932.006956,3404.947333,2681.334243,-518.144159
20932.007280,1036.288319,-2145.067394,6291.750507
20932.007603,-3108.864956,-5515.887586,10955.047942
20932.007926,-7772.162391,-8120.612279,14804.118840
20932.008249,-9770.718434,-11031.775171,19171.333898
20932.008573,-9992.780217,-11338.213370,18727.210333
20932.008896,-6587.832884,-7814.174080,16802.674883
20932.009219,-444.123565,-4443.353888,14211.954086
20932.009543,2294.638420,2834.553343,12583.501014
20932.009866,3478.967927,8503.660028,9252.574275
20932.010189,6957.935855,10955.165621,2738.761985
20932.010513,9622.677246,11184.994271,-370.102971
20932.010836,7994.224174,10648.727422,-1850.514855
20932.011159,5107.421000,7124.688131,-1110.308913
20932.011482,3404.947333,2221.676944,2960.823768
20932.011806,-1110.308913,-2834.553343,7624.121203
20932.012129,-6957.935855,-7277.907231,10955.047942
20932.012452,-9474.636058,-11108.384721,13841.851115
20932.012776,-10881.027347,-13253.452115,17246.798449
20932.013099,-10510.924376,-12640.575717,19245.354492
20932.013422,-7402.059420,-8350.440928,19171.333898
20932.013745,-2220.617826,-4290.134789,15026.180623
20932.014069,962.267725,995.924147,11547.212695
20932.014392,2368.659014,5745.716235,7476.080014
20932.014715,7105.977043,9193.145976,2960.823768
20932.015039,10881.027347,9806.022374,2146.597232
20932.015362,9474.636058,9729.412825,1776.494261
20932.015685,7328.038826,7354.516781,370.102971
20932.016008,5477.523971,2834.553343,1924.535449
20932.016332,2664.741391,-2757.943793,5699.585753
20932.016655,-2664.741391,-6358.592633,10955.047942
20932.016978,-5477.523971,-9269.755526,14211.954086
20932.017302,-7105.977043,-10265.679673,18431.127956
20932.017625,-8068.244768,-10112.460574,19541.436869
20932.017948,-6735.874072,-8503.660028,15544.324782
20932.018272,-3552.988522,-5362.668486,12805.562797
20932.018595,-444.123565,-536.266849,10732.986159
20932.018918,3182.885551,6588.421283,7698.141797
20932.019241,5921.647536,9806.022374,3849.070898
20932.019565,6439.791695,10342.289223,592.164754
20932.019888,6291.750507,8580.269578,-1036.288319
20932.020211,5625.565159,4826.401637,-2442.679609
20932.020535,3108.864956,995.924147,1332.370696
20932.020858,-592.164754,-2145.067394,9030.512492
20932.021181,-4293.194464,-5132.839837,13249.686362
20932.021504,-7402.059420,-9806.022374,15470.304188
20932.021828,-9178.553681,-12257.527968,19245.354492
20932.022151,-9474.636058,-11491.432470,20207.622217
20932.022474,-7328.038826,-8120.612279,17912.983796
20932.022798,-3182.885551,-3830.477490,15248.242405
20932.023121,518.144159,1685.410096,12139.377449
20932.023444,1036.288319,6894.859482,9178.553681
20932.023768,2590.720797,10112.460574,3256.906145
20932.024091,5255.462188,10265.679673,-0.000000
20932.024414,5773.606348,9729.412825,-518.144159
20932.024737,4811.338623,7277.907231,-444.123565
20932.025061,2294.638420,2911.162892,2960.823768
20932.025384,-2146.597232,-2451.505594,6735.874072
20932.025707,-4811.338623,-5745.716235,9474.636058
20932.026031,-6735.874072,-8350.440928,12953.603985
20932.026354,-7772.162391,-10035.851024,16580.613101
20932.026677,-7846.182985,-8810.098227,17838.963202
20932.027000,-4441.235652,-6128.763984,15840.407159
20932.027324,-74.020594,-2757.943793,13841.851115
20932.027647,1184.329507,2451.505594,11547.212695
20932.027970,3182.885551,7354.516781,7105.977043
20932.028294,7328.038826,10035.851024,2442.679609
20932.028617,9548.656652,9652.803275,1406.391290
20932.028940,7698.141797,10189.070123,1406.391290
20932.029263,4737.318029,7737.564530,888.247130
20932.029587,4145.153275,1838.629195,1554.432478
20932.029910,-74.020594,-3064.381992,7179.997637
20932.030233,-4811.338623,-6894.859482,11325.150913
20932.030557,-7328.038826,-9882.631924,14656.077652
20932.030880,-9030.512492,-11874.480219,19245.354492
20932.031203,-9474.636058,-12104.308868,18949.272115
20932.031527,-7920.203579,-9422.974625,17024.736666
20932.031850,-1480.411884,-5669.106685,14656.077652
20932.032173,2590.720797,536.266849,13175.665768
20932.032496,3997.112087,6665.030833,9844.739029
20932.032820,6809.894666,8656.879127,4293.194464
20932.033143,10140.821405,10035.851024,666.185348
20932.033466,9844.739029,8810.098227,518.144159
20932.033790,8438.347739,6818.249932,370.102971
20932.034113,6365.771101,1838.629195,3182.885551
20932.034436,1036.288319,-2834.553343,8512.368333
20932.034759,-5033.400406,-6511.811733,11769.274478
20932.035083,-7846.182985,-10418.898773,13027.624579
20932.035406,-9548.656652,-13406.671215,16432.571912
20932.035729,-11399.171507,-12640.575717,16876.695478
20932.036053,-9104.533087,-9346.365076,16210.510130
20932.036376,-4219.173869,-5209.449386,12953.603985
20932.036699,-1480.411884,612.876398,10955.047942
20932.037022,148.041188,6205.373534,8142.265362
20932.037346,3997.112087,8733.488677,1998.556043
20932.037669,7846.182985,9346.365076,-0.000000
20932.037992,9474.636058,9039.926876,962.267725
20932.038316,7328.038826,7737.564530,1480.411884
20932.038639,2960.823768,2834.553343,3182.885551
20932.038962,-444.123565,-2451.505594,7772.162391
20932.039286,-2960.823768,-6358.592633,12139.377449
20932.039609,-6809.894666,-9652.803275,15248.242405
20932.039932,-9548.656652,-11031.775171,18875.251521
20932.040255,-9992.780217,-10955.165621,19467.416275
20932.040579,-8734.430116,-8656.879127,16802.674883
20932.040902,-3775.050304,-4749.792088,13693.809927
20932.041225,-666.185348,1915.238745,11547.212695
20932.041549,2146.597232,7354.516781,7846.182985
20932.041872,5847.626942,10648.727422,2886.803174
20932.042195,9474.636058,12257.527968,-0.000000
20932.042518,10881.027347,11491.432470,-1036.288319
20932.042842,7105.977043,8963.317327,-1480.411884
20932.043165,4811.338623,3677.258390,1184.329507
20932.043488,1184.329507,-766.095498,7624.121203
20932.043812,-3182.885551,-5209.449386,12657.521608
20932.044135,-6883.915261,-9269.755526,14137.933492
20932.044458,-9474.636058,-11951.089769,16506.592507
20932.044782,-8808.450710,-12257.527968,18061.024985
20932.045105,-5551.544565,-8044.002729,17394.839637
20932.045428,-888.247130,-2757.943793,14508.036463
20932.045751,1554.432478,2068.457845,11103.089130
20932.046075,2442.679609,6971.469032,7772.162391
20932.046398,5847.626942,9806.022374,3256.906145
20932.046721,9178.553681,10495.508323,148.041188
20932.047045,8808.450710,10265.679673,-148.041188
20932.047368,7920.203579,7890.783629,222.061783
20932.047691,4959.379811,2757.943793,3182.885551
20932.048014,-1184.329507,-2221.676944,8068.244768
20932.048338,-5033.400406,-6665.030833,11547.212695
20932.048661,-6587.832884,-9729.412825,14804.118840
20932.048984,-9178.553681,-11951.089769,18653.189738
20932.049308,-10288.862594,-11031.775171,19985.560434
20932.049631,-6513.812290,-8197.221829,17246.798449
20932.049954,-1702.473667,-4903.011187,14434.015869
20932.050277,-222.061783,229.828649,12213.398043
20932.050601,1184.329507,5439.278036,8142.265362
20932.050924,5625.565159,8733.488677,4663.297435
20932.051247,9030.512492,10035.851024,2294.638420
20932.051571,7105.977043,9422.974625,-0.000000
20932.051894,3552.988522,6205.373534,-1554.432478
20932.052217,1850.514855,612.876398,-148.041188
20932.052541,-1554.432478,-3370.820191,7254.018232
20932.052864,-5921.647536,-6741.640382,11769.274478
20932.053187,-9474.636058,-9729.412825,14434.015869
20932.053510,-10955.047942,-12334.137518,18061.024985
20932.053834,-12435.459826,-13176.842566,17764.942608
20932.054157,-10066.800811,-9806.022374,15174.221811
20932.054480,-3256.906145,-5515.887586,13249.686362
20932.054804,444.123565,1149.143247,12065.356855
20932.055127,1702.473667,6741.640382,9252.574275
20932.055450,5625.565159,9346.365076,2960.823768
20932.055773,9400.615463,10265.679673,-296.082377
20932.056097,8808.450710,9269.755526,-518.144159
20932.056420,7328.038826,7431.126331,222.061783
20932.056743,6365.771101,3600.648841,3330.926739
20932.057067,1628.453072,-1685.410096,9178.553681
20932.057390,-3182.885551,-6128.763984,12953.603985
20932.057713,-5921.647536,-9576.193725,13915.871710
20932.058037,-8586.388927,-12257.527968,17320.819043
20932.058360,-8734.430116,-11644.651570,19615.457463
20932.058683,-5847.626942,-7277.907231,19023.292709
20932.059006,-2442.679609,-3753.867940,15396.283594
20932.059330,-1184.329507,459.657299,10955.047942
20932.059653,1776.494261,4903.011187,7698.141797
20932.059976,4293.194464,8350.440928,2886.803174
20932.060300,7550.100608,9652.803275,518.144159
20932.060623,9548.656652,9882.631924,-74.020594
20932.060946,8290.306550,7660.954980,-0.000000
20932.061269,3923.091493,3677.258390,1998.556043
20932.061593,1036.288319,-766.095498,7105.977043
20932.061916,-1258.350101,-4673.182538,10658.965565
20932.062239,-3997.112087,-7967.393179,13989.892304
20932.062563,-6069.688724,-9576.193725,17542.880825
20932.062886,-7105.977043,-9039.926876,19689.478057
20932.063209,-7105.977043,-6894.859482,17394.839637
20932.063532,-2960.823768,-4366.744339,13767.830521
20932.063856,740.205942,1762.019645,12287.418637
20932.064179,1776.494261,6818.249932,7920.203579
20932.064502,4811.338623,10035.851024,2812.782580
20932.064826,7328.038826,11414.822920,-222.061783
20932.065149,7698.141797,10189.070123,-1332.370696
20932.065472,4959.379811,7584.345430,-962.267725
20932.065796,2516.700203,2298.286494,2146.597232
20932.066119,-2146.597232,-2374.896044,7254.018232
20932.066442,-6217.729913,-6588.421283,12509.480420
20932.066765,-8956.491898,-10342.289223,15618.345376
20932.067089,-10732.986159,-12410.747068,18357.107362
20932.067412,-11029.068536,-12717.185267,19319.375086
20932.067735,-7179.997637,-9193.145976,17616.901420
20932.068059,-2146.597232,-4136.915689,14508.036463
20932.068382,0.000000,2298.286494,12287.418637
20932.068705,1998.556043,7048.078582,8290.306550
20932.069028,5773.606348,9959.241474,3108.864956
20932.069352,8364.327145,10418.898773,-666.185348
20932.069675,8142.265362,9806.022374,-1998.556043
20932.069998,7772.162391,7431.126331,-888.247130
20932.070322,5403.503377,2451.505594,3034.844362
20932.070645,-1184.329507,-2374.896044,8290.306550
20932.070968,-3997.112087,-5975.544884,12213.398043
20932.071291,-5995.668130,-10265.679673,14952.160028
20932.071615,-8364.327145,-13023.623466,18061.024985
20932.071938,-9992.780217,-12257.527968,18949.272115
20932.072261,-7550.100608,-8886.707777,16062.468941
20932.072585,-1110.308913,-4673.182538,13397.727550
20932.072908,2072.576638,1838.629195,11473.192101
20932.073231,2664.741391,6588.421283,6365.771101
20932.073555,6069.688724,9422.974625,2368.659014
20932.073878,9696.697840,10265.679673,1258.350101
20932.074201,10362.883188,9576.193725,666.185348
20932.074524,6883.915261,7201.297681,1924.535449
20932.074848,3775.050304,1838.629195,3627.009116
20932.075171,222.061783,-3677.258390,9178.553681
20932.075494,-3552.988522,-7431.126331,11399.171507
20932.075818,-6809.894666,-10725.336972,15544.324782
20932.076141,-9326.594869,-12257.527968,19985.560434
20932.076464,-10658.965565,-11568.042020,18357.107362
20932.076787,-8290.306550,-9116.536426,15174.221811
20932.077111,-1776.494261,-4136.915689,13545.768739
20932.077434,2072.576638,3064.381992,11769.274478
20932.077757,2738.761985,8733.488677,7846.182985
20932.078081,5699.585753,10342.289223,1332.370696
20932.078404,9992.780217,10878.556072,-1332.370696
20932.078727,9178.553681,10495.508323,-74.020594
20932.079051,6069.688724,7890.783629,1036.288319
20932.079374,2738.761985,2604.724693,3552.988522
20932.079697,-2072.576638,-2834.553343,8290.306550
20932.080020,-6365.771101,-7507.735880,13101.645173
20932.080344,-9992.780217,-10725.336972,14730.098246
20932.080667,-13545.768739,-13100.233016,16802.674883
20932.080990,-12879.583391,-12793.794817,17838.963202
20932.081314,-8364.327145,-8350.440928,17320.819043
20932.081637,-4663.297435,-2987.772442,14434.015869
20932.081960,-2368.659014,2911.162892,10732.986159
20932.082283,2220.617826,7890.783629,6439.791695
20932.082607,6143.709319,10112.460574,370.102971
20932.082930,9474.636058,11874.480219,-444.123565
20932.083253,10732.986159,12104.308868,1258.350101
20932.083577,8734.430116,9116.536426,296.082377
20932.083900,5181.441594,2681.334243,2220.617826
20932.084223,1628.453072,-2681.334243,7846.182985
20932.084546,-2072.576638,-6128.763984,12805.562797
20932.084870,-6143.709319,-9193.145976,16580.613101
20932.085193,-7698.141797,-11951.089769,18949.272115
20932.085516,-8290.306550,-11951.089769,19171.333898
20932.085840,-7846.182985,-8886.707777,17246.798449
20932.086163,-4219.173869,-4673.182538,13989.892304
20932.086486,-444.123565,1532.190996,11473.192101
20932.086810,2294.638420,6281.983084,6735.874072
20932.087133,5329.482782,9652.803275,1850.514855
20932.087456,7920.203579,11414.822920,-740.205942
20932.087779,6735.874072,10035.851024,-1406.391290
20932.088103,5033.400406,5975.544884,-1332.370696
20932.088426,2960.823768,1149.143247,1628.453072
20932.088749,-592.164754,-3064.381992,8512.368333
20932.089073,-4219.173869,-6741.640382,13249.686362
20932.089396,-6735.874072,-9882.631924,16136.489536
20932.089719,-8438.347739,-13406.671215,18801.230927
20932.090042,-7624.121203,-12257.527968,19689.478057
20932.090366,-2960.823768,-7967.393179,18431.127956
20932.090689,1998.556043,-3064.381992,15248.242405
20932.091012,3034.844362,2987.772442,12287.418637
20932.091336,5255.462188,7814.174080,7624.121203
20932.091659,8586.388927,10265.679673,2146.597232
20932.091982,8660.409521,10495.508323,-1110.308913
20932.092306,7476.080014,9499.584175,-1184.329507
20932.092629,5995.668130,6052.154434,-666.185348
20932.092952,2368.659014,459.657299,3182.885551
20932.093275,-4515.256246,-4213.525239,8512.368333
20932.093599,-7772.162391,-8197.221829,12139.377449
20932.093922,-9474.636058,-11721.261119,15174.221811
20932.094245,-11695.253884,-14096.157163,17320.819043
20932.094569,-11399.171507,-12027.699319,19911.539840
20932.094892,-7476.080014,-8580.269578,18061.024985
20932.095215,-2442.679609,-4213.525239,14359.995275
20932.095538,-148.041188,1915.238745,11769.274478
20932.095862,2146.597232,7201.297681,6957.935855
20932.096185,6809.894666,9806.022374,2590.720797
20932.096508,10066.800811,10418.898773,-444.123565
20932.096832,9474.636058,10035.851024,-148.041188
20932.097155,5625.565159,7431.126331,-0.000000
20932.097478,4071.132681,2374.896044,2368.659014
20932.097801,1406.391290,-2451.505594,8364.327145
20932.098125,-3552.988522,-6741.640382,11399.171507
20932.098448,-6883.915261,-9193.145976,14211.954086
20932.098771,-7328.038826,-10648.727422,19689.478057
20932.099095,-8956.491898,-10572.117872,18949.272115
20932.099418,-8660.409521,-7201.297681,17024.736666
20932.099741,-2960.823768,-3447.429741,13693.809927
20932.100065,2146.597232,2298.286494,11029.068536
20932.100388,2812.782580,7737.564530,7698.141797
20932.100711,4811.338623,10955.165621,2442.679609
20932.101034,9104.533087,11644.651570,-518.144159
20932.101358,9400.615463,10265.679673,-1924.535449
20932.101681,7402.059420,7584.345430,-1554.432478
20932.102004,4515.256246,3140.991542,2294.638420
20932.102328,-592.164754,-1991.848295,8364.327145
20932.102651,-3849.070898,-6358.592633,13249.686362
20932.102974,-6439.791695,-9959.241474,15396.283594
20932.103297,-9622.677246,-13023.623466,18061.024985
20932.103621,-10732.986159,-12027.699319,19467.416275
20932.103944,-6957.935855,-7737.564530,19171.333898
20932.104267,-2220.617826,-3677.258390,16062.468941
20932.104591,-518.144159,2298.286494,11695.253884
20932.104914,2590.720797,7048.078582,7254.018232
20932.105237,5625.565159,10418.898773,2146.597232
20932.105561,7328.038826,10878.556072,-2072.576638
20932.105884,9474.636058,10495.508323,-2146.597232
20932.106207,8882.471304,7890.783629,-444.123565
20932.106530,2590.720797,2911.162892,2664.741391
20932.106854,-1554.432478,-2604.724693,7179.997637
20932.107177,-3552.988522,-7660.954980,11177.109724
20932.107500,-7328.038826,-11491.432470,15766.386565
20932.107823,-10214.842000,-13636.499864,20059.581028
20932.108147,-9992.780217,-12334.137518,20799.786970
20932.108470,-7476.080014,-10112.460574,18949.272115
20932.108793,-4515.256246,-4673.182538,15174.221811
20932.109116,-222.061783,1225.752797,11917.315666
20932.109440,2516.700203,6358.592633,7105.977043
20932.109763,6069.688724,10495.508323,1628.453072
20932.110086,9474.636058,12180.918418,-444.123565
20932.110409,9622.677246,11184.994271,-2220.617826
20932.110733,6513.812290,6894.859482,-3108.864956
20932.111056,2516.700203,2451.505594,1480.411884
20932.111379,-1924.535449,-3370.820191,7920.203579
20932.111702,-5921.647536,-8580.269578,11917.315666
20932.112026,-9252.574275,-12870.404366,16136.489536
20932.112349,-12435.459826,-15551.738609,20281.642811
20932.112672,-13175.665768,-13559.890315,21391.951724
20932.112996,-7476.080014,-9959.241474,19319.375086
20932.113319,-1332.370696,-4979.620737,15618.345376
20932.113642,888.247130,2604.724693,12139.377449
20932.113965,3552.988522,8273.831378,6735.874072
20932.114289,8956.491898,11644.651570,1036.288319
20932.114612,11917.315666,12717.185267,-1554.432478
20932.114935,11399.171507,12027.699319,-1110.308913
20932.115258,9548.656652,9193.145976,-1110.308913
20932.115582,6217.729913,2528.115143,2294.638420
20932.115905,-888.247130,-3294.210641,8364.327145
20932.116228,-3997.112087,-8350.440928,11843.295072
20932.116551,-7105.977043,-11874.480219,16506.592507
20932.116875,-10955.047942,-14632.424012,18801.230927
20932.117198,-11843.295072,-13023.623466,19763.498651
20932.117521,-6957.935855,-9269.755526,18727.210333
20932.117844,-2146.597232,-3753.867940,15470.304188
20932.118168,-444.123565,3140.991542,12361.439231
20932.118491,1850.514855,8120.612279,5699.585753
20932.118814,6439.791695,10955.165621,370.102971
20932.119138,11621.233289,12027.699319,-1406.391290
20932.119461,10436.903782,12334.137518,-1924.535449
20932.119784,5551.544565,9499.584175,-814.226536
20932.120107,3034.844362,3294.210641,1332.370696
20932.120431,1406.391290,-2451.505594,7105.977043
20932.120754,-4737.318029,-7737.564530,12139.377449
20932.121077,-10807.006753,-11261.603821,16580.613101
20932.121400,-11399.171507,-13406.671215,21391.951724
20932.121724,-10436.903782,-13330.061665,21169.889941
20932.122047,-9918.759623,-10035.851024,19245.354492
20932.122370,-4811.338623,-3753.867940,15766.386565
20932.122693,1628.453072,3907.087040,11325.150913
20932.123017,4737.318029,9422.974625,7772.162391
20932.123340,7920.203579,12947.013916,888.247130
20932.123663,11029.068536,14249.376263,-2146.597232
20932.123986,9696.697840,12180.918418,-3849.070898
20932.124310,7476.080014,8580.269578,-4071.132681
20932.124633,4811.338623,2987.772442,1702.473667
20932.124956,-1554.432478,-2604.724693,7698.141797
20932.125279,-6439.791695,-7890.783629,12805.562797
20932.125603,-8068.244768,-12257.527968,16506.592507
20932.125926,-9770.718434,-15628.348159,18949.272115
20932.126249,-11325.150913,-13789.718964,20799.786970
20932.126573,-5329.482782,-8503.660028,20651.745782
20932.126896,370.102971,-3064.381992,16580.613101
20932.127219,1036.288319,3447.429741,10807.006753
20932.127542,4367.215058,8656.879127,6217.729913
20932.127866,7031.956449,11797.870669,2146.597232
20932.128189,7550.100608,11721.261119,-1480.411884
20932.128512,8734.430116,9806.022374,-3552.988522
20932.128835,7476.080014,6128.763984,-1184.329507
20932.129159,370.102971,842.705048,4219.173869
20932.129482,-4737.318029,-4290.134789,8586.388927
20932.129805,-4515.256246,-9269.755526,12065.356855
20932.130128,-8290.306550,-13636.499864,15840.407159
20932.130452,-11769.274478,-14632.424012,19615.457463
20932.130775,-8734.430116,-12487.356617,21391.951724
20932.131098,-4737.318029,-9269.755526,17838.963202
20932.131421,-2220.617826,-3370.820191,14730.098246
20932.131745,2294.638420,3370.820191,12287.418637
20932.132068,5403.503377,8580.269578,7698.141797
20932.132391,9104.533087,10725.336972,2442.679609
20932.132715,12287.418637,12257.527968,-1406.391290
20932.133038,10140.821405,11261.603821,-2738.761985
20932.133361,7031.956449,7354.516781,-1998.556043
20932.133684,4515.256246,2528.115143,1480.411884
20932.134008,222.061783,-2834.553343,7031.956449
20932.134331,-5403.503377,-8503.660028,11621.233289
20932.134654,-9992.780217,-11568.042020,15840.407159
20932.134977,-11103.089130,-13713.109414,19911.539840
20932.135301,-12065.356855,-13023.623466,21317.931130
20932.135624,-9030.512492,-10035.851024,18579.169144
20932.135947,-3108.864956,-4826.401637,15174.221811
20932.136270,-148.041188,2451.505594,11621.233289
20932.136594,888.247130,7431.126331,7698.141797
20932.136917,5921.647536,11108.384721,1702.473667
20932.137240,8882.471304,11951.089769,-1924.535449
20932.137563,7328.038826,10955.165621,-2590.720797
20932.137887,6217.729913,8580.269578,-1702.473667
20932.138210,4589.276840,3064.381992,2220.617826
20932.138533,-2220.617826,-2528.115143,8290.306550
20932.138857,-6735.874072,-7507.735880,11399.171507
20932.139180,-7105.977043,-11491.432470,16062.468941
20932.139503,-9770.718434,-14172.766713,19097.313304
20932.139826,-11399.171507,-12027.699319,21169.889941
20932.140150,-7105.977043,-8427.050478,19467.416275
20932.140473,-592.164754,-4519.963438,15026.180623
20932.140796,1998.556043,2987.772442,13101.645173
20932.141119,2220.617826,8886.707777,7772.162391
20932.141443,6883.915261,12257.527968,740.205942
20932.141766,11251.130318,12257.527968,-2294.638420
20932.142089,11325.150913,11644.651570,-3775.050304
20932.142412,7179.997637,10112.460574,-1702.473667
20932.142736,3478.967927,4519.963438,592.164754
20932.143059,518.144159,-1532.190996,6291.750507
20932.143382,-3923.091493,-7277.907231,11399.171507
20932.143705,-9400.615463,-11261.603821,14656.077652
20932.144029,-10510.924376,-13253.452115,20503.704593
20932.144352,-10732.986159,-14019.547613,21243.910535
20932.144675,-10732.986159,-11108.384721,18209.066173
20932.144998,-5551.544565,-6205.373534,15692.365970
20932.145322,1480.411884,689.485948,13101.645173
20932.145645,3923.091493,7354.516781,9326.594869
20932.145968,5329.482782,11108.384721,2368.659014
20932.146292,9992.780217,12257.527968,-2590.720797
20932.146615,11473.192101,11797.870669,-2146.597232
20932.146938,9474.636058,9576.193725,-814.226536
20932.147261,6217.729913,4366.744339,2220.617826
20932.147585,-370.102971,-612.876398,6661.853478
20932.147908,-5773.606348,-7124.688131,11917.315666
20932.148231,-7179.997637,-11568.042020,16876.695478
20932.148554,-10066.800811,-14096.157163,19097.313304
20932.148878,-12435.459826,-15628.348159,20281.642811
20932.149201,-9252.574275,-11644.651570,19171.333898
20932.149524,-2516.700203,-5975.544884,16654.633695
20932.149847,444.123565,919.314598,13545.768739
20932.150171,1776.494261,7584.345430,7994.224174
20932.150494,5921.647536,10955.165621,1998.556043
20932.150817,9992.780217,11874.480219,-2664.741391
20932.151140,11843.295072,11644.651570,-4293.194464
20932.151464,10881.027347,9959.241474,-1258.350101
20932.151787,3404.947333,4826.401637,1998.556043
20932.152110,-2590.720797,-1685.410096,5403.503377
20932.152434,-2960.823768,-8044.002729,9622.677246
20932.152757,-7994.224174,-12257.527968,15322.262999
20932.153080,-13175.665768,-14096.157163,21095.869347
20932.153403,-12731.542202,-13559.890315,22502.260637
20932.153727,-8290.306550,-12257.527968,18357.107362
20932.154050,-3552.988522,-7814.174080,15692.365970
20932.154373,-888.247130,459.657299,13175.665768
20932.154696,1554.432478,6588.421283,8808.450710
20932.155020,7105.977043,11568.042020,2368.659014
20932.155343,12583.501014,14096.157163,-1406.391290
20932.155666,13915.871710,13176.842566,-2960.823768
20932.155989,7994.224174,10495.508323,-2220.617826
20932.156313,4737.318029,4903.011187,-222.061783
20932.156636,2886.803174,-153.219100,7105.977043
20932.156959,-1110.308913,-6205.373534,12139.377449
20932.157282,-7624.121203,-9806.022374,16136.489536
20932.157606,-11177.109724,-13406.671215,19615.457463
20932.157929,-11029.068536,-14555.814462,19763.498651
20932.158252,-8734.430116,-11184.994271,19689.478057
20932.158575,-2220.617826,-5592.497135,17172.777854
20932.158899,444.123565,1225.752797,14211.954086
20932.159222,1480.411884,6665.030833,7920.203579
20932.159545,6069.688724,11261.603821,1110.308913
20932.159869,10658.965565,11644.651570,-1258.350101
20932.160192,9104.533087,11874.480219,-3627.009116
20932.160515,6587.832884,10189.070123,-3404.947333
20932.160838,6143.709319,4749.792088,-222.061783
20932.161162,-814.226536,-689.485948,7105.977043
20932.161485,-7624.121203,-5822.325785,11547.212695
20932.161808,-8808.450710,-10648.727422,14730.098246
20932.162131,-10510.924376,-14785.643111,18949.272115
20932.162455,-11917.315666,-14632.424012,20207.622217
20932.162778,-8438.347739,-9806.022374,20133.601622
20932.163101,-2738.761985,-5592.497135,17172.777854
20932.163424,-1332.370696,459.657299,14730.098246
20932.163748,1036.288319,6128.763984,9252.574275
20932.164071,6513.812290,9882.631924,2368.659014
20932.164394,11251.130318,11108.384721,-0.000000
20932.164717,11325.150913,12257.527968,-1554.432478
20932.165041,7920.203579,9499.584175,-2368.659014
20932.165364,3330.926739,4903.011187,444.123565
20932.165687,-592.164754,-1608.800546,6069.688724
20932.166011,-4589.276840,-5669.106685,11769.274478
20932.166334,-8882.471304,-11184.994271,14804.118840
20932.166657,-11177.109724,-13789.718964,19541.436869
20932.166980,-10658.965565,-14172.766713,21614.013506
20932.167304,-8734.430116,-10878.556072,18283.086767
20932.167627,-5477.523971,-6665.030833,15988.448347
20932.167950,-370.102971,-229.828649,12139.377449
20932.168273,4441.235652,6128.763984,8438.347739
20932.168597,6809.894666,10572.117872,3256.906145
20932.168920,9030.512492,12563.966167,-1628.453072
20932.169243,11251.130318,12027.699319,-2738.761985
20932.169566,8438.347739,9116.536426,-2812.782580
20932.169890,4145.153275,4290.134789,1184.329507
20932.170213,0.000000,-536.266849,6587.832884
20932.170536,-5329.482782,-6281.983084,11325.150913
20932.170859,-9474.636058,-10648.727422,15914.427753
20932.171183,-10807.006753,-13636.499864,18209.066173
20932.171506,-10288.862594,-13942.938064,19689.478057
20932.171829,-7698.141797,-10418.898773,18949.272115
20932.172153,-2664.741391,-5592.497135,16580.613101
20932.172476,1184.329507,612.876398,12435.459826
20932.172799,3182.885551,6052.154434,8216.285956
20932.173122,6439.791695,10342.289223,1924.535449
20932.173446,9770.718434,11797.870669,-1554.432478
20932.173769,9770.718434,10878.556072,-3775.050304
20932.174092,9400.615463,9039.926876,-1110.308913
20932.174415,6217.729913,4903.011187,3775.050304
20932.174739,-1258.350101,-766.095498,9400.615463
20932.175062,-5107.421000,-6741.640382,11917.315666
20932.175385,-4737.318029,-11721.261119,15396.283594
20932.175708,-8808.450710,-13023.623466,20429.683999
20932.176032,-10140.821405,-11951.089769,22502.260637
20932.176355,-6957.935855,-8733.488677,17468.860231
20932.176678,-1998.556043,-6205.373534,12879.583391
20932.177001,222.061783,459.657299,11325.150913
20932.177325,1036.288319,7354.516781,7254.018232
20932.177648,5773.606348,10648.727422,2294.638420
20932.177971,9474.636058,11108.384721,-444.123565
20932.178294,7994.224174,10648.727422,-2220.617826
20932.178618,5329.482782,8810.098227,-1036.288319
20932.178941,2368.659014,3830.477490,814.226536
20932.179264,-592.164754,-1838.629195,7105.977043
20932.179588,-4663.297435,-6588.421283,11843.295072
20932.179911,-9030.512492,-9729.412825,15914.427753
20932.180234,-10066.800811,-12563.966167,20059.581028
20932.180557,-10807.006753,-12257.527968,19837.519246
20932.180881,-8438.347739,-10035.851024,16802.674883
20932.181204,-2072.576638,-6205.373534,14878.139434
20932.181527,962.267725,1685.410096,11991.336260
20932.181850,2664.741391,7354.516781,8142.265362
20932.182174,7624.121203,10418.898773,2368.659014
20932.182497,10140.821405,11261.603821,-370.102971
20932.182820,8290.306550,10725.336972,-1554.432478
20932.183143,8216.285956,8656.879127,-1184.329507
20932.183467,6143.709319,4136.915689,2368.659014
20932.183790,0.000000,-1149.143247,9548.656652
20932.184113,-4441.235652,-5822.325785,12731.542202
20932.184436,-6069.688724,-10112.460574,15618.345376
20932.184760,-9696.697840,-13330.061665,19097.313304
20932.185083,-11029.068536,-12334.137518,19541.436869
20932.185406,-6809.894666,-8580.269578,17838.963202
20932.185730,-2220.617826,-5439.278036,14137.933492
20932.186053,0.000000,1302.362347,11695.253884
20932.186376,1924.535449,6588.421283,7328.038826
20932.186699,4663.297435,9193.145976,-148.041188
20932.187023,9178.553681,10725.336972,-592.164754
20932.187346,10732.986159,10725.336972,-0.000000
20932.187669,7624.121203,8656.879127,-666.185348
20932.187992,2664.741391,3524.039291,2294.638420
20932.188316,444.123565,-1762.019645,7105.977043
20932.188639,-2590.720797,-5898.935335,11843.295072
20932.188962,-7105.977043,-10189.070123,14878.139434
20932.189285,-9400.615463,-12257.527968,18949.272115
20932.189609,-9770.718434,-12027.699319,20799.786970
20932.189932,-7846.182985,-9576.193725,17098.757260
20932.190255,-3775.050304,-6358.592633,14211.954086
20932.190578,296.082377,-76.609550,11695.253884
20932.190902,2664.741391,5592.497135,9104.533087
20932.191225,7179.997637,9193.145976,3849.070898
20932.191548,11029.068536,11108.384721,-74.020594
20932.191871,10214.842000,10725.336972,-0.000000
20932.192195,7624.121203,8044.002729,-0.000000
20932.192518,4811.338623,2528.115143,1924.535449
20932.192841,0.000000,-2298.286494,6883.915261
20932.193165,-4737.318029,-6588.421283,12065.356855
20932.193488,-9474.636058,-10572.117872,16358.551318
20932.193811,-12583.501014,-13330.061665,18505.148550
20932.194134,-11695.253884,-13866.328514,19393.395680
20932.194458,-7476.080014,-10342.289223,17838.963202
20932.194781,-3923.091493,-4673.182538,14359.995275
20932.195104,-1406.391290,1149.143247,11103.089130
20932.195427,1480.411884,6281.983084,6809.894666
20932.195751,5847.626942,10112.460574,1332.370696
20932.196074,8216.285956,11184.994271,-666.185348
20932.196397,7624.121203,10572.117872,-1998.556043
20932.196720,5773.606348,7814.174080,-666.185348
20932.197044,4145.153275,3140.991542,3775.050304
20932.197367,-1184.329507,-1685.410096,8956.491898
20932.197690,-5329.482782,-6358.592633,11547.212695
20932.198013,-7846.182985,-9576.193725,14804.118840
20932.198337,-8956.491898,-12027.699319,19689.478057
20932.198660,-8586.388927,-10112.460574,20577.725188
20932.198983,-5995.668130,-7124.688131,17468.860231
20932.199307,-1036.288319,-3753.867940,13693.809927
20932.199630,888.247130,1838.629195,10955.047942
20932.199953,2590.720797,7354.516781,6439.791695
20932.200276,6957.935855,10189.070123,2664.741391
20932.200600,9992.780217,11184.994271,1554.432478
20932.200923,8216.285956,10189.070123,-148.041188
20932.201246,4367.215058,7967.393179,-518.144159
20932.201569,2960.823768,2145.067394,1184.329507
20932.201893,222.061783,-2604.724693,6883.915261
20932.202216,-4515.256246,-5975.544884,10807.006753
20932.202539,-7698.141797,-9039.926876,14730.098246
20932.202862,-8956.491898,-10265.679673,19023.292709
20932.203186,-9844.739029,-10265.679673,19467.416275
20932.203509,-6365.771101,-8580.269578,16136.489536
20932.203832,-1110.308913,-5286.058936,13323.706956
20932.204155,888.247130,1149.143247,11547.212695
20932.204479,3034.844362,7584.345430,9252.574275
20932.204802,7994.224174,9499.584175,3404.947333
20932.205125,9548.656652,9806.022374,-148.041188
20932.205449,7920.203579,9346.365076,-1110.308913
20932.205772,7698.141797,7124.688131,-444.123565
20932.206095,5181.441594,2298.286494,3256.906145
20932.206418,-444.123565,-2451.505594,8808.450710
20932.206742,-4219.173869,-5975.544884,13471.748144
20932.207065,-7179.997637,-9959.241474,14508.036463
20932.207388,-10436.903782,-12947.013916,17690.922014
20932.207711,-9548.656652,-12257.527968,18949.272115
20932.208035,-5921.647536,-8963.317327,17690.922014
20932.208358,-4145.153275,-4903.011187,15100.201217
20932.208681,-1110.308913,995.924147,11251.130318
20932.209004,2368.659014,5286.058936,7402.059420
20932.209328,3997.112087,8120.612279,962.267725
20932.209651,6587.832884,8963.317327,222.061783
20932.209974,8808.450710,8580.269578,148.041188
20932.210298,7179.997637,5898.935335,-592.164754
20932.210621,2590.720797,2451.505594,3034.844362
20932.210944,296.082377,-1838.629195,8290.306550
20932.211267,-2368.659014,-5975.544884,10584.944971
20932.211591,-6291.750507,-9269.755526,14952.160028
20932.211914,-7254.018232,-10572.117872,19393.395680
20932.212237,-7772.162391,-9959.241474,20503.704593
20932.212561,-7846.182985,-8120.612279,17246.798449
20932.212884,-3404.947333,-5132.839837,13619.789333
20932.213207,444.123565,459.657299,11473.192101
20932.213531,1850.514855,5898.935335,7550.100608
20932.213854,4885.359217,8963.317327,2886.803174
20932.214177,7772.162391,11108.384721,-0.000000
20932.214500,6809.894666,9806.022374,-1850.514855
20932.214824,5773.606348,7584.345430,-1036.288319
20932.215147,4737.318029,2681.334243,2442.679609
20932.215470,-1036.288319,-1762.019645,7920.203579
20932.215794,-5403.503377,-4903.011187,12287.418637
20932.216117,-7105.977043,-9116.536426,15618.345376
20932.216440,-9326.594869,-11721.261119,18357.107362
20932.216764,-10214.842000,-11491.432470,19689.478057
20932.217087,-5403.503377,-8273.831378,17764.942608
20932.217410,-518.144159,-3907.087040,14434.015869
20932.217733,740.205942,1685.410096,11325.150913
20932.218057,3404.947333,7354.516781,7698.141797
20932.218380,6587.832884,10495.508323,2738.761985
20932.218703,8216.285956,11568.042020,-0.000000
20932.219027,8660.409521,10035.851024,-1554.432478
20932.219350,8364.327145,7814.174080,-666.185348
20932.219673,5551.544565,3370.820191,4441.235652
20932.219997,-1184.329507,-842.705048,10140.821405
20932.220320,-4885.359217,-5745.716235,10584.944971
20932.220643,-6365.771101,-9882.631924,13989.892304
20932.220966,-9400.615463,-12487.356617,19023.292709
20932.221290,-11177.109724,-10189.070123,19615.457463
20932.221613,-9030.512492,-7737.564530,15914.427753
20932.221936,-3627.009116,-5132.839837,12139.377449
20932.222260,-1184.329507,689.485948,10807.006753
20932.222583,0.000000,6358.592633,6069.688724
20932.222906,3849.070898,9652.803275,2072.576638
20932.223230,8882.471304,9959.241474,592.164754
20932.223553,9104.533087,9039.926876,-370.102971
20932.223876,5403.503377,5822.325785,-0.000000
20932.224199,3108.864956,1762.019645,3552.988522
20932.224523,444.123565,-2604.724693,9326.594869
20932.224846,-2886.803174,-6971.469032,12583.501014
20932.225169,-6883.915261,-10418.898773,16210.510130
20932.225493,-8734.430116,-11951.089769,20207.622217
20932.225816,-9548.656652,-12410.747068,20059.581028
20932.226139,-7624.121203,-9499.584175,16580.613101
20932.226463,-1332.370696,-5515.887586,12953.603985
20932.226786,1406.391290,1072.533697,11177.109724
20932.227109,2368.659014,7048.078582,7920.203579
20932.227432,6291.750507,9806.022374,2072.576638
20932.227756,11029.068536,9806.022374,-222.061783
20932.228079,10066.800811,9499.584175,-518.144159
20932.228402,6883.915261,7048.078582,-0.000000
20932.228726,3108.864956,1762.019645,3849.070898
20932.229049,-370.102971,-3524.039291,7846.182985
20932.229372,-3923.091493,-7201.297681,12509.480420
20932.229696,-7624.121203,-10648.727422,16136.489536
20932.230019,-12065.356855,-12257.527968,18653.189738
20932.230342,-10288.862594,-12257.527968,17320.819043
20932.230665,-4811.338623,-9039.926876,17246.798449
20932.230989,-2812.782580,-4060.306139,14063.912898
20932.231312,-1850.514855,2374.896044,10658.965565
20932.231635,2294.638420,6588.421283,6661.853478
20932.231959,6513.812290,9422.974625,2368.659014
20932.232282,8956.491898,10725.336972,-0.000000
20932.232605,9400.615463,10342.289223,-296.082377
20932.232928,7031.956449,7354.516781,-518.144159
20932.233252,2664.741391,1838.629195,1850.514855
20932.233575,148.041188,-1915.238745,8808.450710
20932.233898,-3552.988522,-5515.887586,13027.624579
20932.234222,-8438.347739,-9039.926876,15840.407159
20932.234545,-9622.677246,-11644.651570,18579.169144
20932.234868,-8364.327145,-10725.336972,19171.333898
20932.235192,-7105.977043,-7967.393179,16654.633695
20932.235515,-2738.761985,-2451.505594,13101.645173
20932.235838,1850.514855,3217.601092,11251.130318
20932.236161,3997.112087,7814.174080,7105.977043
20932.236485,6809.894666,11491.432470,2146.597232
20932.236808,9992.780217,13023.623466,222.061783
20932.237131,8364.327145,10725.336972,-666.185348
20932.237455,5033.400406,7507.735880,-888.247130
20932.237778,3923.091493,2604.724693,2442.679609
20932.238101,-1776.494261,-2221.676944,8882.471304
20932.238425,-7772.162391,-6894.859482,12213.398043
20932.238748,-9844.739029,-9959.241474,15322.262999
20932.239071,-10881.027347,-13176.842566,18875.251521
20932.239394,-11473.192101,-11951.089769,19689.478057
20932.239718,-5921.647536,-6894.859482,17764.942608
20932.240041,-370.102971,-3217.601092,13915.871710
20932.240364,-518.144159,1915.238745,9474.636058
20932.240688,2886.803174,7354.516781,5921.647536
20932.241011,8290.306550,9882.631924,1480.411884
20932.241334,9178.553681,10648.727422,-444.123565
20932.241658,7846.182985,9499.584175,-296.082377
20932.241981,8364.327145,6894.859482,-296.082377
20932.242304,5329.482782,766.095498,4145.153275
20932.242627,-740.205942,-3447.429741,10140.821405
20932.242951,-2886.803174,-6971.469032,13175.665768
20932.243274,-4959.379811,-10189.070123,15692.365970
