#time,accel_x,accel_y,accel_z
2649.288216,-148.041188,459.657299,9400.615463
2649.288530,0.000000,842.705048,9326.594869
2649.288845,0.000000,536.266849,9326.594869
2649.289159,-222.061783,612.876398,9326.594869
2649.289474,148.041188,919.314598,9252.574275
2649.289788,0.000000,229.828649,9474.636058
2649.290103,0.000000,689.485948,9400.615463
2649.290417,-518.144159,536.266849,9326.594869
2649.290732,0.000000,689.485948,9252.574275
2649.291046,-222.061783,612.876398,9252.574275
2649.291360,0.000000,842.705048,9252.574275
2649.291675,0.000000,766.095498,9474.636058
2649.291989,0.000000,995.924147,9178.553681
2649.292304,296.082377,919.314598,9326.594869
2649.292618,148.041188,919.314598,9400.615463
2649.292933,148.041188,995.924147,9474.636058
2649.293247,0.000000,689.485948,9326.594869
2649.293562,148.041188,1072.533697,9474.636058
2649.293876,74.020594,995.924147,9474.636058
2649.294190,0.000000,919.314598,9326.594869
2649.294505,444.123565,1149.143247,9326.594869
2649.294819,518.144159,1685.410096,9326.594869
2649.295134,1036.288319,1532.190996,9252.574275
2649.295448,1184.329507,1685.410096,9178.553681
2649.295763,888.247130,1685.410096,9252.574275
2649.296077,962.267725,1685.410096,9252.574275
2649.296392,888.247130,1838.629195,9178.553681
2649.296706,1036.288319,1685.410096,9326.594869
2649.297021,1184.329507,2068.457845,9178.553681
2649.297335,1110.308913,1532.190996,9326.594869
2649.297649,1628.453072,1915.238745,9326.594869
2649.297964,1554.432478,2221.676944,9326.594869
2649.298278,1850.514855,2374.896044,9474.636058
2649.298593,1924.535449,2451.505594,9474.636058
2649.298907,2072.576638,2451.505594,9400.615463
2649.299222,2442.679609,2451.505594,8956.491898
2649.299536,2738.761985,2987.772442,9474.636058
2649.299851,2368.659014,3447.429741,9252.574275
2649.300165,2146.597232,3370.820191,9252.574275
2649.300479,2960.823768,3524.039291,9474.636058
2649.300794,3478.967927,3677.258390,9474.636058
2649.301108,3627.009116,4290.134789,9400.615463
2649.301423,3552.988522,4290.134789,9400.615463
2649.301737,3775.050304,4366.744339,9326.594869
2649.302052,2960.823768,4213.525239,9030.512492
2649.302366,2738.761985,3753.867940,8808.450710
2649.302681,2442.679609,3907.087040,8956.491898
2649.302995,1850.514855,3600.648841,8808.450710
2649.303309,1184.329507,3600.648841,8586.388927
2649.303624,1036.288319,3600.648841,8216.285956
2649.303938,740.205942,3907.087040,8068.244768
2649.304253,1036.288319,3600.648841,7994.224174
2649.304567,1332.370696,3370.820191,8216.285956
2649.304882,1628.453072,3677.258390,8512.368333
2649.305196,1332.370696,3677.258390,8438.347739
2649.305511,1184.329507,3830.477490,8808.450710
2649.305825,1332.370696,2987.772442,9178.553681
2649.306140,1110.308913,2987.772442,9474.636058
2649.306454,740.205942,2681.334243,9770.718434
2649.306768,296.082377,2757.943793,10140.821405
2649.307083,-148.041188,2221.676944,10658.965565
2649.307397,-666.185348,1225.752797,11029.068536
2649.307712,-814.226536,612.876398,10881.027347
2649.308026,-296.082377,842.705048,10732.986159
2649.308341,592.164754,1532.190996,9918.759623
2649.308655,1998.556043,2221.676944,9326.594869
2649.308970,3627.009116,2911.162892,8882.471304
2649.309284,4737.318029,3140.991542,8216.285956
2649.309598,5107.421000,3983.696590,8142.265362
2649.309913,5181.441594,4136.915689,8512.368333
2649.310227,4515.256246,3524.039291,8882.471304
2649.310542,2886.803174,2528.115143,8956.491898
2649.310856,1258.350101,2068.457845,8808.450710
2649.311171,74.020594,1149.143247,9030.512492
2649.311485,-740.205942,76.609550,9178.553681
2649.311800,-888.247130,536.266849,9548.656652
2649.312114,-296.082377,459.657299,9474.636058
2649.312428,-592.164754,536.266849,9326.594869
2649.312743,0.000000,766.095498,9548.656652
2649.313057,666.185348,1149.143247,9770.718434
2649.313372,1850.514855,1762.019645,10066.800811
2649.313686,3034.844362,2145.067394,10362.883188
2649.314001,3775.050304,3064.381992,10584.944971
2649.314315,4293.194464,3217.601092,10214.842000
2649.314630,3997.112087,2834.553343,9696.697840
2649.314944,4071.132681,2681.334243,8882.471304
2649.315259,4145.153275,3217.601092,8660.409521
2649.315573,4737.318029,3370.820191,8438.347739
2649.315887,5107.421000,3907.087040,9104.533087
2649.316202,5181.441594,4290.134789,9844.739029
2649.316516,4145.153275,3983.696590,9918.759623
2649.316831,3256.906145,3217.601092,9918.759623
2649.317145,2516.700203,3677.258390,9548.656652
2649.317460,1850.514855,3830.477490,9326.594869
2649.317774,1036.288319,3600.648841,9844.739029
2649.318089,-814.226536,3677.258390,9474.636058
2649.318403,-2146.597232,2528.115143,8142.265362
2649.318717,-2294.638420,2757.943793,7179.997637
2649.319032,-1702.473667,2757.943793,6661.853478
2649.319346,0.000000,3753.867940,7254.018232
2649.319661,1480.411884,4443.353888,8438.347739
2649.319975,2294.638420,4979.620737,8808.450710
2649.320290,2590.720797,4903.011187,7698.141797
2649.320604,3108.864956,4596.572988,7550.100608
2649.320919,3404.947333,4443.353888,8734.430116
2649.321233,2812.782580,4213.525239,10955.047942
2649.321547,1036.288319,3294.210641,12435.459826
2649.321862,-296.082377,1991.848295,11547.212695
2649.322176,-814.226536,1225.752797,10362.883188
2649.322491,-666.185348,1149.143247,10362.883188
2649.322805,-296.082377,2145.067394,10732.986159
2649.323120,1406.391290,2528.115143,10584.944971
2649.323434,2442.679609,3370.820191,9474.636058
2649.323749,3775.050304,3983.696590,8438.347739
2649.324063,3627.009116,4290.134789,8142.265362
2649.324378,3775.050304,4443.353888,8068.244768
2649.324692,5033.400406,4443.353888,7920.203579
2649.325006,5625.565159,4519.963438,8216.285956
2649.325321,4737.318029,3600.648841,8734.430116
2649.325635,3552.988522,3830.477490,9030.512492
2649.325950,3182.885551,3370.820191,8216.285956
2649.326264,2368.659014,2221.676944,8660.409521
2649.326579,888.247130,1608.800546,9548.656652
2649.326893,-1184.329507,536.266849,9992.780217
2649.327208,-1480.411884,0.000000,10066.800811
2649.327522,-814.226536,0.000000,10584.944971
2649.327836,-1702.473667,383.047749,11029.068536
2649.328151,-1258.350101,306.438199,10436.903782
2649.328465,740.205942,1608.800546,9770.718434
2649.328780,2368.659014,2145.067394,9252.574275
2649.329094,3775.050304,2374.896044,8512.368333
2649.329409,4515.256246,3600.648841,7698.141797
2649.329723,5921.647536,4903.011187,7254.018232
2649.330038,7772.162391,5209.449386,7698.141797
2649.330352,7920.203579,5132.839837,8586.388927
2649.330666,6587.832884,5056.230287,8512.368333
2649.330981,5551.544565,4366.744339,9474.636058
2649.331295,4145.153275,3524.039291,11251.130318
2649.331610,1332.370696,1991.848295,10881.027347
2649.331924,-740.205942,1149.143247,10288.862594
2649.332239,-2442.679609,383.047749,10584.944971
2649.332553,-3997.112087,-459.657299,11473.192101
2649.332868,-4885.359217,-153.219100,11843.295072
2649.333182,-5181.441594,-229.828649,10584.944971
2649.333497,-3552.988522,-383.047749,8364.327145
2649.333811,-962.267725,2374.896044,7994.224174
2649.334125,1332.370696,4903.011187,7105.977043
2649.334440,4441.235652,5132.839837,6291.750507
2649.334754,7031.956449,6588.421283,6069.688724
2649.335069,7772.162391,7967.393179,6217.729913
2649.335383,8364.327145,7124.688131,7698.141797
2649.335698,7698.141797,5822.325785,8586.388927
2649.336012,6069.688724,5132.839837,9474.636058
2649.336327,2590.720797,3370.820191,11547.212695
2649.336641,-1406.391290,306.438199,12065.356855
2649.336955,-5847.626942,-2451.505594,10807.006753
2649.337270,-8216.285956,-3370.820191,9178.553681
2649.337584,-6143.709319,-2911.162892,10140.821405
2649.337899,-4885.359217,-1762.019645,11547.212695
2649.338213,-1924.535449,689.485948,10510.924376
2649.338528,3256.906145,3524.039291,10140.821405
2649.338842,6661.853478,5822.325785,7994.224174
2649.339157,9770.718434,6358.592633,6883.915261
2649.339471,12657.521608,8503.660028,7328.038826
2649.339785,13619.789333,9882.631924,9030.512492
2649.340100,11917.315666,8503.660028,9992.780217
2649.340414,8216.285956,5286.058936,9770.718434
2649.340729,2220.617826,2451.505594,8882.471304
2649.341043,-2368.659014,-383.047749,9252.574275
2649.341358,-5699.585753,-2987.772442,10214.842000
2649.341672,-7254.018232,-3753.867940,9474.636058
2649.341986,-7254.018232,-3140.991542,9030.512492
2649.342301,-5477.523971,-1302.362347,9548.656652
2649.342615,-2368.659014,0.000000,7994.224174
2649.342929,1332.370696,2681.334243,9474.636058
2649.343243,4441.235652,5592.497135,10732.986159
2649.343558,6587.832884,5592.497135,10436.903782
2649.343872,6957.935855,6052.154434,11473.192101
2649.344186,5847.626942,6128.763984,8142.265362
2649.344501,5995.668130,4826.401637,7179.997637
2649.344815,3627.009116,3600.648841,7772.162391
2649.345129,2516.700203,3524.039291,8290.306550
2649.345444,1036.288319,2757.943793,8438.347739
2649.345758,0.000000,1149.143247,7328.038826
2649.346072,0.000000,766.095498,6513.812290
2649.346386,-740.205942,459.657299,7328.038826
2649.346701,-1480.411884,995.924147,10214.842000
2649.347015,-962.267725,1225.752797,12731.542202
2649.347329,0.000000,1225.752797,12509.480420
2649.347644,962.267725,2451.505594,11695.253884
2649.347958,666.185348,2757.943793,11621.233289
2649.348272,1776.494261,3907.087040,11621.233289
2649.348586,2664.741391,3907.087040,9548.656652
2649.348901,3404.947333,3677.258390,7846.182985
2649.349215,3330.926739,4826.401637,7254.018232
2649.349529,1924.535449,3983.696590,6883.915261
2649.349844,1702.473667,3064.381992,6587.832884
2649.350158,1110.308913,2068.457845,6143.709319
2649.350472,814.226536,1915.238745,8068.244768
2649.350787,444.123565,2068.457845,10510.924376
2649.351101,1628.453072,1455.581446,10510.924376
2649.351415,3108.864956,2451.505594,10584.944971
2649.351729,3034.844362,3447.429741,10436.903782
2649.352044,3256.906145,3370.820191,11621.233289
2649.352358,2442.679609,3753.867940,12213.398043
2649.352672,2664.741391,3830.477490,10807.006753
2649.352987,3552.988522,3064.381992,8586.388927
2649.353301,2812.782580,3370.820191,8512.368333
2649.353615,1554.432478,3370.820191,8290.306550
2649.353929,2072.576638,3830.477490,7179.997637
2649.354244,4441.235652,3370.820191,6069.688724
2649.354558,4441.235652,3370.820191,6217.729913
2649.354872,1776.494261,2528.115143,7772.162391
2649.355187,148.041188,1915.238745,8586.388927
2649.355501,-222.061783,1225.752797,8438.347739
2649.355815,-370.102971,-383.047749,8956.491898
2649.356130,-740.205942,0.000000,10510.924376
2649.356444,-1480.411884,2528.115143,12805.562797
2649.356758,-592.164754,1072.533697,10362.883188
2649.357072,1258.350101,229.828649,9844.739029
2649.357387,-740.205942,1149.143247,8364.327145
2649.357701,-666.185348,1838.629195,9030.512492
2649.358015,1036.288319,1915.238745,9474.636058
2649.358330,3256.906145,1685.410096,8734.430116
2649.358644,3330.926739,2221.676944,9770.718434
2649.358958,1332.370696,2757.943793,10214.842000
2649.359272,4145.153275,2757.943793,10288.862594
2649.359587,4663.297435,3064.381992,8956.491898
2649.359901,4145.153275,2604.724693,9104.533087
2649.360215,1406.391290,2451.505594,9918.759623
2649.360530,-370.102971,1455.581446,9548.656652
2649.360844,-518.144159,383.047749,8290.306550
2649.361158,-592.164754,0.000000,8956.491898
2649.361473,-2812.782580,612.876398,10584.944971
2649.361787,-2664.741391,229.828649,10288.862594
2649.362101,-2072.576638,0.000000,9918.759623
2649.362415,-2294.638420,0.000000,8956.491898
2649.362730,-4737.318029,-153.219100,7994.224174
2649.363044,-3627.009116,-383.047749,7402.059420
2649.363358,-2960.823768,766.095498,7624.121203
2649.363673,-1702.473667,229.828649,7328.038826
2649.363987,-2294.638420,689.485948,7920.203579
2649.364301,-2368.659014,536.266849,8142.265362
2649.364615,-1332.370696,229.828649,8956.491898
2649.364930,-518.144159,0.000000,9178.553681
2649.365244,-666.185348,536.266849,9252.574275
2649.365558,222.061783,0.000000,9474.636058
2649.365873,0.000000,0.000000,9844.739029
2649.366187,740.205942,0.000000,11399.171507
2649.366501,0.000000,0.000000,10140.821405
2649.366816,1628.453072,-919.314598,10955.047942
2649.367130,2590.720797,842.705048,10955.047942
2649.367444,1924.535449,689.485948,11251.130318
2649.367758,1924.535449,919.314598,11251.130318
2649.368073,1776.494261,689.485948,9474.636058
2649.368387,2664.741391,153.219100,7328.038826
2649.368701,2294.638420,1149.143247,8512.368333
2649.369016,1850.514855,2145.067394,8586.388927
2649.369330,2368.659014,1685.410096,9622.677246
2649.369644,2072.576638,1072.533697,8734.430116
2649.369958,740.205942,612.876398,8216.285956
2649.370273,-1554.432478,306.438199,8142.265362
2649.370587,-2294.638420,0.000000,8586.388927
2649.370901,-1850.514855,-1378.971896,9400.615463
2649.371216,-2738.761985,-612.876398,9474.636058
2649.371530,-3256.906145,-459.657299,8290.306550
2649.371844,-2368.659014,-229.828649,8808.450710
2649.372159,-1332.370696,-229.828649,9104.533087
2649.372473,-222.061783,383.047749,8956.491898
2649.372787,444.123565,919.314598,9104.533087
2649.373101,2220.617826,1762.019645,9326.594869
2649.373416,3404.947333,1915.238745,9696.697840
2649.373730,4071.132681,3370.820191,9178.553681
2649.374044,4441.235652,3753.867940,9548.656652
2649.374359,4515.256246,3830.477490,10214.842000
2649.374673,3552.988522,2145.067394,9992.780217
2649.374987,1702.473667,2681.334243,9252.574275
2649.375301,1110.308913,2528.115143,9622.677246
2649.375616,74.020594,766.095498,9548.656652
2649.375930,-1776.494261,459.657299,10658.965565
2649.376244,-2886.803174,1532.190996,9326.594869
2649.376559,-2442.679609,842.705048,9326.594869
2649.376873,-4071.132681,76.609550,9474.636058
2649.377187,-3775.050304,536.266849,9178.553681
2649.377502,-4441.235652,536.266849,7624.121203
2649.377816,-3256.906145,76.609550,7402.059420
2649.378130,-3627.009116,306.438199,8438.347739
2649.378444,-4589.276840,689.485948,8364.327145
2649.378759,-4959.379811,229.828649,8216.285956
2649.379073,-3034.844362,-536.266849,7476.080014
2649.379387,-1998.556043,-153.219100,8068.244768
2649.379702,-3108.864956,0.000000,8438.347739
2649.380016,-2368.659014,229.828649,9696.697840
2649.380330,0.000000,383.047749,9474.636058
2649.380644,1036.288319,0.000000,9696.697840
2649.380959,1850.514855,1302.362347,10214.842000
2649.381273,3182.885551,2068.457845,10436.903782
2649.381587,3997.112087,1991.848295,11103.089130
2649.381902,4219.173869,766.095498,10288.862594
2649.382216,3330.926739,1149.143247,9770.718434
2649.382530,2738.761985,1225.752797,9918.759623
2649.382845,1998.556043,689.485948,9474.636058
2649.383159,2072.576638,-766.095498,9474.636058
2649.383473,962.267725,76.609550,9918.759623
2649.383787,222.061783,0.000000,9400.615463
2649.384102,148.041188,-919.314598,9400.615463
2649.384416,-666.185348,-766.095498,9030.512492
2649.384730,-1702.473667,-459.657299,9770.718434
2649.385045,-888.247130,-766.095498,9400.615463
2649.385359,-888.247130,-383.047749,8808.450710
2649.385673,-1332.370696,-459.657299,8068.244768
2649.385987,-1554.432478,-383.047749,8068.244768
2649.386302,-814.226536,-153.219100,9030.512492
2649.386616,-1110.308913,-689.485948,9178.553681
2649.386930,-1332.370696,-766.095498,8290.306550
2649.387245,-148.041188,306.438199,8290.306550
2649.387559,444.123565,766.095498,8808.450710
2649.387873,1776.494261,536.266849,9474.636058
2649.388188,814.226536,1532.190996,9770.718434
2649.388502,1258.350101,1915.238745,8808.450710
2649.388816,2590.720797,1532.190996,9400.615463
2649.389130,2442.679609,1378.971896,10140.821405
2649.389445,1406.391290,1762.019645,9474.636058
2649.389759,1036.288319,1225.752797,10214.842000
2649.390073,2220.617826,1838.629195,10658.965565
2649.390388,1480.411884,689.485948,9992.780217
2649.390702,592.164754,1991.848295,9844.739029
2649.391016,-296.082377,1685.410096,9548.656652
2649.391330,-518.144159,1225.752797,9474.636058
2649.391645,-1628.453072,-153.219100,9474.636058
2649.391959,-3108.864956,919.314598,8808.450710
2649.392273,-3997.112087,0.000000,8290.306550
2649.392588,-3256.906145,153.219100,8142.265362
2649.392902,-2812.782580,-306.438199,9474.636058
2649.393216,-4885.359217,153.219100,9030.512492
2649.393531,-5181.441594,76.609550,8882.471304
2649.393845,-5551.544565,-689.485948,7476.080014
2649.394159,-4441.235652,-689.485948,7772.162391
2649.394473,-4145.153275,383.047749,8142.265362
2649.394788,-2072.576638,842.705048,9030.512492
2649.395102,0.000000,1072.533697,9400.615463
2649.395416,518.144159,536.266849,9326.594869
2649.395731,1924.535449,2068.457845,9178.553681
2649.396045,3256.906145,2221.676944,9474.636058
2649.396359,3701.029710,2451.505594,10214.842000
2649.396673,3256.906145,1838.629195,9474.636058
2649.396988,3404.947333,1915.238745,9474.636058
2649.397302,3182.885551,1608.800546,9770.718434
2649.397616,3404.947333,1455.581446,9992.780217
2649.397931,2812.782580,1149.143247,11251.130318
2649.398245,2368.659014,1455.581446,10362.883188
2649.398559,2368.659014,766.095498,10288.862594
2649.398874,1036.288319,153.219100,9918.759623
2649.399188,-518.144159,0.000000,9400.615463
2649.399502,-1332.370696,-306.438199,8586.388927
2649.399816,1036.288319,536.266849,9326.594869
2649.400131,-444.123565,-153.219100,8734.430116
2649.400445,-222.061783,459.657299,9030.512492
2649.400759,0.000000,-153.219100,8808.450710
2649.401074,-814.226536,0.000000,9030.512492
2649.401388,-1406.391290,-536.266849,8808.450710
2649.401702,-1480.411884,-612.876398,7254.018232
2649.402016,-1554.432478,-919.314598,8586.388927
2649.402331,-1702.473667,-766.095498,8216.285956
2649.402645,-888.247130,-383.047749,10066.800811
2649.402959,-814.226536,229.828649,9992.780217
2649.403274,592.164754,536.266849,9474.636058
2649.403588,2368.659014,995.924147,9030.512492
2649.403902,1776.494261,1762.019645,9548.656652
2649.404217,1628.453072,1915.238745,9474.636058
2649.404531,3034.844362,1608.800546,9474.636058
2649.404845,2738.761985,2451.505594,9918.759623
2649.405159,1406.391290,1532.190996,10140.821405
2649.405474,1406.391290,1838.629195,9400.615463
2649.405788,1332.370696,1762.019645,10140.821405
2649.406102,222.061783,1455.581446,10140.821405
2649.406417,-962.267725,459.657299,9474.636058
2649.406731,-2590.720797,995.924147,9178.553681
2649.407045,-2812.782580,76.609550,8660.409521
2649.407359,-2442.679609,76.609550,8586.388927
2649.407674,-2960.823768,536.266849,10288.862594
2649.407988,-4367.215058,536.266849,9918.759623
2649.408302,-3404.947333,153.219100,9400.615463
2649.408617,-2516.700203,0.000000,8660.409521
2649.408931,-4293.194464,153.219100,7624.121203
2649.409245,-3923.091493,383.047749,8438.347739
2649.409560,-3849.070898,229.828649,7920.203579
2649.409874,-2220.617826,0.000000,7846.182985
2649.410188,-1184.329507,229.828649,7476.080014
2649.410502,814.226536,1762.019645,8438.347739
2649.410817,444.123565,2298.286494,9252.574275
2649.411131,1480.411884,995.924147,9622.677246
2649.411445,1628.453072,1685.410096,9252.574275
2649.411760,2368.659014,1532.190996,8808.450710
2649.412074,2590.720797,1532.190996,9474.636058
2649.412388,2886.803174,995.924147,10584.944971
2649.412702,2664.741391,1532.190996,10807.006753
2649.413017,2368.659014,919.314598,10362.883188
2649.413331,3256.906145,919.314598,9474.636058
2649.413645,2664.741391,766.095498,9252.574275
2649.413960,1702.473667,1072.533697,9326.594869
2649.414274,2516.700203,229.828649,10658.965565
2649.414588,2664.741391,766.095498,9696.697840
2649.414903,2072.576638,689.485948,9104.533087
2649.415217,2146.597232,1608.800546,8512.368333
2649.415531,1258.350101,1455.581446,8882.471304
2649.415845,222.061783,1685.410096,9474.636058
2649.416160,-1332.370696,-689.485948,8512.368333
2649.416474,-3330.926739,-612.876398,7846.182985
2649.416788,-4515.256246,-1608.800546,8068.244768
2649.417103,-3182.885551,-2451.505594,8438.347739
2649.417417,-3923.091493,-2068.457845,9474.636058
2649.417731,-3478.967927,-1225.752797,10510.924376
2649.418045,-2368.659014,-536.266849,10288.862594
2649.418360,-444.123565,-153.219100,9400.615463
2649.418674,444.123565,459.657299,8068.244768
2649.418988,1776.494261,1149.143247,8660.409521
2649.419303,2220.617826,2451.505594,9474.636058
2649.419617,2812.782580,2374.896044,9030.512492
2649.419931,4959.379811,2604.724693,8956.491898
2649.420246,4071.132681,2681.334243,9548.656652
2649.420560,3108.864956,2911.162892,10658.965565
2649.420874,1702.473667,1149.143247,9326.594869
2649.421188,740.205942,612.876398,9400.615463
2649.421503,-740.205942,536.266849,9622.677246
2649.421817,-1184.329507,306.438199,9918.759623
2649.422131,-2960.823768,-842.705048,11251.130318
2649.422446,-3552.988522,-536.266849,10214.842000
2649.422760,-2812.782580,-153.219100,10658.965565
2649.423074,-3404.947333,153.219100,9918.759623
2649.423388,-4367.215058,-229.828649,8734.430116
2649.423703,-3775.050304,0.000000,7476.080014
2649.424017,-3404.947333,0.000000,7772.162391
2649.424331,-3256.906145,306.438199,6883.915261
2649.424646,-3923.091493,229.828649,7624.121203
2649.424960,-3256.906145,612.876398,7698.141797
2649.425274,-2294.638420,766.095498,8808.450710
2649.425589,-1554.432478,-383.047749,8512.368333
2649.425903,-1702.473667,306.438199,9178.553681
2649.426217,-1998.556043,1302.362347,10214.842000
2649.426531,222.061783,1149.143247,9770.718434
2649.426846,1702.473667,459.657299,9030.512492
2649.427160,2368.659014,1455.581446,10140.821405
2649.427474,2516.700203,2374.896044,10881.027347
2649.427789,3775.050304,2528.115143,11547.212695
2649.428103,3923.091493,1455.581446,9622.677246
2649.428417,3923.091493,1762.019645,8808.450710
2649.428731,4515.256246,2604.724693,10288.862594
2649.429046,4441.235652,3294.210641,9622.677246
2649.429360,3849.070898,1762.019645,8956.491898
2649.429674,4071.132681,2374.896044,8290.306550
2649.429989,2738.761985,1838.629195,8882.471304
2649.430303,740.205942,1225.752797,9400.615463
2649.430617,148.041188,306.438199,9252.574275
2649.430932,-962.267725,229.828649,8586.388927
2649.431246,-1702.473667,-459.657299,8734.430116
2649.431560,-2960.823768,-1072.533697,8808.450710
2649.431874,-3552.988522,-1685.410096,9178.553681
2649.432189,-3775.050304,-1532.190996,8808.450710
2649.432503,-2368.659014,-995.924147,10214.842000
2649.432817,-3330.926739,0.000000,9622.677246
2649.433132,-2664.741391,-1225.752797,8068.244768
2649.433446,-1924.535449,-306.438199,7254.018232
2649.433760,-444.123565,459.657299,8808.450710
2649.434074,74.020594,766.095498,9400.615463
2649.434389,222.061783,153.219100,9770.718434
2649.434703,1998.556043,1838.629195,10510.924376
2649.435017,2590.720797,1991.848295,10955.047942
2649.435332,2442.679609,919.314598,9992.780217
2649.435646,1332.370696,459.657299,9844.739029
2649.435960,1480.411884,1302.362347,10807.006753
2649.436275,1998.556043,1532.190996,11473.192101
2649.436589,518.144159,-383.047749,9696.697840
2649.436903,-962.267725,383.047749,9326.594869
2649.437217,-1110.308913,383.047749,9844.739029
2649.437532,-740.205942,919.314598,10066.800811
2649.437846,-962.267725,76.609550,9770.718434
2649.438160,-3182.885551,383.047749,7698.141797
2649.438475,-3108.864956,0.000000,7550.100608
2649.438789,-3849.070898,76.609550,7328.038826
2649.439103,-4071.132681,-1149.143247,7550.100608
2649.439417,-4293.194464,-229.828649,7328.038826
2649.439732,-3701.029710,229.828649,8734.430116
2649.440046,-3478.967927,229.828649,8216.285956
2649.440360,-3997.112087,-1149.143247,7254.018232
2649.440675,-3256.906145,76.609550,7624.121203
2649.440989,-2220.617826,612.876398,8512.368333
2649.441303,0.000000,689.485948,8808.450710
2649.441618,814.226536,229.828649,9844.739029
2649.441932,1184.329507,2068.457845,9918.759623
2649.442246,2886.803174,2221.676944,10658.965565
2649.442560,3552.988522,1455.581446,10436.903782
2649.442875,3775.050304,1302.362347,10288.862594
2649.443189,3997.112087,2451.505594,10436.903782
2649.443503,4959.379811,2451.505594,10881.027347
2649.443817,4441.235652,1838.629195,9474.636058
2649.444132,3478.967927,1915.238745,9104.533087
2649.444446,3256.906145,2451.505594,10140.821405
2649.444760,2664.741391,1915.238745,10140.821405
2649.445074,1924.535449,919.314598,9770.718434
2649.445389,518.144159,536.266849,9474.636058
2649.445703,-1554.432478,459.657299,9474.636058
2649.446017,-2368.659014,536.266849,9252.574275
2649.446331,-2442.679609,-842.705048,8438.347739
2649.446646,-3256.906145,-229.828649,8438.347739
2649.446960,-3627.009116,229.828649,8882.471304
2649.447274,-3330.926739,536.266849,8290.306550
2649.447588,-2812.782580,-766.095498,7624.121203
2649.447903,-3478.967927,-306.438199,7698.141797
2649.448217,-2812.782580,689.485948,8068.244768
2649.448531,-1554.432478,0.000000,7698.141797
2649.448845,-222.061783,153.219100,9400.615463
2649.449159,1332.370696,1838.629195,9178.553681
2649.449474,2738.761985,2757.943793,10881.027347
2649.449788,4441.235652,2834.553343,9178.553681
2649.450102,5403.503377,1378.971896,9400.615463
2649.450416,4737.318029,3524.039291,10436.903782
2649.450731,4589.276840,2911.162892,11029.068536
2649.451045,3849.070898,2298.286494,10732.986159
2649.451359,3256.906145,1378.971896,10510.924376
2649.451673,1924.535449,1838.629195,10066.800811
2649.451988,1036.288319,995.924147,10510.924376
2649.452302,-592.164754,0.000000,9770.718434
2649.452616,-2442.679609,-612.876398,9770.718434
2649.452930,-3997.112087,-1072.533697,9474.636058
2649.453245,-4737.318029,-689.485948,8734.430116
2649.453559,-4515.256246,-1532.190996,8068.244768
2649.453873,-5551.544565,-1302.362347,7994.224174
2649.454187,-5033.400406,842.705048,8956.491898
2649.454502,-4811.338623,612.876398,8438.347739
2649.454816,-5847.626942,-1608.800546,6957.935855
2649.455130,-5847.626942,-1685.410096,5403.503377
2649.455444,-4811.338623,-919.314598,7105.977043
2649.455759,-3552.988522,0.000000,9104.533087
2649.456073,-2146.597232,-1225.752797,8734.430116
2649.456387,-296.082377,229.828649,8734.430116
2649.456701,1036.288319,1838.629195,8956.491898
2649.457016,2738.761985,1532.190996,9770.718434
2649.457330,4589.276840,229.828649,11399.171507
2649.457644,4737.318029,2298.286494,11029.068536
2649.457958,6069.688724,2298.286494,11547.212695
2649.458273,6069.688724,2374.896044,9770.718434
2649.458587,5477.523971,1915.238745,10436.903782
2649.458901,4219.173869,2681.334243,9918.759623
2649.459215,4071.132681,2068.457845,10955.047942
2649.459530,2886.803174,2145.067394,10436.903782
2649.459844,814.226536,0.000000,9992.780217
2649.460158,0.000000,612.876398,8364.327145
2649.460472,-962.267725,-612.876398,8512.368333
2649.460787,-1924.535449,-612.876398,8882.471304
2649.461101,-3330.926739,-1378.971896,8734.430116
2649.461415,-3552.988522,0.000000,9326.594869
2649.461729,-2738.761985,459.657299,9400.615463
2649.462044,-3034.844362,-383.047749,8438.347739
2649.462358,-2738.761985,-842.705048,7772.162391
2649.462672,-2146.597232,229.828649,7698.141797
2649.462986,-1628.453072,995.924147,8142.265362
2649.463301,-518.144159,383.047749,7994.224174
2649.463615,666.185348,1225.752797,8216.285956
2649.463929,1924.535449,2374.896044,8660.409521
2649.464243,2590.720797,2145.067394,8882.471304
2649.464558,2812.782580,1455.581446,9918.759623
2649.464872,1850.514855,2298.286494,9326.594869
2649.465186,2442.679609,1608.800546,9918.759623
2649.465500,3552.988522,2451.505594,10436.903782
2649.465815,3108.864956,1455.581446,10214.842000
2649.466129,3256.906145,2528.115143,9844.739029
2649.466443,3478.967927,3294.210641,10732.986159
2649.466757,2886.803174,3217.601092,9992.780217
2649.467072,518.144159,1302.362347,8808.450710
2649.467386,-962.267725,1915.238745,8512.368333
2649.467700,-1702.473667,1302.362347,8808.450710
2649.468014,-2738.761985,306.438199,8734.430116
2649.468329,-4367.215058,-1072.533697,8734.430116
2649.468643,-5329.482782,0.000000,9548.656652
2649.468957,-5551.544565,-612.876398,9844.739029
2649.469271,-5625.565159,-1225.752797,8808.450710
2649.469586,-6439.791695,-1915.238745,8586.388927
2649.469900,-6661.853478,-1072.533697,8438.347739
2649.470214,-4589.276840,-995.924147,8734.430116
2649.470528,-3108.864956,-766.095498,8438.347739
2649.470843,-2294.638420,0.000000,9104.533087
2649.471157,-148.041188,1608.800546,9474.636058
2649.471471,888.247130,842.705048,9474.636058
2649.471785,2368.659014,919.314598,8216.285956
2649.472099,2590.720797,1838.629195,8808.450710
2649.472414,3552.988522,2221.676944,9548.656652
2649.472728,3997.112087,1532.190996,9622.677246
2649.473042,4071.132681,995.924147,9400.615463
2649.473356,3478.967927,1532.190996,9622.677246
2649.473671,3404.947333,995.924147,11695.253884
2649.473985,3775.050304,1532.190996,11251.130318
2649.474299,3923.091493,612.876398,10214.842000
2649.474613,1480.411884,689.485948,9844.739029
2649.474928,592.164754,0.000000,9622.677246
2649.475242,370.102971,0.000000,9178.553681
2649.475556,370.102971,-536.266849,8882.471304
2649.475870,-1184.329507,0.000000,8216.285956
2649.476185,-1702.473667,459.657299,9178.553681
2649.476499,-1332.370696,0.000000,9104.533087
2649.476813,-1480.411884,-1149.143247,8142.265362
2649.477127,-2220.617826,-919.314598,8438.347739
2649.477442,-2146.597232,-689.485948,8290.306550
2649.477756,-1776.494261,-842.705048,8882.471304
2649.478070,-1628.453072,-1225.752797,9622.677246
2649.478384,-592.164754,0.000000,9696.697840
2649.478699,0.000000,0.000000,9252.574275
2649.479013,740.205942,1072.533697,9474.636058
2649.479327,1110.308913,76.609550,9622.677246
2649.479641,1332.370696,995.924147,8586.388927
2649.479956,1480.411884,1762.019645,9474.636058
2649.480270,2072.576638,1762.019645,8734.430116
2649.480584,2146.597232,1532.190996,10214.842000
2649.480898,2368.659014,3217.601092,9696.697840
2649.481213,2368.659014,2911.162892,10214.842000
2649.481527,1110.308913,1991.848295,8586.388927
2649.481841,-592.164754,1378.971896,9400.615463
2649.482155,-444.123565,2374.896044,9622.677246
2649.482470,-740.205942,1532.190996,9622.677246
2649.482784,-2072.576638,459.657299,9326.594869
2649.483098,-3997.112087,1378.971896,8808.450710
2649.483412,-3552.988522,1149.143247,8364.327145
2649.483727,-3256.906145,612.876398,8882.471304
2649.484041,-4071.132681,-383.047749,8364.327145
2649.484355,-5255.462188,76.609550,8068.244768
2649.484669,-4737.318029,0.000000,9030.512492
2649.484984,-4589.276840,-459.657299,9030.512492
2649.485298,-4441.235652,-1149.143247,8290.306550
2649.485612,-3997.112087,0.000000,8586.388927
2649.485926,-1850.514855,536.266849,9992.780217
2649.486241,-1332.370696,612.876398,9104.533087
2649.486555,-666.185348,0.000000,9178.553681
2649.486869,-888.247130,995.924147,8586.388927
2649.487183,592.164754,536.266849,9326.594869
2649.487498,1998.556043,919.314598,9178.553681
2649.487812,3182.885551,766.095498,9992.780217
2649.488126,4515.256246,2911.162892,10066.800811
2649.488440,5477.523971,2145.067394,10955.047942
2649.488755,6217.729913,2451.505594,10436.903782
2649.489069,5181.441594,1532.190996,9918.759623
2649.489383,4367.215058,2528.115143,9622.677246
2649.489697,4071.132681,1838.629195,9770.718434
2649.490012,4145.153275,1225.752797,9400.615463
2649.490326,2294.638420,995.924147,9474.636058
2649.490640,1628.453072,1225.752797,9252.574275
2649.490954,444.123565,383.047749,9400.615463
2649.491269,-592.164754,-766.095498,8586.388927
2649.491583,-1406.391290,0.000000,8808.450710
2649.491897,-740.205942,-306.438199,8586.388927
2649.492211,-1998.556043,-306.438199,9104.533087
2649.492526,-2812.782580,-306.438199,9178.553681
2649.492840,-2368.659014,-383.047749,8216.285956
2649.493154,-2442.679609,0.000000,8216.285956
2649.493468,-2960.823768,383.047749,8734.430116
2649.493783,-2368.659014,-459.657299,8808.450710
2649.494097,-2812.782580,76.609550,8586.388927
2649.494411,-2072.576638,383.047749,8660.409521
2649.494725,-444.123565,153.219100,8438.347739
2649.495039,-592.164754,689.485948,9992.780217
2649.495354,-666.185348,1991.848295,9474.636058
2649.495668,1628.453072,1378.971896,9326.594869
2649.495982,2960.823768,2528.115143,10066.800811
2649.496296,2368.659014,2374.896044,10066.800811
2649.496611,2294.638420,2451.505594,8586.388927
2649.496925,3182.885551,2528.115143,9992.780217
2649.497239,2220.617826,2451.505594,9770.718434
2649.497553,1406.391290,1762.019645,10955.047942
2649.497868,444.123565,2221.676944,9918.759623
2649.498182,0.000000,842.705048,9474.636058
2649.498496,-444.123565,229.828649,9474.636058
2649.498810,-2738.761985,0.000000,9992.780217
2649.499125,-4515.256246,0.000000,9474.636058
2649.499439,-4515.256246,-1072.533697,8586.388927
2649.499753,-4367.215058,-1149.143247,8290.306550
2649.500067,-5107.421000,-1455.581446,8882.471304
2649.500382,-5477.523971,-1149.143247,8216.285956
2649.500696,-4441.235652,-1455.581446,9104.533087
2649.501010,-3997.112087,-1302.362347,8216.285956
2649.501324,-4441.235652,-612.876398,8512.368333
2649.501639,-3182.885551,-153.219100,8512.368333
2649.501953,-1258.350101,0.000000,8364.327145
2649.502267,-74.020594,383.047749,7698.141797
2649.502581,740.205942,306.438199,7846.182985
2649.502896,3256.906145,1225.752797,9474.636058
2649.503210,3034.844362,1915.238745,10214.842000
2649.503524,3552.988522,1072.533697,10362.883188
2649.503838,3330.926739,1302.362347,8512.368333
2649.504153,4145.153275,1072.533697,10288.862594
2649.504467,4589.276840,1915.238745,10584.944971
2649.504781,4663.297435,1225.752797,10881.027347
2649.505095,4663.297435,1838.629195,10288.862594
2649.505410,4959.379811,1608.800546,9622.677246
2649.505724,4145.153275,2298.286494,9918.759623
2649.506038,2368.659014,1532.190996,10584.944971
2649.506352,1998.556043,1532.190996,8586.388927
2649.506667,2812.782580,1302.362347,8808.450710
2649.506981,1554.432478,2298.286494,9252.574275
2649.507295,0.000000,306.438199,9918.759623
2649.507609,-2072.576638,383.047749,9326.594869
2649.507924,-2886.803174,-306.438199,9178.553681
2649.508238,-4367.215058,-1302.362347,9474.636058
2649.508552,-5255.462188,-2221.676944,8882.471304
2649.508866,-4885.359217,-459.657299,9030.512492
2649.509181,-3701.029710,-459.657299,7772.162391
2649.509495,-2368.659014,-689.485948,8734.430116
2649.509809,-2294.638420,0.000000,8142.265362
2649.510123,-666.185348,689.485948,8068.244768
2649.510438,0.000000,1608.800546,9548.656652
2649.510752,592.164754,1838.629195,9474.636058
2649.511066,370.102971,1685.410096,8882.471304
2649.511380,666.185348,2068.457845,8438.347739
2649.511695,2812.782580,1838.629195,8364.327145
2649.512009,3034.844362,1838.629195,8660.409521
2649.512323,2368.659014,2221.676944,10066.800811
2649.512637,1924.535449,1762.019645,10584.944971
2649.512952,2516.700203,1915.238745,10955.047942
2649.513266,2738.761985,1455.581446,10584.944971
2649.513580,1332.370696,1762.019645,10807.006753
2649.513894,296.082377,1149.143247,10436.903782
2649.514209,1110.308913,1302.362347,9474.636058
2649.514523,444.123565,766.095498,8808.450710
2649.514837,-1258.350101,1378.971896,9326.594869
2649.515151,-3182.885551,383.047749,9622.677246
2649.515466,-3775.050304,-229.828649,8956.491898
2649.515780,-5181.441594,-1685.410096,8808.450710
2649.516094,-6809.894666,-1762.019645,8290.306550
2649.516408,-6735.874072,-1915.238745,8142.265362
2649.516723,-4737.318029,-919.314598,8142.265362
2649.517037,-4737.318029,-1455.581446,8364.327145
2649.517351,-3404.947333,-995.924147,8956.491898
2649.517665,-3256.906145,0.000000,9104.533087
2649.517979,-740.205942,383.047749,8808.450710
2649.518294,518.144159,689.485948,8956.491898
2649.518608,2072.576638,2298.286494,9104.533087
2649.518922,3108.864956,2298.286494,8956.491898
2649.519236,4885.359217,2068.457845,8586.388927
2649.519551,5773.606348,3140.991542,8956.491898
2649.519865,5921.647536,2987.772442,9030.512492
2649.520179,6883.915261,3983.696590,10510.924376
2649.520493,6587.832884,3217.601092,10288.862594
2649.520808,5255.462188,1991.848295,9252.574275
2649.521122,3701.029710,1149.143247,9030.512492
2649.521436,2072.576638,1455.581446,8808.450710
2649.521750,2442.679609,766.095498,10807.006753
2649.522065,370.102971,612.876398,11103.089130
2649.522379,-1850.514855,-536.266849,10584.944971
2649.522693,-3034.844362,-689.485948,8956.491898
2649.523007,-4737.318029,-2987.772442,8808.450710
2649.523322,-4737.318029,-2451.505594,8142.265362
2649.523636,-4515.256246,-2298.286494,9474.636058
2649.523950,-3849.070898,-919.314598,9474.636058
2649.524264,-3034.844362,-1532.190996,8956.491898
2649.524579,-2220.617826,153.219100,7624.121203
2649.524893,-1702.473667,0.000000,9030.512492
2649.525207,-1850.514855,766.095498,8438.347739
2649.525521,-740.205942,0.000000,7994.224174
2649.525836,592.164754,919.314598,7698.141797
2649.526150,222.061783,612.876398,8364.327145
2649.526464,962.267725,1302.362347,10140.821405
2649.526778,1184.329507,842.705048,11103.089130
2649.527093,2590.720797,1532.190996,11843.295072
2649.527407,2812.782580,1762.019645,10732.986159
2649.527721,3330.926739,2221.676944,10214.842000
2649.528035,2664.741391,2145.067394,9474.636058
2649.528350,2590.720797,1915.238745,9030.512492
2649.528664,2072.576638,2221.676944,9474.636058
2649.528978,814.226536,1915.238745,9474.636058
2649.529292,-74.020594,1378.971896,8364.327145
2649.529607,-888.247130,995.924147,9400.615463
2649.529921,-2146.597232,1302.362347,9400.615463
2649.530235,-3849.070898,-229.828649,9326.594869
2649.530549,-6217.729913,-536.266849,8734.430116
2649.530864,-6439.791695,-1149.143247,7846.182985
2649.531178,-6069.688724,-1149.143247,7772.162391
2649.531492,-5847.626942,-1838.629195,8512.368333
2649.531806,-5551.544565,-1149.143247,8438.347739
2649.532121,-4367.215058,-306.438199,8586.388927
2649.532435,-2368.659014,536.266849,8142.265362
2649.532749,-1406.391290,153.219100,9104.533087
2649.533063,-370.102971,2451.505594,9252.574275
2649.533378,592.164754,1762.019645,9104.533087
2649.533692,3552.988522,2221.676944,8364.327145
2649.534006,4293.194464,1532.190996,8364.327145
2649.534320,3775.050304,2834.553343,9548.656652
2649.534635,4145.153275,2528.115143,11251.130318
2649.534949,5107.421000,1762.019645,9918.759623
2649.535263,4737.318029,1072.533697,9474.636058
2649.535577,3627.009116,2068.457845,10362.883188
2649.535892,2960.823768,1991.848295,10807.006753
2649.536206,3330.926739,1225.752797,10362.883188
2649.536520,2368.659014,383.047749,8956.491898
2649.536834,592.164754,1072.533697,10658.965565
2649.537149,0.000000,995.924147,10214.842000
2649.537463,-296.082377,-306.438199,9104.533087
2649.537777,-1702.473667,-842.705048,7254.018232
2649.538091,-2886.803174,-689.485948,7772.162391
2649.538406,-3108.864956,76.609550,8734.430116
2649.538720,-3552.988522,-1302.362347,7846.182985
2649.539034,-1924.535449,-459.657299,8290.306550
2649.539348,-1258.350101,383.047749,9252.574275
2649.539663,-148.041188,153.219100,9104.533087
2649.539977,740.205942,-229.828649,8586.388927
2649.540291,370.102971,383.047749,8660.409521
2649.540605,666.185348,459.657299,9844.739029
2649.540919,1554.432478,1149.143247,10436.903782
2649.541234,1924.535449,0.000000,10955.047942
2649.541548,1776.494261,689.485948,10288.862594
2649.541862,1776.494261,1225.752797,10732.986159
2649.542176,1850.514855,1378.971896,9992.780217
2649.542491,1924.535449,-153.219100,10955.047942
2649.542805,888.247130,1378.971896,11029.068536
2649.543119,740.205942,1532.190996,9400.615463
2649.543434,74.020594,1455.581446,8734.430116
2649.543748,-740.205942,383.047749,8586.388927
2649.544063,-1258.350101,1455.581446,9622.677246
2649.544377,-1998.556043,1455.581446,9770.718434
2649.544691,-2960.823768,383.047749,9474.636058
2649.545006,-4071.132681,0.000000,9252.574275
2649.545320,-5847.626942,-1378.971896,7846.182985
2649.545635,-6439.791695,-1762.019645,6883.915261
2649.545949,-5773.606348,-2145.067394,8290.306550
2649.546263,-5773.606348,-842.705048,9992.780217
2649.546578,-5477.523971,0.000000,10732.986159
2649.546892,-3997.112087,459.657299,9104.533087
2649.547206,-1406.391290,689.485948,7550.100608
2649.547521,-666.185348,2374.896044,7105.977043
2649.547835,222.061783,2451.505594,7772.162391
2649.548150,2220.617826,3294.210641,8216.285956
2649.548464,3182.885551,2681.334243,8660.409521
2649.548778,3256.906145,3217.601092,8882.471304
2649.549093,3404.947333,3447.429741,9770.718434
2649.549407,4959.379811,3600.648841,8364.327145
2649.549722,6513.812290,2374.896044,8512.368333
2649.550036,4145.153275,3524.039291,10140.821405
2649.550350,3627.009116,2987.772442,10288.862594
2649.550665,2812.782580,1072.533697,9326.594869
2649.550979,2368.659014,0.000000,8882.471304
2649.551293,1184.329507,766.095498,10140.821405
2649.551608,962.267725,1608.800546,12139.377449
2649.551922,740.205942,-229.828649,10881.027347
2649.552237,1036.288319,-612.876398,9104.533087
2649.552551,-74.020594,1532.190996,8882.471304
2649.552865,-888.247130,153.219100,8734.430116
2649.553180,-1184.329507,-459.657299,9622.677246
2649.553494,-1998.556043,-1302.362347,8734.430116
2649.553809,-2368.659014,-1302.362347,8586.388927
2649.554123,-2442.679609,-689.485948,10066.800811
2649.554437,-2590.720797,-1762.019645,9622.677246
2649.554752,-2516.700203,-2068.457845,9474.636058
2649.555066,-2516.700203,-1455.581446,8956.491898
2649.555380,-962.267725,-919.314598,9548.656652
2649.555695,-666.185348,-383.047749,9622.677246
2649.556009,592.164754,-229.828649,9548.656652
2649.556324,2516.700203,1685.410096,10362.883188
2649.556638,3182.885551,1532.190996,9474.636058
2649.556952,3256.906145,1302.362347,9696.697840
2649.557267,1776.494261,1991.848295,8808.450710
2649.557581,1998.556043,2451.505594,9178.553681
2649.557896,2442.679609,1608.800546,8882.471304
2649.558210,1480.411884,153.219100,7920.203579
2649.558524,0.000000,1149.143247,8364.327145
2649.558839,-1184.329507,1455.581446,9696.697840
2649.559153,-1924.535449,153.219100,9844.739029
2649.559467,-2960.823768,-1302.362347,9400.615463
2649.559782,-4737.318029,-536.266849,8882.471304
2649.560096,-5181.441594,-1455.581446,9326.594869
2649.560411,-5181.441594,-995.924147,9030.512492
2649.560725,-5181.441594,-1838.629195,8808.450710
2649.561039,-5477.523971,-919.314598,8808.450710
2649.561354,-4515.256246,229.828649,9474.636058
2649.561668,-3404.947333,229.828649,7476.080014
2649.561983,-2368.659014,-76.609550,7698.141797
2649.562297,-2368.659014,766.095498,7994.224174
2649.562611,-1332.370696,1225.752797,8586.388927
2649.562926,888.247130,995.924147,9252.574275
2649.563240,2442.679609,1225.752797,9178.553681
2649.563554,3478.967927,3294.210641,10288.862594
2649.563869,4737.318029,4136.915689,11695.253884
2649.564183,4367.215058,2604.724693,10214.842000
2649.564498,4145.153275,2451.505594,9548.656652
2649.564812,4293.194464,2757.943793,8882.471304
2649.565126,4737.318029,2757.943793,9252.574275
2649.565441,4367.215058,2911.162892,10066.800811
2649.565755,4145.153275,3370.820191,10140.821405
2649.566070,4663.297435,2528.115143,10288.862594
2649.566384,2590.720797,2681.334243,9030.512492
2649.566698,2590.720797,2451.505594,8808.450710
2649.567013,296.082377,1532.190996,7772.162391
2649.567327,-444.123565,1302.362347,8438.347739
2649.567641,-1184.329507,919.314598,7920.203579
2649.567956,-1924.535449,0.000000,8068.244768
2649.568270,-2812.782580,0.000000,8586.388927
2649.568585,-3034.844362,0.000000,9030.512492
2649.568899,-2516.700203,153.219100,10362.883188
2649.569213,-3404.947333,-1225.752797,9918.759623
2649.569528,-3701.029710,-1149.143247,9918.759623
2649.569842,-3478.967927,-1378.971896,8216.285956
2649.570157,-1776.494261,-766.095498,8882.471304
2649.570471,-888.247130,-459.657299,9326.594869
2649.570785,-222.061783,766.095498,10140.821405
2649.571100,1702.473667,1762.019645,9400.615463
2649.571414,1924.535449,0.000000,7994.224174
2649.571728,1998.556043,459.657299,9030.512492
2649.572043,1406.391290,1378.971896,9326.594869
2649.572357,2368.659014,766.095498,9474.636058
2649.572672,2442.679609,459.657299,9400.615463
2649.572986,1776.494261,689.485948,9696.697840
2649.573300,1850.514855,1915.238745,10140.821405
2649.573615,1554.432478,536.266849,10288.862594
2649.573929,444.123565,-459.657299,9918.759623
2649.574244,-1258.350101,-689.485948,9104.533087
2649.574558,-2368.659014,-612.876398,9548.656652
2649.574872,-2442.679609,-1072.533697,10066.800811
2649.575187,-2960.823768,-1608.800546,9474.636058
2649.575501,-5403.503377,-1685.410096,10288.862594
2649.575815,-5551.544565,-1072.533697,9918.759623
2649.576130,-5255.462188,-2221.676944,8660.409521
2649.576444,-5995.668130,-2604.724693,8438.347739
2649.576759,-6809.894666,-1991.848295,8290.306550
2649.577073,-6143.709319,-1302.362347,9104.533087
2649.577387,-4737.318029,-1225.752797,8660.409521
2649.577702,-3256.906145,-1762.019645,7846.182985
2649.578016,-1628.453072,612.876398,7846.182985
2649.578330,-444.123565,383.047749,9326.594869
2649.578645,2812.782580,1225.752797,8882.471304
2649.578959,4885.359217,1608.800546,9030.512492
2649.579274,4885.359217,3447.429741,9622.677246
2649.579588,5551.544565,3370.820191,9548.656652
2649.579902,5995.668130,2757.943793,8734.430116
2649.580217,6291.750507,2834.553343,9918.759623
2649.580531,5625.565159,3140.991542,10436.903782
2649.580846,5995.668130,3294.210641,10955.047942
2649.581160,5625.565159,2987.772442,9918.759623
2649.581474,2664.741391,1072.533697,9178.553681
2649.581789,666.185348,1455.581446,10510.924376
2649.582103,-592.164754,1685.410096,10214.842000
2649.582417,74.020594,919.314598,8364.327145
2649.582732,370.102971,612.876398,7772.162391
2649.583046,-1332.370696,2221.676944,9400.615463
2649.583361,-2368.659014,153.219100,9104.533087
2649.583675,-2664.741391,153.219100,8808.450710
2649.583989,-3997.112087,383.047749,9252.574275
2649.584304,-4219.173869,76.609550,9104.533087
2649.584618,-3775.050304,-383.047749,7846.182985
2649.584933,-2294.638420,0.000000,8882.471304
2649.585247,-2072.576638,1225.752797,9400.615463
2649.585561,-1110.308913,1378.971896,9696.697840
2649.585876,370.102971,2145.067394,9252.574275
2649.586190,592.164754,1225.752797,8660.409521
2649.586504,666.185348,1762.019645,9474.636058
2649.586819,1480.411884,1762.019645,10066.800811
2649.587133,1406.391290,2221.676944,9104.533087
2649.587448,2220.617826,1378.971896,9474.636058
2649.587762,2738.761985,2145.067394,10066.800811
2649.588076,2664.741391,3217.601092,9992.780217
2649.588391,2664.741391,2911.162892,9030.512492
2649.588705,1924.535449,1225.752797,8586.388927
2649.589020,-148.041188,1378.971896,7772.162391
2649.589334,-1702.473667,229.828649,7994.224174
2649.589648,-2072.576638,229.828649,8290.306550
2649.589963,-3256.906145,-1378.971896,8660.409521
2649.590277,-4293.194464,-1225.752797,9030.512492
2649.590591,-3849.070898,-229.828649,9992.780217
2649.590906,-3256.906145,-383.047749,9400.615463
2649.591220,-4219.173869,-1991.848295,9474.636058
2649.591535,-4959.379811,-1915.238745,8734.430116
2649.591849,-3923.091493,-1762.019645,8882.471304
2649.592163,-2738.761985,-919.314598,11325.150913
2649.592478,-2368.659014,-1608.800546,11177.109724
2649.592792,-1110.308913,-612.876398,9770.718434
2649.593107,-370.102971,-229.828649,8438.347739
2649.593421,814.226536,-306.438199,9474.636058
2649.593735,74.020594,76.609550,9918.759623
2649.594050,518.144159,306.438199,8808.450710
2649.594364,2590.720797,-76.609550,7624.121203
2649.594678,2812.782580,229.828649,9400.615463
2649.594993,2294.638420,1225.752797,10584.944971
2649.595307,3404.947333,1302.362347,10584.944971
2649.595622,3997.112087,459.657299,8882.471304
2649.595936,3997.112087,536.266849,9474.636058
2649.596250,2368.659014,689.485948,8586.388927
2649.596565,3256.906145,612.876398,8734.430116
2649.596879,3330.926739,1225.752797,9770.718434
2649.597194,3552.988522,995.924147,10214.842000
2649.597508,2072.576638,919.314598,9548.656652
2649.597822,1702.473667,1685.410096,10362.883188
2649.598137,2072.576638,1378.971896,8438.347739
2649.598451,444.123565,-153.219100,9400.615463
2649.598765,-2072.576638,153.219100,9696.697840
2649.599080,-1554.432478,-612.876398,8660.409521
2649.599394,-1702.473667,-153.219100,9474.636058
2649.599709,-2960.823768,-1302.362347,9326.594869
2649.600023,-3849.070898,-153.219100,9474.636058
2649.600337,-3552.988522,-306.438199,8660.409521
2649.600652,-3330.926739,0.000000,8808.450710
2649.600966,-3330.926739,0.000000,9474.636058
2649.601281,-3256.906145,306.438199,7772.162391
2649.601595,-3034.844362,383.047749,7920.203579
2649.601909,-518.144159,1915.238745,8290.306550
2649.602224,888.247130,2374.896044,9104.533087
2649.602538,2368.659014,4519.963438,10214.842000
2649.602852,3404.947333,3830.477490,7772.162391
2649.603167,4071.132681,3753.867940,8586.388927
2649.603481,3256.906145,4290.134789,9400.615463
2649.603796,3108.864956,3447.429741,9548.656652
2649.604110,2960.823768,3600.648841,10436.903782
2649.604424,1480.411884,2834.553343,9770.718434
2649.604739,-518.144159,2068.457845,9178.553681
2649.605053,-1332.370696,1685.410096,9252.574275
2649.605368,-2590.720797,1072.533697,8956.491898
2649.605682,-2886.803174,153.219100,9326.594869
2649.605996,-4663.297435,0.000000,8438.347739
2649.606311,-5921.647536,229.828649,9548.656652
2649.606625,-5477.523971,0.000000,8290.306550
2649.606939,-4737.318029,-995.924147,8364.327145
2649.607254,-4959.379811,-229.828649,7254.018232
2649.607568,-4367.215058,-383.047749,7624.121203
2649.607883,-1998.556043,536.266849,8808.450710
2649.608197,-2146.597232,76.609550,9474.636058
2649.608511,-2516.700203,306.438199,9178.553681
2649.608826,-1184.329507,-536.266849,8512.368333
2649.609140,740.205942,0.000000,9104.533087
2649.609454,2294.638420,-229.828649,9252.574275
2649.609769,2886.803174,0.000000,9622.677246
2649.610083,3182.885551,0.000000,11177.109724
2649.610398,3627.009116,612.876398,11621.233289
2649.610712,5181.441594,689.485948,10732.986159
2649.611026,4811.338623,919.314598,10288.862594
2649.611341,5329.482782,1225.752797,9326.594869
2649.611655,6069.688724,1149.143247,8956.491898
2649.611970,5551.544565,1455.581446,9622.677246
2649.612284,3330.926739,842.705048,11325.150913
2649.612598,2738.761985,-153.219100,8956.491898
2649.612913,2220.617826,0.000000,9474.636058
2649.613227,0.000000,76.609550,8956.491898
2649.613541,-666.185348,-1378.971896,9400.615463
2649.613856,-1998.556043,-919.314598,9030.512492
2649.614170,-2886.803174,-1991.848295,8364.327145
2649.614485,-4219.173869,-2911.162892,8068.244768
2649.614799,-3849.070898,-2987.772442,9548.656652
2649.615113,-3775.050304,-919.314598,10584.944971
2649.615428,-3256.906145,-1302.362347,11029.068536
2649.615742,-3034.844362,-536.266849,10584.944971
2649.616057,-2368.659014,0.000000,8734.430116
2649.616371,-444.123565,229.828649,6809.894666
2649.616685,740.205942,1455.581446,8364.327145
2649.617000,148.041188,1991.848295,8882.471304
2649.617314,888.247130,2221.676944,9474.636058
2649.617628,2294.638420,3447.429741,9844.739029
2649.617943,2072.576638,2221.676944,8956.491898
2649.618257,740.205942,1302.362347,7105.977043
2649.618572,1184.329507,2298.286494,7772.162391
2649.618886,1406.391290,2911.162892,9622.677246
2649.619200,444.123565,1838.629195,9474.636058
2649.619515,-296.082377,1532.190996,9400.615463
2649.619829,-2072.576638,1915.238745,9548.656652
2649.620144,-1850.514855,1685.410096,9474.636058
2649.620458,-1406.391290,229.828649,9252.574275
2649.620772,-1480.411884,1378.971896,9104.533087
2649.621087,-2294.638420,1378.971896,9992.780217
2649.621401,-2738.761985,1225.752797,10140.821405
2649.621715,-2738.761985,383.047749,9178.553681
2649.622030,-3404.947333,612.876398,8068.244768
2649.622344,-3330.926739,919.314598,8364.327145
2649.622659,-2368.659014,1072.533697,9252.574275
2649.622973,-2516.700203,612.876398,9918.759623
2649.623287,-2294.638420,0.000000,9696.697840
2649.623602,-2220.617826,-306.438199,8364.327145
2649.623916,-1924.535449,153.219100,8734.430116
2649.624231,-888.247130,995.924147,8956.491898
2649.624545,518.144159,1378.971896,9844.739029
2649.624859,1184.329507,1608.800546,9178.553681
2649.625174,1554.432478,766.095498,8586.388927
2649.625488,1406.391290,1455.581446,8068.244768
2649.625802,3256.906145,1149.143247,8808.450710
2649.626117,3552.988522,2451.505594,8882.471304
2649.626431,4589.276840,1455.581446,9844.739029
2649.626746,3478.967927,1838.629195,9844.739029
2649.627060,3182.885551,1072.533697,10066.800811
2649.627374,2886.803174,995.924147,9178.553681
2649.627689,2590.720797,383.047749,9326.594869
2649.628003,1554.432478,459.657299,9548.656652
2649.628318,-222.061783,0.000000,9400.615463
2649.628632,-1184.329507,-1302.362347,9474.636058
2649.628946,-2812.782580,-2834.553343,8956.491898
2649.629261,-3404.947333,-1991.848295,10362.883188
2649.629575,-3478.967927,-2221.676944,10140.821405
2649.629889,-3034.844362,-2145.067394,10214.842000
2649.630204,-2886.803174,-1685.410096,9326.594869
2649.630518,-3108.864956,-459.657299,8956.491898
2649.630833,-1702.473667,536.266849,8586.388927
2649.631147,74.020594,-612.876398,6587.832884
2649.631461,740.205942,0.000000,7254.018232
2649.631776,1184.329507,1991.848295,10288.862594
2649.632090,1850.514855,2374.896044,11547.212695
2649.632405,2442.679609,766.095498,10140.821405
2649.632719,2516.700203,459.657299,7698.141797
2649.633033,2368.659014,1685.410096,8660.409521
2649.633348,1258.350101,1455.581446,9844.739029
2649.633662,2442.679609,1149.143247,10510.924376
2649.633976,3330.926739,1762.019645,9400.615463
2649.634291,1702.473667,2221.676944,9992.780217
2649.634605,1850.514855,2757.943793,9252.574275
2649.634920,296.082377,995.924147,9178.553681
2649.635234,-444.123565,1915.238745,8808.450710
2649.635548,-962.267725,1685.410096,8660.409521
2649.635863,-666.185348,1762.019645,8808.450710
2649.636177,-1702.473667,842.705048,8882.471304
2649.636492,-2738.761985,842.705048,8882.471304
2649.636806,-4145.153275,383.047749,9178.553681
2649.637120,-4663.297435,0.000000,8216.285956
2649.637435,-4663.297435,-536.266849,10066.800811
2649.637749,-5033.400406,0.000000,8364.327145
2649.638063,-3478.967927,-306.438199,8364.327145
2649.638378,-3034.844362,612.876398,8808.450710
2649.638692,-2812.782580,0.000000,9030.512492
2649.639007,-962.267725,1149.143247,9326.594869
2649.639321,1184.329507,2221.676944,9548.656652
2649.639635,1998.556043,2987.772442,10807.006753
2649.639950,1554.432478,2528.115143,9770.718434
2649.640264,1406.391290,1991.848295,8586.388927
2649.640579,2516.700203,2221.676944,6957.935855
2649.640893,3404.947333,1455.581446,7476.080014
2649.641207,2590.720797,2221.676944,10362.883188
2649.641522,2664.741391,2834.553343,11843.295072
2649.641836,2590.720797,1532.190996,9252.574275
2649.642150,2442.679609,306.438199,8438.347739
2649.642465,1258.350101,459.657299,7476.080014
2649.642779,148.041188,766.095498,9400.615463
2649.643094,1702.473667,1225.752797,9844.739029
2649.643408,1628.453072,76.609550,9918.759623
2649.643722,-592.164754,0.000000,9400.615463
2649.644037,-1332.370696,-153.219100,9844.739029
2649.644351,-1332.370696,-612.876398,8586.388927
2649.644665,-1406.391290,-1225.752797,9844.739029
2649.644980,-2146.597232,-536.266849,9474.636058
2649.645294,-2368.659014,-1072.533697,9696.697840
2649.645609,-2368.659014,-1225.752797,8290.306550
2649.645923,-296.082377,-919.314598,7698.141797
2649.646237,-888.247130,0.000000,9548.656652
2649.646552,0.000000,76.609550,11177.109724
2649.646866,-296.082377,766.095498,9548.656652
2649.647180,2072.576638,689.485948,8586.388927
2649.647495,1924.535449,459.657299,8660.409521
2649.647809,1776.494261,153.219100,7920.203579
2649.648124,2664.741391,842.705048,9918.759623
2649.648438,2516.700203,1685.410096,9400.615463
2649.648752,3552.988522,1608.800546,11177.109724
2649.649067,2590.720797,1838.629195,9548.656652
2649.649381,1998.556043,1838.629195,9252.574275
2649.649695,2220.617826,689.485948,8512.368333
2649.650010,518.144159,689.485948,10362.883188
2649.650324,-1036.288319,919.314598,11029.068536
2649.650639,-1850.514855,0.000000,9474.636058
2649.650953,-2664.741391,-76.609550,9252.574275
2649.651267,-3404.947333,-689.485948,9622.677246
2649.651582,-4737.318029,-766.095498,9622.677246
2649.651896,-5329.482782,-459.657299,9474.636058
2649.652210,-5551.544565,-995.924147,9400.615463
2649.652525,-4885.359217,-76.609550,9474.636058
2649.652839,-4441.235652,0.000000,8586.388927
2649.653154,-3552.988522,-842.705048,6957.935855
2649.653468,-2294.638420,459.657299,6513.812290
2649.653782,-1184.329507,1378.971896,9548.656652
2649.654097,-370.102971,2681.334243,9696.697840
2649.654411,-222.061783,1225.752797,8808.450710
2649.654725,296.082377,1149.143247,7328.038826
2649.655040,1554.432478,1225.752797,8290.306550
2649.655354,1480.411884,1685.410096,9474.636058
2649.655669,1776.494261,689.485948,10066.800811
2649.655983,2146.597232,1685.410096,9770.718434
2649.656297,2442.679609,2757.943793,10510.924376
2649.656612,3034.844362,1532.190996,9696.697840
2649.656926,3034.844362,1991.848295,9326.594869
2649.657240,3108.864956,3140.991542,9474.636058
2649.657555,2738.761985,2298.286494,10066.800811
2649.657869,2220.617826,1302.362347,10214.842000
2649.658184,740.205942,383.047749,8290.306550
2649.658498,-222.061783,1149.143247,9178.553681
2649.658812,-370.102971,2068.457845,9622.677246
2649.659127,-962.267725,689.485948,9326.594869
2649.659441,-1406.391290,229.828649,8808.450710
2649.659755,-1628.453072,76.609550,7920.203579
2649.660070,-1110.308913,-536.266849,7846.182985
2649.660384,-2220.617826,-1378.971896,9030.512492
2649.660699,-1702.473667,-536.266849,9770.718434
2649.661013,-444.123565,612.876398,10732.986159
2649.661327,962.267725,1455.581446,9474.636058
2649.661642,1406.391290,612.876398,8290.306550
2649.661956,1110.308913,995.924147,8216.285956
2649.662270,2664.741391,2221.676944,8290.306550
2649.662585,4515.256246,2374.896044,9104.533087
2649.662899,4145.153275,1915.238745,9326.594869
2649.663213,2368.659014,2068.457845,9178.553681
2649.663528,2294.638420,1915.238745,9178.553681
2649.663842,2220.617826,842.705048,9252.574275
2649.664157,2442.679609,766.095498,10436.903782
2649.664471,370.102971,1378.971896,10362.883188
2649.664785,-888.247130,306.438199,9474.636058
2649.665100,-1110.308913,-229.828649,8808.450710
2649.665414,-2516.700203,-306.438199,9474.636058
2649.665728,-3923.091493,0.000000,10436.903782
2649.666043,-3701.029710,-383.047749,10881.027347
2649.666357,-3627.009116,153.219100,9992.780217
2649.666672,-3701.029710,-995.924147,9770.718434
2649.666986,-5995.668130,-1072.533697,8364.327145
2649.667300,-6217.729913,-1072.533697,7846.182985
2649.667615,-5181.441594,-689.485948,8216.285956
2649.667929,-5033.400406,-919.314598,9178.553681
2649.668243,-5329.482782,-536.266849,10288.862594
2649.668558,-5181.441594,-459.657299,8142.265362
2649.668872,-3923.091493,-1455.581446,7476.080014
2649.669187,-1850.514855,-229.828649,9178.553681
2649.669501,0.000000,1149.143247,10066.800811
2649.669815,1628.453072,1608.800546,10066.800811
2649.670130,1998.556043,1149.143247,9474.636058
2649.670444,2812.782580,2145.067394,8438.347739
2649.670758,4071.132681,2681.334243,9474.636058
2649.671073,4885.359217,2911.162892,8882.471304
2649.671387,5551.544565,2604.724693,8882.471304
2649.671702,4663.297435,2604.724693,9918.759623
2649.672016,3701.029710,1991.848295,10436.903782
2649.672330,2812.782580,766.095498,9992.780217
2649.672645,2368.659014,-306.438199,8956.491898
2649.672959,1554.432478,612.876398,9178.553681
2649.673273,1184.329507,612.876398,10362.883188
2649.673588,1110.308913,689.485948,10510.924376
2649.673902,0.000000,0.000000,9178.553681
2649.674217,-1184.329507,-153.219100,8438.347739
2649.674531,-1184.329507,-229.828649,8438.347739
2649.674845,-1332.370696,-459.657299,9104.533087
2649.675160,-1332.370696,-306.438199,8882.471304
2649.675474,-1110.308913,995.924147,9400.615463
2649.675788,-1184.329507,689.485948,8808.450710
2649.676103,-296.082377,0.000000,7624.121203
2649.676417,148.041188,842.705048,8290.306550
2649.676732,148.041188,1762.019645,9326.594869
2649.677046,1110.308913,1838.629195,10362.883188
2649.677360,2294.638420,1302.362347,9400.615463
2649.677675,2812.782580,1455.581446,9326.594869
2649.677989,2368.659014,2528.115143,10362.883188
2649.678303,2812.782580,2834.553343,10288.862594
2649.678618,2590.720797,1762.019645,10362.883188
2649.678932,1480.411884,1991.848295,9548.656652
2649.679247,1924.535449,1762.019645,9548.656652
2649.679561,370.102971,2298.286494,10140.821405
2649.679875,0.000000,1378.971896,9178.553681
2649.680190,-370.102971,689.485948,8364.327145
2649.680504,-1776.494261,1532.190996,9326.594869
2649.680818,-2368.659014,1762.019645,9326.594869
2649.681133,-3182.885551,459.657299,9252.574275
2649.681447,-4737.318029,306.438199,8956.491898
2649.681762,-4367.215058,76.609550,8808.450710
2649.682076,-3849.070898,0.000000,8512.368333
2649.682390,-4811.338623,-919.314598,8882.471304
2649.682705,-5403.503377,-689.485948,8586.388927
2649.683019,-4663.297435,0.000000,8290.306550
2649.683333,-3627.009116,76.609550,9326.594869
2649.683648,-3478.967927,-919.314598,9696.697840
2649.683962,-2442.679609,-383.047749,8290.306550
2649.684277,-1406.391290,0.000000,8364.327145
2649.684591,444.123565,919.314598,9622.677246
2649.684905,1258.350101,536.266849,9400.615463
2649.685220,962.267725,1838.629195,10214.842000
2649.685534,2072.576638,459.657299,8586.388927
2649.685848,2294.638420,-383.047749,7772.162391
2649.686163,1998.556043,459.657299,9622.677246
2649.686477,1628.453072,689.485948,10140.821405
2649.686792,1850.514855,0.000000,9474.636058
2649.687106,2516.700203,-766.095498,8956.491898
2649.687420,1776.494261,689.485948,9992.780217
2649.687735,2072.576638,1762.019645,10362.883188
2649.688049,2442.679609,919.314598,10436.903782
2649.688363,2442.679609,766.095498,9474.636058
2649.688678,1702.473667,229.828649,8512.368333
2649.688992,814.226536,229.828649,9326.594869
2649.689307,0.000000,-306.438199,9326.594869
2649.689621,-444.123565,-842.705048,8882.471304
2649.689935,-1036.288319,153.219100,10066.800811
2649.690250,-888.247130,0.000000,10955.047942
2649.690564,-666.185348,-689.485948,9252.574275
2649.690878,-1924.535449,-1225.752797,7994.224174
2649.691193,-1702.473667,-842.705048,7772.162391
2649.691507,-518.144159,-383.047749,9400.615463
2649.691821,444.123565,1149.143247,10288.862594
2649.692136,1110.308913,995.924147,10584.944971
2649.692450,1258.350101,1915.238745,9770.718434
2649.692765,1332.370696,2068.457845,9400.615463
2649.693079,1998.556043,1838.629195,8068.244768
2649.693393,1480.411884,1455.581446,8882.471304
2649.693708,1036.288319,2221.676944,9400.615463
2649.694022,962.267725,1915.238745,9770.718434
2649.694336,1480.411884,2451.505594,9622.677246
2649.694651,1258.350101,1608.800546,8586.388927
2649.694965,814.226536,2604.724693,8734.430116
2649.695280,444.123565,2451.505594,9252.574275
2649.695594,-444.123565,1302.362347,8808.450710
2649.695908,-2146.597232,76.609550,8586.388927
2649.696223,-2738.761985,76.609550,8216.285956
2649.696537,-3256.906145,536.266849,9252.574275
2649.696851,-3478.967927,0.000000,10584.944971
2649.697166,-3404.947333,-919.314598,10436.903782
2649.697480,-4071.132681,919.314598,10288.862594
2649.697795,-3182.885551,1149.143247,8660.409521
2649.698109,-2664.741391,0.000000,8216.285956
2649.698423,-3997.112087,0.000000,7476.080014
2649.698738,-3256.906145,689.485948,8290.306550
2649.699052,-1998.556043,1225.752797,9474.636058
2649.699366,-1110.308913,766.095498,9030.512492
2649.699681,-148.041188,766.095498,8438.347739
2649.699995,370.102971,1762.019645,8808.450710
2649.700310,518.144159,1685.410096,9474.636058
2649.700624,0.000000,689.485948,10066.800811
2649.700938,-1406.391290,459.657299,9252.574275
2649.701253,-740.205942,0.000000,8438.347739
2649.701567,814.226536,536.266849,9326.594869
2649.701881,2368.659014,0.000000,9178.553681
2649.702196,2368.659014,229.828649,10066.800811
2649.702510,2368.659014,1455.581446,9992.780217
2649.702825,3256.906145,1762.019645,9326.594869
2649.703139,4219.173869,1072.533697,9252.574275
2649.703453,3256.906145,1302.362347,8882.471304
2649.703768,3701.029710,1302.362347,8290.306550
2649.704082,3849.070898,1455.581446,9104.533087
2649.704396,2886.803174,1532.190996,11029.068536
2649.704711,1628.453072,995.924147,11177.109724
2649.705025,74.020594,-383.047749,9622.677246
2649.705340,-814.226536,-1455.581446,8734.430116
2649.705654,-2664.741391,-2221.676944,8882.471304
2649.705968,-3775.050304,-1685.410096,8956.491898
2649.706283,-3478.967927,-2068.457845,9178.553681
2649.706597,-2442.679609,-1532.190996,8364.327145
2649.706911,-1406.391290,-919.314598,8586.388927
2649.707226,-370.102971,-229.828649,9400.615463
2649.707540,370.102971,1302.362347,9252.574275
2649.707855,1628.453072,1378.971896,10066.800811
2649.708169,1924.535449,2068.457845,9844.739029
2649.708483,3108.864956,2681.334243,8956.491898
2649.708798,2072.576638,2145.067394,8512.368333
2649.709112,2072.576638,1225.752797,8660.409521
2649.709426,370.102971,689.485948,7994.224174
2649.709741,1554.432478,1915.238745,11547.212695
2649.710055,296.082377,1455.581446,11621.233289
2649.710370,-1480.411884,-536.266849,9918.759623
2649.710684,-2812.782580,0.000000,8734.430116
2649.710998,-2886.803174,76.609550,8290.306550
2649.711313,-1332.370696,76.609550,9844.739029
2649.711627,-1924.535449,995.924147,9622.677246
2649.711941,-2146.597232,2528.115143,9474.636058
2649.712256,-1110.308913,1915.238745,9326.594869
2649.712570,-1628.453072,1455.581446,8512.368333
2649.712885,-2886.803174,919.314598,7994.224174
2649.713199,-4367.215058,842.705048,7402.059420
2649.713513,-3182.885551,612.876398,8142.265362
2649.713828,-3034.844362,459.657299,7550.100608
2649.714142,-3997.112087,-306.438199,7994.224174
2649.714456,-4145.153275,76.609550,7920.203579
2649.714771,-3404.947333,153.219100,7698.141797
2649.715085,-1554.432478,-229.828649,9104.533087
2649.715400,-1036.288319,383.047749,10732.986159
2649.715714,-296.082377,919.314598,10066.800811
2649.716028,1480.411884,1072.533697,9178.553681
2649.716343,3404.947333,842.705048,9770.718434
2649.716657,3923.091493,2298.286494,10584.944971
2649.716971,5551.544565,3140.991542,10881.027347
2649.717286,6143.709319,3753.867940,10436.903782
2649.717600,5773.606348,2451.505594,10140.821405
2649.717915,4219.173869,1762.019645,9474.636058
2649.718229,4071.132681,1378.971896,9400.615463
2649.718543,2516.700203,842.705048,9770.718434
2649.718858,1110.308913,-459.657299,9770.718434
2649.719172,666.185348,-689.485948,9548.656652
2649.719486,0.000000,-383.047749,11177.109724
2649.719801,-1406.391290,-612.876398,10362.883188
2649.720115,-2072.576638,-2068.457845,9474.636058
2649.720429,-4145.153275,-1302.362347,9844.739029
2649.720744,-3108.864956,-919.314598,9474.636058
2649.721058,-2442.679609,-1225.752797,8734.430116
2649.721373,-2590.720797,-1762.019645,8068.244768
2649.721687,-2516.700203,0.000000,8142.265362
2649.722001,-962.267725,1225.752797,8216.285956
2649.722316,1184.329507,1225.752797,7994.224174
2649.722630,518.144159,842.705048,6513.812290
2649.722944,1036.288319,1378.971896,6735.874072
2649.723259,518.144159,842.705048,7550.100608
2649.723573,1406.391290,689.485948,9326.594869
2649.723888,1776.494261,1532.190996,10214.842000
2649.724202,2146.597232,1455.581446,11251.130318
2649.724516,2146.597232,842.705048,10955.047942
2649.724831,2590.720797,689.485948,9992.780217
2649.725145,1702.473667,1149.143247,11103.089130
2649.725459,888.247130,995.924147,11029.068536
2649.725774,1332.370696,1532.190996,8882.471304
2649.726088,2294.638420,1608.800546,8586.388927
2649.726403,740.205942,2145.067394,9844.739029
2649.726717,-592.164754,1608.800546,10881.027347
2649.727031,-1184.329507,1991.848295,10510.924376
2649.727346,-2146.597232,306.438199,8586.388927
2649.727660,-3775.050304,-919.314598,7698.141797
2649.727974,-4663.297435,0.000000,9178.553681
2649.728289,-5551.544565,842.705048,9178.553681
2649.728603,-6143.709319,-536.266849,8882.471304
2649.728918,-5995.668130,-1378.971896,7179.997637
2649.729232,-4737.318029,459.657299,8586.388927
2649.729546,-3701.029710,842.705048,9030.512492
2649.729861,-2516.700203,0.000000,9696.697840
2649.730175,-3108.864956,306.438199,8438.347739
2649.730489,-1924.535449,842.705048,6809.894666
2649.730804,0.000000,612.876398,7550.100608
2649.731118,1036.288319,536.266849,9104.533087
2649.731433,1776.494261,1991.848295,10140.821405
2649.731747,2738.761985,1685.410096,9622.677246
2649.732061,4441.235652,1455.581446,9104.533087
2649.732376,4219.173869,1685.410096,9326.594869
2649.732690,3775.050304,2451.505594,9622.677246
2649.733004,3997.112087,2068.457845,9474.636058
2649.733319,4219.173869,2068.457845,10436.903782
2649.733633,3478.967927,1685.410096,10881.027347
2649.733948,1702.473667,1072.533697,10807.006753
2649.734262,814.226536,459.657299,9252.574275
2649.734576,1110.308913,-842.705048,9030.512492
2649.734891,-1406.391290,-1225.752797,10066.800811
2649.735205,-3552.988522,-1532.190996,10658.965565
2649.735519,-4737.318029,-1532.190996,10436.903782
2649.735834,-4515.256246,-2757.943793,8882.471304
2649.736148,-3256.906145,-2221.676944,8142.265362
2649.736463,-2294.638420,-919.314598,9400.615463
2649.736777,-1480.411884,229.828649,9992.780217
2649.737091,-666.185348,-229.828649,9548.656652
2649.737406,222.061783,919.314598,9104.533087
2649.737720,1258.350101,1455.581446,7994.224174
2649.738034,2590.720797,1762.019645,8808.450710
2649.738349,3552.988522,2681.334243,9696.697840
2649.738663,4219.173869,2604.724693,9622.677246
2649.738978,3478.967927,2451.505594,10214.842000
2649.739292,2738.761985,2145.067394,8068.244768
2649.739606,2072.576638,1532.190996,7994.224174
2649.739921,740.205942,1915.238745,8142.265362
2649.740235,1554.432478,1378.971896,8956.491898
2649.740549,1332.370696,1378.971896,10288.862594
2649.740864,1184.329507,1532.190996,10288.862594
2649.741178,222.061783,1685.410096,9400.615463
2649.741493,-296.082377,1915.238745,9030.512492
2649.741807,-740.205942,1915.238745,9474.636058
2649.742121,-1332.370696,1915.238745,9548.656652
2649.742436,-2368.659014,1991.848295,8364.327145
2649.742750,-2664.741391,1532.190996,6957.935855
2649.743064,-2590.720797,1838.629195,7698.141797
2649.743379,-2738.761985,306.438199,7550.100608
2649.743693,-2812.782580,1608.800546,9474.636058
2649.744007,-2294.638420,1762.019645,9696.697840
2649.744322,-2368.659014,689.485948,9844.739029
2649.744636,-1702.473667,1302.362347,10807.006753
2649.744950,-2220.617826,1685.410096,10066.800811
2649.745265,-1184.329507,689.485948,9030.512492
2649.745579,740.205942,1072.533697,9104.533087
2649.745893,1184.329507,2298.286494,9326.594869
2649.746208,1554.432478,2987.772442,10881.027347
2649.746522,1480.411884,2451.505594,9548.656652
2649.746836,2220.617826,2145.067394,8808.450710
2649.747151,1702.473667,2298.286494,7624.121203
2649.747465,1998.556043,1915.238745,8290.306550
2649.747779,2664.741391,2451.505594,8808.450710
2649.748094,2146.597232,1302.362347,7476.080014
2649.748408,888.247130,995.924147,8068.244768
2649.748722,222.061783,612.876398,8956.491898
2649.749037,-666.185348,153.219100,8734.430116
2649.749351,-1850.514855,-689.485948,9104.533087
2649.749665,-2294.638420,-1225.752797,10140.821405
2649.749980,-1702.473667,-1455.581446,11103.089130
2649.750294,-1702.473667,-1762.019645,10288.862594
2649.750608,-2072.576638,-3064.381992,8216.285956
2649.750923,-3034.844362,-2757.943793,8290.306550
2649.751237,-4071.132681,-2451.505594,9326.594869
2649.751551,-3701.029710,-2451.505594,10066.800811
2649.751866,-2368.659014,-2987.772442,9326.594869
2649.752180,0.000000,-3064.381992,7624.121203
2649.752494,148.041188,-2221.676944,9326.594869
2649.752809,888.247130,-1608.800546,11843.295072
2649.753123,740.205942,-1378.971896,10955.047942
2649.753437,1776.494261,-1149.143247,11621.233289
2649.753752,2664.741391,0.000000,9770.718434
2649.754066,3627.009116,0.000000,9474.636058
2649.754380,3108.864956,306.438199,9252.574275
2649.754695,4219.173869,76.609550,10732.986159
2649.755009,3627.009116,1455.581446,10955.047942
2649.755323,3478.967927,153.219100,10214.842000
2649.755637,2516.700203,0.000000,9400.615463
2649.755952,1258.350101,383.047749,10288.862594
2649.756266,222.061783,1072.533697,11325.150913
2649.756580,-518.144159,459.657299,10436.903782
2649.756895,-2442.679609,383.047749,8216.285956
2649.757209,-2072.576638,689.485948,6365.771101
2649.757523,-2590.720797,536.266849,6883.915261
2649.757838,-3182.885551,0.000000,7772.162391
2649.758152,-3627.009116,1915.238745,8956.491898
2649.758466,-3034.844362,1991.848295,8882.471304
2649.758781,-3478.967927,2374.896044,8882.471304
2649.759095,-3775.050304,1378.971896,7402.059420
2649.759409,-3775.050304,2451.505594,7179.997637
2649.759724,-3330.926739,1532.190996,6661.853478
2649.760038,-2072.576638,2911.162892,8882.471304
2649.760352,-1258.350101,3064.381992,9252.574275
2649.760667,-592.164754,3140.991542,9622.677246
2649.760981,888.247130,3907.087040,9030.512492
2649.761295,2294.638420,4596.572988,9326.594869
2649.761610,3404.947333,5286.058936,10214.842000
2649.761924,4515.256246,4903.011187,9622.677246
2649.762238,4663.297435,4673.182538,8586.388927
2649.762553,4737.318029,4136.915689,9030.512492
2649.762867,3404.947333,3370.820191,9326.594869
2649.763181,2294.638420,4136.915689,10807.006753
2649.763496,2072.576638,3447.429741,10510.924376
2649.763810,1406.391290,2528.115143,9548.656652
2649.764124,-592.164754,842.705048,8808.450710
2649.764439,-1998.556043,766.095498,8586.388927
2649.764753,-3256.906145,842.705048,8216.285956
2649.765067,-2960.823768,-689.485948,8290.306550
2649.765382,-3256.906145,-766.095498,8734.430116
2649.765696,-3775.050304,-612.876398,9622.677246
2649.766010,-3701.029710,-1225.752797,9104.533087
2649.766325,-2220.617826,-1685.410096,7772.162391
2649.766639,-1702.473667,-1072.533697,7179.997637
2649.766953,-592.164754,-612.876398,7402.059420
2649.767267,444.123565,306.438199,9252.574275
2649.767582,1628.453072,-459.657299,8882.471304
2649.767896,2220.617826,-536.266849,9104.533087
2649.768210,3404.947333,-153.219100,9178.553681
2649.768525,4145.153275,-383.047749,9844.739029
2649.768839,4737.318029,-766.095498,11621.233289
2649.769153,4663.297435,-689.485948,12139.377449
2649.769468,4145.153275,-536.266849,10807.006753
2649.769782,3478.967927,-1072.533697,11177.109724
2649.770096,3775.050304,-1378.971896,10214.842000
2649.770411,2812.782580,-1225.752797,11621.233289
2649.770725,2368.659014,-536.266849,11843.295072
2649.771039,1332.370696,-1149.143247,11029.068536
2649.771354,0.000000,-1225.752797,9992.780217
2649.771668,-962.267725,-1378.971896,9622.677246
2649.771982,-2368.659014,-1532.190996,9104.533087
2649.772297,-3404.947333,-1608.800546,9178.553681
2649.772611,-4293.194464,-1762.019645,9400.615463
2649.772925,-5181.441594,-1455.581446,9474.636058
2649.773240,-6365.771101,-1149.143247,8586.388927
2649.773554,-6661.853478,-1991.848295,8290.306550
2649.773868,-7698.141797,-1838.629195,8808.450710
2649.774183,-7105.977043,-1608.800546,8364.327145
2649.774497,-7105.977043,-1149.143247,8216.285956
2649.774811,-5551.544565,-919.314598,7476.080014
2649.775126,-3923.091493,0.000000,7476.080014
2649.775440,-1776.494261,1838.629195,8438.347739
2649.775754,-592.164754,2451.505594,8512.368333
2649.776069,814.226536,2987.772442,8660.409521
2649.776383,2368.659014,3064.381992,7476.080014
2649.776697,3552.988522,3217.601092,7031.956449
2649.777012,4071.132681,4443.353888,9474.636058
2649.777326,4367.215058,3983.696590,9696.697840
2649.777640,4663.297435,3907.087040,10214.842000
2649.777955,4441.235652,4136.915689,9844.739029
2649.778269,3849.070898,3753.867940,8512.368333
2649.778583,2664.741391,2834.553343,8734.430116
2649.778897,1258.350101,1915.238745,8734.430116
2649.779212,666.185348,1302.362347,9104.533087
2649.779526,666.185348,1455.581446,10288.862594
2649.779840,518.144159,1455.581446,10288.862594
2649.780155,-222.061783,1225.752797,11177.109724
2649.780469,518.144159,1532.190996,10436.903782
2649.780783,74.020594,919.314598,9770.718434
2649.781098,-1110.308913,536.266849,9548.656652
2649.781412,-1258.350101,612.876398,9178.553681
2649.781726,-1480.411884,383.047749,8586.388927
2649.782041,-1554.432478,612.876398,8512.368333
2649.782355,-740.205942,459.657299,8660.409521
2649.782669,222.061783,1225.752797,9548.656652
2649.782984,444.123565,1915.238745,8364.327145
2649.783298,1184.329507,1608.800546,7920.203579
2649.783612,1406.391290,1685.410096,8734.430116
2649.783927,1110.308913,1378.971896,8660.409521
2649.784241,1480.411884,2298.286494,9770.718434
2649.784555,1480.411884,1455.581446,9326.594869
2649.784870,1480.411884,1302.362347,9474.636058
2649.785184,2294.638420,1915.238745,9844.739029
2649.785498,2442.679609,2145.067394,9104.533087
2649.785813,1554.432478,1455.581446,8438.347739
2649.786127,444.123565,1455.581446,7624.121203
2649.786441,148.041188,1149.143247,9030.512492
2649.786756,-740.205942,995.924147,9178.553681
2649.787070,-1628.453072,-766.095498,9178.553681
2649.787384,-2368.659014,-383.047749,9622.677246
2649.787699,-3182.885551,0.000000,10807.006753
2649.788013,-3627.009116,-459.657299,11843.295072
2649.788327,-4885.359217,-1608.800546,10436.903782
2649.788642,-5107.421000,-1685.410096,8364.327145
2649.788956,-4737.318029,-1532.190996,8660.409521
2649.789270,-4589.276840,-1455.581446,9696.697840
2649.789585,-4959.379811,-2221.676944,8882.471304
2649.789899,-4293.194464,76.609550,9326.594869
2649.790213,-3330.926739,0.000000,9474.636058
2649.790527,-2664.741391,-1149.143247,8956.491898
2649.790842,-2442.679609,-1149.143247,8142.265362
2649.791156,-1776.494261,-1072.533697,7031.956449
2649.791470,-296.082377,306.438199,8290.306550
2649.791785,1406.391290,842.705048,9252.574275
2649.792099,1480.411884,306.438199,9104.533087
2649.792413,2072.576638,1149.143247,9474.636058
2649.792728,3108.864956,1455.581446,9178.553681
2649.793042,3701.029710,1455.581446,10362.883188
2649.793356,3034.844362,153.219100,10214.842000
2649.793671,2960.823768,306.438199,9252.574275
2649.793985,3182.885551,919.314598,10140.821405
2649.794299,2294.638420,0.000000,8956.491898
2649.794614,2294.638420,0.000000,9400.615463
2649.794928,1924.535449,1072.533697,9326.594869
2649.795242,1554.432478,766.095498,8882.471304
2649.795557,1628.453072,0.000000,10362.883188
2649.795871,518.144159,0.000000,9252.574275
2649.796185,-148.041188,-153.219100,10510.924376
2649.796500,0.000000,229.828649,9918.759623
2649.796814,0.000000,0.000000,9104.533087
2649.797128,370.102971,1302.362347,10658.965565
2649.797443,74.020594,1455.581446,9992.780217
2649.797757,296.082377,1608.800546,9474.636058
2649.798071,-740.205942,306.438199,8068.244768
2649.798386,-814.226536,612.876398,8586.388927
2649.798700,666.185348,1991.848295,9548.656652
2649.799014,666.185348,1838.629195,9844.739029
2649.799329,148.041188,766.095498,8142.265362
2649.799643,74.020594,1608.800546,7994.224174
2649.799957,740.205942,3447.429741,9252.574275
2649.800272,1628.453072,3294.210641,9326.594869
2649.800586,1554.432478,2757.943793,8956.491898
2649.800900,962.267725,3140.991542,8660.409521
2649.801215,296.082377,3140.991542,8882.471304
2649.801529,740.205942,2451.505594,7698.141797
2649.801843,0.000000,1838.629195,7550.100608
2649.802157,-370.102971,3064.381992,8438.347739
2649.802472,-1332.370696,2374.896044,9400.615463
2649.802786,-2220.617826,1685.410096,9622.677246
2649.803100,-3330.926739,459.657299,8586.388927
2649.803415,-4219.173869,-689.485948,7105.977043
2649.803729,-4219.173869,229.828649,8734.430116
2649.804043,-3627.009116,0.000000,9992.780217
2649.804358,-2886.803174,0.000000,11251.130318
2649.804672,-2368.659014,536.266849,10584.944971
2649.804986,-3330.926739,153.219100,8956.491898
2649.805301,-2368.659014,-383.047749,9770.718434
2649.805615,-814.226536,0.000000,9474.636058
2649.805929,0.000000,612.876398,9178.553681
2649.806244,962.267725,1225.752797,9474.636058
2649.806558,296.082377,153.219100,9104.533087
2649.806872,592.164754,766.095498,9622.677246
2649.807187,1406.391290,612.876398,9622.677246
2649.807501,2146.597232,0.000000,11251.130318
2649.807815,1110.308913,-306.438199,9474.636058
2649.808130,1702.473667,-536.266849,9844.739029
2649.808444,1776.494261,383.047749,10140.821405
2649.808758,2368.659014,-612.876398,9548.656652
2649.809073,1332.370696,-995.924147,9400.615463
2649.809387,1406.391290,0.000000,10140.821405
2649.809701,1332.370696,153.219100,9474.636058
2649.810016,1924.535449,-459.657299,8882.471304
2649.810330,1258.350101,-689.485948,8660.409521
2649.810644,888.247130,0.000000,7846.182985
2649.810959,740.205942,-306.438199,9252.574275
2649.811273,1406.391290,-1072.533697,8660.409521
2649.811587,592.164754,-612.876398,9030.512492
2649.811902,0.000000,76.609550,10214.842000
2649.812216,148.041188,-536.266849,10214.842000
2649.812530,-148.041188,-1378.971896,8660.409521
2649.812845,-814.226536,-1149.143247,9474.636058
2649.813159,-740.205942,-153.219100,10584.944971
2649.813473,-444.123565,306.438199,10658.965565
2649.813787,0.000000,0.000000,9474.636058
2649.814102,518.144159,689.485948,9548.656652
2649.814416,740.205942,1915.238745,9548.656652
2649.814730,296.082377,1838.629195,9474.636058
2649.815045,-370.102971,842.705048,9104.533087
2649.815359,-518.144159,1225.752797,9326.594869
2649.815673,-962.267725,1378.971896,9252.574275
2649.815988,-740.205942,1532.190996,8660.409521
2649.816302,-1036.288319,1762.019645,7624.121203
2649.816616,-370.102971,2604.724693,7994.224174
2649.816931,74.020594,3447.429741,9548.656652
2649.817245,148.041188,2757.943793,9844.739029
2649.817559,-1332.370696,2298.286494,9252.574275
2649.817874,-1998.556043,2068.457845,7846.182985
2649.818188,-1554.432478,2068.457845,8660.409521
2649.818502,-1850.514855,1915.238745,9104.533087
2649.818817,-3034.844362,1762.019645,8660.409521
2649.819131,-2812.782580,1762.019645,8438.347739
2649.819445,-2368.659014,1608.800546,7402.059420
2649.819760,-1850.514855,1149.143247,8512.368333
2649.820074,-3849.070898,1378.971896,9400.615463
2649.820388,-3108.864956,612.876398,8068.244768
2649.820703,-1702.473667,1302.362347,8808.450710
2649.821017,-296.082377,1915.238745,8438.347739
2649.821331,0.000000,1455.581446,9474.636058
2649.821646,74.020594,2451.505594,9548.656652
2649.821960,1406.391290,2374.896044,9474.636058
2649.822274,1628.453072,842.705048,9992.780217
2649.822589,518.144159,1455.581446,10140.821405
2649.822903,1702.473667,689.485948,8438.347739
2649.823217,2738.761985,76.609550,9030.512492
2649.823532,2886.803174,0.000000,10214.842000
2649.823846,2368.659014,612.876398,10955.047942
2649.824160,2886.803174,1225.752797,11325.150913
2649.824475,4293.194464,766.095498,9992.780217
2649.824789,3627.009116,76.609550,10362.883188
2649.825103,2294.638420,689.485948,10214.842000
2649.825418,1998.556043,0.000000,10288.862594
2649.825732,1924.535449,153.219100,9918.759623
2649.826046,740.205942,0.000000,9252.574275
2649.826360,74.020594,-536.266849,9178.553681
2649.826675,-518.144159,0.000000,8512.368333
2649.826989,-666.185348,-766.095498,7772.162391
2649.827303,-2072.576638,-1915.238745,8660.409521
2649.827618,-2294.638420,-1838.629195,8142.265362
2649.827932,-2960.823768,-1225.752797,9474.636058
2649.828246,-1480.411884,-306.438199,9474.636058
2649.828561,-1554.432478,-1532.190996,8216.285956
2649.828875,-1924.535449,-153.219100,8438.347739
2649.829189,-814.226536,919.314598,9030.512492
2649.829504,-148.041188,306.438199,9992.780217
2649.829818,-740.205942,0.000000,9844.739029
2649.830132,-962.267725,76.609550,9178.553681
2649.830447,-1480.411884,689.485948,9030.512492
2649.830761,-296.082377,76.609550,9178.553681
2649.831075,-666.185348,-383.047749,8660.409521
2649.831390,-962.267725,612.876398,9326.594869
2649.831704,-1998.556043,0.000000,9474.636058
2649.832018,-1702.473667,-383.047749,10362.883188
2649.832333,-2442.679609,-1149.143247,9104.533087
2649.832647,-3108.864956,-1149.143247,9104.533087
2649.832961,-2886.803174,-689.485948,9696.697840
2649.833276,-2146.597232,-995.924147,9992.780217
2649.833590,-2960.823768,-689.485948,9918.759623
2649.833904,-3108.864956,-1072.533697,9622.677246
2649.834219,-2516.700203,0.000000,8660.409521
2649.834533,-1924.535449,0.000000,8142.265362
2649.834847,-2368.659014,-536.266849,7846.182985
2649.835162,-3627.009116,-842.705048,8142.265362
2649.835476,-3923.091493,0.000000,9548.656652
2649.835790,-3849.070898,-1685.410096,9622.677246
2649.836105,-3701.029710,-2528.115143,8068.244768
2649.836419,-2664.741391,-1072.533697,8734.430116
2649.836733,-1184.329507,153.219100,9326.594869
2649.837048,-444.123565,-383.047749,10066.800811
2649.837362,-1702.473667,-612.876398,9918.759623
2649.837676,-1702.473667,-1149.143247,9104.533087
2649.837990,0.000000,-153.219100,8586.388927
2649.838305,1184.329507,0.000000,8438.347739
2649.838619,1036.288319,766.095498,10288.862594
2649.838933,518.144159,383.047749,9622.677246
2649.839248,888.247130,-383.047749,7624.121203
2649.839562,1184.329507,0.000000,7920.203579
2649.839876,222.061783,-919.314598,8364.327145
2649.840191,-296.082377,-1455.581446,9030.512492
2649.840505,-592.164754,-1302.362347,9326.594869
2649.840819,0.000000,-1608.800546,10066.800811
2649.841134,-666.185348,-2451.505594,10658.965565
2649.841448,-2368.659014,-2298.286494,9992.780217
2649.841762,-2368.659014,-1915.238745,9622.677246
2649.842077,-814.226536,-1378.971896,10140.821405
2649.842391,-814.226536,-536.266849,11177.109724
2649.842705,-2886.803174,-1608.800546,9696.697840
2649.843020,-3627.009116,-2911.162892,8438.347739
2649.843334,-3701.029710,-2834.553343,7994.224174
2649.843648,-3701.029710,-2528.115143,9252.574275
2649.843963,-4589.276840,-2681.334243,9104.533087
2649.844277,-5181.441594,-2757.943793,9474.636058
2649.844588,-3849.070898,-1378.971896,9104.533087
2649.844902,-2368.659014,-2068.457845,8364.327145
2649.845216,-2146.597232,-2298.286494,8364.327145
2649.845530,-2738.761985,-1608.800546,9104.533087
2649.845845,-3182.885551,-1762.019645,10066.800811
2649.846159,-2220.617826,-2068.457845,9326.594869
2649.846473,-2442.679609,-1915.238745,9622.677246
2649.846788,-2886.803174,-1532.190996,9030.512492
2649.847102,-2368.659014,-1302.362347,8956.491898
2649.847416,-1628.453072,-1762.019645,9326.594869
2649.847730,-666.185348,-536.266849,8808.450710
2649.848045,-518.144159,-383.047749,8586.388927
2649.848359,-1554.432478,-766.095498,10066.800811
2649.848673,-2146.597232,-1608.800546,10510.924376
2649.848987,-2738.761985,-1991.848295,10436.903782
2649.849302,-3108.864956,-2451.505594,9844.739029
2649.849616,-3478.967927,-1685.410096,9918.759623
2649.849930,-3256.906145,-1532.190996,8512.368333
2649.850245,-3997.112087,-2068.457845,9918.759623
2649.850559,-4219.173869,-2528.115143,9474.636058
2649.850873,-5033.400406,-3064.381992,8438.347739
2649.851187,-4885.359217,-1838.629195,8734.430116
2649.851502,-3478.967927,-2145.067394,8438.347739
2649.851816,-2960.823768,-2068.457845,10066.800811
2649.852130,-3182.885551,-1149.143247,11325.150913
2649.852445,-3849.070898,-2528.115143,8734.430116
2649.852759,-3849.070898,-2834.553343,8290.306550
2649.853073,-3478.967927,-1608.800546,7846.182985
2649.853387,-2590.720797,-1915.238745,7846.182985
2649.853702,-1776.494261,-1302.362347,9474.636058
2649.854016,-1332.370696,-1225.752797,8216.285956
2649.854330,-518.144159,-919.314598,9104.533087
2649.854644,370.102971,-459.657299,8808.450710
2649.854959,1406.391290,459.657299,9104.533087
2649.855273,1924.535449,842.705048,11103.089130
2649.855587,1110.308913,306.438199,9844.739029
2649.855902,-370.102971,-459.657299,9548.656652
2649.856216,-2368.659014,-1149.143247,8364.327145
2649.856530,-2664.741391,-2298.286494,7920.203579
2649.856844,-2516.700203,-2298.286494,9326.594869
2649.857159,-2738.761985,-1762.019645,9844.739029
2649.857473,-2812.782580,-1532.190996,10436.903782
2649.857787,-2516.700203,-1378.971896,10362.883188
2649.858102,-2368.659014,-842.705048,10066.800811
2649.858416,-1406.391290,-919.314598,9844.739029
2649.858730,-1036.288319,-612.876398,9252.574275
2649.859044,-1258.350101,76.609550,9178.553681
2649.859359,-2220.617826,306.438199,9474.636058
2649.859673,-3330.926739,-919.314598,8364.327145
2649.859987,-3997.112087,-1378.971896,7994.224174
2649.860302,-4293.194464,-2221.676944,8068.244768
2649.860616,-4145.153275,-2451.505594,8290.306550
2649.860930,-3849.070898,-1991.848295,8808.450710
2649.861244,-3478.967927,-1915.238745,9104.533087
2649.861559,-2368.659014,-1838.629195,8512.368333
2649.861873,-1406.391290,-1149.143247,8586.388927
2649.862187,-444.123565,229.828649,9400.615463
2649.862501,148.041188,0.000000,10214.842000
2649.862816,666.185348,0.000000,10140.821405
2649.863130,592.164754,383.047749,9622.677246
2649.863444,740.205942,-153.219100,9622.677246
2649.863759,-518.144159,-536.266849,9622.677246
2649.864073,-2146.597232,-1838.629195,8512.368333
2649.864387,-2812.782580,-1915.238745,8734.430116
2649.864701,-4367.215058,-2757.943793,8956.491898
2649.865016,-5181.441594,-3907.087040,8734.430116
2649.865330,-4589.276840,-4290.134789,8216.285956
2649.865644,-4293.194464,-3217.601092,9474.636058
2649.865959,-3256.906145,-2528.115143,11473.192101
2649.866273,-2664.741391,-2221.676944,11547.212695
2649.866587,-1850.514855,-1685.410096,10362.883188
2649.866901,-148.041188,-919.314598,10362.883188
2649.867216,-370.102971,-689.485948,10214.842000
2649.867530,-1776.494261,-1455.581446,9844.739029
2649.867844,-2516.700203,-1762.019645,8734.430116
2649.868159,-2368.659014,-1991.848295,8216.285956
2649.868473,-2442.679609,-2757.943793,8364.327145
2649.868787,-4145.153275,-3447.429741,8808.450710
2649.869101,-3923.091493,-3140.991542,9030.512492
2649.869416,-2812.782580,-2451.505594,8956.491898
2649.869730,-2590.720797,-2604.724693,9474.636058
2649.870044,-2590.720797,-2451.505594,9474.636058
2649.870358,-2220.617826,-1608.800546,9696.697840
2649.870673,-740.205942,-766.095498,9770.718434
2649.870987,370.102971,0.000000,9474.636058
2649.871301,370.102971,689.485948,9696.697840
2649.871616,-666.185348,842.705048,9918.759623
2649.871930,-962.267725,229.828649,8882.471304
2649.872244,-1406.391290,-383.047749,7846.182985
2649.872558,-2146.597232,-766.095498,7254.018232
2649.872873,-3552.988522,-1302.362347,7105.977043
2649.873187,-4811.338623,-1991.848295,7772.162391
2649.873501,-5403.503377,-3140.991542,8142.265362
2649.873816,-6143.709319,-4136.915689,9326.594869
2649.874130,-5699.585753,-3447.429741,10214.842000
2649.874444,-3627.009116,-2451.505594,11029.068536
2649.874758,-1850.514855,-995.924147,11325.150913
2649.875073,0.000000,-153.219100,11621.233289
2649.875387,518.144159,383.047749,11399.171507
2649.875701,962.267725,1149.143247,10658.965565
2649.876016,962.267725,1378.971896,9030.512492
2649.876330,1258.350101,842.705048,8068.244768
2649.876644,370.102971,612.876398,8438.347739
2649.876958,-1850.514855,-612.876398,8364.327145
2649.877273,-3775.050304,-1532.190996,7402.059420
2649.877587,-4811.338623,-2757.943793,6513.812290
2649.877901,-4589.276840,-2757.943793,6957.935855
2649.878215,-3701.029710,-2221.676944,8216.285956
2649.878530,-3034.844362,-1532.190996,9844.739029
2649.878844,-2590.720797,-995.924147,10658.965565
2649.879158,-1332.370696,-612.876398,10881.027347
2649.879473,-888.247130,-536.266849,10658.965565
2649.879787,-444.123565,-459.657299,10362.883188
2649.880101,-296.082377,229.828649,10436.903782
2649.880415,-518.144159,536.266849,9252.574275
2649.880730,-814.226536,-306.438199,8364.327145
2649.881044,-1702.473667,-1072.533697,7624.121203
2649.881358,-2590.720797,-1915.238745,7698.141797
2649.881673,-2960.823768,-1915.238745,7920.203579
2649.881987,-3404.947333,-2298.286494,8290.306550
2649.882301,-3552.988522,-2528.115143,9030.512492
2649.882615,-3108.864956,-1915.238745,9696.697840
2649.882930,-2516.700203,-1378.971896,10140.821405
2649.883244,-1702.473667,-1378.971896,10658.965565
2649.883558,-1332.370696,-766.095498,11177.109724
2649.883872,-1406.391290,-536.266849,10658.965565
2649.884187,-814.226536,-229.828649,10658.965565
2649.884501,-888.247130,-229.828649,9326.594869
2649.884815,-1332.370696,-995.924147,8216.285956
2649.885130,-2146.597232,-1378.971896,7624.121203
2649.885444,-3182.885551,-1838.629195,7254.018232
2649.885758,-3701.029710,-2451.505594,7031.956449
2649.886072,-3552.988522,-2681.334243,7476.080014
2649.886387,-3182.885551,-2528.115143,8068.244768
2649.886701,-2664.741391,-2145.067394,9400.615463
2649.887015,-1924.535449,-1685.410096,10362.883188
2649.887330,-1036.288319,-842.705048,11177.109724
2649.887644,-518.144159,-306.438199,11399.171507
2649.887958,74.020594,-612.876398,11029.068536
2649.888272,222.061783,0.000000,10732.986159
2649.888587,-1110.308913,-383.047749,9548.656652
2649.888901,-2220.617826,-1149.143247,9326.594869
2649.889215,-3034.844362,-1838.629195,8290.306550
2649.889530,-4145.153275,-2528.115143,7550.100608
2649.889844,-5033.400406,-3064.381992,7254.018232
2649.890158,-5033.400406,-3217.601092,7402.059420
2649.890472,-5329.482782,-3140.991542,7254.018232
2649.890787,-4367.215058,-2528.115143,9178.553681
2649.891101,-3775.050304,-2298.286494,9548.656652
2649.891415,-2368.659014,-1762.019645,10584.944971
2649.891729,-888.247130,-766.095498,11399.171507
2649.892044,-222.061783,-766.095498,11473.192101
2649.892358,74.020594,0.000000,11251.130318
2649.892672,74.020594,-612.876398,10658.965565
2649.892987,74.020594,-383.047749,9770.718434
2649.893301,-518.144159,-919.314598,9104.533087
2649.893615,-1480.411884,-1225.752797,8142.265362
2649.893929,-1924.535449,-1991.848295,7698.141797
2649.894244,-2368.659014,-2374.896044,7994.224174
2649.894558,-2368.659014,-1915.238745,7846.182985
2649.894872,-1924.535449,-1455.581446,8512.368333
2649.895187,-1332.370696,-1225.752797,10066.800811
2649.895501,-592.164754,-1225.752797,10362.883188
2649.895815,-296.082377,-536.266849,11399.171507
2649.896129,0.000000,0.000000,11621.233289
2649.896444,296.082377,0.000000,11399.171507
2649.896758,222.061783,153.219100,10214.842000
2649.897072,0.000000,383.047749,9622.677246
2649.897387,-370.102971,842.705048,8290.306550
2649.897701,-592.164754,153.219100,7476.080014
2649.898015,-1184.329507,-383.047749,6587.832884
2649.898329,-1184.329507,-306.438199,6809.894666
2649.898644,-1628.453072,306.438199,7402.059420
2649.898958,-2072.576638,0.000000,8364.327145
2649.899272,-2220.617826,153.219100,9178.553681
2649.899586,-2146.597232,306.438199,9252.574275
2649.899901,-1924.535449,0.000000,9918.759623
2649.900215,-2294.638420,383.047749,9844.739029
2649.900529,-2442.679609,0.000000,9770.718434
2649.900844,-3182.885551,-536.266849,9548.656652
2649.901158,-3552.988522,-536.266849,8808.450710
2649.901472,-3478.967927,-1149.143247,8068.244768
2649.901786,-3552.988522,-1149.143247,8068.244768
2649.902101,-3627.009116,-1225.752797,7624.121203
2649.902415,-3701.029710,-1685.410096,8142.265362
2649.902729,-3997.112087,-1378.971896,8438.347739
2649.903044,-3923.091493,-1838.629195,8808.450710
2649.903358,-3775.050304,-2221.676944,9400.615463
2649.903672,-3849.070898,-2298.286494,10510.924376
2649.903986,-3478.967927,-2451.505594,11177.109724
2649.904301,-3849.070898,-2374.896044,11399.171507
2649.904615,-3701.029710,-2604.724693,10881.027347
2649.904929,-3627.009116,-2834.553343,10214.842000
2649.905244,-3182.885551,-3140.991542,9918.759623
2649.905558,-2886.803174,-2757.943793,9474.636058
2649.905872,-3182.885551,-2911.162892,9030.512492
2649.906186,-3256.906145,-3447.429741,8290.306550
2649.906501,-3182.885551,-3524.039291,8142.265362
2649.906815,-3552.988522,-3983.696590,8216.285956
2649.907129,-3775.050304,-4213.525239,8438.347739
2649.907443,-3923.091493,-4673.182538,9474.636058
2649.907758,-3775.050304,-4673.182538,9696.697840
2649.908072,-3330.926739,-4213.525239,9992.780217
2649.908386,-1850.514855,-3677.258390,10436.903782
2649.908701,-888.247130,-2834.553343,10584.944971
2649.909015,370.102971,-1532.190996,10436.903782
2649.909329,962.267725,-766.095498,10362.883188
2649.909643,962.267725,-1455.581446,9622.677246
2649.909958,518.144159,-1838.629195,8882.471304
2649.910272,-518.144159,-2528.115143,8438.347739
2649.910586,-1036.288319,-2757.943793,8364.327145
2649.910901,-1702.473667,-2834.553343,8512.368333
2649.911215,-1850.514855,-2681.334243,9030.512492
2649.911529,-1628.453072,-2528.115143,9252.574275
2649.911843,-1850.514855,-2681.334243,9622.677246
2649.912158,-1628.453072,-1915.238745,10140.821405
2649.912472,-962.267725,-1149.143247,9992.780217
2649.912786,-444.123565,0.000000,9918.759623
2649.913100,148.041188,612.876398,9622.677246
2649.913415,666.185348,1149.143247,9696.697840
2649.913729,666.185348,1991.848295,9474.636058
2649.914043,-296.082377,1225.752797,8438.347739
2649.914358,-1184.329507,1302.362347,8290.306550
2649.914672,-1998.556043,766.095498,7846.182985
2649.914986,-3256.906145,76.609550,7254.018232
2649.915300,-3552.988522,-306.438199,7920.203579
2649.915615,-4071.132681,-153.219100,8808.450710
2649.915929,-4737.318029,-689.485948,9400.615463
2649.916243,-4885.359217,-536.266849,9326.594869
2649.916558,-3627.009116,306.438199,9326.594869
2649.916872,-2220.617826,1455.581446,9696.697840
2649.917186,-518.144159,2987.772442,9400.615463
2649.917500,222.061783,2911.162892,9548.656652
2649.917815,-814.226536,2451.505594,9178.553681
2649.918129,-2072.576638,1991.848295,8438.347739
2649.918443,-3034.844362,689.485948,7624.121203
2649.918758,-3923.091493,153.219100,7328.038826
2649.919072,-5181.441594,-766.095498,7105.977043
2649.919386,-6217.729913,-2374.896044,7550.100608
2649.919700,-7105.977043,-2757.943793,8142.265362
2649.920015,-7031.956449,-3830.477490,7772.162391
2649.920329,-5033.400406,-3294.210641,9326.594869
2649.920643,-3256.906145,-1915.238745,10881.027347
2649.920957,-1258.350101,-689.485948,11843.295072
2649.921272,0.000000,-842.705048,12213.398043
2649.921586,666.185348,-612.876398,11251.130318
2649.921900,1258.350101,-153.219100,10584.944971
2649.922215,370.102971,-766.095498,10658.965565
2649.922529,0.000000,-1685.410096,10066.800811
2649.922843,-740.205942,-2451.505594,9030.512492
2649.923157,-1480.411884,-2757.943793,8290.306550
2649.923472,-2812.782580,-3677.258390,7846.182985
2649.923786,-3849.070898,-4443.353888,7920.203579
2649.924100,-4515.256246,-4903.011187,7920.203579
2649.924415,-3404.947333,-4749.792088,9178.553681
2649.924729,-3404.947333,-4673.182538,10436.903782
2649.925043,-3701.029710,-4519.963438,10881.027347
2649.925357,-2960.823768,-4596.572988,10807.006753
2649.925672,-1628.453072,-3830.477490,11103.089130
2649.925986,-666.185348,-3064.381992,11695.253884
2649.926300,-888.247130,-3064.381992,11325.150913
2649.926615,-888.247130,-2604.724693,8956.491898
2649.926929,0.000000,-2145.067394,7920.203579
2649.927243,0.000000,-2068.457845,7994.224174
2649.927557,-1406.391290,-2834.553343,7772.162391
2649.927872,-2368.659014,-2757.943793,7328.038826
2649.928186,-1702.473667,-2068.457845,8068.244768
2649.928500,-888.247130,-2145.067394,9548.656652
2649.928814,-1998.556043,-2451.505594,10362.883188
2649.929129,-2294.638420,-1838.629195,9548.656652
2649.929443,-1998.556043,-1532.190996,10362.883188
2649.929757,-2220.617826,-1149.143247,11621.233289
2649.930072,-1480.411884,-1378.971896,10584.944971
2649.930386,0.000000,-459.657299,9622.677246
2649.930700,-592.164754,1225.752797,9992.780217
2649.931014,-1702.473667,0.000000,9474.636058
2649.931329,-1850.514855,-995.924147,7846.182985
2649.931643,-2738.761985,-76.609550,7254.018232
2649.931957,-3701.029710,-766.095498,7105.977043
2649.932272,-3701.029710,-919.314598,7328.038826
2649.932586,-3849.070898,-1072.533697,7550.100608
2649.932900,-3923.091493,-459.657299,8882.471304
2649.933214,-3923.091493,-842.705048,9622.677246
2649.933529,-3330.926739,-995.924147,10288.862594
2649.933843,-2442.679609,153.219100,10436.903782
2649.934157,-666.185348,1072.533697,10732.986159
2649.934471,592.164754,1532.190996,10584.944971
2649.934786,-296.082377,2451.505594,10510.924376
2649.935100,-592.164754,1915.238745,9474.636058
2649.935414,-592.164754,536.266849,7994.224174
2649.935729,-2368.659014,0.000000,7105.977043
2649.936043,-4219.173869,-536.266849,6661.853478
2649.936357,-3923.091493,-1302.362347,7402.059420
2649.936671,-4367.215058,-1762.019645,9030.512492
2649.936986,-4811.338623,-2221.676944,9474.636058
2649.937300,-4589.276840,-2451.505594,8882.471304
2649.937614,-3552.988522,-1608.800546,9548.656652
2649.937929,-888.247130,-459.657299,10510.924376
2649.938243,148.041188,-459.657299,10140.821405
2649.938557,370.102971,0.000000,10807.006753
2649.938871,444.123565,612.876398,10362.883188
2649.939186,-740.205942,-229.828649,9400.615463
2649.939500,-444.123565,-1072.533697,9326.594869
2649.939814,-2146.597232,-1532.190996,8808.450710
2649.940129,-2738.761985,-2451.505594,7550.100608
2649.940443,-3182.885551,-3140.991542,8734.430116
2649.940757,-4885.359217,-3294.210641,7624.121203
2649.941071,-4515.256246,-4673.182538,6661.853478
2649.941386,-3701.029710,-3983.696590,9400.615463
2649.941700,-2442.679609,-2451.505594,11621.233289
2649.942014,-222.061783,-2221.676944,11547.212695
2649.942328,148.041188,-766.095498,13249.686362
2649.942643,-666.185348,-1378.971896,10881.027347
2649.942957,74.020594,-1838.629195,9400.615463
2649.943271,-592.164754,-842.705048,10362.883188
2649.943586,-1258.350101,-2145.067394,8734.430116
2649.943900,-2146.597232,-2221.676944,8808.450710
2649.944214,-3997.112087,-2451.505594,7550.100608
2649.944528,-3923.091493,-3753.867940,6809.894666
2649.944843,-3775.050304,-3830.477490,8068.244768
2649.945157,-3330.926739,-2604.724693,8142.265362
2649.945471,-3478.967927,-2145.067394,9474.636058
2649.945785,-3478.967927,-2145.067394,9770.718434
2649.946100,-2294.638420,-2834.553343,9104.533087
2649.946414,-2664.741391,-1608.800546,11029.068536
2649.946728,-2072.576638,-1991.848295,10140.821405
2649.947042,-1406.391290,-1302.362347,12435.459826
2649.947357,-1036.288319,536.266849,11769.274478
2649.947671,-148.041188,-689.485948,8660.409521
2649.947985,74.020594,842.705048,9844.739029
2649.948299,-1258.350101,306.438199,7476.080014
2649.948614,-1184.329507,-1225.752797,6957.935855
2649.948928,-1480.411884,76.609550,7476.080014
2649.949242,-3108.864956,-536.266849,7402.059420
2649.949556,-4219.173869,-1455.581446,8364.327145
2649.949870,-4589.276840,-2221.676944,9252.574275
2649.950185,-4515.256246,-1532.190996,9992.780217
2649.950499,-4367.215058,-1915.238745,10584.944971
2649.950813,-4367.215058,-1608.800546,11029.068536
2649.951127,-4737.318029,-995.924147,10436.903782
2649.951442,-4811.338623,-1532.190996,9474.636058
2649.951756,-2738.761985,-1149.143247,8364.327145
2649.952070,-2516.700203,-842.705048,7624.121203
2649.952384,-1406.391290,0.000000,7994.224174
2649.952699,-1480.411884,-306.438199,7476.080014
2649.953013,518.144159,612.876398,8956.491898
2649.953327,1036.288319,0.000000,8068.244768
2649.953641,740.205942,-383.047749,9104.533087
2649.953956,-740.205942,-689.485948,8660.409521
2649.954270,-666.185348,-1302.362347,8512.368333
2649.954584,-518.144159,-1762.019645,11029.068536
2649.954898,-1332.370696,-2145.067394,10881.027347
2649.955212,-2146.597232,-1915.238745,10807.006753
2649.955527,-1258.350101,-2145.067394,9844.739029
2649.955841,0.000000,-1915.238745,10955.047942
2649.956155,296.082377,-459.657299,10955.047942
2649.956469,0.000000,-995.924147,9326.594869
2649.956784,592.164754,-229.828649,8882.471304
2649.957098,740.205942,153.219100,8956.491898
2649.957412,0.000000,-153.219100,8290.306550
2649.957726,-444.123565,-919.314598,8290.306550
2649.958041,-666.185348,-383.047749,8956.491898
2649.958355,-1184.329507,-919.314598,10140.821405
2649.958669,-2664.741391,-1455.581446,11029.068536
2649.958983,-2516.700203,-1532.190996,9844.739029
2649.959298,-3256.906145,-689.485948,10140.821405
2649.959612,-1850.514855,-995.924147,9844.739029
2649.959926,-1036.288319,0.000000,10066.800811
2649.960240,-1406.391290,0.000000,9400.615463
2649.960554,-1480.411884,153.219100,8734.430116
2649.960869,-814.226536,1149.143247,9104.533087
2649.961183,0.000000,2298.286494,8734.430116
2649.961497,296.082377,1455.581446,7920.203579
2649.961811,740.205942,2451.505594,8364.327145
2649.962126,222.061783,2911.162892,8438.347739
2649.962440,-518.144159,2528.115143,8438.347739
2649.962754,-814.226536,1532.190996,7994.224174
2649.963068,-1702.473667,2068.457845,8068.244768
2649.963383,-1036.288319,2451.505594,9474.636058
2649.963697,-666.185348,2451.505594,9622.677246
2649.964011,-1184.329507,1302.362347,9252.574275
2649.964325,-1258.350101,2221.676944,8734.430116
2649.964640,-1554.432478,1608.800546,8956.491898
2649.964954,-222.061783,1225.752797,8438.347739
2649.965268,0.000000,1072.533697,7254.018232
2649.965582,740.205942,2911.162892,9178.553681
2649.965896,-148.041188,2298.286494,9844.739029
2649.966211,666.185348,2145.067394,10066.800811
2649.966525,666.185348,1685.410096,7550.100608
2649.966839,222.061783,1225.752797,8808.450710
2649.967153,370.102971,612.876398,9474.636058
2649.967468,-814.226536,-612.876398,8956.491898
2649.967782,-2368.659014,-995.924147,9770.718434
2649.968096,-2294.638420,-1608.800546,9992.780217
2649.968410,-1480.411884,-1838.629195,11103.089130
2649.968725,-1628.453072,-1838.629195,10658.965565
2649.969039,-1036.288319,-1225.752797,10658.965565
2649.969353,-1332.370696,-612.876398,11621.233289
2649.969667,-962.267725,-1302.362347,9400.615463
2649.969982,148.041188,-1762.019645,8734.430116
2649.970296,1480.411884,-306.438199,8142.265362
2649.970610,1702.473667,153.219100,9326.594869
2649.970924,1332.370696,76.609550,9178.553681
2649.971238,2442.679609,0.000000,8882.471304
2649.971553,2294.638420,842.705048,9326.594869
2649.971867,1850.514855,-383.047749,9770.718434
2649.972181,1258.350101,-689.485948,8586.388927
2649.972495,1110.308913,-459.657299,8734.430116
2649.972810,1184.329507,-536.266849,9548.656652
2649.973124,1184.329507,-1072.533697,11029.068536
2649.973438,-148.041188,-229.828649,10732.986159
2649.973752,-592.164754,-1302.362347,9770.718434
2649.974067,0.000000,-306.438199,10288.862594
2649.974381,-370.102971,306.438199,10584.944971
2649.974695,-814.226536,0.000000,8290.306550
2649.975009,-296.082377,-536.266849,8068.244768
2649.975324,-222.061783,1455.581446,10066.800811
2649.975638,-814.226536,1532.190996,10214.842000
2649.975952,-740.205942,842.705048,8808.450710
2649.976266,-740.205942,1838.629195,7698.141797
2649.976580,-666.185348,2757.943793,9474.636058
2649.976895,-222.061783,2145.067394,9030.512492
2649.977209,-888.247130,842.705048,7698.141797
2649.977523,-1480.411884,2451.505594,7994.224174
2649.977837,-962.267725,2451.505594,8956.491898
2649.978152,-740.205942,2374.896044,9844.739029
2649.978466,-296.082377,2681.334243,8956.491898
2649.978780,1036.288319,2911.162892,7550.100608
2649.979094,1184.329507,2681.334243,8808.450710
2649.979409,148.041188,3524.039291,8808.450710
2649.979723,296.082377,2757.943793,7624.121203
2649.980037,1628.453072,4060.306139,8512.368333
2649.980351,2368.659014,3907.087040,8956.491898
2649.980665,2220.617826,3983.696590,9474.636058
2649.980980,666.185348,2834.553343,9474.636058
2649.981294,0.000000,3217.601092,8660.409521
2649.981608,296.082377,1762.019645,9326.594869
2649.981922,-1332.370696,1302.362347,9030.512492
2649.982237,-2072.576638,0.000000,9474.636058
2649.982551,-1924.535449,1149.143247,9474.636058
2649.982865,-1036.288319,766.095498,11029.068536
2649.983179,-1554.432478,229.828649,9770.718434
2649.983494,-1850.514855,-383.047749,9252.574275
2649.983808,-518.144159,1225.752797,8364.327145
2649.984122,518.144159,766.095498,9696.697840
2649.984436,148.041188,153.219100,9252.574275
2649.984751,-518.144159,-689.485948,8438.347739
2649.985065,592.164754,612.876398,9104.533087
2649.985379,1036.288319,0.000000,9548.656652
2649.985693,1554.432478,-536.266849,9992.780217
2649.986007,1406.391290,0.000000,9696.697840
2649.986322,814.226536,0.000000,9992.780217
2649.986636,518.144159,-1225.752797,10140.821405
2649.986950,962.267725,-1915.238745,8364.327145
2649.987264,1406.391290,-1532.190996,8364.327145
2649.987579,1480.411884,0.000000,10807.006753
2649.987893,1480.411884,-306.438199,10362.883188
2649.988207,1332.370696,-919.314598,10362.883188
2649.988521,1036.288319,-153.219100,8290.306550
2649.988836,592.164754,-229.828649,9918.759623
2649.989150,-666.185348,-766.095498,9696.697840
2649.989464,-1184.329507,-995.924147,8882.471304
2649.989778,0.000000,76.609550,8956.491898
2649.990093,-148.041188,0.000000,9696.697840
2649.990407,-1998.556043,-689.485948,8956.491898
2649.990721,-1850.514855,-995.924147,9474.636058
2649.991035,-814.226536,153.219100,9178.553681
2649.991349,-1332.370696,-689.485948,11769.274478
2649.991664,-1628.453072,-229.828649,9844.739029
2649.991978,-1184.329507,0.000000,8956.491898
2649.992292,-1036.288319,1149.143247,9992.780217
2649.992606,-814.226536,612.876398,9770.718434
2649.992921,-1110.308913,1762.019645,8586.388927
2649.993235,-1258.350101,1991.848295,7994.224174
2649.993549,-370.102971,2298.286494,7254.018232
2649.993863,-666.185348,1991.848295,8438.347739
2649.994178,-1184.329507,1915.238745,7698.141797
2649.994492,-1850.514855,766.095498,7994.224174
2649.994806,-1480.411884,2221.676944,9696.697840
2649.995120,-740.205942,2987.772442,10066.800811
2649.995435,-148.041188,2528.115143,9474.636058
2649.995749,962.267725,1608.800546,8068.244768
2649.996063,0.000000,2451.505594,9104.533087
2649.996377,-740.205942,2604.724693,9400.615463
2649.996691,-296.082377,1072.533697,9696.697840
2649.997006,1258.350101,2757.943793,10140.821405
2649.997320,2072.576638,2757.943793,9400.615463
2649.997634,2072.576638,2374.896044,8364.327145
2649.997948,962.267725,1532.190996,8438.347739
2649.998263,888.247130,2145.067394,7772.162391
2649.998577,1110.308913,1608.800546,9844.739029
2649.998891,74.020594,995.924147,8586.388927
2649.999205,-666.185348,-229.828649,8956.491898
2649.999520,-370.102971,995.924147,9178.553681
2649.999834,1036.288319,612.876398,9918.759623
2650.000148,814.226536,306.438199,10436.903782
2650.000462,518.144159,0.000000,9400.615463
2650.000777,592.164754,689.485948,9178.553681
2650.001091,148.041188,612.876398,10214.842000
2650.001405,-592.164754,-306.438199,9622.677246
2650.001719,-296.082377,-995.924147,8956.491898
2650.002033,666.185348,229.828649,9178.553681
2650.002348,1628.453072,229.828649,9770.718434
2650.002662,1406.391290,76.609550,11251.130318
2650.002976,222.061783,612.876398,10066.800811
2650.003290,518.144159,689.485948,8364.327145
2650.003605,1036.288319,-229.828649,8808.450710
2650.003919,888.247130,76.609550,8882.471304
2650.004233,-296.082377,229.828649,9474.636058
2650.004547,0.000000,612.876398,10288.862594
2650.004862,518.144159,153.219100,9474.636058
2650.005176,296.082377,306.438199,9400.615463
2650.005490,-666.185348,612.876398,9326.594869
2650.005804,-1850.514855,-306.438199,9622.677246
2650.006119,-3552.988522,-689.485948,8512.368333
2650.006433,-2368.659014,-842.705048,7624.121203
2650.006747,-1184.329507,0.000000,8512.368333
2650.007061,-666.185348,1149.143247,9252.574275
2650.007375,-1332.370696,1072.533697,9178.553681
2650.007690,-740.205942,689.485948,9252.574275
2650.008004,-666.185348,689.485948,8364.327145
2650.008318,-1110.308913,919.314598,9474.636058
2650.008632,-1184.329507,1608.800546,8808.450710
2650.008947,-222.061783,459.657299,8364.327145
2650.009261,518.144159,1149.143247,8438.347739
2650.009575,518.144159,1838.629195,10362.883188
2650.009889,-962.267725,1455.581446,9548.656652
2650.010204,-2812.782580,-306.438199,9104.533087
2650.010518,-296.082377,76.609550,8068.244768
2650.010832,-814.226536,1072.533697,9992.780217
2650.011146,-518.144159,842.705048,9844.739029
2650.011461,-1850.514855,-766.095498,8734.430116
2650.011775,-222.061783,1072.533697,9770.718434
2650.012089,-148.041188,383.047749,10362.883188
2650.012403,-296.082377,766.095498,10732.986159
2650.012717,-2220.617826,-612.876398,8956.491898
2650.013032,-518.144159,612.876398,8364.327145
2650.013346,0.000000,306.438199,9400.615463
2650.013660,-666.185348,-459.657299,9326.594869
2650.013974,-1332.370696,-229.828649,9104.533087
2650.014289,370.102971,0.000000,8586.388927
2650.014603,2220.617826,612.876398,9844.739029
2650.014917,2368.659014,919.314598,10362.883188
2650.015231,1258.350101,995.924147,9770.718434
2650.015546,1036.288319,919.314598,9770.718434
2650.015860,666.185348,612.876398,8586.388927
2650.016174,1036.288319,-306.438199,7994.224174
2650.016488,444.123565,842.705048,8216.285956
2650.016802,592.164754,1378.971896,9622.677246
2650.017117,888.247130,383.047749,9252.574275
2650.017431,666.185348,-842.705048,9104.533087
2650.017745,0.000000,-306.438199,8586.388927
2650.018059,74.020594,383.047749,10362.883188
2650.018374,0.000000,459.657299,10362.883188
2650.018688,222.061783,-153.219100,9696.697840
2650.019002,666.185348,383.047749,9696.697840
2650.019316,592.164754,1762.019645,11029.068536
2650.019631,74.020594,1762.019645,9918.759623
2650.019945,-1110.308913,-459.657299,8512.368333
2650.020259,-740.205942,612.876398,8364.327145
2650.020573,-1332.370696,1225.752797,9474.636058
2650.020888,-1332.370696,1302.362347,9696.697840
2650.021202,-2146.597232,0.000000,8956.491898
2650.021516,-444.123565,1838.629195,8364.327145
2650.021830,0.000000,1149.143247,9326.594869
2650.022144,592.164754,2374.896044,9252.574275
2650.022459,740.205942,2145.067394,8956.491898
2650.022773,1258.350101,3217.601092,8586.388927
2650.023087,814.226536,3064.381992,9474.636058
2650.023401,962.267725,2604.724693,8142.265362
2650.023716,1110.308913,2374.896044,7920.203579
2650.024030,2294.638420,3830.477490,8512.368333
2650.024344,2072.576638,3677.258390,9844.739029
2650.024658,1258.350101,2451.505594,9474.636058
2650.024973,0.000000,1762.019645,8142.265362
2650.025287,-888.247130,1378.971896,9252.574275
2650.025601,-1702.473667,1455.581446,9622.677246
2650.025915,-2072.576638,459.657299,9770.718434
2650.026230,-1480.411884,842.705048,9030.512492
2650.026544,-1406.391290,612.876398,10214.842000
2650.026858,-2812.782580,612.876398,10510.924376
2650.027172,-3775.050304,-459.657299,9474.636058
2650.027486,-2442.679609,0.000000,8512.368333
2650.027801,-2368.659014,76.609550,10362.883188
2650.028115,-2738.761985,0.000000,8956.491898
2650.028429,-2738.761985,-1149.143247,8142.265362
2650.028743,-2146.597232,-306.438199,7772.162391
2650.029058,-814.226536,-842.705048,8882.471304
2650.029372,0.000000,-229.828649,10584.944971
2650.029686,-444.123565,-306.438199,9918.759623
2650.030000,740.205942,229.828649,8956.491898
2650.030315,1480.411884,0.000000,9030.512492
2650.030629,1850.514855,0.000000,9178.553681
2650.030943,3256.906145,-229.828649,8512.368333
2650.031257,3627.009116,612.876398,9622.677246
2650.031572,1998.556043,-612.876398,10881.027347
2650.031886,1850.514855,-689.485948,11103.089130
2650.032200,814.226536,-2145.067394,8956.491898
2650.032514,2886.803174,0.000000,9844.739029
2650.032828,2368.659014,-612.876398,9400.615463
2650.033143,2738.761985,-306.438199,9770.718434
2650.033457,1776.494261,306.438199,9400.615463
2650.033771,1184.329507,0.000000,9622.677246
2650.034085,74.020594,-153.219100,10510.924376
2650.034400,-1480.411884,-1225.752797,7846.182985
2650.034714,-1554.432478,-1378.971896,9104.533087
2650.035028,-2812.782580,-689.485948,10288.862594
2650.035342,-4145.153275,-689.485948,10362.883188
2650.035657,-3849.070898,-2145.067394,7772.162391
2650.035971,-2516.700203,-1608.800546,7328.038826
2650.036285,-518.144159,459.657299,10658.965565
2650.036599,-962.267725,1149.143247,11029.068536
2650.036914,-148.041188,1149.143247,10066.800811
2650.037228,1776.494261,2451.505594,8586.388927
2650.037542,1850.514855,2451.505594,9252.574275
2650.037856,2146.597232,3140.991542,8586.388927
2650.038170,814.226536,3370.820191,8734.430116
2650.038485,2368.659014,4290.134789,8512.368333
2650.038799,3404.947333,4673.182538,9696.697840
2650.039113,2738.761985,4749.792088,7846.182985
2650.039427,1110.308913,3907.087040,7105.977043
2650.039742,1332.370696,4136.915689,7105.977043
2650.040056,0.000000,3907.087040,9474.636058
2650.040370,-1184.329507,2528.115143,8290.306550
2650.040684,-1998.556043,1991.848295,8512.368333
2650.040999,-2368.659014,2374.896044,8290.306550
2650.041313,-2960.823768,1455.581446,9474.636058
2650.041627,-3923.091493,1149.143247,10066.800811
2650.041941,-4293.194464,995.924147,9474.636058
2650.042256,-3108.864956,1455.581446,9548.656652
2650.042570,-1702.473667,1455.581446,7920.203579
2650.042884,-1850.514855,1532.190996,8808.450710
2650.043198,-2664.741391,995.924147,8216.285956
2650.043512,-296.082377,1302.362347,9252.574275
2650.043827,0.000000,1455.581446,10066.800811
2650.044141,444.123565,383.047749,10288.862594
2650.044455,888.247130,612.876398,9178.553681
2650.044769,962.267725,383.047749,10584.944971
2650.045084,148.041188,383.047749,9770.718434
2650.045398,1258.350101,-1149.143247,8660.409521
2650.045712,2072.576638,-153.219100,8586.388927
2650.046026,1998.556043,-919.314598,9178.553681
2650.046341,1480.411884,-612.876398,9770.718434
2650.046655,1110.308913,-1685.410096,9992.780217
2650.046969,1184.329507,-1455.581446,9844.739029
2650.047283,2368.659014,-995.924147,9474.636058
2650.047598,2738.761985,-995.924147,8364.327145
2650.047912,2072.576638,-1685.410096,8586.388927
2650.048226,1850.514855,-842.705048,9400.615463
2650.048540,1628.453072,-536.266849,9326.594869
2650.048854,740.205942,-1225.752797,8734.430116
2650.049169,148.041188,-2145.067394,9326.594869
2650.049483,-1036.288319,-1608.800546,10140.821405
2650.049797,-1332.370696,-2145.067394,11103.089130
2650.050112,-2368.659014,-2911.162892,9400.615463
2650.050426,-1924.535449,-2451.505594,10288.862594
2650.050740,-1776.494261,-1149.143247,10510.924376
2650.051054,-1628.453072,-1455.581446,10510.924376
2650.051369,-1258.350101,-995.924147,10288.862594
2650.051683,-2516.700203,-766.095498,9474.636058
2650.051997,-1184.329507,612.876398,9400.615463
2650.052311,-1554.432478,536.266849,8808.450710
2650.052626,-814.226536,689.485948,8808.450710
2650.052940,296.082377,1455.581446,8808.450710
2650.053254,148.041188,2374.896044,9252.574275
2650.053568,0.000000,2757.943793,9104.533087
2650.053883,-518.144159,2451.505594,8512.368333
2650.054197,518.144159,2757.943793,7179.997637
2650.054511,888.247130,3217.601092,8216.285956
2650.054825,1036.288319,3753.867940,9252.574275
2650.055140,518.144159,2681.334243,10066.800811
2650.055454,0.000000,2987.772442,8216.285956
2650.055768,1036.288319,2911.162892,8438.347739
2650.056082,1110.308913,3677.258390,7846.182985
2650.056397,-370.102971,2681.334243,9474.636058
2650.056711,-1554.432478,3140.991542,8290.306550
2650.057025,-1628.453072,2145.067394,8364.327145
2650.057339,-2220.617826,1838.629195,7846.182985
2650.057654,-2886.803174,842.705048,7920.203579
2650.057968,-3478.967927,2068.457845,9474.636058
2650.058282,-2886.803174,1762.019645,10807.006753
2650.058596,-2664.741391,766.095498,9548.656652
2650.058911,-3478.967927,612.876398,8660.409521
2650.059225,-2812.782580,1685.410096,6661.853478
2650.059539,-1406.391290,766.095498,7328.038826
2650.059853,148.041188,612.876398,8734.430116
2650.060168,962.267725,612.876398,8882.471304
2650.060482,1258.350101,1455.581446,9918.759623
2650.060796,2368.659014,919.314598,10436.903782
2650.061111,3256.906145,612.876398,11251.130318
2650.061425,3330.926739,383.047749,9474.636058
2650.061739,4589.276840,1532.190996,10362.883188
2650.062053,3997.112087,1685.410096,10510.924376
2650.062368,4145.153275,-536.266849,8808.450710
2650.062682,4737.318029,-229.828649,8216.285956
2650.062996,3627.009116,536.266849,9918.759623
2650.063310,2368.659014,0.000000,12657.521608
2650.063625,1110.308913,-1378.971896,11843.295072
2650.063939,518.144159,-1838.629195,9178.553681
2650.064253,296.082377,-1532.190996,10140.821405
2650.064567,-1332.370696,-1302.362347,10362.883188
2650.064882,-2516.700203,-2834.553343,9474.636058
2650.065196,-2738.761985,-2068.457845,7994.224174
2650.065510,-2368.659014,-1532.190996,9252.574275
2650.065824,-2664.741391,-1072.533697,9474.636058
2650.066139,-3701.029710,-1378.971896,9992.780217
2650.066453,-2590.720797,-1149.143247,8882.471304
2650.066767,-1850.514855,-995.924147,10140.821405
2650.067081,-1998.556043,-919.314598,8956.491898
2650.067396,-1036.288319,383.047749,9030.512492
2650.067710,-444.123565,2221.676944,9252.574275
2650.068024,-2664.741391,1302.362347,10362.883188
2650.068338,-1776.494261,1532.190996,9104.533087
2650.068653,-1702.473667,1302.362347,6957.935855
2650.068967,-740.205942,2298.286494,6661.853478
2650.069281,0.000000,2068.457845,8660.409521
2650.069595,-444.123565,2451.505594,9622.677246
2650.069910,-370.102971,1685.410096,9548.656652
2650.070224,740.205942,2757.943793,8438.347739
2650.070538,1110.308913,3064.381992,8660.409521
2650.070852,222.061783,2987.772442,8068.244768
2650.071167,962.267725,2911.162892,7846.182985
2650.071481,1628.453072,3294.210641,9548.656652
