#time,accel_x,accel_y,accel_z
87589.538508,1406.391290,3677.258390,9844.739029
87589.538838,-444.123565,3600.648841,7994.224174
87589.539168,74.020594,2145.067394,7550.100608
87589.539497,-370.102971,1532.190996,7846.182985
87589.539827,-2442.679609,383.047749,7402.059420
87589.540157,-3552.988522,153.219100,7254.018232
87589.540486,-3627.009116,0.000000,7179.997637
87589.540816,-3478.967927,-842.705048,7698.141797
87589.541146,-3923.091493,-383.047749,8216.285956
87589.541475,-4441.235652,0.000000,8068.244768
87589.541805,-3404.947333,-229.828649,6957.935855
87589.542135,-370.102971,-1149.143247,9326.594869
87589.542465,-1258.350101,0.000000,10955.047942
87589.542794,-2516.700203,842.705048,9918.759623
87589.543124,-1924.535449,612.876398,10214.842000
87589.543454,-592.164754,-842.705048,12139.377449
87589.543783,-1258.350101,-2298.286494,12065.356855
87589.544113,-1702.473667,-229.828649,11843.295072
87589.544443,-1258.350101,612.876398,11917.315666
87589.544772,-962.267725,-306.438199,11917.315666
87589.545102,-1332.370696,-612.876398,11695.253884
87589.545432,-2442.679609,1455.581446,11325.150913
87589.545762,-3478.967927,2834.553343,10140.821405
87589.546091,-2368.659014,2987.772442,10732.986159
87589.546421,-3478.967927,2221.676944,10955.047942
87589.546751,-6217.729913,2068.457845,9474.636058
87589.547080,-7698.141797,3447.429741,8364.327145
87589.547410,-6883.915261,3294.210641,8216.285956
87589.547740,-6661.853478,3217.601092,8586.388927
87589.548069,-7846.182985,3983.696590,7624.121203
87589.548399,-7698.141797,4826.401637,5699.585753
87589.548729,-6365.771101,6128.763984,6069.688724
87589.549059,-4737.318029,5898.935335,6291.750507
87589.549388,-4293.194464,6741.640382,6217.729913
87589.549718,-3478.967927,7890.783629,5107.421000
87589.550048,-1406.391290,8273.831378,6069.688724
87589.550377,1036.288319,8044.002729,7402.059420
87589.550707,814.226536,7354.516781,7698.141797
87589.551037,444.123565,7814.174080,7031.956449
87589.551367,2442.679609,7814.174080,8068.244768
87589.551696,3330.926739,7124.688131,8956.491898
87589.552026,2368.659014,6818.249932,9844.739029
87589.552356,1554.432478,6435.202183,9474.636058
87589.552685,1628.453072,5669.106685,9696.697840
87589.553015,1554.432478,4519.963438,11991.336260
87589.553345,-814.226536,4136.915689,12065.356855
87589.553674,-2516.700203,4596.572988,12435.459826
87589.554004,-3627.009116,3524.039291,12065.356855
87589.554334,-3849.070898,2451.505594,13175.665768
87589.554664,-4737.318029,2451.505594,12731.542202
87589.554993,-6439.791695,3447.429741,11325.150913
87589.555323,-5847.626942,4673.182538,10436.903782
87589.555653,-4885.359217,3064.381992,10288.862594
87589.555982,-5477.523971,3983.696590,8734.430116
87589.556312,-4885.359217,4673.182538,7328.038826
87589.556642,-2664.741391,4366.744339,5255.462188
87589.556971,-518.144159,3600.648841,4663.297435
87589.557301,296.082377,3217.601092,4737.318029
87589.557631,-444.123565,2987.772442,4885.359217
87589.557961,814.226536,2451.505594,6217.729913
87589.558290,1332.370696,-229.828649,7550.100608
87589.558620,518.144159,-1378.971896,9474.636058
87589.558950,-814.226536,-2298.286494,9474.636058
87589.559279,-1110.308913,-2451.505594,10436.903782
87589.559609,0.000000,-2451.505594,12065.356855
87589.559939,148.041188,-3140.991542,13101.645173
87589.560268,-296.082377,-2374.896044,12287.418637
87589.560598,74.020594,-1072.533697,10732.986159
87589.560928,1628.453072,-1302.362347,9696.697840
87589.561258,2220.617826,-1608.800546,9474.636058
87589.561587,814.226536,-2221.676944,10214.842000
87589.561917,-888.247130,-1838.629195,10362.883188
87589.562247,-1258.350101,-3830.477490,12805.562797
87589.562576,-3108.864956,-6128.763984,14656.077652
87589.562906,-6513.812290,-7048.078582,14434.015869
87589.563236,-8512.368333,-6741.640382,14137.933492
87589.563565,-7476.080014,-5975.544884,13619.789333
87589.563895,-5921.647536,-4060.306139,13619.789333
87589.564225,-5477.523971,229.828649,11325.150913
87589.564555,-3034.844362,3600.648841,7402.059420
87589.564884,444.123565,6588.421283,4959.379811
87589.565214,2294.638420,7814.174080,3034.844362
87589.565544,2294.638420,8656.879127,2442.679609
87589.565873,2590.720797,9116.536426,1998.556043
87589.566203,2886.803174,6894.859482,1850.514855
87589.566533,1998.556043,3907.087040,3404.947333
87589.566862,0.000000,1378.971896,5921.647536
87589.567192,-1776.494261,459.657299,6735.874072
87589.567521,-962.267725,-919.314598,8142.265362
87589.567851,370.102971,-1532.190996,10362.883188
87589.568181,592.164754,-919.314598,11029.068536
87589.568510,740.205942,1378.971896,10436.903782
87589.568840,1258.350101,3677.258390,10362.883188
87589.569169,1628.453072,4596.572988,12731.542202
87589.569499,444.123565,6281.983084,14359.995275
87589.569828,-296.082377,6818.249932,14359.995275
87589.570158,-740.205942,6741.640382,13767.830521
87589.570488,-592.164754,5898.935335,14656.077652
87589.570817,-1184.329507,5209.449386,13101.645173
87589.571147,-1332.370696,5439.278036,10362.883188
87589.571476,-592.164754,3370.820191,8586.388927
87589.571806,666.185348,2451.505594,7698.141797
87589.572135,592.164754,2451.505594,6587.832884
87589.572465,0.000000,2374.896044,5551.544565
87589.572795,148.041188,766.095498,4515.256246
87589.573124,370.102971,-1378.971896,4663.297435
87589.573454,888.247130,-3140.991542,6069.688724
87589.573783,296.082377,306.438199,7476.080014
87589.574113,1406.391290,1149.143247,8586.388927
87589.574442,3923.091493,689.485948,9622.677246
87589.574772,4145.153275,766.095498,10436.903782
87589.575102,2294.638420,2374.896044,9548.656652
87589.575431,1628.453072,4213.525239,8808.450710
87589.575761,2146.597232,2911.162892,10214.842000
87589.576090,-1184.329507,2145.067394,10436.903782
87589.576420,-3478.967927,1608.800546,9992.780217
87589.576750,-4071.132681,995.924147,9992.780217
87589.577079,-3923.091493,-1378.971896,8808.450710
87589.577409,-3552.988522,-4366.744339,9252.574275
87589.577738,-3849.070898,-5056.230287,8956.491898
87589.578068,-4071.132681,-4596.572988,7994.224174
87589.578397,-2738.761985,-4366.744339,8438.347739
87589.578727,-222.061783,-5898.935335,9696.697840
87589.579057,-1036.288319,-6128.763984,9548.656652
87589.579386,-1480.411884,-4903.011187,9474.636058
87589.579716,444.123565,-4136.915689,10955.047942
87589.580045,1998.556043,-3677.258390,11843.295072
87589.580375,2294.638420,-2987.772442,11399.171507
87589.580704,3034.844362,-1532.190996,10436.903782
87589.581034,3404.947333,536.266849,10436.903782
87589.581364,3108.864956,1455.581446,9770.718434
87589.581693,2294.638420,1532.190996,9918.759623
87589.582023,666.185348,1838.629195,9326.594869
87589.582352,-1480.411884,2068.457845,9030.512492
87589.582682,-1998.556043,1378.971896,9178.553681
87589.583011,-3182.885551,995.924147,8660.409521
87589.583341,-4441.235652,-612.876398,7254.018232
87589.583671,-3108.864956,-1532.190996,6883.915261
87589.584000,-1554.432478,-306.438199,7328.038826
87589.584330,-1184.329507,1149.143247,7846.182985
87589.584659,-814.226536,1455.581446,7624.121203
87589.584989,0.000000,0.000000,6587.832884
87589.585318,666.185348,153.219100,7550.100608
87589.585648,1628.453072,536.266849,9548.656652
87589.585978,2146.597232,2221.676944,11473.192101
87589.586307,3330.926739,1991.848295,11177.109724
87589.586637,4663.297435,1302.362347,11325.150913
87589.586966,4589.276840,1991.848295,11251.130318
87589.587296,4071.132681,4443.353888,10955.047942
87589.587626,3701.029710,4366.744339,10436.903782
87589.587955,2590.720797,3983.696590,11621.233289
87589.588285,222.061783,3140.991542,11251.130318
87589.588614,-2368.659014,3140.991542,10658.965565
87589.588944,-3478.967927,3677.258390,10658.965565
87589.589273,-4145.153275,3447.429741,10288.862594
87589.589603,-4441.235652,2374.896044,8882.471304
87589.589933,-3849.070898,1532.190996,8586.388927
87589.590262,-2886.803174,2834.553343,7402.059420
87589.590592,-740.205942,3524.039291,5773.606348
87589.590921,1036.288319,3064.381992,6143.709319
87589.591251,0.000000,3294.210641,5033.400406
87589.591580,0.000000,3217.601092,5181.441594
87589.591910,1258.350101,1149.143247,6661.853478
87589.592240,1258.350101,0.000000,7550.100608
87589.592569,-148.041188,-612.876398,7402.059420
87589.592899,222.061783,-1302.362347,7624.121203
87589.593228,1480.411884,-919.314598,9474.636058
87589.593558,1924.535449,-383.047749,10807.006753
87589.593887,1110.308913,-229.828649,11843.295072
87589.594217,-888.247130,766.095498,10658.965565
87589.594547,-1480.411884,612.876398,10510.924376
87589.594876,-1850.514855,0.000000,11843.295072
87589.595206,-3256.906145,536.266849,12213.398043
87589.595535,-4959.379811,612.876398,11251.130318
87589.595865,-3627.009116,-383.047749,11325.150913
87589.596195,-1998.556043,-1072.533697,10362.883188
87589.596524,-1850.514855,-1072.533697,9548.656652
87589.596854,-1406.391290,-1149.143247,8068.244768
87589.597183,444.123565,-1838.629195,7031.956449
87589.597513,2146.597232,-2528.115143,7550.100608
87589.597842,2072.576638,-2911.162892,8956.491898
87589.598172,2294.638420,-2221.676944,7994.224174
87589.598502,3256.906145,-2145.067394,7476.080014
87589.598831,4071.132681,-3294.210641,9252.574275
87589.599161,4515.256246,-3294.210641,10288.862594
87589.599490,3330.926739,-1532.190996,9548.656652
87589.599820,3923.091493,-689.485948,10288.862594
87589.600149,3478.967927,-383.047749,11473.192101
87589.600479,1406.391290,-612.876398,10658.965565
87589.600809,-1110.308913,229.828649,10362.883188
87589.601138,-2072.576638,76.609550,11029.068536
87589.601468,-3034.844362,919.314598,11251.130318
87589.601797,-3404.947333,842.705048,11177.109724
87589.602127,-3034.844362,306.438199,10214.842000
87589.602456,-1850.514855,76.609550,8364.327145
87589.602786,222.061783,766.095498,7994.224174
87589.603116,888.247130,1149.143247,8586.388927
87589.603445,1110.308913,842.705048,7994.224174
87589.603775,1628.453072,0.000000,7402.059420
87589.604104,2886.803174,-1532.190996,7402.059420
87589.604434,1924.535449,-1608.800546,8438.347739
87589.604763,592.164754,-459.657299,9326.594869
87589.605093,1036.288319,229.828649,10362.883188
87589.605423,1850.514855,-383.047749,10658.965565
87589.605752,2590.720797,76.609550,10584.944971
87589.606082,1702.473667,1915.238745,9252.574275
87589.606411,740.205942,4749.792088,8586.388927
87589.606741,370.102971,5132.839837,8808.450710
87589.607071,-666.185348,4366.744339,9326.594869
87589.607400,-3775.050304,3677.258390,8956.491898
87589.607730,-6217.729913,4673.182538,8068.244768
87589.608059,-6513.812290,3600.648841,8734.430116
87589.608389,-6513.812290,2298.286494,8808.450710
87589.608718,-5847.626942,842.705048,8586.388927
87589.609048,-4145.153275,76.609550,7402.059420
87589.609378,-2368.659014,536.266849,6883.915261
87589.609707,-666.185348,1455.581446,7328.038826
87589.610037,444.123565,2145.067394,8216.285956
87589.610366,1628.453072,1685.410096,7476.080014
87589.610696,2294.638420,995.924147,7550.100608
87589.611025,3478.967927,306.438199,8808.450710
87589.611355,3627.009116,536.266849,10807.006753
87589.611685,2442.679609,1149.143247,10732.986159
87589.612014,2886.803174,536.266849,11029.068536
87589.612344,3478.967927,-995.924147,11177.109724
87589.612673,2146.597232,-459.657299,10362.883188
87589.613003,0.000000,229.828649,9770.718434
87589.613332,-1036.288319,1072.533697,10362.883188
87589.613662,-1924.535449,459.657299,10881.027347
87589.613992,-3182.885551,0.000000,11991.336260
87589.614321,-4589.276840,1149.143247,11399.171507
87589.614651,-3552.988522,842.705048,8734.430116
87589.614980,-814.226536,-1455.581446,8438.347739
87589.615310,592.164754,-2221.676944,8956.491898
87589.615639,444.123565,229.828649,7105.977043
87589.615969,2072.576638,842.705048,6957.935855
87589.616299,3478.967927,-689.485948,7994.224174
87589.616628,3108.864956,-1532.190996,8290.306550
87589.616958,2146.597232,-2298.286494,7772.162391
87589.617287,2294.638420,-2528.115143,8142.265362
87589.617617,2886.803174,-3140.991542,9548.656652
87589.617947,2886.803174,-2911.162892,11251.130318
87589.618276,2886.803174,-1991.848295,11399.171507
87589.618606,2368.659014,-612.876398,9992.780217
87589.618935,2516.700203,536.266849,9992.780217
87589.619265,1776.494261,459.657299,10807.006753
87589.619594,-666.185348,842.705048,9844.739029
87589.619924,-2738.761985,1685.410096,9918.759623
87589.620254,-3701.029710,766.095498,10510.924376
87589.620583,-5107.421000,-306.438199,11177.109724
87589.620913,-6143.709319,-229.828649,10140.821405
87589.621242,-5477.523971,0.000000,9104.533087
87589.621572,-3849.070898,-459.657299,8068.244768
87589.621901,-1702.473667,-1455.581446,8216.285956
87589.622231,-518.144159,0.000000,7698.141797
87589.622561,370.102971,1991.848295,7105.977043
87589.622890,1480.411884,1532.190996,6735.874072
87589.623220,2294.638420,306.438199,7179.997637
87589.623549,2664.741391,0.000000,7179.997637
87589.623879,1702.473667,1532.190996,8216.285956
87589.624208,2072.576638,1302.362347,9104.533087
87589.624538,2220.617826,612.876398,9918.759623
87589.624868,1998.556043,842.705048,10881.027347
87589.625197,1036.288319,1762.019645,10732.986159
87589.625527,0.000000,2145.067394,9918.759623
87589.625856,-740.205942,2604.724693,9844.739029
87589.626186,-2294.638420,2987.772442,11399.171507
87589.626515,-3775.050304,2681.334243,11991.336260
87589.626845,-4737.318029,3753.867940,10436.903782
87589.627175,-3330.926739,2681.334243,9992.780217
87589.627504,-2294.638420,1225.752797,9696.697840
87589.627834,-1776.494261,1762.019645,8068.244768
87589.628163,518.144159,2145.067394,7772.162391
87589.628493,2146.597232,1455.581446,8290.306550
87589.628823,2072.576638,1149.143247,7698.141797
87589.629152,1776.494261,612.876398,7402.059420
87589.629482,1924.535449,0.000000,7476.080014
87589.629811,2220.617826,-766.095498,8734.430116
87589.630141,2368.659014,-1072.533697,10214.842000
87589.630470,2294.638420,-919.314598,10362.883188
87589.630800,3849.070898,229.828649,9992.780217
87589.631130,4885.359217,842.705048,9844.739029
87589.631459,4071.132681,1455.581446,10955.047942
87589.631789,1924.535449,2987.772442,10288.862594
87589.632118,518.144159,2451.505594,9622.677246
87589.632448,-444.123565,1072.533697,9992.780217
87589.632777,-3256.906145,842.705048,10658.965565
87589.633107,-5181.441594,1378.971896,10436.903782
87589.633437,-5107.421000,229.828649,10140.821405
87589.633766,-4367.215058,-995.924147,9178.553681
87589.634096,-3256.906145,-1838.629195,8660.409521
87589.634425,-2590.720797,-1378.971896,7772.162391
87589.634755,-1480.411884,-383.047749,6661.853478
87589.635084,814.226536,306.438199,7105.977043
87589.635414,2146.597232,-1225.752797,7994.224174
87589.635744,1184.329507,-1378.971896,8068.244768
87589.636073,888.247130,-1072.533697,7920.203579
87589.636403,1998.556043,-1455.581446,8734.430116
87589.636732,2442.679609,-2528.115143,10214.842000
87589.637062,2072.576638,-2068.457845,9844.739029
87589.637391,2146.597232,-306.438199,10807.006753
87589.637721,2590.720797,689.485948,10881.027347
87589.638051,1998.556043,612.876398,11177.109724
87589.638380,148.041188,842.705048,10214.842000
87589.638710,-1406.391290,1838.629195,10066.800811
87589.639039,-2664.741391,2374.896044,9992.780217
87589.639369,-3182.885551,1991.848295,10658.965565
87589.639699,-3627.009116,1225.752797,10214.842000
87589.640028,-4515.256246,842.705048,8512.368333
87589.640358,-3034.844362,612.876398,7254.018232
87589.640687,-1406.391290,0.000000,7402.059420
87589.641017,-666.185348,459.657299,7402.059420
87589.641346,370.102971,689.485948,7772.162391
87589.641676,1184.329507,766.095498,8364.327145
87589.642006,1628.453072,-306.438199,7994.224174
87589.642335,1554.432478,-536.266849,7846.182985
87589.642665,3256.906145,0.000000,9622.677246
87589.642994,3552.988522,1302.362347,9770.718434
87589.643324,3923.091493,1532.190996,10807.006753
87589.643653,4589.276840,459.657299,10955.047942
87589.643983,3256.906145,1838.629195,10362.883188
87589.644313,1776.494261,3447.429741,10362.883188
87589.644642,814.226536,3524.039291,10510.924376
87589.644972,-592.164754,2374.896044,10288.862594
87589.645301,-3627.009116,1455.581446,10732.986159
87589.645631,-5181.441594,2145.067394,10955.047942
87589.645960,-4811.338623,2145.067394,9918.759623
87589.646290,-3627.009116,536.266849,9474.636058
87589.646620,-3330.926739,1302.362347,8142.265362
87589.646949,-2294.638420,1532.190996,7105.977043
87589.647279,444.123565,2528.115143,6661.853478
87589.647608,2294.638420,1685.410096,7402.059420
87589.647938,1998.556043,1149.143247,7772.162391
87589.648268,1480.411884,689.485948,7105.977043
87589.648597,2886.803174,383.047749,6735.874072
87589.648927,2812.782580,-919.314598,8882.471304
87589.649256,2220.617826,-919.314598,9252.574275
87589.649586,2368.659014,-766.095498,9770.718434
87589.649915,3034.844362,-153.219100,10066.800811
87589.650245,2368.659014,0.000000,10288.862594
87589.650575,740.205942,1149.143247,10288.862594
87589.650904,-888.247130,1302.362347,9400.615463
87589.651234,-1924.535449,1072.533697,9770.718434
87589.651563,-3256.906145,1685.410096,11029.068536
87589.651893,-5699.585753,1915.238745,11769.274478
87589.652222,-7179.997637,1149.143247,10732.986159
87589.652552,-5921.647536,-536.266849,8956.491898
87589.652882,-4441.235652,-1915.238745,8364.327145
87589.653211,-4071.132681,-1072.533697,7624.121203
87589.653541,-2812.782580,766.095498,6809.894666
87589.653870,-370.102971,306.438199,6809.894666
87589.654200,888.247130,-1225.752797,7550.100608
87589.654529,888.247130,-1685.410096,7772.162391
87589.654859,1480.411884,-612.876398,8364.327145
87589.655189,3330.926739,-153.219100,9104.533087
87589.655518,5181.441594,-459.657299,10584.944971
87589.655848,5699.585753,-1378.971896,11917.315666
87589.656177,4071.132681,459.657299,10362.883188
87589.656507,4293.194464,1838.629195,10436.903782
87589.656836,4071.132681,1838.629195,11621.233289
87589.657166,1702.473667,1685.410096,11251.130318
87589.657496,-1036.288319,2068.457845,10288.862594
87589.657825,-2960.823768,2528.115143,10362.883188
87589.658155,-4515.256246,2145.067394,10658.965565
87589.658484,-4589.276840,689.485948,10510.924376
87589.658814,-4885.359217,536.266849,9844.739029
87589.659144,-3997.112087,842.705048,8808.450710
87589.659473,-2072.576638,306.438199,7328.038826
87589.659803,-666.185348,842.705048,8364.327145
87589.660132,74.020594,919.314598,7402.059420
87589.660462,962.267725,383.047749,6735.874072
87589.660791,3256.906145,-1378.971896,7550.100608
87589.661121,2590.720797,-1608.800546,8068.244768
87589.661451,1850.514855,-689.485948,8660.409521
87589.661780,2664.741391,-459.657299,9178.553681
87589.662110,3849.070898,153.219100,9474.636058
87589.662439,4293.194464,383.047749,10732.986159
87589.662769,3552.988522,1991.848295,10140.821405
87589.663098,1924.535449,3294.210641,9178.553681
87589.663428,1554.432478,2834.553343,8808.450710
87589.663758,0.000000,2374.896044,10140.821405
87589.664087,-2960.823768,2604.724693,10658.965565
87589.664417,-5477.523971,3217.601092,9918.759623
87589.664746,-5181.441594,2145.067394,9474.636058
87589.665076,-5255.462188,-459.657299,9252.574275
87589.665406,-4811.338623,-995.924147,8438.347739
87589.665735,-3701.029710,-306.438199,7402.059420
87589.666065,-1554.432478,612.876398,7550.100608
87589.666395,444.123565,76.609550,7772.162391
87589.666724,1776.494261,-459.657299,8956.491898
87589.667054,1776.494261,229.828649,7772.162391
87589.667384,2886.803174,153.219100,7698.141797
87589.667714,4293.194464,-383.047749,9474.636058
87589.668043,4071.132681,-1225.752797,11103.089130
87589.668373,3108.864956,-306.438199,10658.965565
87589.668703,3627.009116,0.000000,10584.944971
87589.669032,3478.967927,0.000000,11325.150913
87589.669362,740.205942,689.485948,10732.986159
87589.669692,-888.247130,766.095498,9770.718434
87589.670021,-2072.576638,306.438199,9400.615463
87589.670351,-4071.132681,0.000000,9992.780217
87589.670681,-5699.585753,612.876398,10955.047942
87589.671011,-6365.771101,1608.800546,10658.965565
87589.671340,-5181.441594,1149.143247,9474.636058
87589.671670,-3478.967927,-536.266849,9030.512492
87589.672000,-962.267725,-1838.629195,8734.430116
87589.672329,-222.061783,306.438199,7402.059420
87589.672659,1184.329507,1838.629195,7402.059420
87589.672989,3182.885551,919.314598,9104.533087
87589.673319,3552.988522,-766.095498,8660.409521
87589.673648,3627.009116,-842.705048,8068.244768
87589.673978,4145.153275,0.000000,8808.450710
87589.674308,4145.153275,306.438199,10066.800811
87589.674637,4589.276840,-536.266849,10510.924376
87589.674967,4071.132681,-689.485948,10955.047942
87589.675297,3108.864956,536.266849,9992.780217
87589.675626,2664.741391,2145.067394,9400.615463
87589.675956,1998.556043,2068.457845,9474.636058
87589.676286,-888.247130,1762.019645,9474.636058
87589.676616,-4145.153275,1608.800546,9400.615463
87589.676945,-4959.379811,1302.362347,10362.883188
87589.677275,-5699.585753,1302.362347,10510.924376
87589.677605,-6143.709319,536.266849,9252.574275
87589.677934,-5255.462188,-459.657299,8290.306550
87589.678264,-3256.906145,-919.314598,7994.224174
87589.678594,-1258.350101,-612.876398,7254.018232
87589.678923,222.061783,1685.410096,7846.182985
87589.679253,1110.308913,1532.190996,7920.203579
87589.679583,2664.741391,1225.752797,7328.038826
87589.679913,4293.194464,383.047749,7994.224174
87589.680242,4145.153275,0.000000,8586.388927
87589.680572,2812.782580,383.047749,8956.491898
87589.680902,3923.091493,766.095498,8956.491898
87589.681231,5329.482782,-76.609550,10362.883188
87589.681561,3182.885551,689.485948,10214.842000
87589.681891,444.123565,1378.971896,9992.780217
87589.682221,-666.185348,995.924147,9474.636058
87589.682550,-2220.617826,459.657299,9548.656652
87589.682880,-3849.070898,0.000000,10881.027347
87589.683210,-5403.503377,1302.362347,11177.109724
87589.683539,-5921.647536,1455.581446,9326.594869
87589.683869,-4515.256246,306.438199,9918.759623
87589.684199,-3478.967927,-306.438199,9770.718434
87589.684528,-2664.741391,76.609550,8512.368333
87589.684858,-666.185348,995.924147,7994.224174
87589.685188,1776.494261,766.095498,8956.491898
87589.685518,2294.638420,-153.219100,9622.677246
87589.685847,1924.535449,-1149.143247,8290.306550
87589.686177,2738.761985,-1838.629195,8290.306550
87589.686507,3404.947333,-1378.971896,9474.636058
87589.686836,3627.009116,-1072.533697,10510.924376
87589.687166,3552.988522,-612.876398,10584.944971
87589.687496,3627.009116,-1072.533697,9474.636058
87589.687826,3849.070898,0.000000,9178.553681
87589.688155,2886.803174,1532.190996,9844.739029
87589.688485,1036.288319,2145.067394,9474.636058
87589.688815,-1110.308913,1225.752797,8808.450710
87589.689144,-2590.720797,0.000000,9992.780217
87589.689474,-4885.359217,0.000000,10436.903782
87589.689804,-6217.729913,229.828649,9770.718434
87589.690133,-5107.421000,0.000000,9104.533087
87589.690463,-3849.070898,-1532.190996,9030.512492
87589.690793,-2368.659014,-995.924147,8808.450710
87589.691123,-962.267725,459.657299,8882.471304
87589.691452,444.123565,1378.971896,7846.182985
87589.691782,2220.617826,536.266849,8068.244768
87589.692112,3404.947333,-1302.362347,8586.388927
87589.692441,2368.659014,0.000000,8882.471304
87589.692771,2146.597232,1072.533697,8438.347739
87589.693101,2590.720797,-612.876398,9326.594869
87589.693431,2960.823768,-1608.800546,9844.739029
87589.693760,1998.556043,-689.485948,9992.780217
87589.694090,1184.329507,1378.971896,9548.656652
87589.694420,1110.308913,1685.410096,8882.471304
87589.694749,-296.082377,1225.752797,9104.533087
87589.695079,-1406.391290,1532.190996,9400.615463
87589.695409,-3478.967927,2681.334243,9622.677246
87589.695738,-4367.215058,3370.820191,9548.656652
87589.696068,-4589.276840,1991.848295,10807.006753
87589.696398,-4441.235652,459.657299,10510.924376
87589.696728,-3775.050304,1532.190996,9326.594869
87589.697057,-2146.597232,1762.019645,9474.636058
87589.697387,0.000000,766.095498,8734.430116
87589.697717,222.061783,1225.752797,7920.203579
87589.698046,888.247130,1072.533697,7846.182985
87589.698376,2220.617826,1225.752797,8142.265362
87589.698706,2960.823768,842.705048,8290.306550
87589.699035,3182.885551,306.438199,8956.491898
87589.699365,2812.782580,229.828649,9178.553681
87589.699695,2442.679609,306.438199,8586.388927
87589.700025,3923.091493,0.000000,9696.697840
87589.700354,3701.029710,76.609550,10955.047942
87589.700684,1702.473667,1302.362347,10436.903782
87589.701014,592.164754,1532.190996,9622.677246
87589.701343,-148.041188,459.657299,9622.677246
87589.701673,-2442.679609,0.000000,10362.883188
87589.702003,-4663.297435,459.657299,10066.800811
87589.702333,-5033.400406,1149.143247,10955.047942
87589.702662,-4145.153275,612.876398,10510.924376
87589.702992,-3034.844362,-229.828649,9622.677246
87589.703322,-1554.432478,-612.876398,8734.430116
87589.703651,-444.123565,459.657299,7476.080014
87589.703981,1554.432478,995.924147,7328.038826
87589.704311,2886.803174,1225.752797,8290.306550
87589.704640,2516.700203,0.000000,8216.285956
87589.704970,2072.576638,-689.485948,7698.141797
87589.705300,2516.700203,-1532.190996,8068.244768
87589.705630,2072.576638,-1685.410096,9474.636058
87589.705959,1702.473667,-2145.067394,9030.512492
87589.706289,2072.576638,-1608.800546,9474.636058
87589.706619,1850.514855,-1915.238745,9844.739029
87589.706948,1110.308913,0.000000,10066.800811
87589.707278,-592.164754,766.095498,9844.739029
87589.707608,-2072.576638,842.705048,9474.636058
87589.707938,-2664.741391,1378.971896,9104.533087
87589.708267,-3404.947333,995.924147,10881.027347
87589.708597,-4737.318029,1915.238745,11325.150913
87589.708927,-5773.606348,1302.362347,9770.718434
87589.709256,-3627.009116,612.876398,9178.553681
87589.709586,-2146.597232,-612.876398,8956.491898
87589.709916,-1776.494261,536.266849,8142.265362
87589.710245,-740.205942,1149.143247,7624.121203
87589.710575,740.205942,306.438199,8364.327145
87589.710905,1184.329507,-229.828649,8068.244768
87589.711235,2368.659014,-1225.752797,9030.512492
87589.711564,2368.659014,0.000000,9030.512492
87589.711894,2812.782580,153.219100,8438.347739
87589.712224,4071.132681,-306.438199,10066.800811
87589.712553,4441.235652,-383.047749,11399.171507
87589.712883,3108.864956,1302.362347,10066.800811
87589.713213,2738.761985,2451.505594,9548.656652
87589.713542,2516.700203,1991.848295,10288.862594
87589.713872,814.226536,1455.581446,9992.780217
87589.714202,-1776.494261,2528.115143,9844.739029
87589.714532,-3627.009116,2987.772442,10362.883188
87589.714861,-3849.070898,2298.286494,9696.697840
87589.715191,-3404.947333,1225.752797,9918.759623
87589.715521,-3330.926739,1685.410096,9696.697840
87589.715850,-2516.700203,1532.190996,8216.285956
87589.716180,-666.185348,1149.143247,7846.182985
87589.716510,1184.329507,995.924147,9326.594869
87589.716840,1406.391290,1072.533697,8808.450710
87589.717169,1406.391290,995.924147,7920.203579
87589.717499,2812.782580,153.219100,8068.244768
87589.717829,2960.823768,0.000000,9252.574275
87589.718158,1702.473667,-689.485948,9474.636058
87589.718488,1776.494261,-536.266849,9548.656652
87589.718818,2220.617826,-306.438199,9548.656652
87589.719147,2590.720797,-306.438199,10066.800811
87589.719477,2146.597232,612.876398,9770.718434
87589.719807,962.267725,2528.115143,8660.409521
87589.720137,222.061783,2681.334243,8586.388927
87589.720466,-592.164754,1838.629195,9844.739029
87589.720796,-3404.947333,1608.800546,10066.800811
87589.721126,-5329.482782,2221.676944,9992.780217
87589.721455,-4663.297435,1149.143247,9548.656652
87589.721785,-2664.741391,0.000000,9474.636058
87589.722115,-3404.947333,0.000000,8808.450710
87589.722445,-2368.659014,0.000000,7402.059420
87589.722774,-370.102971,689.485948,7476.080014
87589.723104,1258.350101,536.266849,8364.327145
87589.723434,1480.411884,459.657299,8956.491898
87589.723763,1554.432478,306.438199,8438.347739
87589.724093,2146.597232,153.219100,8068.244768
87589.724423,2812.782580,-1378.971896,9548.656652
87589.724752,2960.823768,-1685.410096,10288.862594
87589.725082,1924.535449,-766.095498,10214.842000
87589.725412,2294.638420,-229.828649,9992.780217
87589.725742,2368.659014,0.000000,10732.986159
87589.726071,814.226536,-459.657299,10288.862594
87589.726401,-888.247130,1455.581446,9992.780217
87589.726731,-2072.576638,1302.362347,9474.636058
87589.727060,-2664.741391,995.924147,10140.821405
87589.727390,-3923.091493,612.876398,11325.150913
87589.727720,-4071.132681,1532.190996,11029.068536
87589.728050,-3108.864956,1762.019645,9178.553681
87589.728379,-814.226536,612.876398,8956.491898
87589.728709,518.144159,306.438199,8586.388927
87589.729039,592.164754,1149.143247,7994.224174
87589.729368,1480.411884,1072.533697,7105.977043
87589.729698,2368.659014,-459.657299,8438.347739
87589.730028,1776.494261,-1225.752797,8882.471304
87589.730357,1184.329507,-1302.362347,8660.409521
87589.730687,592.164754,-1685.410096,8364.327145
87589.731017,1406.391290,-2221.676944,9104.533087
87589.731347,1702.473667,-1991.848295,9770.718434
87589.731676,1628.453072,-306.438199,10436.903782
87589.732006,1628.453072,1532.190996,9844.739029
87589.732336,1628.453072,2145.067394,9178.553681
87589.732665,666.185348,1225.752797,9770.718434
87589.732995,-1332.370696,2681.334243,9770.718434
87589.733325,-2960.823768,2987.772442,10066.800811
87589.733654,-2960.823768,2451.505594,10807.006753
87589.733984,-4293.194464,1072.533697,10288.862594
87589.734314,-3997.112087,459.657299,9770.718434
87589.734644,-2442.679609,689.485948,8808.450710
87589.734973,-814.226536,995.924147,8586.388927
87589.735303,592.164754,842.705048,7772.162391
87589.735633,1036.288319,689.485948,8142.265362
87589.735962,1406.391290,1762.019645,7772.162391
87589.736292,2368.659014,1532.190996,7624.121203
87589.736622,2516.700203,229.828649,8216.285956
87589.736952,1702.473667,0.000000,8660.409521
87589.737281,1258.350101,229.828649,8808.450710
87589.737611,2442.679609,0.000000,9104.533087
87589.737941,2886.803174,-995.924147,10214.842000
87589.738270,592.164754,536.266849,9474.636058
87589.738600,-296.082377,919.314598,8586.388927
87589.738930,-962.267725,919.314598,8882.471304
87589.739259,-2664.741391,1072.533697,9474.636058
87589.739589,-4589.276840,1455.581446,11399.171507
87589.739919,-4737.318029,2145.067394,11177.109724
87589.740249,-4515.256246,1838.629195,10362.883188
87589.740578,-3256.906145,919.314598,9474.636058
87589.740908,-1998.556043,0.000000,9252.574275
87589.741238,-888.247130,1455.581446,8512.368333
87589.741567,518.144159,1685.410096,8290.306550
87589.741897,2368.659014,459.657299,8808.450710
87589.742227,2590.720797,-1149.143247,8956.491898
87589.742557,2812.782580,-1072.533697,8068.244768
87589.742886,3034.844362,-229.828649,9104.533087
87589.743216,3849.070898,-995.924147,9696.697840
87589.743546,4219.173869,-1762.019645,10510.924376
87589.743875,3701.029710,-1302.362347,11103.089130
87589.744205,3849.070898,0.000000,9992.780217
87589.744535,4071.132681,536.266849,10288.862594
87589.744864,2812.782580,919.314598,10732.986159
87589.745194,296.082377,1072.533697,9918.759623
87589.745524,-2294.638420,1532.190996,9474.636058
87589.745854,-3182.885551,536.266849,10510.924376
87589.746183,-5551.544565,0.000000,10881.027347
87589.746513,-7031.956449,-459.657299,9474.636058
87589.746843,-5551.544565,459.657299,8216.285956
87589.747172,-3627.009116,-842.705048,7772.162391
87589.747502,-3182.885551,-1302.362347,7846.182985
87589.747832,-2220.617826,229.828649,7254.018232
87589.748162,-148.041188,612.876398,6217.729913
87589.748491,2146.597232,153.219100,7031.956449
87589.748821,3404.947333,-306.438199,8882.471304
87589.749151,3108.864956,0.000000,8808.450710
87589.749480,3330.926739,76.609550,8438.347739
87589.749810,4219.173869,-536.266849,9474.636058
87589.750140,4071.132681,-766.095498,10658.965565
87589.750469,3775.050304,306.438199,10510.924376
87589.750799,3182.885551,2145.067394,10140.821405
87589.751129,2220.617826,2834.553343,10288.862594
87589.751459,74.020594,1762.019645,9992.780217
87589.751788,-1776.494261,2068.457845,9474.636058
87589.752118,-3849.070898,2987.772442,9178.553681
87589.752448,-5329.482782,2757.943793,9622.677246
87589.752777,-5403.503377,1685.410096,10066.800811
87589.753107,-5477.523971,842.705048,9474.636058
87589.753437,-5625.565159,536.266849,7994.224174
87589.753766,-4219.173869,153.219100,7105.977043
87589.754096,-2368.659014,0.000000,7328.038826
87589.754426,-1628.453072,153.219100,7698.141797
87589.754756,0.000000,76.609550,8512.368333
87589.755085,1406.391290,-383.047749,8364.327145
87589.755415,2664.741391,-306.438199,8290.306550
87589.755745,3701.029710,153.219100,9326.594869
87589.756074,4071.132681,1072.533697,10584.944971
87589.756404,5255.462188,1302.362347,10436.903782
87589.756734,6883.915261,1608.800546,11621.233289
87589.757064,6069.688724,1685.410096,11473.192101
87589.757393,3849.070898,2757.943793,9400.615463
87589.757723,2294.638420,2681.334243,9178.553681
87589.758053,962.267725,1762.019645,10066.800811
87589.758382,-1702.473667,766.095498,10732.986159
87589.758712,-4737.318029,766.095498,10510.924376
87589.759042,-6069.688724,-306.438199,10362.883188
87589.759371,-5107.421000,-1149.143247,9252.574275
87589.759701,-3923.091493,-1915.238745,8882.471304
87589.760031,-3256.906145,-842.705048,8364.327145
87589.760361,-1924.535449,153.219100,7254.018232
87589.760690,666.185348,-612.876398,8216.285956
87589.761020,2220.617826,-919.314598,8956.491898
87589.761350,1628.453072,0.000000,7698.141797
87589.761679,2294.638420,0.000000,7920.203579
87589.762009,3923.091493,-1225.752797,8512.368333
87589.762339,3849.070898,-1838.629195,10066.800811
87589.762669,2812.782580,-1378.971896,10436.903782
87589.762998,2516.700203,-383.047749,9770.718434
87589.763328,2738.761985,-229.828649,9548.656652
87589.763658,2220.617826,-383.047749,10362.883188
87589.763987,74.020594,536.266849,10140.821405
87589.764317,-2368.659014,1455.581446,9400.615463
87589.764646,-2516.700203,995.924147,9770.718434
87589.764976,-3627.009116,383.047749,10140.821405
87589.765306,-4811.338623,1149.143247,9770.718434
87589.765635,-5551.544565,1225.752797,8438.347739
87589.765965,-3923.091493,229.828649,8512.368333
87589.766294,-2072.576638,-919.314598,8290.306550
87589.766624,-2072.576638,0.000000,7920.203579
87589.766953,-814.226536,459.657299,7328.038826
87589.767283,888.247130,1149.143247,7698.141797
87589.767612,2368.659014,536.266849,8068.244768
87589.767942,2368.659014,-1302.362347,9622.677246
87589.768272,1924.535449,0.000000,9326.594869
87589.768601,2664.741391,76.609550,8882.471304
87589.768931,3923.091493,-306.438199,10584.944971
87589.769260,3552.988522,76.609550,10807.006753
87589.769590,1998.556043,2068.457845,9474.636058
87589.769919,1776.494261,2681.334243,10140.821405
87589.770249,888.247130,2145.067394,10658.965565
87589.770578,-1554.432478,1915.238745,10288.862594
87589.770908,-3997.112087,1532.190996,9992.780217
87589.771237,-5033.400406,1762.019645,10584.944971
87589.771567,-5107.421000,1532.190996,10066.800811
87589.771897,-3997.112087,0.000000,10140.821405
87589.772226,-2738.761985,842.705048,9622.677246
87589.772556,-1702.473667,2068.457845,7994.224174
87589.772885,1036.288319,1915.238745,7920.203579
87589.773215,2664.741391,1915.238745,8586.388927
87589.773544,2812.782580,1532.190996,7772.162391
87589.773874,2960.823768,995.924147,7920.203579
87589.774203,3701.029710,-153.219100,8364.327145
87589.774533,3627.009116,-383.047749,9474.636058
87589.774863,2516.700203,-612.876398,9548.656652
87589.775192,2442.679609,-383.047749,10214.842000
87589.775522,2368.659014,-459.657299,10066.800811
87589.775851,2590.720797,0.000000,9696.697840
87589.776181,1110.308913,842.705048,9770.718434
87589.776510,-444.123565,2681.334243,8586.388927
87589.776840,-962.267725,2374.896044,8808.450710
87589.777169,-2516.700203,1991.848295,10362.883188
87589.777499,-5477.523971,1608.800546,10288.862594
87589.777828,-6513.812290,1225.752797,9770.718434
87589.778158,-4737.318029,-383.047749,8734.430116
87589.778488,-3552.988522,-1991.848295,8142.265362
87589.778817,-3775.050304,-842.705048,8142.265362
87589.779147,-2516.700203,0.000000,7920.203579
87589.779476,0.000000,689.485948,7994.224174
87589.779806,1110.308913,-842.705048,9178.553681
87589.780135,1554.432478,-2374.896044,8216.285956
87589.780465,1628.453072,-1225.752797,7920.203579
87589.780794,3775.050304,-689.485948,8142.265362
87589.781124,4811.338623,-229.828649,10881.027347
87589.781454,4441.235652,0.000000,11621.233289
87589.781783,3108.864956,383.047749,9696.697840
87589.782113,3775.050304,383.047749,9918.759623
87589.782442,3849.070898,459.657299,10436.903782
87589.782772,1110.308913,1225.752797,9918.759623
87589.783101,-1702.473667,1532.190996,9696.697840
87589.783431,-2590.720797,1378.971896,9844.739029
87589.783760,-4367.215058,1608.800546,9770.718434
87589.784090,-5033.400406,919.314598,11029.068536
87589.784420,-5107.421000,1072.533697,9474.636058
87589.784749,-3775.050304,306.438199,7698.141797
87589.785079,-1480.411884,-459.657299,8660.409521
87589.785408,-592.164754,0.000000,8142.265362
87589.785738,-296.082377,1149.143247,7772.162391
87589.786067,888.247130,1302.362347,7994.224174
87589.786397,2590.720797,-612.876398,8882.471304
87589.786726,2220.617826,-766.095498,9326.594869
87589.787056,1924.535449,-459.657299,9030.512492
87589.787385,2664.741391,0.000000,9918.759623
87589.787715,3627.009116,0.000000,9770.718434
87589.788045,3775.050304,306.438199,10362.883188
87589.788374,3775.050304,1991.848295,10584.944971
87589.788704,2368.659014,4213.525239,10214.842000
87589.789033,1406.391290,2757.943793,9474.636058
87589.789363,-148.041188,1838.629195,9918.759623
87589.789692,-2960.823768,1915.238745,9474.636058
87589.790022,-5329.482782,3064.381992,9400.615463
87589.790351,-5699.585753,2834.553343,9548.656652
87589.790681,-5773.606348,842.705048,10066.800811
87589.791011,-5921.647536,0.000000,9178.553681
87589.791340,-4219.173869,229.828649,7105.977043
87589.791670,-2368.659014,1225.752797,7328.038826
87589.791999,-666.185348,1532.190996,7179.997637
87589.792329,296.082377,1149.143247,7994.224174
87589.792658,1480.411884,1072.533697,6957.935855
87589.792988,3108.864956,1072.533697,7550.100608
87589.793317,3849.070898,1149.143247,8512.368333
87589.793647,3552.988522,459.657299,9622.677246
87589.793976,3256.906145,153.219100,9326.594869
87589.794306,4293.194464,229.828649,10362.883188
87589.794636,4367.215058,-153.219100,10807.006753
87589.794965,2294.638420,1225.752797,9844.739029
87589.795295,296.082377,1608.800546,9622.677246
87589.795624,-518.144159,1225.752797,9548.656652
87589.795954,-1924.535449,459.657299,9992.780217
87589.796283,-3552.988522,766.095498,11325.150913
87589.796613,-4811.338623,1991.848295,11103.089130
87589.796942,-3701.029710,1685.410096,9474.636058
87589.797272,-1628.453072,229.828649,9400.615463
87589.797602,-1332.370696,-1072.533697,8882.471304
87589.797931,-1480.411884,153.219100,7476.080014
87589.798261,518.144159,995.924147,7772.162391
87589.798590,2368.659014,-459.657299,8808.450710
87589.798920,1998.556043,-1685.410096,8808.450710
87589.799249,1332.370696,-1915.238745,8660.409521
87589.799579,2368.659014,-1532.190996,8808.450710
87589.799908,3108.864956,-1608.800546,9400.615463
87589.800238,2960.823768,-2068.457845,10807.006753
87589.800568,2812.782580,-842.705048,10807.006753
87589.800897,3256.906145,153.219100,9474.636058
87589.801227,3404.947333,1072.533697,9622.677246
87589.801556,1258.350101,1532.190996,10732.986159
87589.801886,-1036.288319,1608.800546,9400.615463
87589.802215,-2516.700203,2068.457845,8956.491898
87589.802545,-2960.823768,153.219100,10510.924376
87589.802874,-4811.338623,0.000000,11029.068536
87589.803204,-5699.585753,536.266849,9844.739029
87589.803533,-4219.173869,229.828649,9474.636058
87589.803863,-2368.659014,-766.095498,9326.594869
87589.804193,-1036.288319,-1608.800546,8956.491898
87589.804522,-740.205942,919.314598,7772.162391
87589.804852,740.205942,1762.019645,7624.121203
87589.805181,2516.700203,919.314598,7772.162391
87589.805511,3256.906145,-306.438199,8586.388927
87589.805840,2368.659014,306.438199,8734.430116
87589.806170,1480.411884,1149.143247,8512.368333
87589.806499,2368.659014,-459.657299,9252.574275
87589.806829,2886.803174,-766.095498,9474.636058
87589.807159,1554.432478,-536.266849,9474.636058
87589.807488,592.164754,1378.971896,9252.574275
87589.807818,444.123565,1838.629195,9104.533087
87589.808147,-962.267725,1302.362347,9252.574275
87589.808477,-2590.720797,1762.019645,10066.800811
87589.808806,-4885.359217,3140.991542,9992.780217
87589.809136,-3997.112087,3370.820191,9770.718434
87589.809465,-2960.823768,1838.629195,10288.862594
87589.809795,-3108.864956,919.314598,9474.636058
87589.810125,-3034.844362,1302.362347,8068.244768
87589.810454,-888.247130,2145.067394,7550.100608
87589.810784,1184.329507,1455.581446,8734.430116
87589.811113,1332.370696,1378.971896,8438.347739
87589.811443,1036.288319,229.828649,6883.915261
87589.811772,1998.556043,306.438199,8216.285956
87589.812102,2664.741391,153.219100,9104.533087
87589.812431,2590.720797,-612.876398,10214.842000
87589.812761,2590.720797,-612.876398,10214.842000
87589.813090,3256.906145,459.657299,9400.615463
87589.813420,4515.256246,689.485948,10658.965565
87589.813750,3775.050304,1378.971896,10955.047942
87589.814079,1036.288319,2374.896044,10140.821405
87589.814409,-666.185348,1838.629195,8956.491898
87589.814738,-1480.411884,1302.362347,10066.800811
87589.815068,-3256.906145,1225.752797,11473.192101
87589.815397,-5921.647536,1149.143247,11103.089130
87589.815727,-5033.400406,459.657299,10140.821405
87589.816056,-4145.153275,76.609550,8882.471304
87589.816386,-2516.700203,-1149.143247,8660.409521
87589.816716,-1924.535449,-383.047749,8142.265362
87589.817045,0.000000,919.314598,7550.100608
87589.817375,2368.659014,536.266849,7994.224174
87589.817704,2516.700203,-689.485948,9104.533087
87589.818034,1998.556043,-919.314598,8290.306550
87589.818363,2146.597232,-536.266849,7698.141797
87589.818693,3182.885551,-2374.896044,8808.450710
87589.819022,2960.823768,-2911.162892,10584.944971
87589.819352,2072.576638,-1302.362347,10658.965565
87589.819681,2516.700203,-383.047749,9918.759623
87589.820011,2072.576638,-306.438199,9844.739029
87589.820341,592.164754,-229.828649,9622.677246
87589.820670,-1702.473667,383.047749,9696.697840
87589.821000,-2738.761985,1455.581446,9844.739029
87589.821329,-3256.906145,1149.143247,10140.821405
87589.821659,-3849.070898,612.876398,10807.006753
87589.821988,-5403.503377,919.314598,9770.718434
87589.822318,-5403.503377,536.266849,8586.388927
87589.822647,-2516.700203,76.609550,7550.100608
87589.822977,-1406.391290,-536.266849,7920.203579
87589.823307,-666.185348,-153.219100,7994.224174
87589.823636,296.082377,689.485948,7476.080014
87589.823966,1702.473667,842.705048,7698.141797
87589.824295,2590.720797,-383.047749,8216.285956
87589.824625,2368.659014,-1685.410096,8734.430116
87589.824954,2886.803174,0.000000,9178.553681
87589.825284,3775.050304,536.266849,9474.636058
87589.825613,4367.215058,766.095498,10955.047942
87589.825943,3404.947333,459.657299,11547.212695
87589.826273,1850.514855,1302.362347,9992.780217
87589.826602,1110.308913,2068.457845,9178.553681
87589.826932,444.123565,2068.457845,10658.965565
87589.827261,-2664.741391,1532.190996,10584.944971
87589.827591,-4737.318029,1991.848295,10214.842000
87589.827920,-5403.503377,1838.629195,10436.903782
87589.828250,-4811.338623,1608.800546,10288.862594
87589.828579,-4145.153275,689.485948,9918.759623
87589.828909,-3108.864956,1072.533697,9252.574275
87589.829238,-740.205942,2451.505594,7402.059420
87589.829568,1258.350101,2604.724693,7402.059420
87589.829898,2220.617826,1072.533697,8364.327145
87589.830227,2368.659014,1378.971896,8216.285956
87589.830557,2664.741391,1532.190996,7476.080014
87589.830886,3775.050304,229.828649,8586.388927
87589.831216,2886.803174,-1072.533697,9178.553681
87589.831545,2442.679609,-612.876398,10584.944971
87589.831875,3182.885551,536.266849,9622.677246
87589.832204,3478.967927,383.047749,9992.780217
87589.832534,2516.700203,459.657299,9844.739029
87589.832864,1036.288319,1302.362347,9548.656652
87589.833193,-444.123565,2681.334243,9030.512492
87589.833523,-1258.350101,2451.505594,9326.594869
87589.833852,-2590.720797,2068.457845,10362.883188
87589.834182,-4959.379811,1225.752797,9918.759623
87589.834511,-6217.729913,1149.143247,9622.677246
87589.834841,-4811.338623,153.219100,9326.594869
87589.835170,-3404.947333,-1685.410096,9474.636058
87589.835500,-3108.864956,-1838.629195,8364.327145
87589.835829,-1702.473667,-1762.019645,7994.224174
87589.836159,296.082377,-689.485948,7772.162391
87589.836489,1850.514855,-842.705048,8290.306550
87589.836818,2368.659014,-1225.752797,8882.471304
87589.837148,2886.803174,-842.705048,8290.306550
87589.837477,4663.297435,-536.266849,8512.368333
87589.837807,5107.421000,-306.438199,9548.656652
87589.838136,4885.359217,-459.657299,10066.800811
87589.838466,3997.112087,229.828649,9696.697840
87589.838795,4071.132681,612.876398,9548.656652
87589.839125,2812.782580,536.266849,10362.883188
87589.839455,-370.102971,842.705048,9696.697840
87589.839784,-2738.761985,689.485948,9474.636058
87589.840114,-3923.091493,153.219100,9918.759623
87589.840443,-5033.400406,306.438199,10955.047942
87589.840773,-5551.544565,689.485948,10510.924376
87589.841102,-5477.523971,383.047749,9326.594869
87589.841432,-3775.050304,0.000000,7920.203579
87589.841761,-1628.453072,-306.438199,8512.368333
87589.842091,-740.205942,383.047749,8586.388927
87589.842421,-444.123565,1225.752797,7698.141797
87589.842750,1628.453072,536.266849,7846.182985
87589.843080,3478.967927,-383.047749,9474.636058
87589.843409,2664.741391,-1302.362347,9178.553681
87589.843739,2442.679609,-919.314598,9178.553681
87589.844068,2960.823768,-459.657299,10288.862594
87589.844398,4071.132681,0.000000,11029.068536
87589.844727,4737.318029,612.876398,11029.068536
87589.845057,3923.091493,2298.286494,10288.862594
87589.845386,2590.720797,2757.943793,9474.636058
87589.845716,1628.453072,3140.991542,9400.615463
87589.846046,0.000000,3294.210641,9918.759623
87589.846375,-3108.864956,2911.162892,9696.697840
87589.846705,-5329.482782,2451.505594,9178.553681
87589.847034,-5625.565159,1762.019645,9474.636058
87589.847364,-5847.626942,306.438199,9104.533087
87589.847693,-5847.626942,229.828649,7994.224174
87589.848023,-4367.215058,459.657299,8068.244768
87589.848352,-2664.741391,306.438199,7105.977043
87589.848682,-1184.329507,229.828649,7254.018232
87589.849012,296.082377,306.438199,7772.162391
87589.849341,740.205942,766.095498,7698.141797
87589.849671,2664.741391,383.047749,7772.162391
87589.850000,4071.132681,153.219100,9696.697840
87589.850330,2738.761985,689.485948,10658.965565
87589.850659,2738.761985,1225.752797,9326.594869
87589.850989,4589.276840,612.876398,9844.739029
87589.851318,4589.276840,0.000000,10436.903782
87589.851648,1628.453072,1225.752797,10214.842000
87589.851978,0.000000,1991.848295,9252.574275
87589.852307,-888.247130,1685.410096,9548.656652
87589.852637,-2368.659014,229.828649,9992.780217
87589.852966,-4293.194464,383.047749,10362.883188
87589.853296,-5033.400406,1302.362347,10288.862594
87589.853625,-3701.029710,1072.533697,9326.594869
87589.853955,-2220.617826,-536.266849,9844.739029
87589.854284,-1480.411884,-536.266849,9030.512492
87589.854614,-1258.350101,842.705048,7476.080014
87589.854943,814.226536,1149.143247,7402.059420
87589.855273,2220.617826,0.000000,8068.244768
87589.855603,1924.535449,-766.095498,8216.285956
87589.855932,1110.308913,-1072.533697,7994.224174
87589.856262,1702.473667,-1378.971896,8068.244768
87589.856591,2442.679609,-2068.457845,9326.594869
87589.856921,2220.617826,-1608.800546,11695.253884
87589.857250,1628.453072,-919.314598,10807.006753
87589.857580,2590.720797,-229.828649,9326.594869
87589.857909,3182.885551,153.219100,9992.780217
87589.858239,1702.473667,766.095498,11473.192101
87589.858569,-962.267725,2451.505594,9622.677246
87589.858898,-1776.494261,2528.115143,9770.718434
87589.859228,-2664.741391,842.705048,11473.192101
87589.859557,-4293.194464,153.219100,11547.212695
87589.859887,-4515.256246,153.219100,9252.574275
87589.860216,-2442.679609,612.876398,9030.512492
87589.860546,-1702.473667,-1072.533697,8956.491898
87589.860875,-814.226536,-842.705048,8586.388927
87589.861205,592.164754,995.924147,8290.306550
87589.861534,1628.453072,1532.190996,8142.265362
87589.861864,2738.761985,229.828649,7994.224174
87589.862194,3182.885551,-689.485948,8068.244768
87589.862523,3330.926739,-153.219100,8438.347739
87589.862853,2516.700203,0.000000,8512.368333
87589.863182,3034.844362,0.000000,9770.718434
87589.863512,3627.009116,-766.095498,10436.903782
87589.863841,2220.617826,229.828649,9326.594869
87589.864171,1036.288319,1608.800546,8586.388927
87589.864500,0.000000,1838.629195,9770.718434
87589.864830,-1332.370696,842.705048,9474.636058
87589.865160,-3478.967927,1225.752797,9696.697840
87589.865489,-5329.482782,2451.505594,10140.821405
87589.865819,-5625.565159,1991.848295,9622.677246
87589.866148,-4885.359217,995.924147,9474.636058
87589.866478,-3849.070898,689.485948,9474.636058
87589.866807,-3034.844362,995.924147,7772.162391
87589.867137,-1258.350101,1072.533697,7772.162391
87589.867466,888.247130,536.266849,7476.080014
87589.867795,1406.391290,919.314598,7994.224174
87589.868125,1702.473667,689.485948,8290.306550
87589.868454,2516.700203,612.876398,8660.409521
87589.868784,3256.906145,76.609550,9178.553681
87589.869113,3404.947333,-459.657299,10436.903782
87589.869443,3404.947333,-536.266849,10807.006753
87589.869772,3923.091493,1149.143247,10288.862594
87589.870101,4441.235652,1149.143247,10881.027347
87589.870431,2812.782580,1608.800546,10362.883188
87589.870760,222.061783,2374.896044,9104.533087
87589.871090,-1406.391290,2451.505594,8142.265362
87589.871419,-2886.803174,2145.067394,10066.800811
87589.871749,-5181.441594,612.876398,10140.821405
87589.872078,-7624.121203,612.876398,9400.615463
87589.872407,-6809.894666,-383.047749,9104.533087
87589.872737,-4515.256246,-842.705048,9030.512492
87589.873066,-2960.823768,-383.047749,9252.574275
87589.873396,-1554.432478,766.095498,9104.533087
87589.873725,444.123565,1378.971896,7920.203579
87589.874055,3478.967927,383.047749,7772.162391
87589.874384,4811.338623,306.438199,9252.574275
87589.874713,3997.112087,919.314598,8808.450710
87589.875043,4145.153275,689.485948,8734.430116
87589.875372,4737.318029,-536.266849,10510.924376
87589.875702,4219.173869,-1991.848295,11473.192101
87589.876031,3034.844362,-1378.971896,10288.862594
87589.876361,2590.720797,-153.219100,9844.739029
87589.876690,2220.617826,306.438199,10362.883188
87589.877020,74.020594,229.828649,10066.800811
87589.877349,-1924.535449,612.876398,9622.677246
87589.877678,-3849.070898,1685.410096,9474.636058
87589.878008,-5551.544565,1685.410096,9548.656652
87589.878337,-5477.523971,1072.533697,10288.862594
87589.878667,-6069.688724,1072.533697,8956.491898
87589.878996,-5329.482782,76.609550,8438.347739
87589.879326,-3108.864956,-919.314598,7846.182985
87589.879655,-1480.411884,-995.924147,7402.059420
87589.879984,-296.082377,229.828649,7105.977043
87589.880314,1554.432478,1225.752797,7698.141797
87589.880643,3330.926739,1072.533697,8290.306550
87589.880973,4367.215058,0.000000,8364.327145
87589.881302,4367.215058,-689.485948,8956.491898
87589.881632,4515.256246,612.876398,9178.553681
87589.881961,5255.462188,919.314598,9474.636058
87589.882290,5403.503377,689.485948,11103.089130
87589.882620,4589.276840,536.266849,11029.068536
87589.882949,1998.556043,1532.190996,10066.800811
87589.883279,592.164754,2298.286494,9696.697840
87589.883608,-1184.329507,1532.190996,10288.862594
87589.883938,-3849.070898,995.924147,9918.759623
87589.884267,-6365.771101,1149.143247,10066.800811
87589.884597,-7402.059420,1608.800546,10140.821405
87589.884926,-6883.915261,306.438199,9252.574275
87589.885255,-5625.565159,76.609550,9104.533087
87589.885585,-3701.029710,153.219100,7624.121203
87589.885914,-2294.638420,995.924147,7105.977043
87589.886244,666.185348,1149.143247,7550.100608
87589.886573,2664.741391,919.314598,8882.471304
87589.886903,2072.576638,1149.143247,8660.409521
87589.887232,2738.761985,229.828649,9178.553681
87589.887561,3923.091493,-1149.143247,9548.656652
87589.887891,3775.050304,-1225.752797,10658.965565
87589.888220,3034.844362,-1302.362347,10214.842000
87589.888550,3923.091493,-229.828649,10658.965565
87589.888879,4071.132681,1072.533697,10732.986159
87589.889209,3404.947333,2374.896044,10140.821405
87589.889538,1924.535449,3140.991542,9696.697840
87589.889867,-222.061783,3064.381992,7846.182985
87589.890197,-1480.411884,2374.896044,8734.430116
87589.890526,-3182.885551,2221.676944,10436.903782
87589.890856,-5403.503377,1762.019645,10140.821405
87589.891185,-5625.565159,459.657299,9400.615463
87589.891515,-4663.297435,-1302.362347,8956.491898
87589.891844,-4885.359217,-2451.505594,9104.533087
87589.892173,-3923.091493,-995.924147,8364.327145
87589.892503,-1480.411884,-306.438199,9252.574275
87589.892832,296.082377,-995.924147,8956.491898
87589.893162,1184.329507,-1685.410096,7994.224174
87589.893491,1776.494261,-766.095498,8216.285956
87589.893821,2294.638420,76.609550,8586.388927
87589.894150,3552.988522,459.657299,9400.615463
87589.894480,4145.153275,-306.438199,10214.842000
87589.894809,3849.070898,-459.657299,10140.821405
87589.895138,2886.803174,842.705048,8956.491898
87589.895468,2664.741391,1455.581446,8882.471304
87589.895797,1258.350101,1072.533697,9252.574275
87589.896127,-1480.411884,1072.533697,9104.533087
87589.896456,-3404.947333,1378.971896,9030.512492
87589.896786,-4293.194464,1915.238745,9696.697840
87589.897115,-5181.441594,1149.143247,10066.800811
87589.897444,-5551.544565,306.438199,9696.697840
87589.897774,-4737.318029,306.438199,8808.450710
87589.898103,-1998.556043,612.876398,7994.224174
87589.898433,0.000000,536.266849,8216.285956
87589.898762,1258.350101,1072.533697,8512.368333
87589.899092,814.226536,1915.238745,8068.244768
87589.899421,2220.617826,612.876398,8216.285956
87589.899750,3627.009116,-1302.362347,9030.512492
87589.900080,2738.761985,-1455.581446,9252.574275
87589.900409,2220.617826,-1302.362347,9844.739029
87589.900739,3034.844362,-995.924147,10066.800811
87589.901068,4145.153275,-1225.752797,10214.842000
87589.901398,3627.009116,-306.438199,11029.068536
87589.901727,2664.741391,1378.971896,11029.068536
87589.902057,1998.556043,2757.943793,9770.718434
87589.902386,1480.411884,2451.505594,10362.883188
87589.902715,-592.164754,1302.362347,10955.047942
87589.903045,-3849.070898,1455.581446,10362.883188
87589.903374,-5329.482782,1991.848295,9696.697840
87589.903704,-4145.153275,1608.800546,10214.842000
87589.904033,-4515.256246,306.438199,9992.780217
87589.904363,-4367.215058,-229.828649,8586.388927
87589.904692,-2442.679609,153.219100,7994.224174
87589.905021,-814.226536,536.266849,7031.956449
87589.905351,814.226536,459.657299,6809.894666
87589.905680,1036.288319,1225.752797,7550.100608
87589.906010,1998.556043,1149.143247,7550.100608
87589.906339,3256.906145,689.485948,7994.224174
87589.906669,3627.009116,0.000000,9400.615463
87589.906998,2886.803174,-229.828649,9474.636058
87589.907327,2072.576638,459.657299,9178.553681
87589.907657,3034.844362,76.609550,9474.636058
87589.907986,1850.514855,689.485948,10732.986159
87589.908316,-222.061783,1532.190996,9622.677246
87589.908645,-1924.535449,1225.752797,9622.677246
87589.908975,-2738.761985,1302.362347,9622.677246
87589.909304,-4145.153275,1838.629195,10214.842000
87589.909633,-5551.544565,1608.800546,10732.986159
87589.909963,-5403.503377,1455.581446,9622.677246
87589.910292,-3330.926739,1302.362347,8068.244768
87589.910622,-1480.411884,766.095498,9030.512492
87589.910951,-1184.329507,995.924147,8438.347739
87589.911281,-518.144159,1685.410096,7254.018232
87589.911610,1702.473667,229.828649,7105.977043
87589.911940,2664.741391,-919.314598,8808.450710
87589.912269,1998.556043,-459.657299,8808.450710
87589.912598,2368.659014,-612.876398,8882.471304
87589.912928,3034.844362,-2374.896044,9178.553681
87589.913257,2664.741391,-1685.410096,9622.677246
87589.913587,3182.885551,-1302.362347,10436.903782
87589.913916,3849.070898,383.047749,10140.821405
87589.914246,3701.029710,1455.581446,9696.697840
87589.914575,2812.782580,1685.410096,9548.656652
87589.914904,814.226536,1915.238745,10066.800811
87589.915234,-1776.494261,2298.286494,8956.491898
87589.915563,-3256.906145,1838.629195,9770.718434
87589.915893,-3923.091493,1072.533697,11177.109724
87589.916222,-4441.235652,383.047749,10955.047942
87589.916552,-4219.173869,-536.266849,9696.697840
87589.916881,-2664.741391,-995.924147,8290.306550
87589.917210,-888.247130,-1455.581446,7994.224174
87589.917540,888.247130,536.266849,8808.450710
87589.917869,2072.576638,1455.581446,9326.594869
87589.918199,3256.906145,842.705048,8438.347739
87589.918528,4515.256246,-612.876398,8142.265362
87589.918858,4293.194464,-1225.752797,9474.636058
87589.919187,2664.741391,-383.047749,9326.594869
87589.919517,2294.638420,-383.047749,10584.944971
87589.919846,3330.926739,-1378.971896,11473.192101
87589.920175,2812.782580,-1378.971896,11325.150913
87589.920505,1110.308913,0.000000,9548.656652
87589.920834,-222.061783,1455.581446,9474.636058
87589.921164,-1406.391290,1378.971896,9326.594869
87589.921493,-2590.720797,1149.143247,9474.636058
87589.921823,-5033.400406,1685.410096,9992.780217
87589.922152,-7550.100608,3217.601092,9474.636058
87589.922481,-6587.832884,2068.457845,9622.677246
87589.922811,-5181.441594,536.266849,9992.780217
87589.923140,-4219.173869,0.000000,9252.574275
87589.923470,-3034.844362,1072.533697,7328.038826
87589.923799,0.000000,919.314598,6883.915261
87589.924129,1110.308913,1225.752797,7846.182985
87589.924458,740.205942,919.314598,7550.100608
87589.924787,1850.514855,306.438199,7105.977043
87589.925117,2738.761985,-612.876398,7994.224174
87589.925446,2812.782580,-1455.581446,8660.409521
87589.925776,2442.679609,-536.266849,9696.697840
87589.926105,2886.803174,-689.485948,10066.800811
87589.926435,3701.029710,612.876398,9770.718434
87589.926764,3849.070898,995.924147,10288.862594
87589.927093,2368.659014,2451.505594,10140.821405
87589.927423,666.185348,3677.258390,9104.533087
87589.927752,-740.205942,3294.210641,9400.615463
87589.928082,-2516.700203,1838.629195,9992.780217
87589.928411,-5403.503377,1455.581446,10214.842000
87589.928741,-5625.565159,2298.286494,9474.636058
87589.929070,-4219.173869,766.095498,9400.615463
87589.929400,-3478.967927,0.000000,8956.491898
87589.929729,-2516.700203,-1225.752797,8956.491898
87589.930058,-1184.329507,-536.266849,8364.327145
87589.930388,888.247130,689.485948,7772.162391
87589.930717,2886.803174,689.485948,8734.430116
87589.931047,3478.967927,-842.705048,9548.656652
87589.931376,3478.967927,-383.047749,7994.224174
87589.931706,4219.173869,-842.705048,8956.491898
87589.932035,5033.400406,-1072.533697,9844.739029
87589.932364,4663.297435,-306.438199,9844.739029
87589.932694,4367.215058,383.047749,10140.821405
87589.933023,4071.132681,2298.286494,10140.821405
87589.933353,3182.885551,1762.019645,9992.780217
87589.933682,1110.308913,1991.848295,9326.594869
87589.934012,-518.144159,1225.752797,10066.800811
87589.934341,-2812.782580,1685.410096,10066.800811
87589.934670,-4293.194464,1532.190996,11103.089130
87589.935000,-5255.462188,919.314598,11621.233289
87589.935329,-5477.523971,0.000000,10510.924376
87589.935659,-4737.318029,-383.047749,8512.368333
87589.935988,-2738.761985,-1225.752797,7772.162391
87589.936318,-1554.432478,-612.876398,7846.182985
87589.936647,-666.185348,0.000000,8142.265362
87589.936977,148.041188,-153.219100,8216.285956
87589.937306,1184.329507,-1378.971896,7846.182985
87589.937635,1702.473667,-2145.067394,7402.059420
87589.937965,2368.659014,-1225.752797,9326.594869
87589.938294,2368.659014,76.609550,9548.656652
87589.938624,3627.009116,-306.438199,10066.800811
87589.938953,3997.112087,-459.657299,10584.944971
87589.939283,2812.782580,383.047749,9918.759623
87589.939612,1184.329507,2298.286494,9104.533087
87589.939941,1184.329507,2757.943793,9474.636058
87589.940271,-518.144159,612.876398,10362.883188
87589.940600,-3330.926739,1608.800546,9992.780217
87589.940930,-5403.503377,1149.143247,10066.800811
87589.941259,-6439.791695,1149.143247,10214.842000
87589.941589,-6217.729913,306.438199,9918.759623
87589.941918,-5403.503377,0.000000,9474.636058
87589.942247,-3256.906145,153.219100,7550.100608
87589.942577,-1406.391290,383.047749,6883.915261
87589.942906,0.000000,1532.190996,6735.874072
87589.943236,888.247130,1532.190996,7402.059420
87589.943565,592.164754,689.485948,7179.997637
87589.943895,1998.556043,-536.266849,7846.182985
87589.944224,3256.906145,-1378.971896,9326.594869
87589.944553,3552.988522,-229.828649,9992.780217
87589.944883,3478.967927,76.609550,10510.924376
87589.945212,4515.256246,612.876398,10881.027347
87589.945542,4959.379811,459.657299,10955.047942
87589.945871,4293.194464,2145.067394,10807.006753
87589.946201,2886.803174,4060.306139,10214.842000
87589.946530,1850.514855,4290.134789,9770.718434
87589.946860,0.000000,3217.601092,10658.965565
87589.947189,-2590.720797,2757.943793,11325.150913
87589.947518,-4959.379811,2757.943793,10807.006753
87589.947848,-5255.462188,1991.848295,9622.677246
87589.948177,-3552.988522,-459.657299,9548.656652
87589.948507,-3034.844362,-1149.143247,8512.368333
87589.948836,-2442.679609,0.000000,7254.018232
87589.949166,-666.185348,1225.752797,6957.935855
87589.949495,1554.432478,306.438199,7476.080014
87589.949824,2442.679609,-612.876398,7772.162391
87589.950154,2220.617826,-459.657299,8438.347739
87589.950483,2664.741391,0.000000,8438.347739
87589.950813,4145.153275,-612.876398,9844.739029
87589.951142,4441.235652,-1915.238745,11177.109724
87589.951472,4219.173869,-1378.971896,11029.068536
87589.951801,2960.823768,-689.485948,10436.903782
87589.952130,2294.638420,0.000000,10362.883188
87589.952460,296.082377,229.828649,10807.006753
87589.952789,-2146.597232,153.219100,9622.677246
87589.953119,-3478.967927,76.609550,9548.656652
87589.953448,-4885.359217,842.705048,10658.965565
87589.953778,-5847.626942,1302.362347,11103.089130
87589.954107,-6217.729913,766.095498,10362.883188
87589.954437,-4293.194464,0.000000,8438.347739
87589.954766,-1924.535449,-229.828649,7179.997637
87589.955095,-296.082377,306.438199,7476.080014
87589.955425,666.185348,1378.971896,7402.059420
87589.955754,1776.494261,2068.457845,7994.224174
87589.956084,3182.885551,612.876398,7550.100608
87589.956413,3552.988522,-1608.800546,7994.224174
87589.956743,2220.617826,-2221.676944,7920.203579
87589.957072,2738.761985,-1302.362347,9104.533087
87589.957401,3330.926739,0.000000,9770.718434
87589.957731,3478.967927,-306.438199,10658.965565
87589.958060,2590.720797,-383.047749,10362.883188
87589.958390,1332.370696,1455.581446,8882.471304
87589.958719,962.267725,3294.210641,8216.285956
87589.959049,0.000000,2681.334243,9252.574275
87589.959378,-2664.741391,2298.286494,10288.862594
87589.959707,-6217.729913,2145.067394,10066.800811
87589.960037,-6587.832884,1532.190996,10436.903782
87589.960366,-5699.585753,229.828649,9992.780217
87589.960696,-5551.544565,-229.828649,9622.677246
87589.961025,-4367.215058,459.657299,8956.491898
87589.961355,-2368.659014,76.609550,8660.409521
87589.961684,0.000000,76.609550,9030.512492
87589.962013,1702.473667,536.266849,9844.739029
87589.962343,2368.659014,1225.752797,9400.615463
87589.962672,3849.070898,2145.067394,8364.327145
87589.963002,5329.482782,919.314598,9400.615463
87589.963331,5773.606348,-153.219100,10584.944971
87589.963661,4589.276840,-76.609550,10066.800811
87589.963990,4737.318029,1302.362347,9474.636058
87589.964320,4959.379811,1302.362347,9770.718434
87589.964649,2664.741391,1838.629195,10066.800811
87589.964978,666.185348,2987.772442,9696.697840
87589.965308,-888.247130,2911.162892,9844.739029
87589.965637,-2812.782580,1991.848295,9400.615463
87589.965967,-5107.421000,1302.362347,10436.903782
87589.966296,-6735.874072,1915.238745,9844.739029
87589.966626,-6513.812290,2145.067394,8734.430116
87589.966955,-4737.318029,1762.019645,8956.491898
87589.967284,-3108.864956,995.924147,9326.594869
87589.967614,-2368.659014,1685.410096,7328.038826
87589.967943,-370.102971,1072.533697,6439.791695
87589.968273,1850.514855,229.828649,7179.997637
87589.968602,2220.617826,-459.657299,8512.368333
87589.968932,1998.556043,-1225.752797,9030.512492
87589.969261,2368.659014,-1225.752797,9622.677246
87589.969591,2960.823768,-1608.800546,9474.636058
87589.969920,3478.967927,-2681.334243,9844.739029
87589.970250,4071.132681,-1608.800546,10362.883188
87589.970579,3404.947333,229.828649,9918.759623
87589.970909,3627.009116,1149.143247,10510.924376
87589.971238,2368.659014,1149.143247,10807.006753
87589.971568,-592.164754,1302.362347,8956.491898
87589.971897,-3034.844362,1378.971896,8364.327145
87589.972227,-3849.070898,306.438199,9844.739029
87589.972556,-5699.585753,-612.876398,10658.965565
87589.972886,-7476.080014,-383.047749,9844.739029
87589.973215,-6291.750507,-1072.533697,9400.615463
87589.973545,-4589.276840,-1685.410096,7550.100608
87589.973874,-2812.782580,-1378.971896,7328.038826
87589.974204,-370.102971,-766.095498,7402.059420
87589.974534,1480.411884,0.000000,7179.997637
87589.974863,3330.926739,76.609550,8216.285956
87589.975193,5107.421000,-459.657299,8882.471304
87589.975522,4589.276840,-612.876398,8734.430116
87589.975852,4145.153275,-689.485948,8956.491898
87589.976181,5033.400406,-1378.971896,10288.862594
87589.976511,5477.523971,-1991.848295,11325.150913
87589.976840,4145.153275,-1072.533697,11769.274478
87589.977170,2368.659014,689.485948,10807.006753
87589.977499,1850.514855,1608.800546,10510.924376
87589.977829,0.000000,919.314598,9474.636058
87589.978158,-2072.576638,1072.533697,10288.862594
87589.978488,-4441.235652,2451.505594,10732.986159
87589.978817,-5033.400406,2834.553343,10732.986159
87589.979147,-4515.256246,1455.581446,10658.965565
87589.979476,-4145.153275,766.095498,9696.697840
87589.979806,-3552.988522,229.828649,7994.224174
87589.980135,-2368.659014,1455.581446,7476.080014
87589.980465,0.000000,919.314598,8216.285956
87589.980794,1110.308913,612.876398,9104.533087
87589.981124,1850.514855,76.609550,8068.244768
87589.981453,2072.576638,1072.533697,7254.018232
87589.981783,2960.823768,0.000000,8216.285956
87589.982112,3775.050304,-459.657299,9400.615463
87589.982442,3034.844362,0.000000,9770.718434
87589.982771,3182.885551,766.095498,9548.656652
87589.983101,4145.153275,1455.581446,9474.636058
87589.983430,3552.988522,1762.019645,10436.903782
87589.983760,888.247130,2451.505594,9178.553681
87589.984089,-444.123565,2834.553343,8290.306550
87589.984419,-2072.576638,1838.629195,9474.636058
87589.984748,-4663.297435,1378.971896,10066.800811
87589.985078,-7179.997637,1762.019645,10214.842000
87589.985408,-6883.915261,1225.752797,9548.656652
87589.985737,-5699.585753,383.047749,9548.656652
87589.986067,-4885.359217,-995.924147,8882.471304
87589.986396,-2738.761985,-306.438199,9030.512492
87589.986726,-666.185348,995.924147,7772.162391
87589.987055,1924.535449,1225.752797,7698.141797
87589.987385,3627.009116,229.828649,8660.409521
87589.987714,3256.906145,536.266849,8882.471304
87589.988044,3108.864956,919.314598,8068.244768
87589.988373,4885.359217,76.609550,8956.491898
87589.988703,4515.256246,-1225.752797,9178.553681
87589.989032,3330.926739,-1225.752797,9104.533087
87589.989362,3256.906145,306.438199,9474.636058
87589.989691,2886.803174,842.705048,9770.718434
87589.990021,1554.432478,919.314598,9696.697840
87589.990350,-370.102971,612.876398,10066.800811
87589.990680,-2738.761985,1762.019645,8808.450710
87589.991009,-3404.947333,2145.067394,9252.574275
87589.991339,-4219.173869,1302.362347,10955.047942
87589.991668,-5255.462188,383.047749,11325.150913
87589.991998,-5773.606348,229.828649,9548.656652
87589.992327,-3701.029710,383.047749,8956.491898
87589.992657,-1776.494261,-306.438199,8660.409521
87589.992986,-666.185348,229.828649,8290.306550
87589.993316,666.185348,612.876398,8068.244768
87589.993645,2294.638420,383.047749,8290.306550
87589.993975,3256.906145,-536.266849,9030.512492
87589.994304,3552.988522,-1225.752797,10066.800811
87589.994634,3775.050304,-919.314598,9474.636058
87589.994963,4737.318029,-612.876398,9252.574275
87589.995293,5995.668130,-766.095498,10214.842000
87589.995623,4959.379811,-919.314598,10732.986159
87589.995952,3404.947333,1072.533697,10140.821405
87589.996282,2220.617826,2068.457845,10140.821405
87589.996611,1258.350101,1532.190996,10140.821405
87589.996941,-1184.329507,1455.581446,9400.615463
87589.997270,-4219.173869,1838.629195,9844.739029
87589.997600,-6365.771101,1915.238745,10066.800811
87589.997929,-6217.729913,842.705048,10436.903782
87589.998259,-5107.421000,-536.266849,9770.718434
87589.998588,-5255.462188,-612.876398,9474.636058
87589.998918,-4663.297435,229.828649,7698.141797
87589.999247,-888.247130,-459.657299,7031.956449
87589.999577,666.185348,0.000000,8660.409521
87589.999906,740.205942,-153.219100,8438.347739
87590.000236,1406.391290,-153.219100,7772.162391
87590.000565,3775.050304,-1149.143247,8512.368333
87590.000895,3701.029710,-1532.190996,9696.697840
87590.001224,2442.679609,-995.924147,9992.780217
87590.001554,3849.070898,-995.924147,9326.594869
87590.001883,4885.359217,459.657299,9622.677246
87590.002213,4589.276840,459.657299,10066.800811
87590.002542,2812.782580,2451.505594,10510.924376
87590.002872,1184.329507,3140.991542,9474.636058
87590.003201,370.102971,2374.896044,9474.636058
87590.003531,-1480.411884,1532.190996,10436.903782
87590.003860,-4885.359217,1838.629195,10214.842000
87590.004190,-5329.482782,2145.067394,9844.739029
87590.004519,-4219.173869,229.828649,9400.615463
87590.004849,-4441.235652,-1225.752797,9104.533087
87590.005178,-4219.173869,-919.314598,7624.121203
87590.005508,-2516.700203,383.047749,6735.874072
87590.005837,-740.205942,995.924147,7031.956449
87590.006167,666.185348,-383.047749,8068.244768
87590.006497,1110.308913,0.000000,8364.327145
87590.006826,1480.411884,153.219100,8956.491898
87590.007156,2664.741391,995.924147,8290.306550
87590.007485,4293.194464,-689.485948,9696.697840
87590.007815,4145.153275,-1072.533697,11177.109724
87590.008144,2368.659014,1225.752797,10584.944971
87590.008474,3256.906145,2604.724693,10436.903782
87590.008803,2738.761985,919.314598,11177.109724
87590.009133,0.000000,1072.533697,9474.636058
87590.009462,-1850.514855,2068.457845,9252.574275
87590.009792,-2886.803174,2528.115143,9548.656652
87590.010121,-4515.256246,2757.943793,10510.924376
87590.010451,-4959.379811,2604.724693,11843.295072
87590.010780,-4293.194464,2298.286494,10436.903782
87590.011110,-2886.803174,2298.286494,7624.121203
87590.011439,-1036.288319,2298.286494,7179.997637
87590.011769,-222.061783,1378.971896,8068.244768
87590.012098,148.041188,2451.505594,7772.162391
87590.012428,1406.391290,1762.019645,7698.141797
87590.012757,2590.720797,-766.095498,8512.368333
87590.013087,1998.556043,-995.924147,7994.224174
87590.013416,1776.494261,-995.924147,7772.162391
87590.013746,2960.823768,-1915.238745,9770.718434
87590.014075,3404.947333,-1455.581446,10881.027347
87590.014405,3849.070898,-1915.238745,10807.006753
87590.014734,3552.988522,-995.924147,10807.006753
87590.015064,2442.679609,1149.143247,9548.656652
87590.015393,1702.473667,2145.067394,10066.800811
87590.015723,666.185348,1378.971896,10658.965565
87590.016052,-1998.556043,612.876398,10214.842000
87590.016382,-4515.256246,766.095498,9992.780217
87590.016711,-5255.462188,459.657299,10436.903782
87590.017041,-5699.585753,153.219100,10066.800811
87590.017371,-5329.482782,-1149.143247,9104.533087
87590.017700,-3478.967927,-2604.724693,9030.512492
87590.018030,-1924.535449,-1915.238745,7994.224174
87590.018359,-296.082377,-306.438199,8290.306550
87590.018689,1184.329507,153.219100,8364.327145
87590.019018,1628.453072,-229.828649,8364.327145
87590.019348,2886.803174,-1149.143247,7698.141797
87590.019677,4441.235652,-1378.971896,8364.327145
87590.020007,4145.153275,-689.485948,9326.594869
87590.020336,3478.967927,0.000000,9770.718434
87590.020666,4071.132681,0.000000,9696.697840
87590.020995,3627.009116,0.000000,9326.594869
87590.021325,1554.432478,766.095498,9178.553681
87590.021654,-666.185348,1838.629195,8734.430116
87590.021984,-1924.535449,2451.505594,8216.285956
87590.022313,-3478.967927,2374.896044,9474.636058
87590.022643,-5477.523971,1915.238745,10436.903782
87590.022972,-7031.956449,2681.334243,9770.718434
87590.023302,-4885.359217,2145.067394,8216.285956
87590.023631,-2664.741391,1072.533697,8882.471304
87590.023961,-1554.432478,919.314598,8438.347739
87590.024290,-962.267725,2451.505594,7698.141797
87590.024620,1406.391290,3140.991542,7179.997637
87590.024949,3330.926739,1149.143247,8660.409521
87590.025279,2516.700203,76.609550,9474.636058
87590.025608,2368.659014,536.266849,9252.574275
87590.025938,2886.803174,306.438199,9622.677246
87590.026267,3627.009116,-995.924147,10584.944971
87590.026597,3256.906145,-1455.581446,11177.109724
87590.026926,3404.947333,153.219100,10955.047942
87590.027256,3404.947333,1915.238745,10436.903782
87590.027585,2812.782580,2451.505594,10436.903782
87590.027915,1258.350101,2298.286494,10066.800811
87590.028245,-1480.411884,2451.505594,8660.409521
87590.028574,-2886.803174,2528.115143,9252.574275
87590.028904,-3923.091493,1762.019645,9992.780217
87590.029233,-5921.647536,1762.019645,9770.718434
87590.029563,-6513.812290,153.219100,9178.553681
87590.029892,-4589.276840,-229.828649,9178.553681
87590.030222,-2368.659014,-612.876398,8956.491898
87590.030551,-740.205942,0.000000,8956.491898
87590.030881,666.185348,383.047749,8660.409521
87590.031210,2368.659014,995.924147,7994.224174
87590.031540,4145.153275,-229.828649,8364.327145
87590.031869,4885.359217,-689.485948,9326.594869
87590.032199,3923.091493,0.000000,8956.491898
87590.032528,3923.091493,-383.047749,9474.636058
87590.032858,4737.318029,-1608.800546,10140.821405
87590.033187,3923.091493,-1532.190996,9844.739029
87590.033517,1628.453072,-1149.143247,9030.512492
87590.033846,518.144159,-459.657299,10214.842000
87590.034176,-1110.308913,0.000000,8586.388927
87590.034505,-2738.761985,0.000000,8808.450710
87590.034835,-4515.256246,76.609550,9844.739029
87590.035164,-6809.894666,459.657299,9992.780217
87590.035494,-6587.832884,612.876398,9622.677246
87590.035823,-4663.297435,0.000000,10214.842000
87590.036153,-5107.421000,-383.047749,9252.574275
87590.036482,-4145.153275,76.609550,7772.162391
87590.036812,-370.102971,306.438199,7994.224174
87590.037141,1480.411884,1149.143247,8438.347739
87590.037471,1628.453072,1532.190996,8734.430116
87590.037800,2590.720797,1072.533697,8586.388927
87590.038130,4145.153275,306.438199,7994.224174
87590.038459,4293.194464,-153.219100,8438.347739
87590.038789,3552.988522,-153.219100,9992.780217
87590.039119,3775.050304,153.219100,9770.718434
87590.039448,4219.173869,459.657299,9474.636058
87590.039778,3997.112087,153.219100,10584.944971
87590.040107,2294.638420,995.924147,10658.965565
87590.040437,-148.041188,2451.505594,8438.347739
87590.040766,-1036.288319,1838.629195,8142.265362
87590.041096,-2516.700203,1072.533697,9548.656652
87590.041425,-5329.482782,919.314598,10214.842000
87590.041755,-6365.771101,2298.286494,9918.759623
87590.042084,-5403.503377,1685.410096,9474.636058
87590.042414,-4441.235652,459.657299,8956.491898
87590.042743,-2294.638420,0.000000,9474.636058
87590.043073,-592.164754,1302.362347,8512.368333
87590.043402,1554.432478,689.485948,7772.162391
87590.043732,3108.864956,689.485948,8512.368333
87590.044061,3256.906145,-766.095498,9844.739029
87590.044391,2738.761985,-383.047749,9548.656652
87590.044720,3330.926739,76.609550,9918.759623
87590.045050,4663.297435,-1302.362347,11473.192101
87590.045379,3404.947333,-2451.505594,11251.130318
87590.045709,3034.844362,-1915.238745,10140.821405
87590.046038,3108.864956,0.000000,10436.903782
87590.046368,2442.679609,1225.752797,9992.780217
87590.046697,1036.288319,1838.629195,10881.027347
87590.047027,-962.267725,2987.772442,9918.759623
87590.047356,-3256.906145,3600.648841,8068.244768
87590.047686,-4293.194464,1915.238745,9178.553681
87590.048015,-5181.441594,1072.533697,10362.883188
87590.048345,-6957.935855,1532.190996,9400.615463
87590.048674,-5329.482782,459.657299,8512.368333
87590.049004,-3404.947333,-459.657299,8734.430116
87590.049333,-2442.679609,-995.924147,8438.347739
87590.049663,-2368.659014,0.000000,6439.791695
87590.049993,-444.123565,1072.533697,7105.977043
87590.050322,1924.535449,536.266849,8216.285956
87590.050652,2368.659014,383.047749,8290.306550
87590.050981,2516.700203,919.314598,8438.347739
87590.051311,3256.906145,919.314598,8290.306550
87590.051640,4071.132681,459.657299,8586.388927
87590.051970,4293.194464,536.266849,10140.821405
87590.052299,2590.720797,2298.286494,10288.862594
87590.052629,592.164754,2145.067394,8882.471304
87590.052958,74.020594,919.314598,8512.368333
87590.053288,-1480.411884,0.000000,8734.430116
87590.053617,-4737.318029,1149.143247,9252.574275
87590.053947,-5921.647536,2528.115143,9770.718434
87590.054276,-5551.544565,1608.800546,10732.986159
87590.054606,-4293.194464,0.000000,10436.903782
87590.054935,-3849.070898,153.219100,9030.512492
87590.055265,-1702.473667,1378.971896,7476.080014
87590.055594,592.164754,1991.848295,6883.915261
87590.055924,2886.803174,1072.533697,8438.347739
87590.056253,4441.235652,229.828649,9548.656652
87590.056583,3997.112087,76.609550,8882.471304
87590.056912,4071.132681,459.657299,9252.574275
87590.057242,4441.235652,-1991.848295,9844.739029
87590.057571,3627.009116,-2681.334243,10436.903782
87590.057901,2886.803174,-2528.115143,10807.006753
87590.058230,3404.947333,-2528.115143,11029.068536
87590.058560,2960.823768,-1991.848295,10658.965565
87590.058889,1850.514855,-1378.971896,11547.212695
87590.059219,222.061783,459.657299,10066.800811
87590.059548,-888.247130,1072.533697,9252.574275
87590.059878,-1776.494261,612.876398,9622.677246
87590.060207,-3701.029710,459.657299,10510.924376
87590.060537,-5773.606348,1149.143247,9770.718434
87590.060867,-4885.359217,1225.752797,9622.677246
87590.061196,-2368.659014,459.657299,9474.636058
87590.061526,-1924.535449,0.000000,9326.594869
87590.061855,-1258.350101,-229.828649,8068.244768
87590.062185,518.144159,229.828649,7476.080014
87590.062514,2220.617826,1072.533697,7920.203579
87590.062844,2812.782580,612.876398,9104.533087
87590.063173,2368.659014,383.047749,9696.697840
87590.063503,2738.761985,229.828649,8364.327145
87590.063832,3404.947333,-383.047749,9252.574275
87590.064162,2812.782580,-1225.752797,10955.047942
87590.064491,1480.411884,-459.657299,10732.986159
87590.064821,222.061783,459.657299,9474.636058
87590.065150,0.000000,0.000000,9474.636058
87590.065480,-2146.597232,229.828649,9104.533087
87590.065809,-4885.359217,1685.410096,8586.388927
87590.066139,-6069.688724,2528.115143,9178.553681
87590.066468,-6883.915261,1991.848295,10140.821405
87590.066798,-7550.100608,1072.533697,9474.636058
87590.067127,-7105.977043,995.924147,9474.636058
87590.067457,-5403.503377,1455.581446,8734.430116
87590.067786,-2516.700203,2145.067394,8142.265362
87590.068116,888.247130,2068.457845,8364.327145
87590.068446,2294.638420,2451.505594,8660.409521
87590.068775,3849.070898,2145.067394,7846.182985
87590.069105,5403.503377,2757.943793,7624.121203
87590.069434,6513.812290,1762.019645,8364.327145
87590.069764,5625.565159,1149.143247,8808.450710
87590.070093,5551.544565,1225.752797,8660.409521
87590.070423,6217.729913,536.266849,8956.491898
87590.070753,5403.503377,536.266849,9326.594869
87590.071082,4367.215058,1302.362347,9474.636058
87590.071412,3108.864956,1532.190996,9918.759623
87590.071741,2220.617826,2298.286494,8734.430116
87590.072071,518.144159,1302.362347,8512.368333
87590.072400,-2294.638420,689.485948,9326.594869
87590.072730,-5033.400406,842.705048,9844.739029
87590.073060,-5551.544565,1378.971896,10436.903782
87590.073389,-5995.668130,-766.095498,11103.089130
87590.073719,-6143.709319,-2757.943793,9326.594869
87590.074048,-4589.276840,-2528.115143,8882.471304
87590.074378,-1924.535449,-1225.752797,9104.533087
87590.074707,444.123565,-229.828649,9918.759623
87590.075037,1480.411884,-383.047749,9992.780217
87590.075367,2368.659014,-689.485948,9548.656652
87590.075696,3478.967927,-536.266849,9252.574275
87590.076026,5033.400406,-383.047749,9548.656652
87590.076355,4515.256246,-689.485948,10732.986159
87590.076685,2960.823768,-842.705048,10362.883188
87590.077014,2960.823768,-1149.143247,10807.006753
87590.077344,3997.112087,-1225.752797,10214.842000
87590.077674,1924.535449,76.609550,9770.718434
87590.078003,-740.205942,1149.143247,8956.491898
87590.078333,-2516.700203,1838.629195,9030.512492
87590.078662,-3404.947333,1072.533697,8734.430116
87590.078992,-5699.585753,612.876398,9548.656652
87590.079321,-7772.162391,1225.752797,9696.697840
87590.079651,-7328.038826,2068.457845,8586.388927
87590.079981,-5255.462188,1149.143247,9030.512492
87590.080310,-3404.947333,0.000000,9622.677246
87590.080640,-3701.029710,383.047749,8216.285956
87590.080969,-1924.535449,1072.533697,6661.853478
87590.081299,740.205942,689.485948,7402.059420
87590.081628,1924.535449,766.095498,8216.285956
87590.081958,2220.617826,1455.581446,8364.327145
87590.082287,2072.576638,536.266849,8216.285956
87590.082617,3256.906145,-229.828649,9400.615463
87590.082947,3552.988522,-1072.533697,10140.821405
87590.083276,4219.173869,-306.438199,10732.986159
87590.083606,4145.153275,689.485948,9770.718434
87590.083935,3701.029710,1302.362347,10066.800811
87590.084265,3182.885551,2298.286494,10955.047942
87590.084594,888.247130,2681.334243,10362.883188
87590.084924,-888.247130,2604.724693,8956.491898
87590.085254,-1850.514855,2145.067394,9474.636058
87590.085583,-3034.844362,2451.505594,10436.903782
87590.085913,-3997.112087,3217.601092,10214.842000
87590.086242,-3108.864956,1608.800546,8586.388927
87590.086572,-1258.350101,-612.876398,8290.306550
87590.086901,-740.205942,-536.266849,7402.059420
87590.087231,0.000000,919.314598,7254.018232
87590.087561,814.226536,1608.800546,7105.977043
87590.087890,1998.556043,612.876398,7328.038826
87590.088220,2738.761985,-1532.190996,9104.533087
87590.088549,3034.844362,-1608.800546,9104.533087
87590.088879,2516.700203,-229.828649,9104.533087
87590.089208,3552.988522,-1532.190996,10140.821405
87590.089538,3997.112087,-2451.505594,10881.027347
87590.089868,3256.906145,-1378.971896,10658.965565
87590.090197,2368.659014,536.266849,9696.697840
87590.090527,1332.370696,1225.752797,9474.636058
87590.090856,296.082377,1302.362347,9474.636058
87590.091186,-1406.391290,1302.362347,11547.212695
87590.091515,-3627.009116,1685.410096,11177.109724
87590.091845,-4811.338623,1149.143247,10658.965565
87590.092175,-5551.544565,229.828649,10658.965565
87590.092504,-5181.441594,-1072.533697,10066.800811
87590.092834,-5625.565159,-919.314598,9104.533087
87590.093163,-4293.194464,-383.047749,8068.244768
87590.093493,-1702.473667,-612.876398,8660.409521
87590.093822,-1480.411884,-536.266849,8586.388927
87590.094152,-518.144159,0.000000,8216.285956
87590.094482,962.267725,0.000000,8068.244768
87590.094811,2146.597232,-689.485948,7994.224174
87590.095141,2442.679609,-1455.581446,9770.718434
87590.095470,3330.926739,-153.219100,10362.883188
87590.095800,4145.153275,536.266849,10214.842000
87590.096129,4885.359217,612.876398,9474.636058
87590.096459,4515.256246,919.314598,9918.759623
87590.096789,2072.576638,1991.848295,9326.594869
87590.097118,592.164754,3064.381992,8734.430116
87590.097448,-444.123565,2451.505594,9326.594869
87590.097777,-2738.761985,766.095498,10510.924376
87590.098107,-5551.544565,689.485948,9992.780217
87590.098436,-5995.668130,1225.752797,9992.780217
87590.098766,-4737.318029,383.047749,9696.697840
87590.099096,-3552.988522,-1302.362347,9252.574275
87590.099425,-2812.782580,-995.924147,8734.430116
87590.099755,-1480.411884,459.657299,7698.141797
87590.100084,1258.350101,995.924147,7476.080014
87590.100414,2664.741391,612.876398,8512.368333
87590.100743,3552.988522,-1225.752797,9622.677246
87590.101073,3552.988522,383.047749,8882.471304
87590.101402,5107.421000,0.000000,9474.636058
87590.101732,5107.421000,-919.314598,10436.903782
87590.102062,4663.297435,-919.314598,9992.780217
87590.102391,5181.441594,229.828649,9474.636058
87590.102721,5403.503377,1455.581446,10214.842000
87590.103050,4071.132681,2528.115143,10584.944971
87590.103380,1924.535449,2987.772442,9992.780217
87590.103709,-370.102971,2298.286494,8364.327145
87590.104039,-2664.741391,2145.067394,8734.430116
87590.104369,-4515.256246,1991.848295,9844.739029
87590.104698,-5921.647536,3753.867940,9548.656652
87590.105028,-6513.812290,1991.848295,8364.327145
87590.105357,-5625.565159,-306.438199,7846.182985
87590.105687,-4737.318029,-1225.752797,7772.162391
87590.106016,-4737.318029,153.219100,7031.956449
87590.106346,-3330.926739,536.266849,6143.709319
87590.106676,0.000000,-459.657299,5995.668130
87590.107005,296.082377,-1149.143247,7772.162391
87590.107335,1554.432478,536.266849,9844.739029
87590.107664,2072.576638,1838.629195,10362.883188
87590.107994,3849.070898,383.047749,9474.636058
87590.108323,5329.482782,-1762.019645,10658.965565
87590.108653,5403.503377,0.000000,11399.171507
87590.108983,4293.194464,2987.772442,11103.089130
87590.109312,3330.926739,3830.477490,11473.192101
87590.109642,1776.494261,919.314598,12361.439231
87590.109971,-1480.411884,-612.876398,10214.842000
87590.110301,-4293.194464,842.705048,8882.471304
87590.110630,-6069.688724,1149.143247,9844.739029
87590.110960,-6661.853478,1072.533697,10807.006753
87590.111290,-6069.688724,0.000000,11029.068536
87590.111619,-5107.421000,-612.876398,9252.574275
87590.111949,-4293.194464,76.609550,7031.956449
87590.112278,-814.226536,306.438199,6661.853478
87590.112608,1554.432478,995.924147,7846.182985
87590.112937,2072.576638,1149.143247,7254.018232
87590.113267,3330.926739,459.657299,7698.141797
87590.113597,5551.544565,-536.266849,9104.533087
87590.113926,5847.626942,0.000000,9474.636058
87590.114256,5181.441594,-536.266849,9696.697840
87590.114585,5625.565159,-842.705048,10881.027347
87590.114915,6439.791695,-1225.752797,11547.212695
87590.115244,6143.709319,-766.095498,11399.171507
87590.115574,4589.276840,612.876398,10881.027347
87590.115904,2294.638420,2374.896044,9770.718434
87590.116233,296.082377,2145.067394,9104.533087
87590.116563,-1850.514855,766.095498,10214.842000
87590.116892,-4811.338623,1072.533697,10362.883188
87590.117222,-7179.997637,153.219100,9844.739029
87590.117551,-6587.832884,-689.485948,9326.594869
87590.117881,-6143.709319,-2451.505594,9178.553681
87590.118211,-5995.668130,-2834.553343,8290.306550
87590.118540,-4441.235652,-1762.019645,7476.080014
87590.118870,-2146.597232,76.609550,7476.080014
87590.119199,814.226536,-306.438199,8068.244768
87590.119529,1776.494261,-689.485948,8660.409521
87590.119858,2220.617826,153.219100,8438.347739
87590.120188,3997.112087,76.609550,8438.347739
87590.120518,5329.482782,-383.047749,10436.903782
87590.120847,4737.318029,-1455.581446,11103.089130
87590.121177,4145.153275,612.876398,10584.944971
87590.121506,4663.297435,1378.971896,9844.739029
87590.121836,3404.947333,1838.629195,10436.903782
87590.122165,0.000000,2145.067394,9696.697840
87590.122495,-2738.761985,2298.286494,8068.244768
87590.122824,-4663.297435,2221.676944,8734.430116
87590.123154,-6217.729913,2374.896044,10362.883188
87590.123484,-8808.450710,2451.505594,10214.842000
87590.123813,-9252.574275,1915.238745,8586.388927
87590.124143,-7105.977043,995.924147,7254.018232
87590.124472,-4737.318029,153.219100,8068.244768
87590.124802,-3627.009116,1225.752797,8068.244768
87590.125131,-2738.761985,2987.772442,7254.018232
87590.125461,0.000000,2528.115143,6661.853478
87590.125791,2368.659014,153.219100,8438.347739
87590.126120,2812.782580,229.828649,8808.450710
87590.126450,3182.885551,1991.848295,9474.636058
87590.126779,4441.235652,1762.019645,10436.903782
87590.127109,5625.565159,153.219100,10732.986159
87590.127438,5699.585753,-383.047749,10510.924376
87590.127768,5625.565159,2451.505594,9844.739029
87590.128098,5847.626942,5056.230287,10066.800811
87590.128427,4293.194464,4903.011187,11029.068536
87590.128757,2368.659014,2911.162892,10288.862594
87590.129086,-1184.329507,2298.286494,8882.471304
87590.129416,-3256.906145,2451.505594,8956.491898
87590.129745,-3923.091493,2604.724693,9770.718434
87590.130075,-4293.194464,1302.362347,10066.800811
87590.130405,-3478.967927,-919.314598,9400.615463
87590.130734,-2590.720797,-1838.629195,8068.244768
87590.131064,-1258.350101,-1685.410096,6957.935855
87590.131393,222.061783,-919.314598,8364.327145
87590.131723,1480.411884,-153.219100,9474.636058
87590.132052,2886.803174,76.609550,8512.368333
87590.132382,5033.400406,-2451.505594,8734.430116
87590.132712,4737.318029,-3140.991542,10214.842000
87590.133041,3478.967927,-1302.362347,11029.068536
87590.133371,3849.070898,-1532.190996,11177.109724
87590.133700,4589.276840,-3140.991542,11473.192101
87590.134030,2886.803174,-3753.867940,11029.068536
87590.134359,518.144159,-1762.019645,9474.636058
87590.134689,-962.267725,689.485948,9178.553681
87590.135019,-2072.576638,995.924147,9326.594869
87590.135348,-4145.153275,-459.657299,9844.739029
87590.135678,-6291.750507,-383.047749,9770.718434
87590.136007,-6883.915261,766.095498,8438.347739
87590.136337,-5699.585753,842.705048,8512.368333
87590.136666,-4441.235652,-689.485948,9030.512492
87590.136996,-3627.009116,-383.047749,8734.430116
87590.137326,-2516.700203,0.000000,7550.100608
87590.137655,-222.061783,-536.266849,7105.977043
87590.137985,1110.308913,-612.876398,8142.265362
87590.138314,888.247130,-536.266849,8438.347739
87590.138644,1036.288319,-383.047749,8364.327145
87590.138973,2368.659014,-1225.752797,8290.306550
87590.139303,3034.844362,-1532.190996,9844.739029
87590.139633,1776.494261,-842.705048,10658.965565
87590.139962,1628.453072,842.705048,9844.739029
87590.140292,2590.720797,842.705048,9104.533087
87590.140621,2146.597232,919.314598,9770.718434
87590.140951,-740.205942,1991.848295,9252.574275
87590.141280,-2368.659014,3907.087040,8438.347739
87590.141610,-3108.864956,3370.820191,9474.636058
87590.141939,-4811.338623,1991.848295,10214.842000
87590.142269,-5995.668130,1685.410096,10288.862594
87590.142599,-5625.565159,2298.286494,9178.553681
87590.142928,-3182.885551,1762.019645,8438.347739
87590.143258,-740.205942,1072.533697,8512.368333
87590.143587,888.247130,1378.971896,8512.368333
87590.143917,2294.638420,3753.867940,8142.265362
87590.144246,4737.318029,4596.572988,8068.244768
87590.144576,6217.729913,2987.772442,8882.471304
87590.144906,6217.729913,1225.752797,9400.615463
87590.145235,5403.503377,1455.581446,8956.491898
87590.145565,5847.626942,1838.629195,9992.780217
87590.145894,5625.565159,1455.581446,10732.986159
87590.146224,3923.091493,383.047749,10362.883188
87590.146553,2886.803174,-459.657299,9918.759623
87590.146883,1406.391290,1762.019645,9030.512492
87590.147213,222.061783,2145.067394,8068.244768
87590.147542,-1406.391290,1762.019645,9474.636058
87590.147872,-3701.029710,1762.019645,9770.718434
87590.148201,-5181.441594,2221.676944,9400.615463
87590.148531,-5033.400406,1838.629195,9844.739029
87590.148860,-5699.585753,536.266849,10436.903782
87590.149190,-5847.626942,-842.705048,8586.388927
87590.149520,-3701.029710,-689.485948,8512.368333
87590.149849,-666.185348,-612.876398,9548.656652
87590.150179,0.000000,0.000000,9548.656652
87590.150508,888.247130,383.047749,8142.265362
87590.150838,2516.700203,-1302.362347,8956.491898
87590.151167,3330.926739,-1838.629195,9474.636058
87590.151497,3478.967927,-1378.971896,9918.759623
87590.151827,3552.988522,-1302.362347,11251.130318
87590.152156,3627.009116,-1915.238745,10140.821405
87590.152486,3701.029710,-2298.286494,9770.718434
87590.152815,3404.947333,-1532.190996,10214.842000
87590.153145,1110.308913,459.657299,9770.718434
87590.153474,-444.123565,1072.533697,9104.533087
87590.153804,-1036.288319,-536.266849,8882.471304
87590.154134,-3478.967927,-612.876398,8660.409521
87590.154463,-6513.812290,229.828649,8216.285956
87590.154793,-7772.162391,766.095498,7994.224174
87590.155122,-6883.915261,-306.438199,8216.285956
87590.155452,-4959.379811,-2068.457845,8364.327145
87590.155781,-4145.153275,-1685.410096,7698.141797
87590.156111,-2590.720797,-383.047749,7105.977043
87590.156441,-592.164754,76.609550,7550.100608
87590.156770,2294.638420,-459.657299,8882.471304
87590.157100,3627.009116,-383.047749,9992.780217
87590.157429,3923.091493,-229.828649,9252.574275
87590.157759,5329.482782,-689.485948,9844.739029
87590.158088,5921.647536,-383.047749,10807.006753
87590.158418,5255.462188,-612.876398,11251.130318
87590.158748,4811.338623,0.000000,10436.903782
87590.159077,4885.359217,229.828649,9770.718434
87590.159407,3627.009116,1225.752797,9770.718434
87590.159736,2146.597232,2451.505594,10140.821405
87590.160066,148.041188,3753.867940,9918.759623
87590.160395,-1480.411884,2451.505594,8808.450710
87590.160725,-3182.885551,1149.143247,9992.780217
87590.161055,-5033.400406,1991.848295,10955.047942
87590.161384,-5773.606348,3217.601092,10362.883188
87590.161714,-4737.318029,1685.410096,9178.553681
87590.162043,-2960.823768,-536.266849,8290.306550
87590.162373,-2886.803174,306.438199,7402.059420
87590.162702,-1850.514855,1532.190996,6587.832884
87590.163032,0.000000,2374.896044,7402.059420
87590.163361,1258.350101,1302.362347,8512.368333
87590.163691,1110.308913,0.000000,9252.574275
87590.164021,1110.308913,229.828649,9548.656652
87590.164350,2664.741391,383.047749,9252.574275
87590.164680,3627.009116,689.485948,10140.821405
87590.165009,3552.988522,153.219100,11621.233289
87590.165339,2442.679609,919.314598,10732.986159
87590.165668,2294.638420,2681.334243,10140.821405
87590.165998,1776.494261,2757.943793,10214.842000
87590.166328,-518.144159,2451.505594,9474.636058
87590.166657,-2368.659014,1991.848295,8586.388927
87590.166987,-3552.988522,2604.724693,10066.800811
87590.167316,-4515.256246,3217.601092,10362.883188
87590.167646,-5181.441594,2528.115143,10658.965565
87590.167976,-5181.441594,1072.533697,9992.780217
87590.168305,-4071.132681,689.485948,8956.491898
87590.168635,-1850.514855,919.314598,8068.244768
87590.168964,-370.102971,842.705048,8660.409521
87590.169294,-518.144159,919.314598,7328.038826
87590.169623,444.123565,383.047749,7031.956449
87590.169953,1776.494261,0.000000,7402.059420
87590.170283,2294.638420,-766.095498,8290.306550
87590.170612,1628.453072,-919.314598,8068.244768
87590.170942,2368.659014,-1302.362347,8734.430116
87590.171271,2960.823768,-2528.115143,9696.697840
87590.171601,3182.885551,-1915.238745,9844.739029
87590.171930,2664.741391,-536.266849,9474.636058
87590.172260,1776.494261,536.266849,9696.697840
87590.172590,1258.350101,919.314598,9474.636058
87590.172919,518.144159,689.485948,10066.800811
87590.173249,-1850.514855,766.095498,10584.944971
87590.173578,-4219.173869,1302.362347,10066.800811
87590.173908,-3923.091493,-306.438199,10362.883188
87590.174237,-2812.782580,-1762.019645,9474.636058
87590.174567,-2738.761985,-1991.848295,8660.409521
87590.174897,-1554.432478,-1302.362347,7846.182985
87590.175226,888.247130,-766.095498,7772.162391
87590.175556,2220.617826,-919.314598,8216.285956
87590.175885,2516.700203,-1838.629195,8068.244768
87590.176215,3923.091493,-1532.190996,8216.285956
87590.176545,4589.276840,-1302.362347,8364.327145
87590.176874,5329.482782,-1685.410096,10436.903782
87590.177204,4071.132681,-2221.676944,11547.212695
87590.177533,3034.844362,-2374.896044,10807.006753
87590.177863,3923.091493,-1762.019645,10140.821405
87590.178192,3404.947333,-1149.143247,10436.903782
87590.178522,74.020594,0.000000,9548.656652
87590.178852,-2220.617826,1302.362347,9622.677246
87590.179181,-2664.741391,1608.800546,9696.697840
87590.179511,-4145.153275,842.705048,9400.615463
87590.179840,-6291.750507,995.924147,10140.821405
87590.180170,-7402.059420,1838.629195,9548.656652
87590.180499,-6069.688724,1378.971896,8808.450710
87590.180829,-3849.070898,1149.143247,9474.636058
87590.181159,-2886.803174,536.266849,9252.574275
87590.181488,-3182.885551,1608.800546,7550.100608
87590.181818,-888.247130,1915.238745,7328.038826
87590.182147,1554.432478,1225.752797,8364.327145
87590.182477,1776.494261,1225.752797,9474.636058
87590.182807,1998.556043,1532.190996,9548.656652
87590.183136,2812.782580,2298.286494,9178.553681
87590.183466,3923.091493,1072.533697,10510.924376
87590.183795,3478.967927,1685.410096,10955.047942
87590.184125,3404.947333,2757.943793,10658.965565
87590.184454,3775.050304,3370.820191,8882.471304
87590.184784,3182.885551,4443.353888,8364.327145
87590.185114,1110.308913,5975.544884,9252.574275
87590.185443,-1628.453072,5745.716235,8956.491898
87590.185773,-3849.070898,4826.401637,8734.430116
87590.186102,-5329.482782,2604.724693,9696.697840
87590.186432,-6735.874072,1302.362347,9992.780217
87590.186761,-6735.874072,1302.362347,8364.327145
87590.187091,-4293.194464,842.705048,8216.285956
87590.187421,-2516.700203,76.609550,8438.347739
87590.187750,-1258.350101,0.000000,7920.203579
87590.188080,-222.061783,1378.971896,8438.347739
87590.188409,2516.700203,1608.800546,8512.368333
87590.188739,4737.318029,0.000000,8438.347739
87590.189069,5995.668130,-1072.533697,9474.636058
87590.189398,5255.462188,-153.219100,9770.718434
87590.189728,5107.421000,-153.219100,9918.759623
87590.190057,6143.709319,-459.657299,10732.986159
87590.190387,5921.647536,-1302.362347,11547.212695
87590.190716,4145.153275,-689.485948,10214.842000
87590.191046,2960.823768,612.876398,9844.739029
87590.191376,1258.350101,689.485948,9400.615463
87590.191705,-592.164754,-459.657299,9474.636058
87590.192035,-3108.864956,-612.876398,9696.697840
87590.192364,-5107.421000,0.000000,9400.615463
87590.192694,-5403.503377,689.485948,9400.615463
87590.193023,-4663.297435,-229.828649,9992.780217
87590.193353,-4589.276840,-1762.019645,8956.491898
87590.193683,-3923.091493,-1685.410096,7550.100608
87590.194012,-1332.370696,-1762.019645,7031.956449
87590.194342,222.061783,-1302.362347,7179.997637
87590.194671,0.000000,-919.314598,7476.080014
87590.195001,962.267725,-1378.971896,8512.368333
87590.195330,2294.638420,-1378.971896,9474.636058
87590.195660,3108.864956,-2374.896044,10436.903782
87590.195990,2812.782580,-1991.848295,11251.130318
87590.196319,3182.885551,-1532.190996,10214.842000
87590.196649,3849.070898,-689.485948,9622.677246
87590.196978,3849.070898,459.657299,10510.924376
87590.197308,1628.453072,1685.410096,11399.171507
87590.197638,-1258.350101,3370.820191,9548.656652
87590.197967,-2442.679609,2145.067394,8882.471304
87590.198297,-4145.153275,766.095498,9622.677246
87590.198626,-7254.018232,1225.752797,9622.677246
87590.198956,-9104.533087,2451.505594,9252.574275
87590.199285,-7550.100608,1455.581446,8882.471304
87590.199615,-6217.729913,-459.657299,9178.553681
87590.199945,-4367.215058,-689.485948,8586.388927
87590.200274,-2590.720797,1149.143247,7550.100608
87590.200604,0.000000,2757.943793,6883.915261
87590.200933,2960.823768,2451.505594,8068.244768
87590.201263,4293.194464,1302.362347,9178.553681
87590.201592,4811.338623,842.705048,9844.739029
87590.201922,4811.338623,1532.190996,9992.780217
87590.202252,5329.482782,229.828649,11029.068536
87590.202581,5033.400406,-689.485948,11695.253884
87590.202911,5033.400406,0.000000,10955.047942
87590.203240,4737.318029,2298.286494,11251.130318
87590.203570,3849.070898,3677.258390,10140.821405
87590.203900,2368.659014,3983.696590,9252.574275
87590.204229,0.000000,3907.087040,8438.347739
87590.204559,-1702.473667,4213.525239,7772.162391
87590.204888,-2516.700203,3600.648841,8512.368333
87590.205218,-4515.256246,2374.896044,9030.512492
87590.205547,-5921.647536,2681.334243,8586.388927
87590.205877,-5107.421000,995.924147,8068.244768
87590.206207,-2960.823768,-612.876398,7846.182985
87590.206536,-1998.556043,-1378.971896,7698.141797
87590.206866,-740.205942,-689.485948,7698.141797
87590.207195,1332.370696,459.657299,8364.327145
87590.207525,3256.906145,0.000000,9030.512492
87590.207854,3775.050304,-919.314598,8882.471304
87590.208184,4219.173869,-766.095498,9622.677246
87590.208514,3701.029710,536.266849,9474.636058
87590.208843,5107.421000,536.266849,10214.842000
87590.209173,5773.606348,-766.095498,11029.068536
87590.209502,2960.823768,-536.266849,10214.842000
87590.209832,814.226536,766.095498,8956.491898
87590.210162,-518.144159,1302.362347,8808.450710
87590.210491,-2738.761985,153.219100,9104.533087
87590.210821,-6069.688724,-383.047749,9326.594869
87590.211150,-8290.306550,-842.705048,9770.718434
87590.211480,-8364.327145,-995.924147,9548.656652
87590.211809,-7698.141797,-1302.362347,9696.697840
87590.212139,-7031.956449,-2298.286494,9030.512492
87590.212469,-5551.544565,-1302.362347,7402.059420
87590.212798,-2146.597232,153.219100,7328.038826
87590.213128,518.144159,612.876398,8364.327145
87590.213457,1850.514855,689.485948,8290.306550
87590.213787,2146.597232,153.219100,7772.162391
87590.214116,3552.988522,-383.047749,8808.450710
87590.214446,4663.297435,-1532.190996,10140.821405
87590.214776,4441.235652,-2757.943793,10214.842000
87590.215105,3330.926739,-1302.362347,10066.800811
87590.215435,3404.947333,-1302.362347,10510.924376
87590.215764,3627.009116,-995.924147,10732.986159
87590.216094,2590.720797,536.266849,10807.006753
87590.216423,222.061783,1991.848295,9992.780217
87590.216753,-1406.391290,2221.676944,8586.388927
87590.217083,-1776.494261,1455.581446,10510.924376
87590.217412,-3627.009116,1378.971896,10658.965565
87590.217742,-5847.626942,1685.410096,10732.986159
87590.218071,-5107.421000,1302.362347,10066.800811
87590.218401,-2590.720797,153.219100,9992.780217
87590.218731,-1850.514855,0.000000,9474.636058
87590.219060,-740.205942,1225.752797,8142.265362
87590.219390,1406.391290,2757.943793,7105.977043
87590.219719,3330.926739,1378.971896,7328.038826
87590.220049,4219.173869,153.219100,9030.512492
87590.220378,4293.194464,1225.752797,9770.718434
87590.220708,5033.400406,1685.410096,9622.677246
87590.221038,5773.606348,536.266849,10510.924376
87590.221367,5255.462188,-766.095498,11547.212695
87590.221697,3627.009116,0.000000,9622.677246
87590.222026,3627.009116,2451.505594,8808.450710
87590.222356,3849.070898,2987.772442,10288.862594
87590.222685,0.000000,3140.991542,9992.780217
87590.223015,-2960.823768,2451.505594,8068.244768
87590.223345,-4367.215058,2757.943793,8142.265362
87590.223674,-5551.544565,1838.629195,9548.656652
87590.224004,-7476.080014,1915.238745,9622.677246
87590.224333,-7772.162391,1455.581446,10066.800811
87590.224663,-6291.750507,76.609550,8808.450710
87590.224993,-3923.091493,-612.876398,8216.285956
87590.225322,-2220.617826,229.828649,8068.244768
87590.225652,-740.205942,1762.019645,7105.977043
87590.225981,1036.288319,2221.676944,6809.894666
87590.226311,3256.906145,306.438199,8586.388927
87590.226640,3404.947333,-536.266849,8734.430116
87590.226970,3108.864956,-383.047749,8364.327145
87590.227300,3330.926739,-689.485948,9252.574275
87590.227629,3997.112087,-919.314598,11029.068536
87590.227959,4145.153275,-842.705048,10881.027347
87590.228288,3775.050304,153.219100,9474.636058
87590.228618,2368.659014,1072.533697,9178.553681
87590.228947,1480.411884,1072.533697,9104.533087
87590.229277,148.041188,1991.848295,9178.553681
87590.229607,-2442.679609,1838.629195,9030.512492
87590.229936,-5477.523971,919.314598,9918.759623
87590.230266,-6069.688724,-612.876398,9474.636058
87590.230595,-6143.709319,-1149.143247,9770.718434
87590.230925,-5921.647536,-1685.410096,8734.430116
87590.231255,-4663.297435,-2221.676944,8512.368333
87590.231584,-2442.679609,-2298.286494,7994.224174
87590.231914,0.000000,-1532.190996,8586.388927
87590.232243,1628.453072,-306.438199,8438.347739
87590.232573,3775.050304,-229.828649,8068.244768
87590.232902,5329.482782,-383.047749,8512.368333
87590.233232,5625.565159,-612.876398,9326.594869
87590.233562,5403.503377,-459.657299,10288.862594
87590.233891,5181.441594,-689.485948,10140.821405
87590.234221,5773.606348,-1532.190996,10436.903782
87590.234550,5477.523971,-919.314598,11177.109724
87590.234880,3552.988522,612.876398,11103.089130
87590.235209,888.247130,2298.286494,10436.903782
87590.235539,-888.247130,1455.581446,10066.800811
87590.235869,-2664.741391,229.828649,9326.594869
87590.236198,-4515.256246,1225.752797,10807.006753
87590.236528,-6883.915261,3140.991542,10807.006753
87590.236857,-6883.915261,2451.505594,9474.636058
87590.237187,-4811.338623,0.000000,9400.615463
87590.237516,-3923.091493,-612.876398,9030.512492
87590.237846,-3256.906145,1532.190996,7476.080014
87590.238176,-1110.308913,3677.258390,7698.141797
87590.238505,962.267725,2221.676944,8290.306550
87590.238835,1998.556043,306.438199,8290.306550
87590.239164,2368.659014,0.000000,8660.409521
87590.239494,3108.864956,536.266849,9252.574275
87590.239824,3701.029710,919.314598,9844.739029
87590.240153,3997.112087,842.705048,10510.924376
87590.240483,3256.906145,459.657299,11029.068536
87590.240812,2590.720797,1225.752797,9326.594869
87590.241142,2960.823768,2604.724693,9178.553681
87590.241471,1628.453072,3294.210641,10510.924376
87590.241801,-1702.473667,3370.820191,9548.656652
87590.242131,-3923.091493,3217.601092,8734.430116
87590.242460,-5329.482782,1991.848295,9474.636058
87590.242790,-7402.059420,1072.533697,9844.739029
87590.243119,-8734.430116,1072.533697,8956.491898
87590.243449,-7254.018232,689.485948,8438.347739
87590.243778,-3701.029710,306.438199,7698.141797
87590.244108,-1480.411884,536.266849,7179.997637
87590.244438,0.000000,1302.362347,7328.038826
87590.244767,2146.597232,2298.286494,6883.915261
87590.245097,4737.318029,2528.115143,7550.100608
87590.245426,6587.832884,-459.657299,9030.512492
87590.245756,5551.544565,-995.924147,9696.697840
87590.246086,5033.400406,-536.266849,9622.677246
87590.246415,5625.565159,-1149.143247,10807.006753
87590.246745,4811.338623,-2298.286494,10881.027347
87590.247074,2812.782580,-2374.896044,10288.862594
87590.247404,1776.494261,153.219100,10362.883188
87590.247733,148.041188,1149.143247,9474.636058
87590.248063,-1850.514855,536.266849,8660.409521
87590.248393,-4293.194464,-689.485948,8956.491898
87590.248722,-7550.100608,0.000000,8660.409521
87590.249052,-7698.141797,919.314598,9104.533087
87590.249381,-6809.894666,766.095498,10658.965565
87590.249711,-5551.544565,-1762.019645,9474.636058
87590.250040,-4885.359217,-1302.362347,8438.347739
87590.250370,-1776.494261,-995.924147,7920.203579
87590.250700,1554.432478,76.609550,7772.162391
87590.251029,3404.947333,1225.752797,7550.100608
87590.251359,5255.462188,766.095498,8956.491898
87590.251688,6809.894666,689.485948,9252.574275
87590.252018,7254.018232,842.705048,9474.636058
87590.252348,7179.997637,306.438199,11103.089130
87590.252677,6439.791695,-306.438199,10510.924376
87590.253007,6439.791695,-229.828649,9844.739029
87590.253336,6291.750507,459.657299,10658.965565
87590.253666,3034.844362,2298.286494,11029.068536
87590.253995,-1258.350101,2987.772442,9400.615463
87590.254325,-2516.700203,1225.752797,8882.471304
87590.254655,-5477.523971,-229.828649,8216.285956
87590.254984,-9178.553681,0.000000,8956.491898
87590.255314,-11473.192101,153.219100,9844.739029
87590.255643,-11029.068536,-306.438199,10584.944971
87590.255973,-9474.636058,-1838.629195,10066.800811
87590.256302,-7402.059420,-1608.800546,9178.553681
87590.256632,-4589.276840,-766.095498,7772.162391
87590.256962,-1554.432478,1072.533697,7550.100608
87590.257291,2812.782580,1532.190996,8586.388927
87590.257621,5329.482782,1915.238745,10362.883188
87590.257950,6143.709319,1838.629195,9696.697840
87590.258280,7254.018232,2068.457845,9178.553681
87590.258609,9104.533087,919.314598,10214.842000
87590.258939,7994.224174,76.609550,10807.006753
87590.259269,6661.853478,689.485948,10807.006753
87590.259598,6365.771101,1225.752797,10955.047942
87590.259928,5255.462188,1838.629195,9844.739029
87590.260257,2738.761985,2604.724693,8734.430116
87590.260587,-296.082377,3294.210641,9030.512492
87590.260917,-3108.864956,2681.334243,8068.244768
87590.261246,-5773.606348,1762.019645,8364.327145
87590.261576,-7179.997637,536.266849,10140.821405
87590.261905,-9400.615463,536.266849,9178.553681
87590.262235,-9326.594869,153.219100,7698.141797
87590.262564,-6513.812290,-1072.533697,8142.265362
87590.262894,-4885.359217,-1608.800546,7846.182985
87590.263224,-3849.070898,-766.095498,7179.997637
87590.263553,-592.164754,0.000000,7624.121203
87590.263883,2516.700203,153.219100,8586.388927
87590.264212,4663.297435,229.828649,9252.574275
87590.264542,5625.565159,229.828649,10066.800811
87590.264871,6735.874072,153.219100,9326.594869
87590.265201,7698.141797,76.609550,10288.862594
87590.265531,8216.285956,842.705048,11325.150913
87590.265860,7105.977043,1302.362347,10584.944971
87590.266190,5477.523971,2068.457845,9104.533087
87590.266519,3627.009116,2298.286494,9474.636058
87590.266849,1258.350101,1532.190996,10066.800811
87590.267179,-2368.659014,1225.752797,8512.368333
87590.267508,-5477.523971,0.000000,8734.430116
87590.267838,-7846.182985,306.438199,9326.594869
87590.268167,-9474.636058,306.438199,10214.842000
87590.268497,-9178.553681,-306.438199,9770.718434
87590.268826,-7179.997637,-1455.581446,7920.203579
87590.269156,-4589.276840,-1455.581446,6661.853478
87590.269486,-2516.700203,-229.828649,7105.977043
87590.269815,148.041188,842.705048,7846.182985
87590.270145,740.205942,1378.971896,7105.977043
87590.270474,2516.700203,-919.314598,8882.471304
87590.270804,4441.235652,-1532.190996,10288.862594
87590.271133,4367.215058,-1149.143247,10140.821405
87590.271463,4293.194464,-536.266849,10436.903782
87590.271793,5033.400406,-1149.143247,10881.027347
87590.272122,5773.606348,-1149.143247,10881.027347
87590.272452,5107.421000,1225.752797,10807.006753
87590.272781,3775.050304,3064.381992,10658.965565
87590.273110,1702.473667,3600.648841,9252.574275
87590.273440,296.082377,2681.334243,9400.615463
87590.273769,-1924.535449,1991.848295,10658.965565
87590.274099,-5921.647536,1608.800546,9992.780217
87590.274428,-7402.059420,1685.410096,10066.800811
87590.274758,-5773.606348,-1302.362347,10584.944971
87590.275087,-6069.688724,-1532.190996,9844.739029
87590.275417,-4811.338623,-766.095498,8068.244768
87590.275746,-2368.659014,306.438199,8068.244768
87590.276076,296.082377,766.095498,7476.080014
87590.276405,1628.453072,383.047749,7772.162391
87590.276735,2886.803174,383.047749,8808.450710
87590.277064,4293.194464,842.705048,8586.388927
87590.277394,5699.585753,995.924147,9178.553681
87590.277723,6069.688724,0.000000,10436.903782
87590.278053,5033.400406,-689.485948,10214.842000
87590.278382,4811.338623,766.095498,9474.636058
87590.278712,4737.318029,1532.190996,10658.965565
87590.279041,2738.761985,1455.581446,10732.986159
87590.279371,74.020594,1762.019645,9400.615463
87590.279700,-1776.494261,1532.190996,8956.491898
87590.280030,-3849.070898,1302.362347,9474.636058
87590.280359,-5921.647536,1225.752797,10288.862594
87590.280689,-7550.100608,1685.410096,11325.150913
87590.281018,-7031.956449,995.924147,9474.636058
87590.281348,-5403.503377,-306.438199,8438.347739
87590.281677,-2960.823768,0.000000,8290.306550
87590.282007,-2442.679609,919.314598,7254.018232
87590.282336,-1110.308913,1762.019645,6809.894666
87590.282666,1628.453072,689.485948,7698.141797
87590.282995,2590.720797,-536.266849,8142.265362
87590.283325,2442.679609,-536.266849,7994.224174
87590.283654,2738.761985,0.000000,8068.244768
87590.283984,4441.235652,-536.266849,9326.594869
87590.284313,4441.235652,-1685.410096,9696.697840
87590.284643,4367.215058,-1532.190996,10140.821405
87590.284972,3552.988522,383.047749,9474.636058
87590.285302,3182.885551,2145.067394,9252.574275
87590.285631,2146.597232,2145.067394,10066.800811
87590.285961,-1332.370696,1991.848295,9770.718434
87590.286290,-4145.153275,1532.190996,9178.553681
87590.286620,-5847.626942,842.705048,9326.594869
87590.286949,-6809.894666,766.095498,10436.903782
87590.287279,-7846.182985,612.876398,10362.883188
87590.287608,-6957.935855,-766.095498,9252.574275
87590.287938,-4293.194464,-1302.362347,8364.327145
87590.288267,-3034.844362,-1915.238745,7550.100608
87590.288597,-1184.329507,-766.095498,7846.182985
87590.288926,1258.350101,766.095498,8216.285956
87590.289256,3404.947333,536.266849,8586.388927
87590.289585,5477.523971,-229.828649,9548.656652
87590.289915,5995.668130,-306.438199,9992.780217
87590.290244,5255.462188,766.095498,9030.512492
87590.290573,7105.977043,0.000000,10214.842000
87590.290903,7254.018232,-1225.752797,10881.027347
87590.291232,5403.503377,306.438199,11029.068536
87590.291562,3182.885551,1608.800546,10140.821405
87590.291891,1480.411884,2145.067394,10214.842000
87590.292221,-592.164754,919.314598,9548.656652
87590.292550,-3108.864956,1455.581446,10140.821405
87590.292880,-6143.709319,1532.190996,10436.903782
87590.293209,-7624.121203,2068.457845,9474.636058
87590.293539,-7179.997637,995.924147,9622.677246
87590.293868,-6291.750507,-153.219100,9326.594869
87590.294198,-5699.585753,-612.876398,7994.224174
87590.294527,-3997.112087,76.609550,7772.162391
87590.294857,-1554.432478,229.828649,8586.388927
87590.295186,0.000000,-1072.533697,8364.327145
87590.295516,1110.308913,-995.924147,8956.491898
87590.295845,3034.844362,-919.314598,10066.800811
87590.296175,4441.235652,-153.219100,9992.780217
87590.296504,6069.688724,76.609550,10584.944971
87590.296834,6513.812290,153.219100,10955.047942
87590.297163,7031.956449,766.095498,10288.862594
87590.297493,7550.100608,1762.019645,9400.615463
87590.297822,5699.585753,3294.210641,10288.862594
87590.298152,2886.803174,4290.134789,9770.718434
87590.298481,0.000000,3983.696590,8808.450710
87590.298811,-1850.514855,2374.896044,8882.471304
87590.299140,-5403.503377,919.314598,8734.430116
87590.299470,-9474.636058,689.485948,8660.409521
87590.299799,-9474.636058,1225.752797,9400.615463
87590.300129,-7698.141797,229.828649,9104.533087
87590.300458,-6883.915261,-1302.362347,7846.182985
87590.300788,-5477.523971,-1532.190996,7031.956449
87590.301117,-3256.906145,459.657299,6217.729913
87590.301447,444.123565,1225.752797,6069.688724
87590.301776,3108.864956,-306.438199,8734.430116
87590.302106,3182.885551,459.657299,8660.409521
87590.302435,3775.050304,842.705048,8808.450710
87590.302765,6217.729913,0.000000,9622.677246
87590.303094,7105.977043,-612.876398,10881.027347
87590.303424,6217.729913,-459.657299,10881.027347
87590.303753,6513.812290,306.438199,10658.965565
87590.304083,5255.462188,1762.019645,10214.842000
87590.304412,3330.926739,1762.019645,9548.656652
87590.304742,962.267725,1608.800546,10066.800811
87590.305071,-1628.453072,2145.067394,9030.512492
87590.305401,-3923.091493,1991.848295,9178.553681
87590.305730,-5625.565159,1685.410096,9992.780217
87590.306060,-6735.874072,1149.143247,9104.533087
87590.306389,-6957.935855,459.657299,7254.018232
87590.306719,-5403.503377,-612.876398,7254.018232
87590.307048,-3997.112087,-919.314598,7550.100608
87590.307378,-2886.803174,0.000000,6957.935855
87590.307707,-1184.329507,-612.876398,7254.018232
87590.308036,814.226536,-1455.581446,8216.285956
87590.308366,2590.720797,-919.314598,9400.615463
87590.308695,3923.091493,-689.485948,10658.965565
87590.309025,4811.338623,-689.485948,10807.006753
87590.309354,5995.668130,-1149.143247,10362.883188
87590.309684,7476.080014,-842.705048,11473.192101
87590.310013,7031.956449,0.000000,11843.295072
87590.310343,4367.215058,2145.067394,10658.965565
87590.310672,3404.947333,3140.991542,10288.862594
87590.311002,1554.432478,1608.800546,10510.924376
87590.311331,-2664.741391,842.705048,9252.574275
87590.311661,-6365.771101,766.095498,9844.739029
87590.311990,-7624.121203,1225.752797,9992.780217
87590.312320,-8068.244768,229.828649,9770.718434
87590.312649,-7624.121203,-919.314598,10732.986159
87590.312979,-6439.791695,-842.705048,8882.471304
87590.313308,-4367.215058,-766.095498,7105.977043
87590.313638,-1480.411884,459.657299,7031.956449
87590.313967,1258.350101,383.047749,8290.306550
87590.314297,1998.556043,766.095498,7402.059420
87590.314626,3627.009116,383.047749,8364.327145
87590.314956,5551.544565,383.047749,9844.739029
87590.315285,5255.462188,153.219100,10214.842000
87590.315615,5255.462188,-459.657299,9992.780217
87590.315944,5403.503377,-919.314598,9474.636058
87590.316274,5477.523971,306.438199,10436.903782
87590.316603,4293.194464,1608.800546,10732.986159
87590.316933,1776.494261,2528.115143,10881.027347
87590.317262,-740.205942,2451.505594,8956.491898
87590.317592,-2220.617826,1532.190996,8142.265362
87590.317921,-4219.173869,2145.067394,10066.800811
87590.318251,-7254.018232,2528.115143,10436.903782
87590.318580,-8512.368333,2451.505594,9030.512492
87590.318910,-6143.709319,459.657299,8808.450710
87590.319239,-4959.379811,-1378.971896,8216.285956
87590.319569,-4441.235652,0.000000,7031.956449
87590.319898,-1776.494261,1762.019645,6809.894666
87590.320228,1036.288319,1838.629195,8216.285956
87590.320557,2368.659014,76.609550,9104.533087
87590.320887,3256.906145,0.000000,9622.677246
87590.321216,4737.318029,1072.533697,9030.512492
87590.321546,5847.626942,612.876398,8512.368333
87590.321875,6365.771101,-459.657299,9844.739029
87590.322205,5699.585753,-995.924147,10214.842000
87590.322534,4589.276840,1532.190996,9622.677246
87590.322864,3997.112087,2068.457845,9326.594869
87590.323193,2294.638420,1532.190996,9992.780217
87590.323523,-1776.494261,689.485948,7846.182985
87590.323852,-4441.235652,536.266849,7698.141797
87590.324182,-5847.626942,1149.143247,8956.491898
87590.324511,-7624.121203,612.876398,9844.739029
87590.324841,-8364.327145,153.219100,9622.677246
87590.325170,-7698.141797,536.266849,8512.368333
87590.325499,-5033.400406,306.438199,8216.285956
87590.325829,-2516.700203,153.219100,8512.368333
87590.326158,-740.205942,306.438199,8512.368333
87590.326488,296.082377,612.876398,8216.285956
87590.326817,2664.741391,-536.266849,8142.265362
87590.327147,4145.153275,-306.438199,9474.636058
87590.327476,4515.256246,153.219100,10436.903782
87590.327806,4737.318029,-153.219100,10214.842000
87590.328135,5699.585753,-1072.533697,9770.718434
87590.328465,6143.709319,-1608.800546,10288.862594
87590.328794,4959.379811,-229.828649,10510.924376
87590.329124,3256.906145,1838.629195,9992.780217
87590.329453,1628.453072,2451.505594,8956.491898
87590.329783,222.061783,1302.362347,9770.718434
87590.330112,-2960.823768,919.314598,9696.697840
87590.330442,-6069.688724,1685.410096,9104.533087
87590.330771,-7772.162391,1072.533697,9474.636058
87590.331101,-7624.121203,-383.047749,9992.780217
87590.331430,-7476.080014,-1225.752797,9474.636058
87590.331760,-6069.688724,0.000000,8882.471304
87590.332089,-3330.926739,0.000000,7846.182985
87590.332419,-962.267725,153.219100,7772.162391
87590.332748,1332.370696,536.266849,8808.450710
87590.333078,3256.906145,1378.971896,9474.636058
87590.333407,4811.338623,1225.752797,9104.533087
87590.333737,7105.977043,306.438199,9770.718434
87590.334066,7105.977043,-689.485948,11325.150913
87590.334396,6291.750507,689.485948,10955.047942
87590.334725,5995.668130,153.219100,11029.068536
87590.335055,6587.832884,-1072.533697,11177.109724
87590.335384,4367.215058,-612.876398,10732.986159
87590.335714,1036.288319,1378.971896,9918.759623
87590.336043,-666.185348,2757.943793,9030.512492
87590.336373,-2072.576638,1532.190996,8808.450710
87590.336702,-5107.421000,1225.752797,9400.615463
87590.337032,-7772.162391,919.314598,9400.615463
87590.337361,-8364.327145,2298.286494,8660.409521
87590.337691,-6217.729913,842.705048,8438.347739
87590.338020,-4515.256246,-1225.752797,9326.594869
87590.338350,-4515.256246,-306.438199,7254.018232
87590.338679,-1998.556043,1072.533697,6365.771101
87590.339009,1258.350101,1072.533697,7328.038826
87590.339338,2590.720797,-306.438199,8808.450710
87590.339668,2812.782580,-612.876398,8586.388927
87590.339997,4441.235652,-383.047749,8882.471304
87590.340327,5255.462188,0.000000,10066.800811
87590.340656,5255.462188,-229.828649,10658.965565
87590.340986,6143.709319,229.828649,10584.944971
87590.341315,5773.606348,459.657299,8734.430116
