#time,accel_x,accel_y,accel_z
16410.394478,148.041188,919.314598,9326.594869
16410.394802,444.123565,842.705048,9252.574275
16410.395127,740.205942,612.876398,8956.491898
16410.395451,0.000000,536.266849,9474.636058
16410.395775,-222.061783,76.609550,9252.574275
16410.396100,-814.226536,306.438199,8734.430116
16410.396424,0.000000,0.000000,9252.574275
16410.396748,-592.164754,383.047749,9252.574275
16410.397073,-962.267725,536.266849,8956.491898
16410.397397,-592.164754,536.266849,8808.450710
16410.397721,444.123565,153.219100,8660.409521
16410.398046,592.164754,459.657299,9178.553681
16410.398370,-148.041188,459.657299,9474.636058
16410.398694,-222.061783,766.095498,9400.615463
16410.399019,222.061783,766.095498,9252.574275
16410.399343,74.020594,459.657299,9474.636058
16410.399667,0.000000,612.876398,9844.739029
16410.399992,-444.123565,612.876398,9548.656652
16410.400316,0.000000,536.266849,9178.553681
16410.400640,370.102971,842.705048,9400.615463
16410.400965,296.082377,612.876398,9474.636058
16410.401289,74.020594,1225.752797,9474.636058
16410.401613,888.247130,842.705048,9326.594869
16410.401938,1628.453072,919.314598,9252.574275
16410.402262,1702.473667,766.095498,9400.615463
16410.402586,518.144159,1455.581446,9252.574275
16410.402911,888.247130,766.095498,9252.574275
16410.403235,1258.350101,995.924147,8882.471304
16410.403560,666.185348,689.485948,9178.553681
16410.403884,-148.041188,766.095498,9104.533087
16410.404208,370.102971,1149.143247,9030.512492
16410.404533,962.267725,1608.800546,9030.512492
16410.404857,1628.453072,1302.362347,9252.574275
16410.405181,1184.329507,1378.971896,9474.636058
16410.405506,1406.391290,2068.457845,9474.636058
16410.405830,2590.720797,1838.629195,9474.636058
16410.406154,3182.885551,2604.724693,9844.739029
16410.406479,2516.700203,2451.505594,10214.842000
16410.406803,1628.453072,2451.505594,9770.718434
16410.407127,2960.823768,2757.943793,9992.780217
16410.407452,3034.844362,3294.210641,9548.656652
16410.407776,2294.638420,3064.381992,9548.656652
16410.408100,1406.391290,2757.943793,9474.636058
16410.408425,2220.617826,3217.601092,8734.430116
16410.408749,2664.741391,3600.648841,8882.471304
16410.409073,2590.720797,3370.820191,8808.450710
16410.409398,1998.556043,3677.258390,8142.265362
16410.409722,2368.659014,4749.792088,8216.285956
16410.410046,2886.803174,3907.087040,8586.388927
16410.410371,2664.741391,3217.601092,8586.388927
16410.410695,1110.308913,3064.381992,8290.306550
16410.411019,888.247130,3447.429741,8438.347739
16410.411344,1406.391290,3217.601092,8956.491898
16410.411668,1184.329507,2528.115143,9474.636058
16410.411992,148.041188,2221.676944,9548.656652
16410.412317,370.102971,2757.943793,9178.553681
16410.412641,2072.576638,2987.772442,9770.718434
16410.412965,2368.659014,3447.429741,10214.842000
16410.413290,2294.638420,3370.820191,10288.862594
16410.413614,2664.741391,3907.087040,9844.739029
16410.413938,3701.029710,4366.744339,9252.574275
16410.414263,4959.379811,4749.792088,9548.656652
16410.414587,4071.132681,4290.134789,9992.780217
16410.414911,3627.009116,3677.258390,9252.574275
16410.415236,3849.070898,3907.087040,9030.512492
16410.415560,4219.173869,3524.039291,9178.553681
16410.415885,3182.885551,3140.991542,9178.553681
16410.416209,2220.617826,3753.867940,8956.491898
16410.416533,2072.576638,2834.553343,8660.409521
16410.416858,1998.556043,2451.505594,8142.265362
16410.417182,1924.535449,2374.896044,8660.409521
16410.417506,1036.288319,2221.676944,8586.388927
16410.417831,962.267725,2221.676944,8290.306550
16410.418155,2442.679609,2451.505594,8808.450710
16410.418479,3404.947333,2451.505594,9252.574275
16410.418804,2368.659014,2834.553343,9030.512492
16410.419128,2368.659014,2757.943793,8808.450710
16410.419452,3701.029710,2681.334243,9252.574275
16410.419777,3330.926739,2145.067394,10436.903782
16410.420101,1924.535449,1685.410096,10807.006753
16410.420425,1406.391290,1455.581446,11325.150913
16410.420750,1628.453072,1455.581446,11251.130318
16410.421074,1036.288319,842.705048,11843.295072
16410.421398,148.041188,689.485948,11695.253884
16410.421723,-222.061783,536.266849,10214.842000
16410.422047,962.267725,1685.410096,8808.450710
16410.422371,2664.741391,2528.115143,7846.182985
16410.422696,2368.659014,2834.553343,6883.915261
16410.423020,1998.556043,4673.182538,5995.668130
16410.423344,2886.803174,4903.011187,5699.585753
16410.423669,3256.906145,4673.182538,5625.565159
16410.423993,1036.288319,3140.991542,6217.729913
16410.424317,-518.144159,1685.410096,8438.347739
16410.424642,-1332.370696,306.438199,9992.780217
16410.424966,-2960.823768,-1532.190996,11843.295072
16410.425290,-4515.256246,-2911.162892,13915.871710
16410.425615,-4367.215058,-2834.553343,13693.809927
16410.425939,-3627.009116,-2451.505594,12879.583391
16410.426263,1258.350101,-612.876398,12361.439231
16410.426588,4737.318029,1838.629195,11991.336260
16410.426912,6143.709319,4060.306139,9918.759623
16410.427236,9104.533087,5822.325785,7254.018232
16410.427561,11251.130318,7584.345430,6439.791695
16410.427885,10658.965565,8044.002729,5921.647536
16410.428210,7402.059420,7048.078582,6365.771101
16410.428534,4811.338623,4979.620737,7328.038826
16410.428858,2590.720797,3064.381992,8364.327145
16410.429183,592.164754,1838.629195,9696.697840
16410.429507,74.020594,1685.410096,10732.986159
16410.429831,-1480.411884,1685.410096,10732.986159
16410.430156,-740.205942,2145.067394,9696.697840
16410.430480,1924.535449,2987.772442,9474.636058
16410.430804,2368.659014,4443.353888,7476.080014
16410.431129,2072.576638,4903.011187,7031.956449
16410.431453,2738.761985,5362.668486,6439.791695
16410.431777,4145.153275,5515.887586,6587.832884
16410.432102,3627.009116,4826.401637,8142.265362
16410.432426,3256.906145,4136.915689,8734.430116
16410.432750,2368.659014,3830.477490,10584.944971
16410.433075,2146.597232,2987.772442,11769.274478
16410.433399,1998.556043,1608.800546,13249.686362
16410.433723,962.267725,766.095498,13619.789333
16410.434048,0.000000,842.705048,13249.686362
16410.434372,1702.473667,1762.019645,11769.274478
16410.434696,4293.194464,3294.210641,10140.821405
16410.435021,3478.967927,4290.134789,8956.491898
16410.435345,4145.153275,6588.421283,7105.977043
16410.435669,5625.565159,7354.516781,5107.421000
16410.435994,4737.318029,6741.640382,4515.256246
16410.436318,3627.009116,6588.421283,4293.194464
16410.436642,2886.803174,6511.811733,5625.565159
16410.436967,1406.391290,4673.182538,6883.915261
16410.437291,-222.061783,1991.848295,8882.471304
16410.437615,-1258.350101,995.924147,10288.862594
16410.437940,-3330.926739,0.000000,12731.542202
16410.438264,-5107.421000,-2834.553343,14063.912898
16410.438588,-3997.112087,-4060.306139,13175.665768
16410.438913,-1628.453072,-2757.943793,12731.542202
16410.439237,-1184.329507,-842.705048,12139.377449
16410.439561,1184.329507,229.828649,9696.697840
16410.439886,4663.297435,2834.553343,7031.956449
16410.440210,5995.668130,4290.134789,5329.482782
16410.440535,6809.894666,5515.887586,5107.421000
16410.440859,7105.977043,5745.716235,3701.029710
16410.441183,7476.080014,5822.325785,4885.359217
16410.441508,5477.523971,5132.839837,7254.018232
16410.441832,3404.947333,2221.676944,9622.677246
16410.442156,-370.102971,-689.485948,11991.336260
16410.442481,-2812.782580,-2374.896044,13619.789333
16410.442805,-3997.112087,-4519.963438,15692.365970
16410.443129,-4811.338623,-4826.401637,16358.551318
16410.443454,-4589.276840,-4749.792088,16284.530724
16410.443778,-2220.617826,-2911.162892,13175.665768
16410.444102,962.267725,0.000000,9918.759623
16410.444427,4663.297435,4060.306139,7920.203579
16410.444751,8808.450710,7048.078582,4737.318029
16410.445075,13323.706956,9346.365076,1998.556043
16410.445400,13175.665768,11184.994271,1850.514855
16410.445724,12139.377449,11108.384721,2516.700203
16410.446048,8586.388927,8733.488677,4885.359217
16410.446373,4367.215058,4443.353888,6217.729913
16410.446697,296.082377,1149.143247,8956.491898
16410.447021,-3330.926739,-229.828649,12361.439231
16410.447346,-6735.874072,-2834.553343,15026.180623
16410.447670,-7031.956449,-4136.915689,15988.448347
16410.447994,-5181.441594,-2604.724693,14804.118840
16410.448319,-2590.720797,459.657299,12657.521608
16410.448643,1110.308913,3753.867940,9992.780217
16410.448967,5255.462188,6205.373534,7105.977043
16410.449292,7550.100608,9729.412825,6661.853478
16410.449616,7105.977043,9116.536426,4811.338623
16410.449941,6661.853478,8886.707777,4219.173869
16410.450265,5995.668130,7277.907231,6217.729913
16410.450590,4071.132681,6818.249932,7698.141797
16410.450914,592.164754,4136.915689,9918.759623
16410.451238,-888.247130,995.924147,10510.924376
16410.451563,-222.061783,459.657299,11103.089130
16410.451887,-1184.329507,2451.505594,12213.398043
16410.452212,-740.205942,1455.581446,10955.047942
16410.452536,-296.082377,1225.752797,9770.718434
16410.452860,1554.432478,2604.724693,8438.347739
16410.453185,2738.761985,4519.963438,8882.471304
16410.453509,2072.576638,3677.258390,9252.574275
16410.453834,962.267725,2528.115143,7031.956449
16410.454158,2220.617826,3294.210641,7179.997637
16410.454483,4071.132681,3294.210641,9178.553681
16410.454807,4441.235652,2757.943793,10732.986159
16410.455131,3108.864956,2221.676944,10214.842000
16410.455456,1702.473667,1608.800546,9622.677246
16410.455780,1702.473667,919.314598,10214.842000
16410.456105,2886.803174,0.000000,9474.636058
16410.456429,2812.782580,-459.657299,9252.574275
16410.456753,1480.411884,1455.581446,9104.533087
16410.457078,1702.473667,1608.800546,9178.553681
16410.457402,3701.029710,1225.752797,8142.265362
16410.457727,5181.441594,1762.019645,9252.574275
16410.458051,3701.029710,4290.134789,10140.821405
16410.458375,1998.556043,3677.258390,11399.171507
16410.458700,2960.823768,919.314598,10288.862594
16410.459024,2590.720797,0.000000,10066.800811
16410.459349,0.000000,153.219100,9992.780217
16410.459673,-1776.494261,842.705048,10584.944971
16410.459998,666.185348,536.266849,10214.842000
16410.460322,1924.535449,1225.752797,10066.800811
16410.460646,592.164754,153.219100,9178.553681
16410.460971,518.144159,1991.848295,5847.626942
16410.461295,2442.679609,3370.820191,5403.503377
16410.461620,2516.700203,3907.087040,6587.832884
16410.461944,370.102971,3064.381992,9252.574275
16410.462268,962.267725,2451.505594,7476.080014
16410.462593,2442.679609,2757.943793,8290.306550
16410.462917,2960.823768,3830.477490,9252.574275
16410.463242,592.164754,3600.648841,11177.109724
16410.463566,74.020594,1915.238745,11621.233289
16410.463891,0.000000,306.438199,10807.006753
16410.464215,222.061783,842.705048,10732.986159
16410.464539,222.061783,2068.457845,11843.295072
16410.464864,444.123565,2221.676944,10881.027347
16410.465188,2738.761985,2068.457845,10066.800811
16410.465513,4219.173869,3294.210641,10214.842000
16410.465837,3108.864956,5132.839837,9252.574275
16410.466161,4959.379811,4443.353888,6883.915261
16410.466486,4515.256246,4596.572988,6291.750507
16410.466810,1702.473667,5132.839837,6883.915261
16410.467135,1554.432478,3830.477490,8068.244768
16410.467459,2368.659014,2145.067394,7550.100608
16410.467783,370.102971,1991.848295,7994.224174
16410.468108,-2146.597232,2681.334243,9030.512492
16410.468432,740.205942,1072.533697,8142.265362
16410.468757,2368.659014,689.485948,10807.006753
16410.469081,814.226536,995.924147,11547.212695
16410.469406,-2368.659014,76.609550,10436.903782
16410.469730,-1184.329507,-689.485948,8512.368333
16410.470054,1702.473667,1455.581446,9474.636058
16410.470379,1998.556043,2451.505594,10955.047942
16410.470703,370.102971,459.657299,8438.347739
16410.471028,2368.659014,842.705048,8068.244768
16410.471352,5551.544565,2298.286494,9770.718434
16410.471676,1702.473667,1608.800546,11325.150913
16410.472001,666.185348,-689.485948,9548.656652
16410.472325,4515.256246,1991.848295,7920.203579
16410.472650,5033.400406,2757.943793,9622.677246
16410.472974,0.000000,1532.190996,9030.512492
16410.473299,296.082377,153.219100,8808.450710
16410.473623,962.267725,1762.019645,9104.533087
16410.473947,-1036.288319,919.314598,10362.883188
16410.474272,-2664.741391,-1378.971896,9030.512492
16410.474596,-370.102971,-229.828649,8660.409521
16410.474921,148.041188,1685.410096,11695.253884
16410.475245,-2664.741391,536.266849,10584.944971
16410.475569,-2886.803174,-1991.848295,8068.244768
16410.475894,-1406.391290,-1149.143247,7254.018232
16410.476218,-1184.329507,919.314598,8142.265362
16410.476543,-2664.741391,383.047749,7698.141797
16410.476867,-2442.679609,-1072.533697,7105.977043
16410.477192,-2960.823768,0.000000,7550.100608
16410.477516,-4663.297435,0.000000,8660.409521
16410.477840,-4145.153275,-1991.848295,7402.059420
16410.478165,-2220.617826,-1608.800546,9104.533087
16410.478489,-2220.617826,-306.438199,11843.295072
16410.478814,-3701.029710,-1915.238745,11251.130318
16410.479138,-666.185348,-1762.019645,10140.821405
16410.479462,2812.782580,229.828649,11843.295072
16410.479787,1332.370696,1072.533697,11917.315666
16410.480111,666.185348,-766.095498,10584.944971
16410.480436,3256.906145,-306.438199,10732.986159
16410.480760,3182.885551,536.266849,11029.068536
16410.481084,1406.391290,76.609550,9770.718434
16410.481409,2368.659014,1149.143247,7698.141797
16410.481733,3034.844362,2757.943793,8956.491898
16410.482058,1776.494261,1991.848295,7920.203579
16410.482382,1258.350101,383.047749,6069.688724
16410.482707,814.226536,1072.533697,6439.791695
16410.483031,-444.123565,1991.848295,8512.368333
16410.483355,-444.123565,1302.362347,8512.368333
16410.483680,222.061783,-995.924147,8068.244768
16410.484004,-1036.288319,-459.657299,8068.244768
16410.484329,-2072.576638,1225.752797,10510.924376
16410.484653,-1850.514855,0.000000,9548.656652
16410.484977,-370.102971,-2221.676944,9326.594869
16410.485302,-1258.350101,-1072.533697,11103.089130
16410.485626,-888.247130,1072.533697,12139.377449
16410.485951,2886.803174,1378.971896,9400.615463
16410.486275,5329.482782,2451.505594,9770.718434
16410.486600,2960.823768,3524.039291,10362.883188
16410.486924,2072.576638,3217.601092,7994.224174
16410.487248,4959.379811,3677.258390,6809.894666
16410.487573,4959.379811,3294.210641,9918.759623
16410.487897,740.205942,2604.724693,8660.409521
16410.488222,740.205942,2987.772442,7476.080014
16410.488546,888.247130,2681.334243,9252.574275
16410.488870,-1628.453072,1838.629195,10955.047942
16410.489195,-4441.235652,-766.095498,9696.697840
16410.489519,-3552.988522,-229.828649,7994.224174
16410.489844,-3404.947333,-153.219100,9474.636058
16410.490168,-4811.338623,153.219100,9622.677246
16410.490492,-2368.659014,153.219100,8364.327145
16410.490817,-1406.391290,2298.286494,7920.203579
16410.491141,-1258.350101,2221.676944,8512.368333
16410.491466,-1924.535449,1225.752797,8438.347739
16410.491790,222.061783,229.828649,6957.935855
16410.492115,-296.082377,1225.752797,9104.533087
16410.492439,-1258.350101,0.000000,9400.615463
16410.492763,0.000000,459.657299,8068.244768
16410.493088,370.102971,-459.657299,9844.739029
16410.493412,-2368.659014,0.000000,9696.697840
16410.493737,-2368.659014,-1608.800546,10362.883188
16410.494061,-1036.288319,-1302.362347,9252.574275
16410.494385,0.000000,-2221.676944,11399.171507
16410.494710,-1258.350101,-1838.629195,11029.068536
16410.495034,0.000000,-459.657299,10732.986159
16410.495359,2220.617826,536.266849,11029.068536
16410.495683,1924.535449,612.876398,11843.295072
16410.496008,370.102971,-1378.971896,9622.677246
16410.496332,1776.494261,612.876398,6809.894666
16410.496656,2738.761985,459.657299,9844.739029
16410.496981,962.267725,229.828649,10436.903782
16410.497305,1110.308913,-1685.410096,7402.059420
16410.497630,1332.370696,919.314598,7920.203579
16410.497954,296.082377,459.657299,8808.450710
16410.498278,-1406.391290,-1378.971896,7105.977043
16410.498603,888.247130,-766.095498,6513.812290
16410.498927,-1258.350101,153.219100,9326.594869
16410.499252,-3182.885551,-842.705048,8586.388927
16410.499576,518.144159,-842.705048,8290.306550
16410.499900,2516.700203,842.705048,8438.347739
16410.500225,-1332.370696,76.609550,11621.233289
16410.500549,-2812.782580,0.000000,9474.636058
16410.500874,1332.370696,0.000000,8586.388927
16410.501198,1924.535449,536.266849,10807.006753
16410.501523,0.000000,1378.971896,10807.006753
16410.501847,2072.576638,1225.752797,8808.450710
16410.502171,4145.153275,2451.505594,9474.636058
16410.502496,2368.659014,2451.505594,11473.192101
16410.502820,518.144159,2221.676944,9696.697840
16410.503145,1332.370696,1838.629195,8734.430116
16410.503469,1258.350101,2374.896044,8660.409521
16410.503793,-222.061783,1149.143247,10288.862594
16410.504118,-1776.494261,1149.143247,8956.491898
16410.504442,-1480.411884,1685.410096,8734.430116
16410.504767,-2368.659014,1455.581446,9770.718434
16410.505091,-4219.173869,689.485948,9400.615463
16410.505416,-5773.606348,0.000000,8290.306550
16410.505740,-3552.988522,0.000000,8068.244768
16410.506064,-2368.659014,1608.800546,7772.162391
16410.506389,-2590.720797,766.095498,7920.203579
16410.506713,-962.267725,2451.505594,7105.977043
16410.507038,-296.082377,2528.115143,9178.553681
16410.507362,-1406.391290,2451.505594,7476.080014
16410.507686,888.247130,229.828649,7254.018232
16410.508011,888.247130,1072.533697,10510.924376
16410.508335,740.205942,1072.533697,9844.739029
16410.508660,1332.370696,1225.752797,10214.842000
16410.508984,4071.132681,383.047749,8808.450710
16410.509308,2664.741391,1532.190996,9770.718434
16410.509633,-296.082377,1302.362347,9104.533087
16410.509957,1554.432478,459.657299,8142.265362
16410.510282,2664.741391,-306.438199,10066.800811
16410.510606,148.041188,-766.095498,12065.356855
16410.510931,-1776.494261,-536.266849,11547.212695
16410.511255,2146.597232,-153.219100,8290.306550
16410.511579,2368.659014,766.095498,10288.862594
16410.511904,-888.247130,-1991.848295,11251.130318
16410.512228,-666.185348,-612.876398,8364.327145
16410.512553,962.267725,-1149.143247,9474.636058
16410.512877,-2368.659014,-766.095498,9474.636058
16410.513201,-1406.391290,-2911.162892,7994.224174
16410.513526,740.205942,-229.828649,7624.121203
16410.513850,592.164754,612.876398,9178.553681
16410.514175,-1110.308913,-306.438199,9252.574275
16410.514499,1184.329507,-1378.971896,8216.285956
16410.514824,1110.308913,689.485948,9474.636058
16410.515148,-296.082377,0.000000,10658.965565
16410.515472,0.000000,-1378.971896,9326.594869
16410.515797,2516.700203,1685.410096,9474.636058
16410.516121,2738.761985,2221.676944,11917.315666
16410.516446,-370.102971,612.876398,11325.150913
16410.516770,592.164754,-995.924147,7624.121203
16410.517094,2072.576638,1302.362347,9030.512492
16410.517419,222.061783,689.485948,10732.986159
16410.517743,-1258.350101,459.657299,8882.471304
16410.518068,0.000000,1378.971896,7698.141797
16410.518392,-1258.350101,2145.067394,8956.491898
16410.518716,-2886.803174,995.924147,8364.327145
16410.519041,-1332.370696,995.924147,6957.935855
16410.519365,-1702.473667,766.095498,7994.224174
16410.519690,-3775.050304,229.828649,10584.944971
16410.520014,-3034.844362,76.609550,10140.821405
16410.520339,-740.205942,0.000000,8438.347739
16410.520663,-2220.617826,536.266849,9622.677246
16410.520987,-4071.132681,1149.143247,10807.006753
16410.521312,-1036.288319,229.828649,7994.224174
16410.521636,1332.370696,-995.924147,9030.512492
16410.521961,-888.247130,-612.876398,10658.965565
16410.522285,-740.205942,2298.286494,9622.677246
16410.522609,3923.091493,2374.896044,8512.368333
16410.522934,4293.194464,2451.505594,10140.821405
16410.523258,1924.535449,1915.238745,9770.718434
16410.523583,2886.803174,2145.067394,6217.729913
16410.523907,4811.338623,1685.410096,8364.327145
16410.524232,3108.864956,1685.410096,11103.089130
16410.524556,814.226536,766.095498,10362.883188
16410.524880,1184.329507,76.609550,9326.594869
16410.525205,1480.411884,383.047749,9844.739029
16410.525529,-740.205942,153.219100,11029.068536
16410.525854,-1332.370696,-612.876398,8216.285956
16410.526178,296.082377,-229.828649,8068.244768
16410.526502,-444.123565,0.000000,9474.636058
16410.526827,-1110.308913,-153.219100,8956.491898
16410.527151,1184.329507,612.876398,9844.739029
16410.527476,1924.535449,1762.019645,11103.089130
16410.527800,1110.308913,-842.705048,10140.821405
16410.528125,814.226536,-383.047749,9104.533087
16410.528449,2368.659014,536.266849,9622.677246
16410.528773,296.082377,1072.533697,11029.068536
16410.529098,0.000000,536.266849,8882.471304
16410.529422,1924.535449,995.924147,7624.121203
16410.529747,2738.761985,2681.334243,8364.327145
16410.530071,444.123565,2451.505594,10881.027347
16410.530395,74.020594,1838.629195,8216.285956
16410.530720,1702.473667,153.219100,8216.285956
16410.531044,-296.082377,2221.676944,10214.842000
16410.531369,-1924.535449,1072.533697,10066.800811
16410.531693,-444.123565,2145.067394,7994.224174
16410.532017,1406.391290,2145.067394,9770.718434
16410.532342,-2812.782580,1149.143247,9918.759623
16410.532666,-4367.215058,-689.485948,8216.285956
16410.532991,-3330.926739,-1072.533697,5921.647536
16410.533315,-2516.700203,0.000000,9770.718434
16410.533640,-1110.308913,2068.457845,8660.409521
16410.533964,0.000000,2757.943793,7402.059420
16410.534288,-1036.288319,0.000000,7698.141797
16410.534613,-3997.112087,689.485948,7994.224174
16410.534937,-3256.906145,229.828649,7476.080014
16410.535262,-2146.597232,-612.876398,8290.306550
16410.535586,-3256.906145,-3140.991542,12139.377449
16410.535910,-3404.947333,-995.924147,11621.233289
16410.536235,-370.102971,0.000000,11843.295072
16410.536559,1554.432478,-1455.581446,12953.603985
16410.536884,-1110.308913,-2221.676944,11991.336260
16410.537208,-222.061783,-612.876398,8808.450710
16410.537533,3849.070898,1378.971896,9030.512492
16410.537857,4737.318029,76.609550,11251.130318
16410.538181,148.041188,-766.095498,10510.924376
16410.538506,1480.411884,766.095498,7328.038826
16410.538830,4515.256246,1685.410096,7846.182985
16410.539155,2886.803174,612.876398,9400.615463
16410.539479,888.247130,766.095498,8142.265362
16410.539803,1628.453072,1378.971896,7476.080014
16410.540128,518.144159,0.000000,8364.327145
16410.540452,-1554.432478,-1532.190996,8512.368333
16410.540777,-592.164754,0.000000,7402.059420
16410.541101,592.164754,459.657299,9104.533087
16410.541425,-962.267725,-612.876398,10955.047942
16410.541750,-1554.432478,-689.485948,9400.615463
16410.542074,-1036.288319,-1149.143247,8734.430116
16410.542399,-962.267725,-766.095498,10140.821405
16410.542723,0.000000,-153.219100,9474.636058
16410.543048,2590.720797,1302.362347,10066.800811
16410.543372,4515.256246,2911.162892,10955.047942
16410.543696,3775.050304,3217.601092,11695.253884
16410.544021,1924.535449,2374.896044,9104.533087
16410.544345,3330.926739,1838.629195,8068.244768
16410.544670,4589.276840,2681.334243,8512.368333
16410.544994,1702.473667,2604.724693,10955.047942
16410.545318,518.144159,2681.334243,9474.636058
16410.545643,1110.308913,2987.772442,9252.574275
16410.545967,-1480.411884,1532.190996,9400.615463
16410.546292,-4663.297435,0.000000,7550.100608
16410.546616,-4441.235652,1915.238745,8290.306550
16410.546941,-2294.638420,1991.848295,9622.677246
16410.547265,-3404.947333,1149.143247,9770.718434
16410.547589,-2960.823768,842.705048,7772.162391
16410.547914,-2516.700203,3140.991542,7254.018232
16410.548238,-3182.885551,2221.676944,7846.182985
16410.548563,-2146.597232,1455.581446,7402.059420
16410.548887,-1036.288319,2068.457845,8882.471304
16410.549211,-1924.535449,1762.019645,9326.594869
16410.549536,-2368.659014,383.047749,9400.615463
16410.549860,370.102971,76.609550,8734.430116
16410.550185,962.267725,1838.629195,9844.739029
16410.550509,-1406.391290,842.705048,11473.192101
16410.550834,-1480.411884,-612.876398,9696.697840
16410.551158,1776.494261,-229.828649,8364.327145
16410.551483,2294.638420,1838.629195,10658.965565
16410.551807,-222.061783,-459.657299,11695.253884
16410.552132,814.226536,-1378.971896,8882.471304
16410.552456,3552.988522,612.876398,9844.739029
16410.552780,2368.659014,1915.238745,11917.315666
16410.553105,-814.226536,-1532.190996,10214.842000
16410.553429,296.082377,-2528.115143,7772.162391
16410.553754,2368.659014,459.657299,8512.368333
16410.554078,-740.205942,-2298.286494,9474.636058
16410.554403,0.000000,-3140.991542,7328.038826
16410.554727,1406.391290,0.000000,8068.244768
16410.555052,222.061783,1302.362347,11325.150913
16410.555376,-592.164754,-2068.457845,8290.306550
16410.555701,1628.453072,-2221.676944,8660.409521
16410.556025,2220.617826,-536.266849,9474.636058
16410.556350,-370.102971,-459.657299,8882.471304
16410.556674,1406.391290,-2145.067394,9104.533087
16410.556998,1702.473667,-383.047749,11251.130318
16410.557323,0.000000,995.924147,11621.233289
16410.557647,-1924.535449,-1991.848295,9474.636058
16410.557972,666.185348,-2221.676944,7624.121203
16410.558296,2442.679609,76.609550,10732.986159
16410.558621,0.000000,1302.362347,12805.562797
16410.558945,444.123565,-1378.971896,9696.697840
16410.559270,2738.761985,1072.533697,8956.491898
16410.559594,2146.597232,3370.820191,9992.780217
16410.559919,-370.102971,2911.162892,8290.306550
16410.560243,1480.411884,1378.971896,6735.874072
16410.560568,2368.659014,4136.915689,8956.491898
16410.560892,-296.082377,2757.943793,9030.512492
16410.561216,-2072.576638,1149.143247,6957.935855
16410.561541,-962.267725,2911.162892,6513.812290
16410.561865,-1850.514855,4136.915689,8882.471304
16410.562190,-4589.276840,1685.410096,9474.636058
16410.562514,-5107.421000,459.657299,7179.997637
16410.562839,-4367.215058,306.438199,9474.636058
16410.563163,-4737.318029,536.266849,8660.409521
16410.563488,-4663.297435,76.609550,7994.224174
16410.563812,-2072.576638,1455.581446,9622.677246
16410.564137,-888.247130,3524.039291,10584.944971
16410.564461,-1332.370696,2145.067394,9992.780217
16410.564786,666.185348,459.657299,8216.285956
16410.565110,2886.803174,2757.943793,8956.491898
16410.565434,1998.556043,2604.724693,10658.965565
16410.565759,1480.411884,1378.971896,9844.739029
16410.566083,4663.297435,1915.238745,10066.800811
16410.566408,3552.988522,2604.724693,11177.109724
16410.566732,0.000000,536.266849,9622.677246
16410.567057,-740.205942,-1532.190996,7550.100608
16410.567381,1258.350101,-459.657299,8956.491898
16410.567706,-666.185348,-919.314598,10955.047942
16410.568030,-444.123565,-1838.629195,9770.718434
16410.568355,2294.638420,-306.438199,8808.450710
16410.568679,1406.391290,1532.190996,9400.615463
16410.569004,-296.082377,0.000000,7846.182985
16410.569328,0.000000,-1149.143247,6587.832884
16410.569652,1184.329507,0.000000,7105.977043
16410.569977,222.061783,76.609550,9178.553681
16410.570301,518.144159,-1838.629195,9326.594869
16410.570626,1406.391290,-1378.971896,8512.368333
16410.570950,-518.144159,-383.047749,11103.089130
16410.571275,-1184.329507,-2221.676944,10214.842000
16410.571599,1480.411884,-1838.629195,9326.594869
16410.571924,3330.926739,0.000000,10732.986159
16410.572248,518.144159,-229.828649,10807.006753
16410.572573,1036.288319,-1762.019645,9178.553681
16410.572897,4071.132681,689.485948,8956.491898
16410.573222,3775.050304,2068.457845,11917.315666
16410.573546,-370.102971,383.047749,11251.130318
16410.573870,666.185348,-612.876398,7846.182985
16410.574195,2294.638420,995.924147,9474.636058
16410.574519,-962.267725,153.219100,11029.068536
16410.574844,-4441.235652,-1838.629195,8956.491898
16410.575168,-1998.556043,0.000000,6439.791695
16410.575493,-1110.308913,1378.971896,9178.553681
16410.575817,-4663.297435,689.485948,10362.883188
16410.576142,-4515.256246,-306.438199,7179.997637
16410.576466,-2664.741391,1072.533697,6735.874072
16410.576791,-3775.050304,1608.800546,9178.553681
16410.577115,-3701.029710,689.485948,7920.203579
16410.577440,-1332.370696,1455.581446,7179.997637
16410.577764,-592.164754,2374.896044,8290.306550
16410.578088,-2146.597232,2757.943793,9844.739029
16410.578413,-1850.514855,229.828649,8586.388927
16410.578737,-740.205942,153.219100,9104.533087
16410.579062,-740.205942,-383.047749,11251.130318
16410.579386,-666.185348,1378.971896,10732.986159
16410.579711,2146.597232,1149.143247,10955.047942
16410.580035,3478.967927,2604.724693,12435.459826
16410.580360,2516.700203,2451.505594,10066.800811
16410.580684,2886.803174,1838.629195,6439.791695
16410.581009,4589.276840,2604.724693,7254.018232
16410.581333,2886.803174,2604.724693,9918.759623
16410.581657,1036.288319,1532.190996,7994.224174
16410.581982,2368.659014,689.485948,8512.368333
16410.582306,2294.638420,1991.848295,10510.924376
16410.582631,-1406.391290,229.828649,11399.171507
16410.582955,-1924.535449,-1762.019645,7328.038826
16410.583280,-1406.391290,-2834.553343,7476.080014
16410.583604,-2442.679609,-995.924147,10732.986159
16410.583929,-1998.556043,-689.485948,10584.944971
16410.584253,296.082377,-153.219100,8216.285956
16410.584578,444.123565,689.485948,9326.594869
16410.584902,0.000000,1532.190996,9178.553681
16410.585227,2812.782580,1072.533697,8216.285956
16410.585551,3849.070898,1302.362347,8586.388927
16410.585875,3627.009116,0.000000,9696.697840
16410.586200,3404.947333,2757.943793,9696.697840
16410.586524,5181.441594,1915.238745,10362.883188
16410.586849,3997.112087,1608.800546,10140.821405
16410.587173,1628.453072,1608.800546,10732.986159
16410.587498,1406.391290,1532.190996,7846.182985
16410.587822,3478.967927,1608.800546,8512.368333
16410.588147,1850.514855,1072.533697,9844.739029
16410.588471,-1036.288319,383.047749,9178.553681
16410.588796,-1924.535449,919.314598,7920.203579
16410.589120,-296.082377,1915.238745,8438.347739
16410.589445,-3182.885551,153.219100,10140.821405
16410.589769,-6513.812290,0.000000,8882.471304
16410.590093,-5181.441594,-306.438199,7698.141797
16410.590418,-4885.359217,-1608.800546,9548.656652
16410.590742,-6587.832884,-2604.724693,9326.594869
16410.591067,-6513.812290,-1149.143247,9844.739029
16410.591391,-4737.318029,919.314598,9252.574275
16410.591716,-3627.009116,612.876398,9400.615463
16410.592040,-2664.741391,-536.266849,8512.368333
16410.592365,-2146.597232,-689.485948,7550.100608
16410.592689,-3108.864956,0.000000,8068.244768
16410.593014,-666.185348,1072.533697,9918.759623
16410.593338,1480.411884,459.657299,11621.233289
16410.593663,2368.659014,459.657299,11325.150913
16410.593987,444.123565,766.095498,11029.068536
16410.594311,1110.308913,-229.828649,9770.718434
16410.594636,2886.803174,-459.657299,9178.553681
16410.594960,2442.679609,612.876398,9844.739029
16410.595285,2220.617826,-306.438199,9104.533087
16410.595609,3108.864956,689.485948,7772.162391
16410.595934,4145.153275,2374.896044,10288.862594
16410.596258,666.185348,1302.362347,10881.027347
16410.596583,148.041188,-1608.800546,7031.956449
16410.596907,1480.411884,-1225.752797,5921.647536
16410.597232,2590.720797,612.876398,7328.038826
16410.597556,296.082377,306.438199,10436.903782
16410.597881,148.041188,-689.485948,8956.491898
16410.598205,-444.123565,-689.485948,9548.656652
16410.598529,-1628.453072,0.000000,10658.965565
16410.598854,-1184.329507,-1685.410096,9326.594869
16410.599178,-444.123565,-1838.629195,8438.347739
16410.599503,0.000000,-306.438199,9548.656652
16410.599827,-1258.350101,1072.533697,10510.924376
16410.600152,814.226536,536.266849,10140.821405
16410.600476,3108.864956,1072.533697,9844.739029
16410.600801,2368.659014,2451.505594,10955.047942
16410.601125,2294.638420,3217.601092,11251.130318
16410.601450,4737.318029,3064.381992,11251.130318
16410.601774,5625.565159,2528.115143,10584.944971
16410.602099,1406.391290,2145.067394,9252.574275
16410.602423,2516.700203,4596.572988,5995.668130
16410.602747,4737.318029,4366.744339,8068.244768
16410.603072,1184.329507,2987.772442,9918.759623
16410.603396,-2886.803174,2298.286494,9474.636058
16410.603721,-2146.597232,2911.162892,7476.080014
16410.604045,-2738.761985,1225.752797,7846.182985
16410.604370,-5181.441594,383.047749,7402.059420
16410.604694,-4811.338623,1532.190996,7105.977043
16410.605019,-3849.070898,2681.334243,7994.224174
16410.605343,-4293.194464,1532.190996,9844.739029
16410.605668,-6143.709319,0.000000,9326.594869
16410.605992,-5551.544565,0.000000,7105.977043
16410.606317,-4589.276840,306.438199,7846.182985
16410.606641,-3330.926739,0.000000,9918.759623
16410.606965,-740.205942,919.314598,9622.677246
16410.607290,2072.576638,2145.067394,8956.491898
16410.607614,2220.617826,2068.457845,10436.903782
16410.607939,814.226536,1532.190996,10436.903782
16410.608263,3256.906145,1302.362347,8734.430116
16410.608588,4811.338623,1608.800546,10732.986159
16410.608912,3330.926739,1072.533697,12287.418637
16410.609237,3552.988522,536.266849,10214.842000
16410.609561,5255.462188,766.095498,9696.697840
16410.609886,2368.659014,459.657299,11917.315666
16410.610210,-1480.411884,-1378.971896,9474.636058
16410.610535,-148.041188,-1532.190996,8438.347739
16410.610859,2072.576638,-1378.971896,7846.182985
16410.611183,-1258.350101,-1608.800546,9696.697840
16410.611508,-3182.885551,-2221.676944,7402.059420
16410.611832,-740.205942,-1302.362347,6661.853478
16410.612157,-1702.473667,-1762.019645,9104.533087
16410.612481,-2960.823768,-2221.676944,8438.347739
16410.612806,-1036.288319,-1838.629195,7254.018232
16410.613130,222.061783,-1378.971896,8068.244768
16410.613455,-962.267725,-1608.800546,9770.718434
16410.613779,592.164754,-1915.238745,10288.862594
16410.614104,2294.638420,-306.438199,10362.883188
16410.614428,2960.823768,229.828649,10510.924376
16410.614752,2220.617826,-459.657299,11473.192101
16410.615077,2516.700203,306.438199,9474.636058
16410.615401,3256.906145,536.266849,11029.068536
16410.615726,962.267725,-689.485948,11621.233289
16410.616050,1998.556043,-842.705048,9326.594869
16410.616375,3627.009116,2221.676944,10732.986159
16410.616699,1924.535449,2604.724693,11991.336260
16410.617024,-962.267725,995.924147,10658.965565
16410.617348,-370.102971,306.438199,7476.080014
16410.617673,296.082377,1685.410096,7179.997637
16410.617997,-1332.370696,1225.752797,8438.347739
16410.618322,-3404.947333,919.314598,8068.244768
16410.618646,-1628.453072,2221.676944,6735.874072
16410.618970,-1776.494261,3447.429741,9030.512492
16410.619295,-5107.421000,842.705048,9474.636058
16410.619619,-6143.709319,-766.095498,5773.606348
16410.619944,-3701.029710,-536.266849,7476.080014
16410.620268,-4885.359217,459.657299,10510.924376
16410.620593,-6069.688724,383.047749,9918.759623
16410.620917,-2294.638420,383.047749,8660.409521
16410.621242,296.082377,2298.286494,8956.491898
16410.621566,-1110.308913,2757.943793,10362.883188
16410.621891,740.205942,1915.238745,8882.471304
16410.622215,3478.967927,2145.067394,8364.327145
16410.622540,3034.844362,3753.867940,10214.842000
16410.622864,2812.782580,3753.867940,10066.800811
16410.623188,4737.318029,3370.820191,8882.471304
16410.623513,3108.864956,1685.410096,9104.533087
16410.623837,592.164754,2068.457845,9326.594869
16410.624162,888.247130,1915.238745,9622.677246
16410.624486,1998.556043,919.314598,10214.842000
16410.624811,518.144159,-1532.190996,11251.130318
16410.625135,-1110.308913,383.047749,9918.759623
16410.625460,0.000000,766.095498,8956.491898
16410.625784,148.041188,-459.657299,10214.842000
16410.626109,-1184.329507,-1072.533697,10140.821405
16410.626433,-1184.329507,0.000000,8068.244768
16410.626758,296.082377,0.000000,7772.162391
16410.627082,814.226536,-1762.019645,9622.677246
16410.627406,518.144159,-612.876398,9104.533087
16410.627731,1702.473667,1378.971896,8068.244768
16410.628055,2960.823768,995.924147,9326.594869
16410.628380,1998.556043,0.000000,9622.677246
16410.628704,2590.720797,153.219100,8142.265362
16410.629029,3997.112087,2681.334243,7105.977043
16410.629353,2368.659014,229.828649,9474.636058
16410.629678,1110.308913,-383.047749,9252.574275
16410.630002,3256.906145,995.924147,10214.842000
16410.630327,2738.761985,1685.410096,10732.986159
16410.630651,-1480.411884,0.000000,11843.295072
16410.630976,-2294.638420,-1302.362347,9400.615463
16410.631300,-592.164754,0.000000,7698.141797
16410.631624,-2220.617826,-1532.190996,11177.109724
16410.631949,-3997.112087,-766.095498,10140.821405
16410.632273,-3108.864956,-306.438199,8808.450710
16410.632598,-2886.803174,-306.438199,9252.574275
16410.632922,-5255.462188,-689.485948,10362.883188
16410.633247,-3997.112087,-919.314598,9178.553681
16410.633571,-518.144159,0.000000,7179.997637
16410.633896,222.061783,-153.219100,8290.306550
16410.634220,-2960.823768,842.705048,9918.759623
16410.634545,-1480.411884,1072.533697,8882.471304
16410.634869,-814.226536,229.828649,9474.636058
16410.635194,-2368.659014,-919.314598,9400.615463
16410.635518,-2664.741391,-1072.533697,7772.162391
16410.635842,-740.205942,153.219100,7994.224174
16410.636167,222.061783,229.828649,10288.862594
16410.636491,-814.226536,-153.219100,10510.924376
16410.636816,1036.288319,1072.533697,8364.327145
16410.637140,2812.782580,2604.724693,8142.265362
16410.637465,2072.576638,1685.410096,9474.636058
16410.637789,1776.494261,1302.362347,8290.306550
16410.638114,3478.967927,1455.581446,8216.285956
16410.638438,1998.556043,689.485948,9696.697840
16410.638763,-1110.308913,-536.266849,9104.533087
16410.639087,1480.411884,1072.533697,7476.080014
16410.639412,3256.906145,2145.067394,10066.800811
16410.639736,-888.247130,-229.828649,11547.212695
16410.640060,-2812.782580,-1455.581446,9918.759623
16410.640385,-296.082377,-153.219100,9252.574275
16410.640709,-740.205942,0.000000,11029.068536
16410.641034,-3182.885551,-2911.162892,10288.862594
16410.641358,-666.185348,-229.828649,7328.038826
16410.641683,444.123565,1608.800546,9696.697840
16410.642007,0.000000,995.924147,11251.130318
16410.642332,962.267725,76.609550,9474.636058
16410.642656,2812.782580,1608.800546,7402.059420
16410.642981,3256.906145,1225.752797,8216.285956
16410.643305,3775.050304,1991.848295,9918.759623
16410.643630,6069.688724,3677.258390,10066.800811
16410.643954,5551.544565,4826.401637,10881.027347
16410.644278,2368.659014,3217.601092,9770.718434
16410.644603,2368.659014,2604.724693,7031.956449
16410.644927,3034.844362,3064.381992,7624.121203
16410.645252,1110.308913,3064.381992,9400.615463
16410.645576,-1258.350101,2298.286494,9918.759623
16410.645901,-2368.659014,1838.629195,8956.491898
16410.646225,-2368.659014,306.438199,8882.471304
16410.646550,-5551.544565,0.000000,9474.636058
16410.646874,-7624.121203,229.828649,7994.224174
16410.647199,-5921.647536,-229.828649,7994.224174
16410.647523,-3849.070898,-306.438199,9770.718434
16410.647847,-4663.297435,0.000000,9918.759623
16410.648172,-3034.844362,995.924147,7846.182985
16410.648496,222.061783,1685.410096,7698.141797
16410.648821,-888.247130,1225.752797,8734.430116
16410.649145,-1406.391290,919.314598,8882.471304
16410.649470,962.267725,1072.533697,8512.368333
16410.649794,2146.597232,919.314598,9918.759623
16410.650119,1184.329507,1302.362347,9696.697840
16410.650443,2220.617826,995.924147,9770.718434
16410.650767,1258.350101,-229.828649,10807.006753
16410.651091,-592.164754,0.000000,11473.192101
16410.651416,-740.205942,-612.876398,11251.130318
16410.651740,0.000000,-1915.238745,8734.430116
16410.652064,-1924.535449,-1685.410096,9622.677246
16410.652388,-2516.700203,-842.705048,9178.553681
16410.652713,518.144159,-383.047749,9252.574275
16410.653037,1406.391290,-306.438199,8882.471304
16410.653361,-222.061783,-306.438199,10288.862594
16410.653686,-740.205942,229.828649,8364.327145
16410.654010,2220.617826,-229.828649,7402.059420
16410.654334,2886.803174,-1378.971896,8808.450710
16410.654658,962.267725,-1149.143247,8808.450710
16410.654983,1554.432478,306.438199,9474.636058
16410.655307,3849.070898,459.657299,9400.615463
16410.655631,2368.659014,-842.705048,10732.986159
16410.655955,0.000000,-1838.629195,9178.553681
16410.656280,370.102971,-229.828649,7846.182985
16410.656604,222.061783,-2068.457845,9844.739029
16410.656928,-444.123565,-2451.505594,9770.718434
16410.657253,0.000000,-919.314598,9992.780217
16410.657577,666.185348,306.438199,10436.903782
16410.657901,0.000000,-229.828649,11029.068536
16410.658225,666.185348,0.000000,9918.759623
16410.658550,3701.029710,1149.143247,9252.574275
16410.658874,2812.782580,842.705048,9918.759623
16410.659198,148.041188,1302.362347,10510.924376
16410.659523,1258.350101,2681.334243,8068.244768
16410.659847,1998.556043,1608.800546,8734.430116
16410.660171,592.164754,2528.115143,9178.553681
16410.660495,-222.061783,3064.381992,9474.636058
16410.660820,-1258.350101,2528.115143,9474.636058
16410.661144,-1110.308913,229.828649,9178.553681
16410.661468,-4811.338623,842.705048,9844.739029
16410.661792,-5551.544565,229.828649,8734.430116
16410.662117,-4663.297435,1302.362347,7772.162391
16410.662441,-3923.091493,1762.019645,9696.697840
16410.662765,-6735.874072,1532.190996,9400.615463
16410.663090,-6513.812290,-459.657299,7550.100608
16410.663414,-3552.988522,383.047749,6809.894666
16410.663738,-1850.514855,2298.286494,8290.306550
16410.664062,0.000000,2528.115143,7698.141797
16410.664387,2960.823768,4213.525239,7402.059420
16410.664711,3849.070898,4136.915689,7846.182985
16410.665035,3256.906145,4060.306139,7550.100608
16410.665359,4885.359217,4290.134789,8808.450710
16410.665684,6069.688724,4596.572988,9400.615463
16410.666008,3923.091493,2221.676944,10658.965565
16410.666332,4367.215058,612.876398,10436.903782
16410.666657,3997.112087,1838.629195,11029.068536
16410.666981,592.164754,1838.629195,11399.171507
16410.667305,-2368.659014,-1991.848295,9696.697840
16410.667629,-3256.906145,-1608.800546,9622.677246
16410.667954,-1184.329507,-153.219100,9918.759623
16410.668278,-2368.659014,-689.485948,11177.109724
16410.668602,-3478.967927,-2834.553343,9474.636058
16410.668926,-1554.432478,-229.828649,6883.915261
16410.669251,-1480.411884,459.657299,9548.656652
16410.669575,-1924.535449,-1225.752797,9104.533087
16410.669899,222.061783,-1608.800546,7994.224174
16410.670224,2368.659014,383.047749,8216.285956
16410.670548,2220.617826,306.438199,9622.677246
16410.670872,3330.926739,-1072.533697,10658.965565
16410.671196,5773.606348,459.657299,10140.821405
16410.671521,5847.626942,1838.629195,10436.903782
16410.671845,3404.947333,919.314598,10510.924376
16410.672169,3478.967927,-306.438199,8290.306550
16410.672493,2368.659014,153.219100,9178.553681
16410.672818,-444.123565,-842.705048,10807.006753
16410.673142,-962.267725,-1302.362347,9770.718434
16410.673466,-148.041188,-1149.143247,10584.944971
16410.673791,-1850.514855,-612.876398,10658.965565
16410.674115,-4885.359217,-766.095498,9844.739029
16410.674439,-3478.967927,-1378.971896,7698.141797
16410.674763,-2368.659014,0.000000,7402.059420
16410.675088,-2886.803174,-229.828649,8290.306550
16410.675412,-3478.967927,306.438199,7105.977043
16410.675736,-2146.597232,1532.190996,7772.162391
16410.676061,-222.061783,1838.629195,7920.203579
16410.676385,-3330.926739,842.705048,9622.677246
16410.676709,-4959.379811,-919.314598,7920.203579
16410.677033,-2368.659014,0.000000,8734.430116
16410.677358,-962.267725,-1072.533697,10732.986159
16410.677682,-2960.823768,-995.924147,11103.089130
16410.678006,-2146.597232,-459.657299,11473.192101
16410.678330,222.061783,612.876398,9696.697840
16410.678655,1110.308913,153.219100,9770.718434
16410.678979,1850.514855,842.705048,8956.491898
16410.679303,1850.514855,2681.334243,9918.759623
16410.679628,1554.432478,1532.190996,10066.800811
16410.679952,2368.659014,1455.581446,7402.059420
16410.680276,4515.256246,1378.971896,7476.080014
16410.680600,2516.700203,3830.477490,9030.512492
16410.680925,-518.144159,2911.162892,9474.636058
16410.681249,0.000000,153.219100,8586.388927
16410.681573,814.226536,-229.828649,8660.409521
16410.681897,-1554.432478,689.485948,11103.089130
16410.682222,-2886.803174,0.000000,10288.862594
16410.682546,592.164754,383.047749,8512.368333
16410.682870,1036.288319,1225.752797,11103.089130
16410.683195,-1036.288319,1532.190996,11399.171507
16410.683519,-2072.576638,689.485948,10288.862594
16410.683843,666.185348,689.485948,8216.285956
16410.684167,1480.411884,1225.752797,8956.491898
16410.684492,1036.288319,1378.971896,9178.553681
16410.684816,3108.864956,3217.601092,8660.409521
16410.685140,4737.318029,3600.648841,8364.327145
16410.685464,2442.679609,2451.505594,7698.141797
16410.685789,2146.597232,2604.724693,7994.224174
16410.686113,3478.967927,4060.306139,8512.368333
16410.686437,4737.318029,3447.429741,8808.450710
16410.686762,5773.606348,2987.772442,9178.553681
16410.687086,6217.729913,4519.963438,8586.388927
16410.687410,4737.318029,3294.210641,9326.594869
16410.687734,-148.041188,1991.848295,8586.388927
16410.688059,-2146.597232,229.828649,8068.244768
16410.688383,-2146.597232,842.705048,9918.759623
16410.688707,-2886.803174,0.000000,10807.006753
16410.689032,-6587.832884,-2298.286494,10510.924376
16410.689356,-5255.462188,-1991.848295,8142.265362
16410.689680,-4145.153275,-306.438199,9474.636058
16410.690004,-6439.791695,-536.266849,10214.842000
16410.690329,-5773.606348,-2451.505594,8956.491898
16410.690653,-3627.009116,-536.266849,7254.018232
16410.690977,-2294.638420,229.828649,8438.347739
16410.691301,-3627.009116,-612.876398,8734.430116
16410.691626,-1036.288319,-919.314598,7550.100608
16410.691950,1184.329507,689.485948,8956.491898
16410.692274,370.102971,995.924147,11621.233289
16410.692599,-1110.308913,-842.705048,11991.336260
16410.692923,1628.453072,-1685.410096,8808.450710
16410.693247,1924.535449,-995.924147,9992.780217
16410.693571,296.082377,-995.924147,9400.615463
16410.693896,2812.782580,-383.047749,9696.697840
16410.694220,4663.297435,383.047749,10362.883188
16410.694544,1850.514855,1072.533697,10510.924376
16410.694868,-814.226536,-612.876398,8142.265362
16410.695193,1850.514855,0.000000,6661.853478
16410.695517,814.226536,-995.924147,8438.347739
16410.695841,-2146.597232,-1378.971896,9844.739029
16410.696166,-518.144159,-919.314598,9178.553681
16410.696490,1184.329507,76.609550,8956.491898
16410.696814,-2368.659014,-1838.629195,9178.553681
16410.697138,-4071.132681,-2145.067394,7550.100608
16410.697463,222.061783,-1149.143247,7105.977043
16410.697787,1258.350101,-612.876398,10066.800811
16410.698111,-1628.453072,-1302.362347,11917.315666
16410.698435,-2146.597232,-1455.581446,10288.862594
16410.698760,1776.494261,842.705048,9104.533087
16410.699084,2072.576638,612.876398,12287.418637
16410.699408,-666.185348,-1378.971896,11547.212695
16410.699733,-296.082377,-536.266849,9696.697840
16410.700057,2960.823768,612.876398,10955.047942
16410.700381,2960.823768,1378.971896,10732.986159
16410.700705,1776.494261,842.705048,9844.739029
16410.701030,4071.132681,3830.477490,7698.141797
16410.701354,4589.276840,5439.278036,8808.450710
16410.701678,2516.700203,3294.210641,7254.018232
16410.702002,4515.256246,4290.134789,6883.915261
16410.702327,3330.926739,5669.106685,8438.347739
16410.702651,592.164754,4213.525239,8290.306550
16410.702975,740.205942,2221.676944,7550.100608
16410.703300,1184.329507,3217.601092,8660.409521
16410.703624,-2886.803174,3064.381992,11177.109724
16410.703948,-6143.709319,1302.362347,10140.821405
16410.704272,-5477.523971,-306.438199,7328.038826
16410.704597,-6217.729913,-612.876398,9030.512492
16410.704921,-7179.997637,-1072.533697,7402.059420
16410.705245,-5033.400406,842.705048,7994.224174
16410.705570,-3034.844362,2451.505594,8364.327145
16410.705894,-5181.441594,1838.629195,10288.862594
16410.706218,-4737.318029,76.609550,8512.368333
16410.706542,-2368.659014,0.000000,5477.523971
16410.706867,0.000000,1072.533697,6883.915261
16410.707191,814.226536,1762.019645,10436.903782
16410.707515,1258.350101,1762.019645,11695.253884
16410.707839,4071.132681,1302.362347,11399.171507
16410.708164,4515.256246,2068.457845,11991.336260
16410.708488,4145.153275,842.705048,10140.821405
16410.708812,4367.215058,306.438199,8586.388927
16410.709137,4737.318029,612.876398,10584.944971
16410.709461,3182.885551,-153.219100,11695.253884
16410.709785,2738.761985,-1149.143247,10362.883188
16410.710109,3552.988522,-306.438199,9548.656652
16410.710434,888.247130,1072.533697,10066.800811
16410.710758,-2664.741391,-1455.581446,9622.677246
16410.711082,-2220.617826,-2604.724693,7254.018232
16410.711406,-666.185348,-2145.067394,8586.388927
16410.711731,-3923.091493,-2068.457845,9400.615463
16410.712055,-4293.194464,-3447.429741,5625.565159
16410.712379,-2368.659014,-1685.410096,7105.977043
16410.712704,-2368.659014,-842.705048,8734.430116
16410.713028,-3404.947333,-2604.724693,9918.759623
16410.713352,-1702.473667,-3600.648841,8956.491898
16410.713676,1332.370696,-1532.190996,10288.862594
16410.714001,2294.638420,-1532.190996,11843.295072
16410.714325,2072.576638,-2221.676944,11621.233289
16410.714649,3034.844362,-766.095498,12065.356855
16410.714973,5033.400406,2757.943793,12509.480420
16410.715298,5033.400406,1225.752797,11843.295072
16410.715622,5255.462188,1532.190996,9252.574275
16410.715946,4737.318029,2298.286494,9030.512492
16410.716271,2960.823768,3140.991542,7920.203579
16410.716595,2812.782580,2298.286494,7402.059420
16410.716919,2960.823768,3217.601092,7550.100608
16410.717243,0.000000,3830.477490,8660.409521
16410.717568,-5329.482782,1762.019645,8438.347739
16410.717892,-4515.256246,766.095498,5921.647536
16410.718216,-4367.215058,-153.219100,7105.977043
16410.718541,-6587.832884,-919.314598,7624.121203
16410.718865,-6809.894666,-229.828649,6587.832884
16410.719189,-4071.132681,1685.410096,7698.141797
16410.719513,-2664.741391,1378.971896,9696.697840
16410.719838,-4885.359217,-153.219100,11103.089130
16410.720162,-4663.297435,76.609550,9400.615463
16410.720486,-370.102971,1838.629195,9252.574275
16410.720810,370.102971,995.924147,11029.068536
16410.721135,-148.041188,766.095498,10732.986159
16410.721459,2368.659014,2757.943793,9400.615463
16410.721783,3108.864956,3064.381992,10658.965565
16410.722108,1184.329507,2374.896044,9548.656652
16410.722432,1258.350101,2145.067394,10510.924376
16410.722756,3997.112087,2451.505594,8364.327145
16410.723080,3404.947333,2681.334243,10214.842000
16410.723405,2294.638420,612.876398,11473.192101
16410.723729,4589.276840,2834.553343,8808.450710
16410.724053,3404.947333,2221.676944,10732.986159
16410.724377,-518.144159,0.000000,9400.615463
16410.724702,-2294.638420,-459.657299,9770.718434
16410.725026,222.061783,1302.362347,9252.574275
16410.725350,-296.082377,0.000000,9918.759623
16410.725675,-2368.659014,-2221.676944,7550.100608
16410.725999,-444.123565,459.657299,5625.565159
16410.726323,592.164754,2221.676944,8216.285956
16410.726647,-1776.494261,-995.924147,9474.636058
16410.726972,-3552.988522,-1838.629195,8586.388927
16410.727296,-370.102971,459.657299,7031.956449
16410.727620,-296.082377,-153.219100,8216.285956
16410.727944,-1036.288319,-2451.505594,7772.162391
16410.728269,1184.329507,-306.438199,7846.182985
16410.728593,3701.029710,2451.505594,10436.903782
16410.728917,1924.535449,383.047749,12953.603985
16410.729242,222.061783,-1762.019645,10955.047942
16410.729566,2590.720797,-306.438199,8512.368333
16410.729890,3108.864956,383.047749,10214.842000
16410.730214,2072.576638,-536.266849,11473.192101
16410.730539,3182.885551,1302.362347,11251.130318
16410.730863,4959.379811,1838.629195,11177.109724
16410.731187,1776.494261,536.266849,10881.027347
16410.731511,-444.123565,-536.266849,9548.656652
16410.731836,148.041188,1302.362347,8068.244768
16410.732160,-370.102971,229.828649,9918.759623
16410.732484,-3256.906145,-1072.533697,9696.697840
16410.732809,-2886.803174,306.438199,8068.244768
16410.733133,-1998.556043,766.095498,7105.977043
16410.733457,-5477.523971,-153.219100,7920.203579
16410.733781,-7476.080014,-229.828649,7105.977043
16410.734106,-5625.565159,536.266849,7550.100608
16410.734430,-3404.947333,-995.924147,9252.574275
16410.734754,-4811.338623,-1302.362347,9104.533087
16410.735079,-3627.009116,229.828649,7994.224174
16410.735403,-1554.432478,919.314598,8512.368333
16410.735727,-814.226536,0.000000,11177.109724
16410.736051,-1036.288319,459.657299,11473.192101
16410.736376,2664.741391,1915.238745,9104.533087
16410.736700,3552.988522,1149.143247,9770.718434
16410.737024,3034.844362,383.047749,10288.862594
16410.737348,3627.009116,2834.553343,8512.368333
16410.737673,4367.215058,3600.648841,9622.677246
16410.737997,3478.967927,1302.362347,8956.491898
16410.738321,1702.473667,1378.971896,9104.533087
16410.738646,3256.906145,2528.115143,8956.491898
16410.738970,2294.638420,919.314598,10881.027347
16410.739294,-1258.350101,-1838.629195,11695.253884
16410.739618,740.205942,-229.828649,9548.656652
16410.739943,1776.494261,1302.362347,8808.450710
16410.740267,-1332.370696,-383.047749,9918.759623
16410.740591,-4367.215058,-1149.143247,9770.718434
16410.740915,-1480.411884,0.000000,7254.018232
16410.741240,-962.267725,-1685.410096,9548.656652
16410.741564,-2886.803174,-2757.943793,9326.594869
16410.741888,-296.082377,995.924147,8808.450710
16410.742213,2812.782580,2604.724693,8956.491898
16410.742537,444.123565,-306.438199,10288.862594
16410.742861,-666.185348,306.438199,9844.739029
16410.743185,3404.947333,3294.210641,7031.956449
16410.743510,4515.256246,2451.505594,7550.100608
16410.743834,4367.215058,536.266849,9104.533087
16410.744158,5107.421000,4290.134789,9474.636058
16410.744482,5773.606348,4443.353888,9992.780217
16410.744807,2886.803174,2221.676944,11325.150913
16410.745131,1036.288319,76.609550,10066.800811
16410.745455,1924.535449,2911.162892,8438.347739
16410.745780,296.082377,2528.115143,9844.739029
16410.746104,-1924.535449,0.000000,10140.821405
16410.746428,-2664.741391,153.219100,7698.141797
16410.746752,-3182.885551,1838.629195,8290.306550
16410.747077,-5847.626942,689.485948,9252.574275
16410.747401,-7994.224174,-1532.190996,8512.368333
16410.747725,-5255.462188,-153.219100,6661.853478
16410.748050,-4737.318029,689.485948,9548.656652
16410.748374,-6513.812290,-1762.019645,9030.512492
16410.748698,-6069.688724,-1762.019645,7254.018232
16410.749022,-3108.864956,-536.266849,7550.100608
16410.749347,-3108.864956,306.438199,10288.862594
16410.749671,-4219.173869,-995.924147,11103.089130
16410.749995,-296.082377,-536.266849,9770.718434
16410.750319,2664.741391,-459.657299,10584.944971
16410.750644,2516.700203,0.000000,10362.883188
16410.750968,2960.823768,919.314598,10436.903782
16410.751292,6069.688724,2374.896044,9844.739029
16410.751617,4737.318029,2068.457845,11177.109724
16410.751941,3775.050304,919.314598,10955.047942
16410.752265,5699.585753,383.047749,7550.100608
16410.752589,4145.153275,0.000000,9030.512492
16410.752914,148.041188,-1225.752797,10140.821405
16410.753238,296.082377,-1072.533697,9252.574275
16410.753562,1850.514855,-536.266849,9400.615463
16410.753886,-1036.288319,-1762.019645,9548.656652
16410.754211,-4219.173869,-1762.019645,8142.265362
16410.754535,-2368.659014,-1225.752797,5995.668130
16410.754859,-1110.308913,-1455.581446,7994.224174
16410.755183,-1998.556043,-2068.457845,9770.718434
16410.755507,-2368.659014,-995.924147,9400.615463
16410.755832,370.102971,919.314598,8068.244768
16410.756156,1258.350101,229.828649,10362.883188
16410.756480,-444.123565,-842.705048,11029.068536
16410.756804,518.144159,229.828649,9474.636058
16410.757129,3404.947333,229.828649,10807.006753
16410.757453,3775.050304,229.828649,10732.986159
16410.757777,3108.864956,1302.362347,10658.965565
16410.758101,3997.112087,3447.429741,9474.636058
16410.758425,4885.359217,3370.820191,9770.718434
16410.758750,2590.720797,3370.820191,9770.718434
16410.759074,3923.091493,3600.648841,8364.327145
16410.759398,4293.194464,3753.867940,7772.162391
16410.759722,962.267725,1915.238745,8734.430116
16410.760046,-814.226536,3140.991542,7920.203579
16410.760371,666.185348,4136.915689,8956.491898
16410.760695,-2294.638420,2528.115143,9548.656652
16410.761019,-6291.750507,0.000000,9030.512492
16410.761343,-5773.606348,612.876398,7772.162391
16410.761668,-3849.070898,842.705048,8512.368333
16410.761992,-6291.750507,-383.047749,9474.636058
16410.762316,-6439.791695,-459.657299,8586.388927
16410.762640,-3849.070898,2451.505594,8660.409521
16410.762964,-2516.700203,2374.896044,8808.450710
16410.763289,-3552.988522,612.876398,8586.388927
16410.763613,-2738.761985,842.705048,6735.874072
16410.763937,-370.102971,2451.505594,8956.491898
16410.764261,2220.617826,2145.067394,10807.006753
16410.764586,2664.741391,-536.266849,11399.171507
16410.764910,3923.091493,1072.533697,8956.491898
16410.765234,2812.782580,3524.039291,10436.903782
16410.765558,1628.453072,612.876398,10140.821405
16410.765882,1998.556043,-1225.752797,9178.553681
16410.766207,2664.741391,0.000000,9918.759623
16410.766531,2812.782580,766.095498,10066.800811
16410.766855,1628.453072,-1455.581446,9178.553681
16410.767179,3923.091493,306.438199,6957.935855
16410.767503,3627.009116,1608.800546,9918.759623
16410.767828,-444.123565,153.219100,10140.821405
16410.768152,0.000000,-2451.505594,8882.471304
16410.768476,1850.514855,-1225.752797,8586.388927
16410.768800,-222.061783,-2374.896044,8956.491898
16410.769125,-2960.823768,-2374.896044,9252.574275
16410.769449,-296.082377,-1532.190996,8512.368333
16410.769773,1480.411884,-766.095498,9474.636058
16410.770097,-2220.617826,-1532.190996,10658.965565
16410.770421,-2590.720797,-2374.896044,9400.615463
16410.770746,888.247130,-842.705048,8216.285956
16410.771070,1628.453072,-1455.581446,10214.842000
16410.771394,-222.061783,-306.438199,10140.821405
16410.771718,1998.556043,1532.190996,9992.780217
16410.772042,5033.400406,3064.381992,9918.759623
16410.772367,2368.659014,1455.581446,11251.130318
16410.772691,1776.494261,689.485948,8734.430116
16410.773015,3182.885551,2681.334243,9326.594869
16410.773339,2442.679609,1608.800546,10436.903782
16410.773664,1776.494261,1072.533697,9030.512492
16410.773988,1850.514855,2298.286494,8660.409521
16410.774312,370.102971,3677.258390,8956.491898
16410.774636,-2294.638420,1685.410096,9844.739029
16410.774960,-2368.659014,1378.971896,7179.997637
16410.775285,-814.226536,2298.286494,7031.956449
16410.775609,-3775.050304,2145.067394,10288.862594
16410.775933,-5699.585753,0.000000,9918.759623
16410.776257,-4515.256246,995.924147,7328.038826
16410.776581,-3330.926739,1608.800546,9474.636058
16410.776906,-6587.832884,612.876398,10288.862594
16410.777230,-6439.791695,-153.219100,8438.347739
16410.777554,-2368.659014,153.219100,7328.038826
16410.777878,-2368.659014,766.095498,10140.821405
16410.778203,-4515.256246,536.266849,9992.780217
16410.778527,-1480.411884,1838.629195,7624.121203
16410.778851,2146.597232,2298.286494,7105.977043
16410.779175,1628.453072,2068.457845,8438.347739
16410.779499,1702.473667,1838.629195,8586.388927
16410.779824,3627.009116,1991.848295,8734.430116
16410.780148,2516.700203,1532.190996,12361.439231
16410.780472,2442.679609,-306.438199,10732.986159
16410.780796,3997.112087,0.000000,8068.244768
16410.781121,4293.194464,0.000000,11325.150913
16410.781445,888.247130,459.657299,12509.480420
16410.781769,-592.164754,0.000000,12287.418637
16410.782093,1110.308913,-2374.896044,9104.533087
16410.782417,1184.329507,-2834.553343,7402.059420
16410.782742,-1332.370696,-689.485948,8290.306550
16410.783066,-222.061783,1378.971896,6883.915261
16410.783390,1776.494261,306.438199,9474.636058
16410.783714,592.164754,-995.924147,10807.006753
16410.784038,-1258.350101,-612.876398,8364.327145
16410.784363,296.082377,-766.095498,7846.182985
16410.784687,2220.617826,-459.657299,7846.182985
16410.785011,740.205942,-1762.019645,10288.862594
16410.785335,-148.041188,-459.657299,9326.594869
16410.785660,3108.864956,1225.752797,10140.821405
16410.785984,3256.906145,612.876398,11473.192101
16410.786308,1406.391290,-383.047749,9326.594869
16410.786632,1776.494261,383.047749,8660.409521
16410.786956,3552.988522,1225.752797,10066.800811
16410.787281,2294.638420,612.876398,11029.068536
16410.787605,3182.885551,1838.629195,8216.285956
16410.787929,3108.864956,4060.306139,10288.862594
16410.788253,-148.041188,2298.286494,10288.862594
16410.788577,-592.164754,919.314598,8660.409521
16410.788902,222.061783,689.485948,10214.842000
16410.789226,-2072.576638,919.314598,9474.636058
16410.789550,-4219.173869,612.876398,9252.574275
16410.789874,-3256.906145,383.047749,7624.121203
16410.790199,-4145.153275,1149.143247,7846.182985
16410.790523,-7402.059420,383.047749,9474.636058
16410.790847,-7179.997637,-306.438199,7105.977043
16410.791171,-5107.421000,0.000000,7105.977043
16410.791495,-2960.823768,0.000000,9252.574275
16410.791820,-3775.050304,383.047749,10066.800811
16410.792144,-2738.761985,766.095498,9400.615463
16410.792468,-148.041188,1378.971896,8142.265362
16410.792792,296.082377,1532.190996,10214.842000
16410.793116,-1628.453072,919.314598,10955.047942
16410.793441,1258.350101,1762.019645,8216.285956
16410.793765,3997.112087,1532.190996,9252.574275
16410.794089,2294.638420,1608.800546,9474.636058
16410.794413,3330.926739,2451.505594,9252.574275
16410.794738,4145.153275,3370.820191,8956.491898
16410.795062,2368.659014,1608.800546,10732.986159
16410.795386,-296.082377,153.219100,8882.471304
16410.795710,2812.782580,1838.629195,7624.121203
16410.796034,3108.864956,1685.410096,9548.656652
16410.796359,-740.205942,-1225.752797,10066.800811
16410.796683,74.020594,-766.095498,7698.141797
16410.797007,2220.617826,919.314598,9696.697840
16410.797331,-444.123565,-1838.629195,10807.006753
16410.797656,-2664.741391,-2145.067394,9400.615463
16410.797980,666.185348,-383.047749,8734.430116
16410.798304,1258.350101,-229.828649,9696.697840
16410.798628,-814.226536,-2987.772442,10584.944971
16410.798952,-148.041188,-766.095498,8364.327145
16410.799277,2368.659014,1455.581446,8142.265362
16410.799601,1702.473667,919.314598,9918.759623
16410.799925,1036.288319,-612.876398,9326.594869
16410.800249,1480.411884,306.438199,9326.594869
16410.800573,3182.885551,1149.143247,10140.821405
16410.800898,3404.947333,-153.219100,10881.027347
16410.801222,3256.906145,0.000000,9474.636058
16410.801546,3182.885551,2834.553343,10214.842000
16410.801870,2368.659014,3140.991542,11325.150913
16410.802195,814.226536,76.609550,9696.697840
16410.802519,-1406.391290,0.000000,7994.224174
16410.802843,-1184.329507,1149.143247,7994.224174
16410.803167,-2368.659014,0.000000,8956.491898
16410.803491,-3256.906145,-919.314598,8660.409521
16410.803816,-1850.514855,1302.362347,8956.491898
16410.804140,-2960.823768,2068.457845,10881.027347
16410.804464,-5995.668130,689.485948,8660.409521
16410.804788,-3552.988522,-306.438199,6217.729913
16410.805112,222.061783,2374.896044,6365.771101
16410.805437,-3552.988522,3217.601092,10140.821405
16410.805761,-5847.626942,306.438199,7846.182985
16410.806085,-3627.009116,-995.924147,6513.812290
16410.806409,-4589.276840,459.657299,9400.615463
16410.806734,-6883.915261,-1225.752797,10140.821405
16410.807058,-4737.318029,-2374.896044,9622.677246
16410.807382,-222.061783,-1225.752797,10140.821405
16410.807706,-592.164754,383.047749,11991.336260
16410.808030,0.000000,306.438199,9696.697840
16410.808355,3478.967927,1838.629195,8142.265362
16410.808679,4515.256246,3370.820191,8734.430116
16410.809003,3256.906145,2834.553343,9548.656652
16410.809327,5477.523971,1991.848295,9474.636058
16410.809652,7105.977043,2145.067394,9548.656652
16410.809976,3701.029710,1532.190996,10584.944971
16410.810300,1924.535449,-306.438199,8512.368333
16410.810624,1998.556043,153.219100,7920.203579
16410.810948,1258.350101,153.219100,9844.739029
16410.811273,-2442.679609,-2068.457845,11103.089130
16410.811597,-2072.576638,-1915.238745,8438.347739
16410.811921,74.020594,-995.924147,8438.347739
16410.812245,-1702.473667,-1838.629195,9992.780217
16410.812569,-2294.638420,-3140.991542,8882.471304
16410.812894,1702.473667,1532.190996,8216.285956
16410.813218,3478.967927,1838.629195,10584.944971
16410.813542,0.000000,-842.705048,10807.006753
16410.813866,1184.329507,0.000000,8142.265362
16410.814191,5181.441594,1991.848295,9178.553681
16410.814515,4219.173869,459.657299,11103.089130
16410.814839,1998.556043,229.828649,11473.192101
16410.815163,4737.318029,3294.210641,9400.615463
16410.815487,4959.379811,2987.772442,9696.697840
16410.815812,2368.659014,842.705048,10807.006753
16410.816136,1998.556043,2451.505594,8734.430116
16410.816460,2146.597232,3217.601092,8586.388927
16410.816784,222.061783,1225.752797,8734.430116
16410.817108,-296.082377,1302.362347,8364.327145
16410.817433,148.041188,3830.477490,8216.285956
16410.817757,-370.102971,3140.991542,9918.759623
16410.818081,-2738.761985,306.438199,10214.842000
16410.818405,-3478.967927,306.438199,8438.347739
16410.818730,-3627.009116,919.314598,8586.388927
16410.819054,-5699.585753,0.000000,9178.553681
16410.819378,-7105.977043,-1225.752797,8956.491898
16410.819702,-5181.441594,1685.410096,7328.038826
16410.820026,-4071.132681,2221.676944,8438.347739
16410.820351,-6217.729913,-689.485948,9030.512492
16410.820675,-5329.482782,-459.657299,7105.977043
16410.820999,-2738.761985,2145.067394,8808.450710
16410.821323,-1258.350101,0.000000,10732.986159
16410.821647,-3330.926739,-2451.505594,8438.347739
16410.821972,-740.205942,536.266849,7550.100608
16410.822296,1332.370696,3524.039291,10214.842000
16410.822620,-444.123565,689.485948,11621.233289
16410.822944,0.000000,-2298.286494,8290.306550
16410.823269,3552.988522,612.876398,7105.977043
16410.823593,3330.926739,2298.286494,9622.677246
16410.823917,3182.885551,612.876398,11103.089130
16410.824241,6217.729913,842.705048,9178.553681
16410.824565,5921.647536,3524.039291,9696.697840
16410.824890,2590.720797,1378.971896,11621.233289
16410.825214,2664.741391,-383.047749,8290.306550
16410.825538,3997.112087,-842.705048,8142.265362
16410.825862,888.247130,-1378.971896,9548.656652
16410.826187,-3034.844362,-2145.067394,10881.027347
16410.826511,-814.226536,-2068.457845,10362.883188
16410.826835,-814.226536,-2374.896044,10362.883188
16410.827159,-3701.029710,-3064.381992,10140.821405
16410.827483,-3923.091493,-2681.334243,7846.182985
16410.827808,-518.144159,-1455.581446,8586.388927
16410.828132,-74.020594,-1378.971896,10066.800811
16410.828456,444.123565,-1072.533697,9622.677246
16410.828780,2294.638420,1149.143247,7105.977043
16410.829104,3404.947333,1991.848295,8438.347739
16410.829429,2368.659014,0.000000,12065.356855
16410.829753,1184.329507,229.828649,9474.636058
16410.830077,4515.256246,1455.581446,8882.471304
16410.830401,5921.647536,1685.410096,10436.903782
16410.830726,4071.132681,2068.457845,11547.212695
16410.831050,3923.091493,4366.744339,8808.450710
16410.831374,3775.050304,3830.477490,8216.285956
16410.831698,1924.535449,2298.286494,7698.141797
16410.832022,-740.205942,3294.210641,7476.080014
16410.832347,222.061783,4290.134789,8660.409521
16410.832671,-2368.659014,2298.286494,10140.821405
16410.832995,-6069.688724,-995.924147,9400.615463
16410.833319,-6217.729913,-383.047749,7550.100608
16410.833643,-5551.544565,1455.581446,9326.594869
16410.833968,-7476.080014,76.609550,10066.800811
16410.834292,-8956.491898,-1532.190996,9030.512492
16410.834616,-6365.771101,-306.438199,8512.368333
16410.834940,-4219.173869,0.000000,10140.821405
16410.835265,-4885.359217,0.000000,9548.656652
16410.835589,-2516.700203,1378.971896,6735.874072
16410.835913,-814.226536,2834.553343,8734.430116
16410.836237,1776.494261,2451.505594,9252.574275
16410.836561,1628.453072,2834.553343,10066.800811
16410.836886,3034.844362,1762.019645,7402.059420
16410.837210,3404.947333,2451.505594,7105.977043
16410.837534,4663.297435,2681.334243,9474.636058
16410.837858,3404.947333,3217.601092,10807.006753
16410.838182,3552.988522,76.609550,10066.800811
16410.838507,3108.864956,0.000000,8808.450710
16410.838831,1258.350101,0.000000,8660.409521
16410.839155,444.123565,0.000000,9030.512492
16410.839479,1110.308913,-1608.800546,9178.553681
16410.839804,444.123565,-2298.286494,9696.697840
16410.840128,-592.164754,-536.266849,8734.430116
16410.840452,1702.473667,-383.047749,11177.109724
16410.840776,222.061783,-1149.143247,11251.130318
16410.841100,-1406.391290,-2528.115143,9548.656652
16410.841425,-444.123565,-1915.238745,9770.718434
16410.841749,1036.288319,-1608.800546,10436.903782
16410.842073,-666.185348,-2528.115143,11103.089130
16410.842397,-148.041188,-2068.457845,9622.677246
16410.842722,1850.514855,-76.609550,8808.450710
16410.843046,1332.370696,-1149.143247,10658.965565
16410.843370,-444.123565,-1455.581446,9696.697840
16410.843694,1702.473667,-459.657299,9030.512492
16410.844018,3478.967927,1225.752797,9178.553681
16410.844343,2442.679609,919.314598,10658.965565
16410.844667,1480.411884,229.828649,9474.636058
16410.844991,3923.091493,2911.162892,7550.100608
16410.845315,3478.967927,3830.477490,7920.203579
16410.845639,1628.453072,1762.019645,9030.512492
16410.845964,666.185348,1685.410096,9400.615463
16410.846288,592.164754,1838.629195,7846.182985
16410.846612,-296.082377,1532.190996,8290.306550
16410.846936,-2220.617826,1302.362347,9918.759623
16410.847261,-2664.741391,2528.115143,8142.265362
16410.847585,-3849.070898,1149.143247,8364.327145
16410.847909,-5995.668130,76.609550,7920.203579
16410.848233,-6661.853478,306.438199,8660.409521
16410.848557,-6069.688724,766.095498,8290.306550
16410.848882,-5773.606348,-1302.362347,8364.327145
16410.849206,-6513.812290,0.000000,8956.491898
16410.849530,-3701.029710,1608.800546,9548.656652
16410.849854,-2368.659014,612.876398,9992.780217
16410.850178,-2368.659014,-919.314598,10362.883188
16410.850503,-1702.473667,1685.410096,10362.883188
16410.850827,2738.761985,2374.896044,9770.718434
16410.851151,3923.091493,689.485948,10214.842000
16410.851475,3552.988522,1991.848295,10510.924376
16410.851800,4663.297435,5975.544884,8882.471304
16410.852124,5403.503377,4136.915689,8586.388927
16410.852448,4145.153275,612.876398,7994.224174
16410.852772,3849.070898,2221.676944,9104.533087
16410.853096,3849.070898,4443.353888,9252.574275
16410.853421,1406.391290,612.876398,9400.615463
16410.853745,962.267725,-1762.019645,8734.430116
16410.854069,666.185348,2451.505594,8734.430116
16410.854393,-370.102971,1455.581446,8808.450710
16410.854718,-1998.556043,-2145.067394,8512.368333
16410.855042,-814.226536,-2068.457845,8586.388927
16410.855366,-740.205942,0.000000,9030.512492
16410.855690,-2368.659014,-1838.629195,10807.006753
16410.856014,-1554.432478,-2604.724693,9474.636058
16410.856339,666.185348,-383.047749,9400.615463
16410.856663,1850.514855,995.924147,10288.862594
16410.856987,666.185348,-1072.533697,10881.027347
16410.857311,4589.276840,-766.095498,10214.842000
16410.857636,8364.327145,2987.772442,11177.109724
16410.857960,7550.100608,919.314598,11473.192101
16410.858284,3330.926739,-306.438199,10584.944971
16410.858608,3775.050304,1149.143247,9548.656652
16410.858932,4441.235652,3677.258390,10214.842000
16410.859257,740.205942,0.000000,12065.356855
16410.859581,-2442.679609,-536.266849,7402.059420
16410.859905,-2368.659014,76.609550,8142.265362
16410.860229,-3923.091493,76.609550,8956.491898
16410.860554,-4885.359217,-1608.800546,8660.409521
16410.860878,-5847.626942,0.000000,8438.347739
16410.861202,-5033.400406,1838.629195,8216.285956
16410.861526,-6883.915261,-612.876398,8290.306550
16410.861850,-4959.379811,-383.047749,6291.750507
16410.862175,-2368.659014,1072.533697,6587.832884
16410.862499,-3627.009116,1838.629195,7624.121203
16410.862823,-3552.988522,1302.362347,8660.409521
16410.863147,-666.185348,2374.896044,8438.347739
16410.863472,666.185348,1991.848295,8512.368333
16410.863796,-3330.926739,0.000000,8956.491898
16410.864120,-3256.906145,-153.219100,7402.059420
16410.864444,-814.226536,459.657299,8808.450710
16410.864768,-1554.432478,-766.095498,12139.377449
16410.865093,-2960.823768,-2221.676944,11769.274478
16410.865417,-1554.432478,76.609550,10732.986159
16410.865741,1850.514855,1378.971896,9992.780217
16410.866065,2220.617826,76.609550,11695.253884
16410.866390,1850.514855,0.000000,9992.780217
16410.866714,3701.029710,2834.553343,9474.636058
16410.867038,3404.947333,1225.752797,10584.944971
16410.867362,2886.803174,-306.438199,9918.759623
16410.867686,2886.803174,1072.533697,8956.491898
16410.868011,2886.803174,2681.334243,9474.636058
16410.868335,1036.288319,-536.266849,10584.944971
16410.868659,-592.164754,-2604.724693,8364.327145
16410.868983,1480.411884,-1149.143247,7698.141797
16410.869308,-222.061783,0.000000,9548.656652
16410.869632,-3108.864956,-995.924147,8956.491898
16410.869956,592.164754,-689.485948,7476.080014
16410.870280,3478.967927,689.485948,7550.100608
16410.870605,148.041188,0.000000,9104.533087
16410.870929,-740.205942,0.000000,8068.244768
16410.871253,2664.741391,1072.533697,7846.182985
16410.871577,1998.556043,76.609550,10288.862594
16410.871901,814.226536,0.000000,10732.986159
16410.872226,3627.009116,2834.553343,9252.574275
16410.872550,5625.565159,4136.915689,9844.739029
16410.872874,3256.906145,1915.238745,11029.068536
16410.873198,1480.411884,1915.238745,9844.739029
16410.873523,2812.782580,2757.943793,9548.656652
16410.873847,2812.782580,2068.457845,9844.739029
16410.874171,1184.329507,1149.143247,9622.677246
16410.874495,-518.144159,3524.039291,9918.759623
16410.874819,-1332.370696,3600.648841,10584.944971
16410.875144,-2664.741391,0.000000,10732.986159
16410.875468,-4589.276840,229.828649,8216.285956
16410.875792,-4441.235652,1608.800546,7402.059420
16410.876116,-3627.009116,1762.019645,8956.491898
16410.876441,-4959.379811,76.609550,8438.347739
16410.876765,-6291.750507,536.266849,7105.977043
16410.877089,-2886.803174,2604.724693,6217.729913
16410.877413,-2664.741391,2068.457845,8068.244768
16410.877737,-3701.029710,383.047749,8586.388927
16410.878062,-2368.659014,919.314598,7772.162391
16410.878386,0.000000,1225.752797,9104.533087
16410.878710,-1406.391290,-612.876398,8512.368333
16410.879034,-1776.494261,1072.533697,8882.471304
16410.879359,1776.494261,3370.820191,9326.594869
16410.879683,1702.473667,1455.581446,10288.862594
16410.880007,296.082377,-1149.143247,8882.471304
16410.880331,592.164754,1149.143247,9474.636058
16410.880655,2886.803174,383.047749,9844.739029
16410.880980,1184.329507,-842.705048,9326.594869
16410.881304,814.226536,-2298.286494,11029.068536
16410.881628,1406.391290,306.438199,10066.800811
16410.881952,1036.288319,-1532.190996,11177.109724
16410.882277,370.102971,-3447.429741,10510.924376
16410.882601,1332.370696,-1685.410096,9992.780217
16410.882925,296.082377,-612.876398,10807.006753
16410.883249,444.123565,-2451.505594,10658.965565
16410.883573,2220.617826,-2068.457845,9918.759623
16410.883898,3330.926739,2145.067394,8586.388927
16410.884222,814.226536,-842.705048,8734.430116
16410.884546,-1258.350101,-4366.744339,7254.018232
16410.884870,-740.205942,-2528.115143,8808.450710
16410.885195,-222.061783,0.000000,10436.903782
16410.885519,-1184.329507,-3753.867940,10584.944971
16410.885843,-518.144159,-3447.429741,9030.512492
16410.886167,2442.679609,919.314598,9400.615463
16410.886492,2220.617826,1378.971896,11251.130318
16410.886816,1406.391290,-612.876398,10510.924376
16410.887140,3404.947333,1685.410096,7772.162391
16410.887464,6069.688724,4749.792088,7846.182985
16410.887788,4367.215058,2987.772442,9696.697840
16410.888113,2590.720797,2681.334243,9030.512492
16410.888437,3404.947333,5056.230287,8734.430116
16410.888761,1184.329507,3524.039291,9474.636058
16410.889085,-2442.679609,1302.362347,9104.533087
16410.889410,-2294.638420,2451.505594,9400.615463
16410.889734,-2442.679609,2451.505594,9252.574275
16410.890058,-6069.688724,-306.438199,8956.491898
16410.890382,-5551.544565,76.609550,8364.327145
16410.890706,-2664.741391,3370.820191,8586.388927
16410.891031,-5255.462188,2145.067394,10140.821405
16410.891355,-7179.997637,-383.047749,8734.430116
16410.891679,-2146.597232,2757.943793,6069.688724
16410.892003,-1258.350101,3600.648841,8808.450710
16410.892328,-3701.029710,536.266849,7698.141797
16410.892652,-2368.659014,1762.019645,7031.956449
16410.892976,1406.391290,6205.373534,9030.512492
16410.893300,1036.288319,3753.867940,10658.965565
16410.893624,-1480.411884,-229.828649,9030.512492
16410.893949,1776.494261,2681.334243,7328.038826
16410.894273,4145.153275,5286.058936,8882.471304
16410.894597,3034.844362,1532.190996,11325.150913
16410.894921,1702.473667,-306.438199,9252.574275
16410.895246,3256.906145,2528.115143,7846.182985
16410.895570,1702.473667,2451.505594,9770.718434
16410.895894,-666.185348,-1225.752797,10436.903782
16410.896218,-370.102971,-1838.629195,8882.471304
16410.896542,1332.370696,-766.095498,9622.677246
16410.896867,0.000000,-1991.848295,10362.883188
16410.897191,-666.185348,-1378.971896,11621.233289
16410.897515,888.247130,0.000000,10436.903782
16410.897839,1332.370696,-1838.629195,8882.471304
16410.898164,-962.267725,-3753.867940,7772.162391
16410.898488,1036.288319,-612.876398,8882.471304
16410.898812,2220.617826,0.000000,11177.109724
16410.899136,0.000000,-3830.477490,10288.862594
16410.899461,1480.411884,-3753.867940,7550.100608
16410.899785,3330.926739,-306.438199,11325.150913
16410.900109,2442.679609,-842.705048,11547.212695
16410.900433,-740.205942,-3907.087040,10140.821405
16410.900757,1110.308913,-3140.991542,8290.306550
16410.901082,3849.070898,0.000000,9400.615463
16410.901406,2442.679609,-919.314598,11029.068536
16410.901730,2590.720797,-1302.362347,8142.265362
16410.902054,4145.153275,2681.334243,8734.430116
16410.902379,3182.885551,3294.210641,11103.089130
16410.902703,222.061783,0.000000,10584.944971
16410.903027,370.102971,-612.876398,8068.244768
16410.903351,296.082377,1991.848295,7105.977043
16410.903675,-2664.741391,612.876398,8068.244768
16410.904000,-5699.585753,-1149.143247,9104.533087
16410.904324,-4737.318029,229.828649,8586.388927
16410.904648,-4959.379811,1838.629195,8142.265362
16410.904972,-7402.059420,-995.924147,8586.388927
16410.905297,-7920.203579,-383.047749,7550.100608
16410.905621,-7105.977043,306.438199,10214.842000
16410.905945,-7550.100608,-995.924147,9326.594869
16410.906269,-7254.018232,-1838.629195,7994.224174
16410.906593,-4145.153275,383.047749,7698.141797
16410.906918,-1406.391290,2681.334243,8734.430116
16410.907242,-3256.906145,1225.752797,9844.739029
16410.907566,-2146.597232,1149.143247,10140.821405
16410.907890,1628.453072,2298.286494,9326.594869
16410.908215,3034.844362,1532.190996,10288.862594
16410.908539,2368.659014,2757.943793,9326.594869
16410.908863,3478.967927,4519.963438,9030.512492
16410.909187,3923.091493,3753.867940,9474.636058
16410.909511,2442.679609,1762.019645,9548.656652
16410.909836,1258.350101,2145.067394,8068.244768
16410.910160,1110.308913,612.876398,7624.121203
16410.910484,-370.102971,-919.314598,8808.450710
16410.910808,-2886.803174,-2221.676944,11251.130318
16410.911133,-3701.029710,-2757.943793,10288.862594
16410.911457,-4441.235652,-3370.820191,9178.553681
16410.911781,-4367.215058,-3907.087040,9326.594869
16410.912105,-3849.070898,-1762.019645,9992.780217
16410.912429,-2664.741391,-1991.848295,8142.265362
16410.912754,-1554.432478,-3983.696590,8660.409521
16410.913078,74.020594,-2757.943793,8364.327145
16410.913402,370.102971,-153.219100,8808.450710
16410.913726,2664.741391,-995.924147,9844.739029
16410.914051,4219.173869,-1455.581446,9622.677246
16410.914375,2812.782580,-995.924147,10436.903782
16410.914699,3108.864956,536.266849,10658.965565
16410.915023,4589.276840,-2451.505594,10288.862594
16410.915348,2590.720797,-2451.505594,9252.574275
16410.915672,-148.041188,-1532.190996,10510.924376
16410.915996,-1258.350101,-1302.362347,10140.821405
16410.916320,74.020594,-3064.381992,8512.368333
16410.916644,-1184.329507,-2681.334243,9178.553681
16410.916969,-4441.235652,-766.095498,9252.574275
16410.917293,-4885.359217,-1608.800546,9326.594869
16410.917617,-3849.070898,-4136.915689,7179.997637
16410.917941,-5699.585753,-2451.505594,8882.471304
16410.918266,-7402.059420,-842.705048,10214.842000
16410.918590,-7920.203579,-2298.286494,7994.224174
16410.918914,-6069.688724,-5209.449386,6735.874072
16410.919238,-6291.750507,-2298.286494,8808.450710
16410.919562,-7920.203579,-1302.362347,11325.150913
16410.919887,-7476.080014,-3677.258390,8882.471304
16410.920211,-3775.050304,-5515.887586,7772.162391
16410.920535,-5699.585753,-2451.505594,11103.089130
16410.920859,-8660.409521,-1532.190996,11695.253884
16410.921184,-4293.194464,-3753.867940,7994.224174
16410.921508,-296.082377,-4136.915689,8216.285956
16410.921832,-1332.370696,-766.095498,9252.574275
16410.922156,-1702.473667,1072.533697,11325.150913
16410.922480,-2146.597232,-1608.800546,13249.686362
16410.922805,-2516.700203,-2834.553343,9622.677246
16410.923129,-2886.803174,-2451.505594,8438.347739
16410.923453,-3256.906145,-1225.752797,7772.162391
16410.923777,-3997.112087,-1685.410096,8956.491898
16410.924102,-3108.864956,-2681.334243,10288.862594
16410.924426,-3775.050304,-2145.067394,7624.121203
16410.924750,-3404.947333,-1915.238745,8290.306550
16410.925074,-1332.370696,-1072.533697,8586.388927
16410.925398,1776.494261,766.095498,8290.306550
16410.925723,1406.391290,689.485948,9104.533087
16410.926047,1406.391290,-612.876398,9474.636058
16410.926371,2812.782580,0.000000,10436.903782
16410.926695,3256.906145,842.705048,8364.327145
16410.927020,2220.617826,612.876398,8216.285956
16410.927344,2220.617826,-306.438199,9326.594869
16410.927668,2294.638420,229.828649,10362.883188
16410.927992,2516.700203,153.219100,10732.986159
16410.928316,2886.803174,842.705048,10214.842000
16410.928641,2072.576638,1532.190996,9992.780217
16410.928965,222.061783,1915.238745,8512.368333
16410.929289,-1258.350101,-536.266849,8734.430116
16410.929613,-1258.350101,-1225.752797,8882.471304
16410.929938,-3330.926739,0.000000,9844.739029
16410.930262,-4441.235652,-459.657299,9326.594869
16410.930586,-5847.626942,-2298.286494,9326.594869
16410.930910,-5329.482782,-1685.410096,9770.718434
16410.931235,-3330.926739,76.609550,9696.697840
16410.931559,-2368.659014,306.438199,9474.636058
16410.931883,-2368.659014,689.485948,9548.656652
16410.932207,-666.185348,1838.629195,9030.512492
16410.932531,-1110.308913,536.266849,9474.636058
16410.932856,-3330.926739,-1915.238745,8808.450710
16410.933180,-4515.256246,-1302.362347,7179.997637
16410.933504,-4441.235652,-919.314598,8512.368333
16410.933828,-4441.235652,-1915.238745,9326.594869
16410.934153,-4367.215058,-2374.896044,9918.759623
16410.934477,-4589.276840,-2451.505594,9474.636058
16410.934801,-5181.441594,-2451.505594,7624.121203
16410.935125,-3404.947333,-2221.676944,7550.100608
16410.935449,-1850.514855,-1072.533697,7994.224174
16410.935774,-2442.679609,-1685.410096,8734.430116
16410.936098,-4589.276840,-2451.505594,9696.697840
16410.936422,-4367.215058,-4366.744339,9844.739029
16410.936746,-5181.441594,-5439.278036,10214.842000
16410.937071,-6513.812290,-7048.078582,10436.903782
16410.937395,-6291.750507,-6358.592633,10362.883188
16410.937719,-4145.153275,-6128.763984,11029.068536
16410.938043,-3330.926739,-5592.497135,11621.233289
16410.938367,-2368.659014,-4749.792088,11251.130318
16410.938692,-1110.308913,-2834.553343,8734.430116
16410.939016,1554.432478,-1532.190996,8660.409521
16410.939340,4145.153275,0.000000,8956.491898
16410.939664,4219.173869,306.438199,9030.512492
16410.939989,2368.659014,-306.438199,8586.388927
16410.940313,740.205942,-995.924147,8956.491898
16410.940637,0.000000,-2757.943793,9474.636058
16410.940961,-2368.659014,-5745.716235,9474.636058
16410.941285,-3627.009116,-6128.763984,9844.739029
16410.941610,-3182.885551,-4903.011187,10658.965565
16410.941934,-3701.029710,-4903.011187,10732.986159
16410.942258,-2368.659014,-4060.306139,9252.574275
16410.942582,148.041188,-1608.800546,8808.450710
16410.942907,1036.288319,0.000000,8512.368333
16410.943231,1554.432478,1455.581446,7772.162391
16410.943555,2886.803174,1378.971896,8956.491898
16410.943879,592.164754,1991.848295,9030.512492
16410.944204,-2442.679609,1072.533697,8660.409521
16410.944528,-2516.700203,76.609550,9326.594869
16410.944852,-2664.741391,-1378.971896,9474.636058
16410.945176,-5033.400406,-2145.067394,10881.027347
16410.945500,-7402.059420,-3294.210641,11325.150913
16410.945825,-7179.997637,-4443.353888,10955.047942
16410.946149,-5329.482782,-4290.134789,10140.821405
16410.946473,-3775.050304,-2528.115143,10140.821405
16410.946797,-2664.741391,459.657299,9770.718434
16410.947122,296.082377,3064.381992,9474.636058
16410.947446,3182.885551,4673.182538,8586.388927
16410.947770,2072.576638,5822.325785,8438.347739
16410.948094,592.164754,5209.449386,7328.038826
16410.948418,0.000000,4673.182538,6513.812290
16410.948743,-666.185348,2911.162892,6439.791695
16410.949067,-4737.318029,536.266849,7105.977043
16410.949391,-7698.141797,-612.876398,7254.018232
16410.949715,-6587.832884,-1685.410096,8882.471304
16410.950040,-5181.441594,-3140.991542,9178.553681
16410.950364,-5255.462188,-4290.134789,10658.965565
16410.950688,-4811.338623,-3370.820191,11473.192101
16410.951012,-3256.906145,-2757.943793,11177.109724
16410.951336,-1258.350101,-2451.505594,10658.965565
16410.951661,1110.308913,-995.924147,10066.800811
16410.951985,2146.597232,1149.143247,9326.594869
16410.952309,1924.535449,2298.286494,9178.553681
16410.952633,3256.906145,2604.724693,8956.491898
16410.952958,2664.741391,2068.457845,8660.409521
16410.953282,-296.082377,842.705048,8438.347739
16410.953606,-2664.741391,76.609550,7772.162391
16410.953930,-4589.276840,-1915.238745,7772.162391
16410.954254,-5699.585753,-5592.497135,8068.244768
16410.954579,-6735.874072,-5822.325785,8438.347739
16410.954903,-8364.327145,-5975.544884,9770.718434
16410.955227,-8734.430116,-7354.516781,9400.615463
16410.955552,-5329.482782,-8197.221829,9474.636058
16410.955876,-1850.514855,-6281.983084,10732.986159
16410.956200,222.061783,-3447.429741,12287.418637
16410.956525,3330.926739,-1762.019645,12139.377449
16410.956849,7105.977043,-1225.752797,11103.089130
16410.957173,8364.327145,1378.971896,10510.924376
16410.957498,8290.306550,3217.601092,10732.986159
16410.957822,6883.915261,2681.334243,9622.677246
16410.958146,4293.194464,1149.143247,8882.471304
16410.958471,1036.288319,-689.485948,9030.512492
16410.958795,-2516.700203,-2451.505594,9474.636058
16410.959119,-7624.121203,-5132.839837,9104.533087
16410.959444,-10214.842000,-6588.421283,8882.471304
16410.959768,-11325.150913,-6894.859482,9104.533087
16410.960093,-12509.480420,-7201.297681,8808.450710
16410.960417,-11695.253884,-6818.249932,8438.347739
16410.960741,-9030.512492,-5056.230287,7846.182985
16410.961066,-6661.853478,-2451.505594,7476.080014
16410.961390,-4145.153275,-842.705048,7550.100608
16410.961714,-1776.494261,459.657299,8364.327145
16410.962039,0.000000,1378.971896,7920.203579
16410.962363,0.000000,1378.971896,8734.430116
16410.962687,296.082377,766.095498,9696.697840
16410.963012,1258.350101,0.000000,10288.862594
16410.963336,148.041188,-919.314598,10807.006753
16410.963660,-962.267725,-1608.800546,10584.944971
16410.963985,-592.164754,-2298.286494,10955.047942
16410.964309,-1110.308913,-1915.238745,11695.253884
16410.964633,-1850.514855,-1838.629195,10881.027347
16410.964958,-1628.453072,-1149.143247,10214.842000
16410.965282,-1628.453072,-919.314598,9326.594869
16410.965606,-1554.432478,-229.828649,8290.306550
16410.965931,-1184.329507,612.876398,7550.100608
16410.966255,-1998.556043,689.485948,7846.182985
16410.966579,-4145.153275,-842.705048,7328.038826
16410.966904,-4219.173869,-383.047749,8068.244768
16410.967228,-2738.761985,-229.828649,7920.203579
16410.967552,-2886.803174,-766.095498,8438.347739
16410.967877,-3182.885551,-919.314598,8586.388927
16410.968201,-2294.638420,-612.876398,8956.491898
16410.968525,-814.226536,-229.828649,9326.594869
16410.968850,222.061783,0.000000,9548.656652
16410.969174,1258.350101,383.047749,9548.656652
16410.969498,1924.535449,995.924147,9770.718434
16410.969823,2220.617826,612.876398,9770.718434
16410.970147,3404.947333,1072.533697,10140.821405
16410.970472,3256.906145,1532.190996,10436.903782
16410.970796,1554.432478,919.314598,10214.842000
16410.971120,1184.329507,766.095498,9992.780217
16410.971445,1406.391290,229.828649,10140.821405
16410.971769,0.000000,-536.266849,10510.924376
16410.972093,-1998.556043,-689.485948,10066.800811
16410.972418,-3108.864956,-766.095498,9400.615463
16410.972742,-3923.091493,-1532.190996,8882.471304
16410.973066,-3849.070898,-919.314598,8512.368333
16410.973391,-4663.297435,-1455.581446,8660.409521
16410.973715,-6365.771101,-1685.410096,8068.244768
16410.974039,-6143.709319,-1838.629195,8438.347739
16410.974364,-4219.173869,-1762.019645,9252.574275
16410.974688,-3997.112087,-2068.457845,9400.615463
16410.975012,-4737.318029,-1838.629195,8956.491898
16410.975337,-3256.906145,-1378.971896,9400.615463
16410.975661,-962.267725,-995.924147,8586.388927
16410.975985,-148.041188,-995.924147,9252.574275
16410.976310,-370.102971,-995.924147,9622.677246
16410.976634,-814.226536,-612.876398,9548.656652
16410.976958,-74.020594,-612.876398,10140.821405
16410.977283,814.226536,-689.485948,10362.883188
16410.977607,-148.041188,153.219100,10510.924376
16410.977931,-1036.288319,-459.657299,9400.615463
16410.978256,-1036.288319,-689.485948,9474.636058
16410.978580,-370.102971,-766.095498,9474.636058
16410.978904,-1554.432478,-842.705048,9622.677246
16410.979229,-3108.864956,-919.314598,9104.533087
16410.979553,-3775.050304,-689.485948,8438.347739
16410.979877,-3849.070898,-1915.238745,8068.244768
16410.980202,-3701.029710,-2681.334243,8586.388927
16410.980526,-5033.400406,-1991.848295,8808.450710
16410.980850,-5699.585753,-2068.457845,8438.347739
16410.981175,-5107.421000,-2145.067394,8512.368333
16410.981499,-3997.112087,-1915.238745,8734.430116
16410.981824,-3627.009116,-1991.848295,8364.327145
16410.982148,-3330.926739,-1762.019645,7772.162391
16410.982472,-3182.885551,-1302.362347,7624.121203
16410.982797,-518.144159,-689.485948,8882.471304
16410.983121,518.144159,-1378.971896,9252.574275
16410.983445,74.020594,-1378.971896,9770.718434
16410.983770,0.000000,-1532.190996,9770.718434
16410.984094,814.226536,-1915.238745,9918.759623
16410.984418,666.185348,-3140.991542,11029.068536
16410.984743,-888.247130,-3217.601092,10807.006753
16410.985067,-1924.535449,-3677.258390,10510.924376
16410.985391,-1998.556043,-3370.820191,10658.965565
16410.985716,-2590.720797,-4290.134789,10658.965565
16410.986040,-4293.194464,-4136.915689,10214.842000
16410.986364,-4811.338623,-3907.087040,9104.533087
16410.986689,-4811.338623,-3677.258390,8734.430116
16410.987013,-5403.503377,-4136.915689,9252.574275
16410.987337,-4737.318029,-4136.915689,8882.471304
16410.987662,-5181.441594,-4213.525239,8808.450710
16410.987986,-4589.276840,-4060.306139,8216.285956
16410.988310,-2960.823768,-4060.306139,9178.553681
16410.988635,-2220.617826,-3830.477490,9770.718434
16410.988959,-1554.432478,-3140.991542,9844.739029
16410.989283,-222.061783,-2528.115143,9992.780217
16410.989608,1554.432478,-1838.629195,10066.800811
16410.989932,1184.329507,-1838.629195,9770.718434
16410.990256,1258.350101,-1225.752797,10066.800811
16410.990581,1110.308913,-612.876398,9696.697840
16410.990905,592.164754,-383.047749,9548.656652
16410.991229,-444.123565,-612.876398,9326.594869
16410.991554,-1332.370696,-153.219100,9252.574275
16410.991878,-2960.823768,0.000000,8660.409521
16410.992202,-3775.050304,-383.047749,8734.430116
16410.992527,-5181.441594,-1072.533697,8068.244768
16410.992851,-6439.791695,-1762.019645,7846.182985
16410.993176,-6587.832884,-766.095498,7624.121203
16410.993500,-6143.709319,-842.705048,7994.224174
16410.993824,-6069.688724,-1608.800546,8512.368333
16410.994149,-6439.791695,-1762.019645,8290.306550
16410.994473,-5033.400406,-1225.752797,8364.327145
16410.994797,-2516.700203,-1532.190996,9474.636058
16410.995122,-1776.494261,-1225.752797,10584.944971
16410.995446,0.000000,76.609550,11399.171507
16410.995770,1924.535449,842.705048,11325.150913
16410.996095,3627.009116,1302.362347,10881.027347
16410.996419,5995.668130,3600.648841,10881.027347
16410.996743,5847.626942,4673.182538,10288.862594
16410.997068,5773.606348,4366.744339,9622.677246
16410.997392,4589.276840,4519.963438,9548.656652
16410.997716,2664.741391,3370.820191,9104.533087
16410.998041,-1554.432478,1455.581446,8290.306550
16410.998365,-5255.462188,-536.266849,7254.018232
16410.998689,-6883.915261,-2298.286494,7254.018232
16410.999014,-9030.512492,-4060.306139,8364.327145
16410.999338,-9992.780217,-5132.839837,7624.121203
16410.999662,-9178.553681,-4673.182538,7772.162391
16410.999987,-7624.121203,-3830.477490,7550.100608
16411.000311,-4811.338623,-2987.772442,7994.224174
16411.000635,-2516.700203,-2221.676944,8882.471304
16411.000960,-888.247130,-383.047749,8956.491898
16411.001284,-592.164754,-689.485948,8364.327145
16411.001608,2220.617826,-1225.752797,9104.533087
16411.001933,2368.659014,-766.095498,10288.862594
16411.002257,888.247130,-1685.410096,10658.965565
16411.002581,888.247130,-2528.115143,10658.965565
16411.002906,814.226536,-3140.991542,11621.233289
16411.003230,370.102971,-3830.477490,12361.439231
16411.003555,-1110.308913,-4519.963438,12879.583391
16411.003879,-3256.906145,-5362.668486,11325.150913
16411.004203,-3182.885551,-5132.839837,10807.006753
16411.004528,-2960.823768,-4366.744339,10436.903782
16411.004852,-4663.297435,-4673.182538,9252.574275
16411.005176,-5107.421000,-3830.477490,7624.121203
16411.005501,-4145.153275,-2451.505594,7105.977043
16411.005825,-4441.235652,-3064.381992,7772.162391
16411.006149,-5995.668130,-2834.553343,8364.327145
16411.006474,-5773.606348,-3064.381992,7179.997637
16411.006798,-5107.421000,-3140.991542,5995.668130
16411.007122,-4737.318029,-3447.429741,6735.874072
16411.007447,-3182.885551,-3294.210641,8586.388927
16411.007771,-2072.576638,-2221.676944,9400.615463
16411.008095,-1480.411884,-3140.991542,10066.800811
16411.008420,296.082377,-3830.477490,10881.027347
16411.008744,1332.370696,-2451.505594,11399.171507
16411.009068,1110.308913,-1838.629195,12213.398043
16411.009393,962.267725,-1455.581446,10881.027347
16411.009717,2516.700203,0.000000,10658.965565
16411.010041,3330.926739,1991.848295,10658.965565
16411.010366,1258.350101,2987.772442,9474.636058
16411.010690,-740.205942,2145.067394,7772.162391
16411.011014,-1850.514855,1991.848295,6809.894666
16411.011339,-3404.947333,2068.457845,7772.162391
16411.011663,-5107.421000,612.876398,8660.409521
16411.011987,-7031.956449,-1225.752797,8142.265362
16411.012312,-8438.347739,-1762.019645,8142.265362
16411.012636,-8438.347739,-3370.820191,8364.327145
16411.012960,-8142.265362,-5209.449386,8586.388927
16411.013285,-7179.997637,-4596.572988,9622.677246
16411.013609,-2960.823768,-1991.848295,10066.800811
16411.013933,74.020594,-1072.533697,11621.233289
16411.014258,1554.432478,-842.705048,11547.212695
16411.014582,3923.091493,2374.896044,10658.965565
16411.014907,5403.503377,4903.011187,9548.656652
16411.015231,5699.585753,5286.058936,9326.594869
16411.015555,4959.379811,4749.792088,8216.285956
16411.015880,4145.153275,4596.572988,7698.141797
16411.016204,0.000000,1762.019645,7846.182985
16411.016528,-5403.503377,-1762.019645,7550.100608
16411.016853,-8512.368333,-4673.182538,7031.956449
16411.017177,-9844.739029,-6128.763984,7624.121203
16411.017501,-9844.739029,-7201.297681,9474.636058
16411.017826,-9474.636058,-7124.688131,10362.883188
16411.018150,-8142.265362,-6894.859482,10140.821405
16411.018474,-5477.523971,-5132.839837,9770.718434
16411.018799,148.041188,-1532.190996,10288.862594
16411.019123,4589.276840,1455.581446,10584.944971
16411.019447,6143.709319,1838.629195,10881.027347
16411.019772,5699.585753,2221.676944,10955.047942
16411.020096,5921.647536,2451.505594,9622.677246
16411.020420,4441.235652,459.657299,8882.471304
16411.020745,1702.473667,-612.876398,9992.780217
16411.021069,-814.226536,-1455.581446,10066.800811
16411.021393,-2590.720797,-4136.915689,9770.718434
16411.021718,-4515.256246,-5592.497135,9326.594869
16411.022042,-4737.318029,-4443.353888,8956.491898
16411.022366,-6809.894666,-2911.162892,9474.636058
16411.022691,-7698.141797,-4826.401637,7772.162391
16411.023015,-5699.585753,-5209.449386,7550.100608
16411.023339,-4293.194464,-3524.039291,8068.244768
16411.023664,-5107.421000,-2374.896044,7772.162391
16411.023988,-4811.338623,-2911.162892,8364.327145
16411.024312,-2664.741391,-1838.629195,9104.533087
16411.024637,-222.061783,-1685.410096,10881.027347
16411.024961,518.144159,-995.924147,11917.315666
16411.025286,222.061783,-766.095498,11251.130318
16411.025610,-740.205942,0.000000,9474.636058
16411.025934,-1480.411884,229.828649,9696.697840
16411.026259,-962.267725,-306.438199,9030.512492
16411.026583,-1628.453072,-1378.971896,8660.409521
16411.026907,-3256.906145,-1991.848295,8068.244768
16411.027232,-4219.173869,-459.657299,8882.471304
16411.027556,-4145.153275,-1532.190996,11103.089130
16411.027880,-3627.009116,-3294.210641,10584.944971
16411.028205,-2368.659014,-2374.896044,8438.347739
16411.028529,-1110.308913,153.219100,9474.636058
16411.028853,-592.164754,1072.533697,10955.047942
16411.029178,-370.102971,-1149.143247,9178.553681
16411.029502,-1702.473667,-995.924147,7254.018232
16411.029826,-2590.720797,-689.485948,7994.224174
16411.030151,-1924.535449,536.266849,9326.594869
16411.030475,74.020594,459.657299,8956.491898
16411.030799,-1258.350101,-306.438199,9696.697840
16411.031124,-4145.153275,229.828649,9104.533087
16411.031448,-4219.173869,0.000000,7994.224174
16411.031772,-2294.638420,-1072.533697,7698.141797
16411.032097,-2812.782580,-1991.848295,7846.182985
16411.032421,-4737.318029,-689.485948,8438.347739
16411.032745,-4441.235652,-995.924147,9844.739029
16411.033070,-2294.638420,-2068.457845,9474.636058
16411.033394,-1036.288319,-3294.210641,9104.533087
16411.033718,-2072.576638,-995.924147,9770.718434
16411.034043,-2664.741391,0.000000,10881.027347
16411.034367,-1628.453072,-1149.143247,10288.862594
16411.034691,-740.205942,-1991.848295,9030.512492
16411.035016,-1776.494261,-1072.533697,8142.265362
16411.035340,-962.267725,459.657299,7105.977043
16411.035664,888.247130,612.876398,9474.636058
16411.035989,2368.659014,1149.143247,10436.903782
16411.036313,888.247130,229.828649,11399.171507
16411.036638,-518.144159,-459.657299,11325.150913
16411.036962,814.226536,-689.485948,8956.491898
16411.037286,666.185348,-1915.238745,8512.368333
16411.037611,-2220.617826,-2987.772442,9252.574275
16411.037935,-2590.720797,-995.924147,9992.780217
16411.038259,0.000000,0.000000,9622.677246
16411.038584,518.144159,-1991.848295,9326.594869
16411.038908,-1924.535449,-1991.848295,9548.656652
16411.039232,296.082377,383.047749,8586.388927
16411.039557,740.205942,1072.533697,9696.697840
16411.039881,-3108.864956,-1991.848295,10955.047942
16411.040205,-1628.453072,-766.095498,8290.306550
16411.040530,2220.617826,2834.553343,8364.327145
16411.040854,1776.494261,1532.190996,7698.141797
16411.041178,-370.102971,-1378.971896,9696.697840
16411.041503,-2738.761985,1072.533697,9770.718434
16411.041827,-592.164754,766.095498,9030.512492
16411.042151,-2516.700203,-2604.724693,9104.533087
16411.042476,-4219.173869,-2987.772442,6809.894666
16411.042800,-3552.988522,1455.581446,8290.306550
16411.043124,-1258.350101,0.000000,9326.594869
16411.043449,-2368.659014,-3064.381992,10881.027347
16411.043773,-3330.926739,-2834.553343,9992.780217
16411.044097,-1184.329507,919.314598,8956.491898
16411.044422,1258.350101,536.266849,9918.759623
16411.044746,666.185348,-153.219100,11325.150913
16411.045070,1628.453072,1915.238745,9622.677246
16411.045395,5403.503377,3983.696590,8586.388927
16411.045719,3701.029710,2681.334243,10214.842000
16411.046043,1184.329507,1762.019645,8512.368333
16411.046368,1850.514855,3140.991542,8216.285956
16411.046692,1110.308913,2298.286494,10288.862594
16411.047016,-2368.659014,383.047749,9252.574275
16411.047341,-2886.803174,76.609550,8290.306550
16411.047665,-1110.308913,2068.457845,7179.997637
16411.047990,-3627.009116,536.266849,9104.533087
16411.048314,-5773.606348,-1149.143247,9400.615463
16411.048638,-3478.967927,-536.266849,7846.182985
16411.048963,-1480.411884,153.219100,7772.162391
16411.049287,-370.102971,919.314598,8438.347739
16411.049611,-296.082377,1378.971896,8808.450710
16411.049936,592.164754,2987.772442,9622.677246
16411.050260,2220.617826,1455.581446,11769.274478
16411.050584,1776.494261,306.438199,11251.130318
16411.050909,1110.308913,76.609550,8660.409521
16411.051233,2220.617826,2145.067394,9474.636058
16411.051557,3478.967927,1838.629195,10510.924376
16411.051882,2146.597232,-306.438199,9770.718434
16411.052206,2072.576638,1072.533697,10214.842000
16411.052530,1332.370696,1685.410096,11843.295072
16411.052855,296.082377,229.828649,10732.986159
16411.053179,1110.308913,-1378.971896,7772.162391
16411.053503,1184.329507,229.828649,7846.182985
16411.053828,370.102971,1072.533697,9326.594869
16411.054152,-222.061783,459.657299,9030.512492
16411.054476,2368.659014,995.924147,8142.265362
16411.054801,1998.556043,1455.581446,9548.656652
16411.055125,-1480.411884,842.705048,9474.636058
16411.055448,-222.061783,76.609550,7179.997637
16411.055772,1258.350101,1225.752797,8512.368333
16411.056096,0.000000,459.657299,8956.491898
16411.056421,-370.102971,766.095498,7254.018232
16411.056745,1184.329507,2068.457845,7254.018232
16411.057069,296.082377,1608.800546,9030.512492
16411.057394,-1332.370696,-383.047749,11621.233289
16411.057718,-1110.308913,-919.314598,9622.677246
16411.058042,-1184.329507,-153.219100,9326.594869
16411.058366,-2590.720797,-1532.190996,10955.047942
16411.058691,-1850.514855,-612.876398,9326.594869
16411.059015,74.020594,842.705048,8808.450710
16411.059339,-1406.391290,229.828649,10732.986159
16411.059664,-3552.988522,-1225.752797,11621.233289
16411.059988,-888.247130,0.000000,9474.636058
16411.060312,2220.617826,1225.752797,9918.759623
16411.060637,1554.432478,1302.362347,9992.780217
16411.060961,1998.556043,2604.724693,9400.615463
16411.061285,1480.411884,3294.210641,8364.327145
16411.061609,2072.576638,2374.896044,7476.080014
16411.061934,0.000000,1762.019645,9918.759623
16411.062258,-814.226536,1991.848295,8216.285956
16411.062582,-222.061783,842.705048,8068.244768
16411.062907,-1628.453072,-1608.800546,10584.944971
16411.063231,-3627.009116,-612.876398,8142.265362
16411.063555,-2664.741391,229.828649,8956.491898
16411.063879,-444.123565,-1149.143247,7476.080014
16411.064204,-2960.823768,-229.828649,8290.306550
16411.064528,-814.226536,0.000000,8734.430116
16411.064852,518.144159,1455.581446,8586.388927
16411.065177,740.205942,-1072.533697,9992.780217
16411.065501,1258.350101,0.000000,7105.977043
16411.065825,4737.318029,2221.676944,8364.327145
16411.066150,2960.823768,1838.629195,12805.562797
16411.066474,148.041188,0.000000,13175.665768
16411.066798,2294.638420,-1149.143247,9844.739029
16411.067122,2960.823768,229.828649,9770.718434
16411.067447,1184.329507,612.876398,10658.965565
16411.067771,1110.308913,1302.362347,9696.697840
16411.068095,3404.947333,536.266849,8068.244768
16411.068420,2368.659014,1378.971896,8882.471304
16411.068744,-962.267725,919.314598,11177.109724
16411.069068,-888.247130,766.095498,8956.491898
16411.069393,1702.473667,383.047749,8512.368333
16411.069717,1850.514855,229.828649,9474.636058
16411.070041,74.020594,1685.410096,10066.800811
16411.070365,-518.144159,1991.848295,8808.450710
16411.070690,1776.494261,2374.896044,6809.894666
16411.071014,1036.288319,2298.286494,8882.471304
16411.071338,-1850.514855,2374.896044,9474.636058
16411.071663,-370.102971,1762.019645,8364.327145
16411.071987,370.102971,536.266849,9030.512492
16411.072311,-2516.700203,612.876398,8734.430116
16411.072636,-3182.885551,1915.238745,7476.080014
16411.072960,-1776.494261,2145.067394,8216.285956
16411.073284,-2368.659014,-459.657299,9400.615463
16411.073608,-3552.988522,-229.828649,10140.821405
16411.073933,0.000000,1072.533697,10288.862594
16411.074257,74.020594,1149.143247,10955.047942
16411.074581,-2442.679609,-612.876398,10732.986159
16411.074906,0.000000,1455.581446,8290.306550
16411.075230,2516.700203,3370.820191,9400.615463
16411.075554,1776.494261,2221.676944,10140.821405
16411.075878,-666.185348,842.705048,8882.471304
16411.076203,0.000000,2374.896044,7179.997637
16411.076527,1036.288319,2528.115143,8808.450710
16411.076851,-740.205942,229.828649,10140.821405
16411.077176,-1850.514855,689.485948,8216.285956
16411.077500,-1406.391290,1608.800546,8142.265362
16411.077824,-1850.514855,1149.143247,9400.615463
16411.078149,-3404.947333,-2221.676944,9622.677246
16411.078473,-2516.700203,-2298.286494,7846.182985
16411.078797,-1480.411884,-1302.362347,8734.430116
16411.079121,-1924.535449,-2221.676944,10510.924376
16411.079446,-888.247130,-1685.410096,10881.027347
16411.079770,148.041188,-536.266849,9622.677246
16411.080094,1110.308913,0.000000,9326.594869
16411.080419,1406.391290,-1838.629195,8586.388927
16411.080743,4145.153275,1378.971896,8882.471304
16411.081067,5181.441594,995.924147,9844.739029
16411.081392,2516.700203,0.000000,11177.109724
16411.081716,3997.112087,1838.629195,9252.574275
16411.082040,5551.544565,2604.724693,9030.512492
16411.082364,2960.823768,-612.876398,9474.636058
16411.082689,74.020594,-766.095498,9696.697840
16411.083013,1850.514855,1838.629195,10955.047942
16411.083337,814.226536,-995.924147,10066.800811
16411.083662,-3330.926739,-4366.744339,9622.677246
16411.083986,-2368.659014,-306.438199,7254.018232
16411.084310,888.247130,2987.772442,9696.697840
16411.084635,-222.061783,306.438199,10436.903782
16411.084959,-1924.535449,-1915.238745,11325.150913
16411.085283,888.247130,1991.848295,8808.450710
16411.085607,2294.638420,2528.115143,8808.450710
16411.085932,1332.370696,612.876398,9178.553681
16411.086256,1480.411884,2528.115143,7402.059420
16411.086580,962.267725,4673.182538,8956.491898
16411.086905,814.226536,2834.553343,9474.636058
16411.087229,-1480.411884,459.657299,9918.759623
16411.087553,-1850.514855,2145.067394,7254.018232
16411.087877,-2664.741391,2068.457845,7105.977043
16411.088202,-4515.256246,306.438199,7920.203579
16411.088526,-2664.741391,1072.533697,7994.224174
16411.088850,-2738.761985,3294.210641,7698.141797
16411.089175,-3330.926739,1991.848295,7698.141797
16411.089499,-5107.421000,919.314598,8882.471304
16411.089823,-1628.453072,1991.848295,8438.347739
16411.090148,296.082377,2987.772442,11177.109724
16411.090472,370.102971,1455.581446,10584.944971
16411.090796,1184.329507,2451.505594,9030.512492
16411.091120,4959.379811,4443.353888,9696.697840
16411.091445,2590.720797,3600.648841,12065.356855
16411.091769,-2146.597232,-383.047749,11621.233289
16411.092093,222.061783,0.000000,8882.471304
16411.092418,518.144159,459.657299,9474.636058
16411.092742,-2072.576638,-689.485948,10140.821405
16411.093066,-2738.761985,-2068.457845,9252.574275
16411.093391,-2220.617826,153.219100,8586.388927
16411.093715,-3182.885551,-2068.457845,9326.594869
16411.094039,-3552.988522,-2987.772442,8956.491898
16411.094363,222.061783,-2145.067394,7624.121203
16411.094688,1554.432478,-995.924147,8586.388927
16411.095012,-740.205942,-1072.533697,10732.986159
16411.095336,1702.473667,-1608.800546,10436.903782
16411.095661,4663.297435,229.828649,8142.265362
16411.095985,4441.235652,0.000000,8882.471304
16411.096309,2368.659014,-612.876398,7994.224174
16411.096634,3256.906145,459.657299,9696.697840
16411.096958,4663.297435,459.657299,11769.274478
16411.097282,2960.823768,-1072.533697,11029.068536
16411.097606,370.102971,-1838.629195,8364.327145
16411.097931,1702.473667,689.485948,7105.977043
16411.098255,1998.556043,0.000000,10658.965565
16411.098579,-2368.659014,-2145.067394,11399.171507
16411.098904,-3330.926739,-3140.991542,9992.780217
16411.099228,-1184.329507,-919.314598,9178.553681
16411.099552,-592.164754,-1072.533697,9622.677246
16411.099876,-1702.473667,-1225.752797,8068.244768
16411.100201,1702.473667,1225.752797,7994.224174
16411.100525,0.000000,2374.896044,11325.150913
16411.100849,-3256.906145,0.000000,12065.356855
16411.101174,-518.144159,306.438199,8290.306550
16411.101498,3330.926739,2451.505594,8660.409521
16411.101822,-1036.288319,2987.772442,10066.800811
16411.102147,-1554.432478,1762.019645,9178.553681
16411.102471,1258.350101,4290.134789,7624.121203
16411.102795,1702.473667,2834.553343,8290.306550
16411.103119,-2886.803174,2451.505594,9400.615463
16411.103444,-2960.823768,2451.505594,7105.977043
16411.103768,-592.164754,2834.553343,7772.162391
16411.104092,-1850.514855,2221.676944,10214.842000
16411.104417,-2738.761985,1532.190996,8956.491898
16411.104741,-1258.350101,3677.258390,5699.585753
16411.105065,-444.123565,2374.896044,8364.327145
16411.105390,-2220.617826,2604.724693,9474.636058
16411.105714,-1480.411884,2298.286494,9104.533087
16411.106038,74.020594,2374.896044,9474.636058
16411.106362,1110.308913,1149.143247,9400.615463
16411.106687,-666.185348,2604.724693,9400.615463
16411.107011,444.123565,2145.067394,7550.100608
16411.107335,296.082377,0.000000,8512.368333
16411.107660,-1184.329507,-842.705048,10584.944971
16411.107984,-1480.411884,383.047749,10066.800811
16411.108308,222.061783,-383.047749,9030.512492
16411.108633,1480.411884,-2374.896044,10955.047942
16411.108957,-444.123565,-919.314598,11769.274478
16411.109281,222.061783,842.705048,9844.739029
16411.109605,3182.885551,-306.438199,10510.924376
16411.109930,3627.009116,-1378.971896,9770.718434
16411.110254,3997.112087,1455.581446,9030.512492
16411.110578,5329.482782,1762.019645,10214.842000
16411.110903,3404.947333,-459.657299,10955.047942
16411.111227,2664.741391,-1838.629195,9474.636058
16411.111551,5255.462188,1838.629195,8808.450710
16411.111875,4145.153275,2221.676944,9992.780217
16411.112200,0.000000,-1225.752797,9918.759623
16411.112524,-592.164754,-1915.238745,7254.018232
16411.112848,1036.288319,-153.219100,7105.977043
16411.113173,-592.164754,-1302.362347,9252.574275
16411.113497,-3775.050304,-2757.943793,10214.842000
16411.113821,-2220.617826,-842.705048,7994.224174
16411.114146,-592.164754,0.000000,9474.636058
16411.114470,-2738.761985,-1532.190996,11547.212695
16411.114794,-2738.761985,-2987.772442,9696.697840
16411.115118,-1628.453072,459.657299,7476.080014
16411.115443,-740.205942,-536.266849,8142.265362
16411.115767,-1702.473667,-1378.971896,10288.862594
16411.116091,0.000000,1072.533697,9474.636058
16411.116416,962.267725,3294.210641,9622.677246
16411.116740,-1776.494261,229.828649,10510.924376
16411.117064,-518.144159,-612.876398,9770.718434
16411.117389,518.144159,1455.581446,10214.842000
16411.117713,-148.041188,1685.410096,10436.903782
16411.118037,-2442.679609,153.219100,10288.862594
16411.118361,-1480.411884,2604.724693,7994.224174
16411.118686,222.061783,3064.381992,9326.594869
16411.119010,-2220.617826,1225.752797,9770.718434
16411.119334,-2368.659014,-536.266849,7624.121203
16411.119659,-1628.453072,2757.943793,7031.956449
16411.119983,-1406.391290,1532.190996,9326.594869
16411.120307,-3627.009116,0.000000,8956.491898
16411.120632,-1702.473667,919.314598,6291.750507
16411.120956,-296.082377,3217.601092,7105.977043
16411.121280,-2442.679609,2145.067394,9770.718434
16411.121604,-1554.432478,76.609550,7328.038826
16411.121929,1332.370696,1378.971896,6365.771101
16411.122253,-962.267725,306.438199,9178.553681
16411.122577,-2516.700203,0.000000,9104.533087
16411.122902,2220.617826,459.657299,9474.636058
16411.123226,3108.864956,1685.410096,10732.986159
16411.123550,148.041188,-1149.143247,12805.562797
16411.123874,2072.576638,-612.876398,10362.883188
16411.124199,5181.441594,153.219100,9030.512492
16411.124523,4219.173869,229.828649,9992.780217
16411.124847,3256.906145,0.000000,10955.047942
16411.125172,5181.441594,1149.143247,9326.594869
16411.125496,6883.915261,2451.505594,10732.986159
16411.125820,4589.276840,1915.238745,12657.521608
16411.126145,2516.700203,1225.752797,10066.800811
16411.126469,3775.050304,689.485948,8438.347739
16411.126793,4441.235652,2068.457845,8734.430116
16411.127117,1110.308913,919.314598,8660.409521
16411.127442,-592.164754,306.438199,5033.400406
16411.127766,-592.164754,1991.848295,7920.203579
16411.128090,-3108.864956,536.266849,10362.883188
16411.128415,-6217.729913,-2451.505594,8734.430116
16411.128739,-4441.235652,-2451.505594,7994.224174
16411.129063,-2516.700203,-229.828649,10214.842000
16411.129388,-2664.741391,-153.219100,11843.295072
16411.129712,-962.267725,0.000000,8808.450710
16411.130036,666.185348,1072.533697,10288.862594
16411.130360,-962.267725,1762.019645,10510.924376
16411.130685,148.041188,2145.067394,8586.388927
16411.131009,3478.967927,1762.019645,8142.265362
16411.131333,2072.576638,2451.505594,10140.821405
16411.131658,-1850.514855,2145.067394,9918.759623
16411.131982,0.000000,2604.724693,7994.224174
16411.132306,1258.350101,1762.019645,7994.224174
16411.132631,-3034.844362,1455.581446,9400.615463
16411.132955,-4663.297435,995.924147,8586.388927
16411.133279,-2812.782580,1225.752797,8068.244768
16411.133603,-2812.782580,-919.314598,10214.842000
16411.133928,-4885.359217,-842.705048,10510.924376
16411.134252,-3256.906145,536.266849,7476.080014
16411.134576,-740.205942,1532.190996,7624.121203
16411.134901,-1258.350101,0.000000,10510.924376
16411.135225,-3182.885551,-612.876398,10066.800811
16411.135549,-2294.638420,-766.095498,7179.997637
16411.135873,-1184.329507,-842.705048,7920.203579
16411.136198,-1480.411884,-1455.581446,9548.656652
16411.136522,-444.123565,0.000000,8882.471304
16411.136846,1998.556043,306.438199,9992.780217
16411.137171,-222.061783,-1149.143247,11843.295072
16411.137495,-1554.432478,-1532.190996,10436.903782
16411.137819,2442.679609,-383.047749,7994.224174
16411.138144,4811.338623,76.609550,9918.759623
16411.138468,2368.659014,-383.047749,11103.089130
16411.138792,3182.885551,919.314598,9104.533087
16411.139116,7328.038826,2298.286494,8364.327145
16411.139441,6217.729913,1455.581446,9992.780217
16411.139765,3034.844362,1072.533697,9622.677246
16411.140089,4441.235652,1072.533697,8808.450710
16411.140414,5403.503377,2145.067394,11695.253884
16411.140738,2738.761985,842.705048,11917.315666
16411.141062,592.164754,0.000000,9400.615463
16411.141387,1406.391290,995.924147,6883.915261
16411.141711,370.102971,1762.019645,8882.471304
16411.142035,-1702.473667,383.047749,10140.821405
16411.142359,-1628.453072,612.876398,7994.224174
16411.142684,-666.185348,0.000000,8586.388927
16411.143008,-1850.514855,1532.190996,8512.368333
16411.143332,-1776.494261,1915.238745,7624.121203
16411.143657,-2146.597232,766.095498,8216.285956
16411.143981,-2960.823768,383.047749,10140.821405
16411.144305,-3034.844362,76.609550,11177.109724
16411.144630,-2146.597232,0.000000,8734.430116
16411.144954,-1258.350101,766.095498,9104.533087
16411.145278,-1998.556043,1685.410096,9770.718434
16411.145602,-148.041188,2911.162892,8290.306550
16411.145927,2072.576638,4136.915689,8290.306550
16411.146251,2072.576638,4290.134789,9770.718434
16411.146575,-444.123565,3677.258390,8438.347739
16411.146900,666.185348,3677.258390,5995.668130
16411.147224,1850.514855,3370.820191,7402.059420
16411.147548,-1406.391290,1685.410096,9622.677246
16411.147873,-2812.782580,1378.971896,8882.471304
16411.148197,-1776.494261,1225.752797,9474.636058
16411.148521,-4885.359217,0.000000,10955.047942
16411.148845,-8512.368333,-2911.162892,9992.780217
16411.149170,-5921.647536,-2451.505594,7550.100608
16411.149494,-2738.761985,-1302.362347,8290.306550
16411.149818,-4071.132681,-1915.238745,9696.697840
16411.150143,-2738.761985,-1455.581446,9400.615463
16411.150467,0.000000,842.705048,9474.636058
16411.150791,-370.102971,-842.705048,10510.924376
16411.151115,-518.144159,-2374.896044,9844.739029
16411.151440,3478.967927,-1455.581446,8364.327145
16411.151764,5847.626942,-689.485948,8956.491898
16411.152088,3849.070898,153.219100,12361.439231
16411.152413,4071.132681,0.000000,11621.233289
16411.152737,6143.709319,383.047749,8364.327145
16411.153061,4811.338623,-612.876398,9548.656652
16411.153386,2886.803174,-383.047749,9252.574275
16411.153710,3997.112087,-459.657299,8438.347739
16411.154034,3923.091493,-766.095498,9104.533087
16411.154358,1036.288319,-2221.676944,9844.739029
16411.154683,0.000000,-1072.533697,9474.636058
16411.155007,2516.700203,842.705048,7698.141797
16411.155331,3034.844362,842.705048,10436.903782
16411.155656,0.000000,-459.657299,10732.986159
16411.155980,-444.123565,-612.876398,8586.388927
16411.156304,2146.597232,153.219100,8216.285956
16411.156629,1776.494261,306.438199,11177.109724
16411.156953,-518.144159,153.219100,9696.697840
16411.157278,0.000000,1455.581446,7920.203579
16411.157602,-666.185348,1072.533697,10807.006753
16411.157926,-3182.885551,229.828649,10955.047942
16411.158251,-2146.597232,766.095498,8512.368333
16411.158575,-370.102971,1302.362347,7846.182985
16411.158899,-2590.720797,1149.143247,8734.430116
16411.159224,-3330.926739,842.705048,8734.430116
16411.159548,222.061783,3370.820191,8734.430116
16411.159873,-1184.329507,3140.991542,11177.109724
16411.160197,-4293.194464,1762.019645,9992.780217
16411.160521,-1924.535449,1991.848295,6883.915261
16411.160846,518.144159,3294.210641,7624.121203
16411.161170,-888.247130,3064.381992,8660.409521
16411.161494,-1554.432478,2681.334243,7624.121203
16411.161819,-666.185348,3677.258390,7105.977043
16411.162143,-222.061783,3600.648841,9474.636058
16411.162468,-2590.720797,3064.381992,10807.006753
16411.162792,-2220.617826,1378.971896,8068.244768
16411.163116,444.123565,689.485948,6217.729913
16411.163441,-1036.288319,995.924147,9474.636058
16411.163765,-2368.659014,1838.629195,9474.636058
16411.164089,-740.205942,1149.143247,8660.409521
16411.164414,-814.226536,-383.047749,9992.780217
16411.164738,-2812.782580,-1685.410096,10066.800811
16411.165063,-2220.617826,-2221.676944,9474.636058
16411.165387,740.205942,-919.314598,9326.594869
16411.165711,2368.659014,-1991.848295,11843.295072
16411.166036,-814.226536,-2068.457845,10881.027347
16411.166360,1850.514855,-689.485948,7698.141797
16411.166684,4219.173869,919.314598,10214.842000
16411.167009,2442.679609,-459.657299,11325.150913
16411.167333,2516.700203,-1072.533697,9400.615463
16411.167658,6809.894666,-383.047749,8660.409521
16411.167982,5921.647536,766.095498,11991.336260
16411.168306,3701.029710,306.438199,12139.377449
16411.168631,4441.235652,0.000000,9252.574275
16411.168955,2960.823768,76.609550,9252.574275
16411.169279,222.061783,-153.219100,9474.636058
16411.169604,518.144159,-1915.238745,7402.059420
16411.169928,1036.288319,-1685.410096,8438.347739
16411.170253,-962.267725,-1378.971896,10436.903782
16411.170577,-2368.659014,-995.924147,9696.697840
16411.170901,-1110.308913,-919.314598,9326.594869
16411.171226,222.061783,-612.876398,9252.574275
16411.171550,-962.267725,459.657299,10584.944971
16411.171874,-592.164754,1072.533697,8142.265362
16411.172199,-518.144159,689.485948,7772.162391
16411.172523,-1258.350101,-1225.752797,8956.491898
16411.172848,-592.164754,1302.362347,7846.182985
16411.173172,814.226536,1762.019645,7624.121203
16411.173496,-1184.329507,2604.724693,8734.430116
16411.173821,-2442.679609,1608.800546,11251.130318
16411.174145,-2886.803174,1838.629195,10140.821405
16411.174469,-1480.411884,1072.533697,8142.265362
16411.174794,-2442.679609,1225.752797,8364.327145
16411.175118,-5329.482782,1149.143247,7772.162391
16411.175443,-3330.926739,2757.943793,6883.915261
16411.175767,-370.102971,2681.334243,10362.883188
16411.176091,-1924.535449,1608.800546,11473.192101
16411.176416,-3478.967927,1149.143247,8956.491898
16411.176740,0.000000,1072.533697,8216.285956
16411.177064,1628.453072,1915.238745,10732.986159
16411.177389,-518.144159,1532.190996,10140.821405
16411.177713,-444.123565,1991.848295,7920.203579
16411.178037,1406.391290,2987.772442,8142.265362
16411.178362,1332.370696,1532.190996,9400.615463
16411.178686,-1184.329507,689.485948,9030.512492
16411.179011,-370.102971,-1072.533697,8068.244768
16411.179335,-814.226536,306.438199,9252.574275
16411.179659,-370.102971,0.000000,9104.533087
16411.179984,296.082377,383.047749,7698.141797
16411.180308,-296.082377,0.000000,9178.553681
16411.180632,-1480.411884,0.000000,8882.471304
16411.180957,-666.185348,-1762.019645,10658.965565
16411.181281,1628.453072,-1455.581446,9770.718434
16411.181606,3552.988522,-766.095498,10436.903782
16411.181930,2590.720797,-766.095498,11695.253884
16411.182254,3552.988522,689.485948,9252.574275
16411.182579,5995.668130,1302.362347,11473.192101
16411.182903,4367.215058,689.485948,11251.130318
16411.183227,2442.679609,0.000000,9770.718434
16411.183552,5329.482782,1915.238745,9104.533087
