#time,accel_x,accel_y,accel_z
483.068509,666.185348,612.876398,9474.636058
483.068834,-148.041188,536.266849,9548.656652
483.069160,-370.102971,383.047749,9252.574275
483.069485,0.000000,689.485948,9326.594869
483.069810,592.164754,536.266849,9252.574275
483.070136,0.000000,76.609550,9622.677246
483.070461,-370.102971,536.266849,9252.574275
483.070786,74.020594,689.485948,8956.491898
483.071112,1110.308913,459.657299,9326.594869
483.071437,148.041188,766.095498,9474.636058
483.071763,-814.226536,995.924147,8956.491898
483.072088,-296.082377,459.657299,9326.594869
483.072413,370.102971,76.609550,9252.574275
483.072739,-888.247130,612.876398,9400.615463
483.073064,-1110.308913,153.219100,9252.574275
483.073389,-370.102971,229.828649,9326.594869
483.073715,-296.082377,459.657299,8660.409521
483.074040,0.000000,153.219100,9400.615463
483.074365,148.041188,1149.143247,9696.697840
483.074691,-370.102971,1608.800546,9178.553681
483.075016,1406.391290,536.266849,9252.574275
483.075341,1406.391290,689.485948,9548.656652
483.075667,74.020594,1455.581446,9696.697840
483.075992,518.144159,995.924147,9104.533087
483.076317,1258.350101,995.924147,9474.636058
483.076643,740.205942,1072.533697,9400.615463
483.076968,148.041188,1225.752797,9326.594869
483.077293,0.000000,383.047749,9030.512492
483.077619,74.020594,536.266849,8956.491898
483.077944,888.247130,766.095498,9474.636058
483.078270,444.123565,612.876398,9696.697840
483.078595,0.000000,1072.533697,9400.615463
483.078920,1480.411884,1225.752797,9030.512492
483.079246,2368.659014,1532.190996,9622.677246
483.079571,1036.288319,1762.019645,9474.636058
483.079896,518.144159,1149.143247,9252.574275
483.080222,1998.556043,1149.143247,9548.656652
483.080547,2442.679609,2068.457845,9992.780217
483.080872,1776.494261,2068.457845,9844.739029
483.081198,1480.411884,1608.800546,9474.636058
483.081523,2294.638420,2145.067394,9474.636058
483.081848,2590.720797,2451.505594,9400.615463
483.082174,2886.803174,2987.772442,9992.780217
483.082499,2738.761985,2987.772442,9474.636058
483.082824,3627.009116,3524.039291,8956.491898
483.083150,4885.359217,4136.915689,9252.574275
483.083475,4589.276840,5056.230287,9104.533087
483.083800,3330.926739,4596.572988,8660.409521
483.084126,4071.132681,4673.182538,8438.347739
483.084451,4145.153275,4519.963438,8438.347739
483.084776,2664.741391,4749.792088,8956.491898
483.085102,1924.535449,4136.915689,8586.388927
483.085427,1554.432478,3830.477490,8290.306550
483.085753,1406.391290,4290.134789,8734.430116
483.086078,1258.350101,4290.134789,9104.533087
483.086403,592.164754,3524.039291,9104.533087
483.086729,592.164754,4213.525239,8660.409521
483.087054,1258.350101,3983.696590,8734.430116
483.087379,962.267725,3677.258390,9104.533087
483.087705,-222.061783,3753.867940,8956.491898
483.088030,-222.061783,2911.162892,8364.327145
483.088355,370.102971,3064.381992,8438.347739
483.088681,148.041188,3140.991542,9104.533087
483.089006,-444.123565,2221.676944,9104.533087
483.089331,0.000000,1762.019645,8734.430116
483.089657,592.164754,2145.067394,9030.512492
483.089982,1036.288319,2451.505594,9622.677246
483.090307,1258.350101,1608.800546,9844.739029
483.090633,1184.329507,1455.581446,10510.924376
483.090958,1110.308913,919.314598,10140.821405
483.091283,2294.638420,229.828649,11251.130318
483.091609,1702.473667,0.000000,11547.212695
483.091934,1258.350101,0.000000,11325.150913
483.092260,2590.720797,-459.657299,11029.068536
483.092585,4071.132681,689.485948,10362.883188
483.092910,3849.070898,2068.457845,9400.615463
483.093236,3997.112087,1838.629195,8734.430116
483.093561,4663.297435,1685.410096,7550.100608
483.093886,4811.338623,2451.505594,7254.018232
483.094212,4885.359217,2451.505594,8068.244768
483.094537,3775.050304,2221.676944,7994.224174
483.094862,3775.050304,1762.019645,8216.285956
483.095188,4589.276840,2145.067394,8808.450710
483.095513,3627.009116,2374.896044,9918.759623
483.095838,2368.659014,1685.410096,9770.718434
483.096164,2886.803174,1378.971896,9770.718434
483.096489,3701.029710,1838.629195,10510.924376
483.096814,2738.761985,2528.115143,11325.150913
483.097140,2220.617826,1838.629195,11251.130318
483.097465,2368.659014,1915.238745,11029.068536
483.097790,2072.576638,2757.943793,10732.986159
483.098116,1702.473667,2681.334243,10510.924376
483.098441,1702.473667,2911.162892,9474.636058
483.098767,1702.473667,4213.525239,8142.265362
483.099092,3182.885551,5745.716235,7031.956449
483.099417,4293.194464,6894.859482,6291.750507
483.099743,2960.823768,7507.735880,5255.462188
483.100068,2072.576638,6741.640382,4737.318029
483.100393,2072.576638,6128.763984,4811.338623
483.100719,1110.308913,6281.983084,7031.956449
483.101044,-1332.370696,4749.792088,9178.553681
483.101369,-2516.700203,2451.505594,10584.944971
483.101695,-4145.153275,153.219100,12139.377449
483.102020,-4737.318029,-689.485948,12805.562797
483.102345,-4441.235652,-1225.752797,14137.933492
483.102671,-2812.782580,153.219100,13693.809927
483.102996,592.164754,2145.067394,12509.480420
483.103321,4811.338623,3447.429741,11325.150913
483.103647,6217.729913,5056.230287,8882.471304
483.103972,7031.956449,7507.735880,6365.771101
483.104297,8438.347739,7277.907231,5551.544565
483.104623,8364.327145,7048.078582,5625.565159
483.104948,6143.709319,5822.325785,5255.462188
483.105274,4219.173869,4519.963438,6291.750507
483.105599,2368.659014,3294.210641,7328.038826
483.105924,666.185348,2298.286494,8586.388927
483.106250,-444.123565,766.095498,9992.780217
483.106575,-1110.308913,-459.657299,9918.759623
483.106900,-1480.411884,-766.095498,9622.677246
483.107226,-666.185348,-689.485948,11177.109724
483.107551,0.000000,-229.828649,11177.109724
483.107876,0.000000,-842.705048,11177.109724
483.108202,1924.535449,-842.705048,11547.212695
483.108527,4367.215058,1608.800546,11843.295072
483.108852,5921.647536,2604.724693,12287.418637
483.109178,6069.688724,1455.581446,10732.986159
483.109503,5625.565159,1455.581446,10140.821405
483.109828,4663.297435,1762.019645,9992.780217
483.110154,4811.338623,1378.971896,9548.656652
483.110479,5107.421000,2068.457845,9844.739029
483.110804,3701.029710,2681.334243,9474.636058
483.111130,3775.050304,2451.505594,7698.141797
483.111455,4737.318029,3677.258390,7031.956449
483.111780,4293.194464,5439.278036,5847.626942
483.112106,2738.761985,4903.011187,5477.523971
483.112431,2368.659014,4213.525239,4737.318029
483.112757,2442.679609,4979.620737,6883.915261
483.113082,1406.391290,4596.572988,8364.327145
483.113407,-814.226536,3217.601092,10807.006753
483.113733,-444.123565,2451.505594,11769.274478
483.114058,-592.164754,1225.752797,13101.645173
483.114383,-2516.700203,-1378.971896,13249.686362
483.114709,-2590.720797,-2451.505594,11473.192101
483.115034,-592.164754,1225.752797,11695.253884
483.115359,1554.432478,4443.353888,12361.439231
483.115685,2812.782580,3600.648841,9918.759623
483.116010,3182.885551,4136.915689,6217.729913
483.116335,5255.462188,7660.954980,4219.173869
483.116661,6365.771101,9422.974625,3330.926739
483.116986,5477.523971,8427.050478,2960.823768
483.117311,4737.318029,7814.174080,4737.318029
483.117637,3478.967927,7584.345430,6661.853478
483.117962,296.082377,4903.011187,10436.903782
483.118287,-4071.132681,1838.629195,13175.665768
483.118613,-7105.977043,-1532.190996,14211.954086
483.118938,-7698.141797,-4903.011187,14582.057057
483.119264,-6513.812290,-6205.373534,16580.613101
483.119589,-4367.215058,-3140.991542,15322.262999
483.119914,-1998.556043,-536.266849,11769.274478
483.120240,1406.391290,995.924147,9178.553681
483.120565,7254.018232,5439.278036,4811.338623
483.120890,11103.089130,10035.851024,2442.679609
483.121216,13027.624579,10495.508323,370.102971
483.121541,13101.645173,9422.974625,-222.061783
483.121866,9696.697840,8810.098227,2664.741391
483.122192,4959.379811,5975.544884,6217.729913
483.122517,296.082377,1225.752797,10140.821405
483.122842,-4441.235652,-2987.772442,13323.706956
483.123168,-6587.832884,-4519.963438,16728.654289
483.123493,-7476.080014,-7277.907231,17987.004391
483.123818,-8808.450710,-10342.289223,16654.633695
483.124144,-6439.791695,-10495.508323,13841.851115
483.124469,-740.205942,-1685.410096,12657.521608
483.124794,5847.626942,6511.811733,10584.944971
483.125120,9252.574275,6741.640382,10066.800811
483.125445,8364.327145,3447.429741,4589.276840
483.125770,8512.368333,5898.935335,3849.070898
483.126095,9918.759623,7354.516781,5181.441594
483.126420,7105.977043,5515.887586,8734.430116
483.126746,4293.194464,1838.629195,9474.636058
483.127071,666.185348,-459.657299,9474.636058
483.127396,-1702.473667,-2298.286494,9622.677246
483.127721,-2442.679609,-1762.019645,9844.739029
483.128047,-2960.823768,-383.047749,10214.842000
483.128372,-1998.556043,-306.438199,8142.265362
483.128697,-1554.432478,536.266849,8438.347739
483.129022,-2442.679609,1072.533697,7624.121203
483.129347,-3701.029710,766.095498,6513.812290
483.129673,-4441.235652,459.657299,6587.832884
483.129998,-4441.235652,1149.143247,8956.491898
483.130323,-3923.091493,689.485948,10584.944971
483.130648,-2738.761985,-1149.143247,10955.047942
483.130974,-1258.350101,-842.705048,11103.089130
483.131299,-1554.432478,1225.752797,9030.512492
483.131624,370.102971,1991.848295,7624.121203
483.131949,1480.411884,536.266849,8734.430116
483.132274,1850.514855,383.047749,8438.347739
483.132600,2590.720797,1302.362347,8956.491898
483.132925,666.185348,2604.724693,11843.295072
483.133250,-1850.514855,383.047749,10955.047942
483.133575,-1776.494261,-2451.505594,9548.656652
483.133901,-814.226536,-1762.019645,10214.842000
483.134226,0.000000,1225.752797,10732.986159
483.134551,-1554.432478,766.095498,10955.047942
483.134876,-518.144159,-383.047749,11103.089130
483.135201,-222.061783,459.657299,9030.512492
483.135527,-962.267725,-306.438199,9178.553681
483.135852,-888.247130,-536.266849,8364.327145
483.136177,-814.226536,-383.047749,8068.244768
483.136502,296.082377,766.095498,8438.347739
483.136828,1776.494261,842.705048,8586.388927
483.137153,1184.329507,459.657299,5995.668130
483.137478,3034.844362,1991.848295,5255.462188
483.137803,5551.544565,3524.039291,6957.935855
483.138128,5329.482782,4826.401637,8512.368333
483.138454,3627.009116,2528.115143,9326.594869
483.138779,1480.411884,229.828649,8956.491898
483.139104,740.205942,-766.095498,8512.368333
483.139429,74.020594,-1149.143247,12657.521608
483.139755,-3182.885551,-2145.067394,14582.057057
483.140080,-5551.544565,-2911.162892,15322.262999
483.140405,-3404.947333,-4519.963438,13101.645173
483.140730,-1628.453072,-3447.429741,10955.047942
483.141055,-1332.370696,612.876398,9400.615463
483.141381,740.205942,4136.915689,7179.997637
483.141706,2368.659014,3064.381992,7105.977043
483.142031,2294.638420,2145.067394,6069.688724
483.142356,2960.823768,3064.381992,5699.585753
483.142681,2368.659014,3983.696590,7179.997637
483.143007,0.000000,3294.210641,8290.306550
483.143332,-518.144159,76.609550,9548.656652
483.143657,-1184.329507,-1762.019645,9622.677246
483.143982,-3108.864956,-995.924147,9326.594869
483.144308,-3997.112087,-766.095498,9400.615463
483.144633,-4441.235652,-306.438199,10510.924376
483.144958,-2516.700203,-306.438199,10066.800811
483.145283,-1036.288319,-612.876398,9326.594869
483.145608,-2812.782580,0.000000,9178.553681
483.145934,-1554.432478,689.485948,7624.121203
483.146259,-888.247130,1378.971896,8586.388927
483.146584,-592.164754,995.924147,10140.821405
483.146909,740.205942,-612.876398,8364.327145
483.147235,3182.885551,689.485948,8364.327145
483.147560,5403.503377,2451.505594,10214.842000
483.147885,5699.585753,3677.258390,12657.521608
483.148210,2368.659014,766.095498,11399.171507
483.148535,444.123565,-1685.410096,8364.327145
483.148861,1110.308913,-2068.457845,8142.265362
483.149186,-666.185348,306.438199,10288.862594
483.149511,-2294.638420,229.828649,12139.377449
483.149836,-4071.132681,-2987.772442,11473.192101
483.150162,-3182.885551,-3983.696590,9548.656652
483.150487,-888.247130,-1532.190996,9326.594869
483.150812,-296.082377,1455.581446,8364.327145
483.151137,962.267725,2911.162892,7105.977043
483.151462,2072.576638,2451.505594,7105.977043
483.151788,814.226536,995.924147,6291.750507
483.152113,444.123565,842.705048,5625.565159
483.152438,1554.432478,1302.362347,6587.832884
483.152763,1480.411884,2068.457845,9400.615463
483.153089,74.020594,612.876398,10510.924376
483.153414,-666.185348,-2681.334243,10362.883188
483.153739,740.205942,-1149.143247,9400.615463
483.154064,2368.659014,2681.334243,9030.512492
483.154389,2960.823768,3907.087040,9844.739029
483.154715,2220.617826,2145.067394,11103.089130
483.155040,1554.432478,919.314598,10955.047942
483.155365,2146.597232,1455.581446,9918.759623
483.155690,666.185348,1608.800546,10436.903782
483.156016,-3182.885551,536.266849,12213.398043
483.156341,-3478.967927,-689.485948,11399.171507
483.156666,-2368.659014,-1838.629195,11103.089130
483.156991,-1406.391290,-919.314598,9178.553681
483.157316,-1480.411884,2374.896044,7772.162391
483.157642,-814.226536,2757.943793,6291.750507
483.157967,1258.350101,3370.820191,5921.647536
483.158292,1184.329507,2528.115143,6291.750507
483.158617,296.082377,2451.505594,6735.874072
483.158943,-592.164754,2834.553343,7846.182985
483.159268,-1036.288319,2068.457845,9178.553681
483.159593,-1184.329507,-153.219100,10362.883188
483.159918,-3256.906145,-2145.067394,10658.965565
483.160243,-4145.153275,-1455.581446,8438.347739
483.160569,-1258.350101,-612.876398,8290.306550
483.160894,-666.185348,1149.143247,10436.903782
483.161219,-1110.308913,1455.581446,10955.047942
483.161544,-1110.308913,-689.485948,9622.677246
483.161870,-370.102971,-1608.800546,8512.368333
483.162195,370.102971,0.000000,8808.450710
483.162520,-592.164754,612.876398,10362.883188
483.162845,-962.267725,0.000000,10955.047942
483.163170,-370.102971,-2298.286494,9474.636058
483.163496,1628.453072,-1762.019645,9474.636058
483.163821,2664.741391,919.314598,9770.718434
483.164146,2294.638420,1991.848295,10140.821405
483.164471,2294.638420,153.219100,9696.697840
483.164797,1776.494261,-689.485948,9844.739029
483.165122,444.123565,-536.266849,9696.697840
483.165447,148.041188,-1149.143247,8882.471304
483.165772,-740.205942,-1302.362347,9548.656652
483.166097,-1036.288319,-536.266849,10807.006753
483.166423,-444.123565,-536.266849,10881.027347
483.166748,1702.473667,-766.095498,8586.388927
483.167073,2812.782580,1302.362347,6735.874072
483.167398,4145.153275,4213.525239,6735.874072
483.167724,5107.421000,4519.963438,7328.038826
483.168049,3404.947333,2451.505594,7772.162391
483.168374,2294.638420,766.095498,7105.977043
483.168699,1776.494261,1072.533697,7920.203579
483.169024,-370.102971,1378.971896,10881.027347
483.169350,-2294.638420,229.828649,12139.377449
483.169675,-3552.988522,-2451.505594,11177.109724
483.170000,-3034.844362,-2987.772442,9696.697840
483.170325,-1850.514855,-536.266849,9178.553681
483.170651,-814.226536,2834.553343,9918.759623
483.170976,-592.164754,3677.258390,10807.006753
483.171301,666.185348,1762.019645,9326.594869
483.171626,814.226536,0.000000,8068.244768
483.171951,444.123565,1225.752797,7254.018232
483.172277,-962.267725,4136.915689,10140.821405
483.172602,-962.267725,2145.067394,11473.192101
483.172927,-1184.329507,-459.657299,11251.130318
483.173252,-2368.659014,-1225.752797,9474.636058
483.173578,-1480.411884,1378.971896,7994.224174
483.173903,444.123565,3677.258390,7179.997637
483.174228,1554.432478,3983.696590,7846.182985
483.174553,0.000000,1762.019645,8068.244768
483.174878,-888.247130,1302.362347,7920.203579
483.175204,148.041188,2451.505594,6883.915261
483.175529,518.144159,1991.848295,8290.306550
483.175854,-1258.350101,766.095498,9252.574275
483.176179,-3627.009116,-306.438199,10510.924376
483.176504,-1850.514855,-919.314598,10214.842000
483.176830,666.185348,0.000000,9622.677246
483.177155,592.164754,459.657299,9474.636058
483.177480,888.247130,1991.848295,8808.450710
483.177805,1850.514855,1685.410096,9474.636058
483.178131,1480.411884,229.828649,8808.450710
483.178456,2590.720797,-1149.143247,8512.368333
483.178781,1332.370696,459.657299,10807.006753
483.179106,222.061783,1455.581446,11029.068536
483.179431,-296.082377,-1685.410096,11843.295072
483.179757,0.000000,-4290.134789,10955.047942
483.180082,0.000000,-1532.190996,9770.718434
483.180407,962.267725,766.095498,10066.800811
483.180732,1702.473667,1378.971896,9918.759623
483.181058,1184.329507,612.876398,9326.594869
483.181383,148.041188,-689.485948,8956.491898
483.181708,-592.164754,-1149.143247,7105.977043
483.182033,-1184.329507,-306.438199,7772.162391
483.182358,-1258.350101,459.657299,9474.636058
483.182684,-962.267725,0.000000,11399.171507
483.183009,-962.267725,-2068.457845,9474.636058
483.183334,0.000000,-995.924147,7698.141797
483.183659,1702.473667,1455.581446,7698.141797
483.183985,3404.947333,4443.353888,8660.409521
483.184310,2368.659014,2681.334243,9474.636058
483.184635,740.205942,-229.828649,8438.347739
483.184960,814.226536,-459.657299,7476.080014
483.185285,-296.082377,919.314598,9696.697840
483.185611,-2146.597232,0.000000,10881.027347
483.185936,-2886.803174,-2145.067394,11547.212695
483.186261,-1924.535449,-1838.629195,10955.047942
483.186586,-2368.659014,-229.828649,10140.821405
483.186912,-666.185348,919.314598,7772.162391
483.187237,740.205942,3064.381992,7179.997637
483.187562,74.020594,2451.505594,8956.491898
483.187887,-1110.308913,1762.019645,9030.512492
483.188212,-1332.370696,-383.047749,9104.533087
483.188538,-1924.535449,1149.143247,9844.739029
483.188863,-1924.535449,766.095498,9474.636058
483.189188,-2960.823768,153.219100,9918.759623
483.189513,-1628.453072,-612.876398,9252.574275
483.189839,222.061783,153.219100,7994.224174
483.190164,1036.288319,1915.238745,8142.265362
483.190489,3182.885551,3830.477490,8808.450710
483.190814,3256.906145,3907.087040,9030.512492
483.191139,1850.514855,1838.629195,8808.450710
483.191465,3182.885551,459.657299,8216.285956
483.191790,2738.761985,689.485948,9252.574275
483.192115,-148.041188,2298.286494,10732.986159
483.192440,-296.082377,229.828649,11325.150913
483.192766,-814.226536,-2757.943793,10214.842000
483.193091,-222.061783,-1915.238745,9992.780217
483.193416,148.041188,306.438199,9252.574275
483.193741,370.102971,2068.457845,8882.471304
483.194066,1776.494261,1762.019645,9252.574275
483.194392,962.267725,919.314598,8660.409521
483.194717,1406.391290,0.000000,8586.388927
483.195042,370.102971,689.485948,8216.285956
483.195367,-740.205942,459.657299,9178.553681
483.195693,-740.205942,-689.485948,10732.986159
483.196018,-814.226536,-1072.533697,12287.418637
483.196343,-1258.350101,-1685.410096,9918.759623
483.196668,0.000000,-1302.362347,8660.409521
483.196993,1924.535449,919.314598,9178.553681
483.197319,1924.535449,3064.381992,9400.615463
483.197644,740.205942,766.095498,8512.368333
483.197969,962.267725,-1608.800546,7105.977043
483.198294,1110.308913,1072.533697,7846.182985
483.198620,370.102971,2221.676944,9622.677246
483.198945,-1554.432478,229.828649,10732.986159
483.199270,-1998.556043,-1532.190996,9622.677246
483.199595,518.144159,-995.924147,8142.265362
483.199920,1332.370696,766.095498,8438.347739
483.200246,-444.123565,2298.286494,8734.430116
483.200571,-666.185348,1915.238745,8956.491898
483.200896,-1110.308913,-536.266849,8808.450710
483.201221,-2368.659014,-612.876398,9030.512492
483.201547,-3478.967927,-995.924147,8512.368333
483.201872,-3330.926739,76.609550,9844.739029
483.202197,-4293.194464,-1149.143247,10955.047942
483.202522,-3701.029710,-2451.505594,10955.047942
483.202847,-2664.741391,-1915.238745,9918.759623
483.203173,-1480.411884,0.000000,9104.533087
483.203498,444.123565,2221.676944,9030.512492
483.203823,1998.556043,2298.286494,9622.677246
483.204148,962.267725,995.924147,9696.697840
483.204474,962.267725,306.438199,7994.224174
483.204799,1924.535449,1302.362347,8438.347739
483.205124,1110.308913,995.924147,9770.718434
483.205449,-1480.411884,-153.219100,10066.800811
483.205774,-1924.535449,-2528.115143,10658.965565
483.206100,-518.144159,-1532.190996,9844.739029
483.206425,1332.370696,-612.876398,8586.388927
483.206750,1998.556043,1532.190996,9474.636058
483.207075,2220.617826,2604.724693,9622.677246
483.207401,1554.432478,1991.848295,8660.409521
483.207726,2220.617826,153.219100,7698.141797
483.208051,2220.617826,459.657299,7920.203579
483.208376,518.144159,2987.772442,9400.615463
483.208701,148.041188,1838.629195,10510.924376
483.209027,-222.061783,-1302.362347,11399.171507
483.209352,-962.267725,-1608.800546,9992.780217
483.209677,0.000000,76.609550,8586.388927
483.210002,1332.370696,1685.410096,8438.347739
483.210327,1924.535449,2604.724693,9474.636058
483.210653,2590.720797,2068.457845,9474.636058
483.210978,1702.473667,1149.143247,9696.697840
483.211303,222.061783,1302.362347,8216.285956
483.211628,592.164754,1915.238745,8290.306550
483.211954,1110.308913,2298.286494,10584.944971
483.212279,-592.164754,1455.581446,11029.068536
483.212604,-1110.308913,0.000000,9178.553681
483.212929,0.000000,459.657299,7994.224174
483.213254,74.020594,3064.381992,8290.306550
483.213580,-222.061783,3370.820191,8512.368333
483.213905,-962.267725,1302.362347,8586.388927
483.214230,-1110.308913,306.438199,8734.430116
483.214555,-444.123565,1072.533697,8734.430116
483.214881,-2294.638420,1762.019645,9844.739029
483.215206,-2738.761985,-76.609550,9326.594869
483.215531,-2368.659014,-689.485948,9326.594869
483.215856,-740.205942,-153.219100,9992.780217
483.216181,1036.288319,1455.581446,9474.636058
483.216507,1110.308913,2068.457845,9178.553681
483.216832,1332.370696,2068.457845,9252.574275
483.217157,1184.329507,1455.581446,8808.450710
483.217482,-296.082377,612.876398,8142.265362
483.217808,0.000000,-689.485948,7846.182985
483.218133,-1406.391290,153.219100,9178.553681
483.218458,-2146.597232,229.828649,10955.047942
483.218783,-2072.576638,-1225.752797,11473.192101
483.219108,-2368.659014,-2987.772442,11029.068536
483.219434,-1332.370696,-1838.629195,8290.306550
483.219759,1924.535449,1302.362347,8734.430116
483.220084,2960.823768,2834.553343,9400.615463
483.220409,1332.370696,842.705048,9400.615463
483.220735,1554.432478,-1685.410096,8068.244768
483.221060,2146.597232,-306.438199,8660.409521
483.221385,444.123565,536.266849,9844.739029
483.221710,-1554.432478,-612.876398,10807.006753
483.222035,-1480.411884,-2528.115143,10732.986159
483.222361,-1480.411884,-2604.724693,9918.759623
483.222686,-1110.308913,-1991.848295,7846.182985
483.223011,-148.041188,-153.219100,8142.265362
483.223336,1036.288319,1608.800546,8734.430116
483.223662,1110.308913,1685.410096,9622.677246
483.223987,814.226536,-1072.533697,9844.739029
483.224312,0.000000,-1225.752797,9178.553681
483.224637,-370.102971,306.438199,9104.533087
483.224962,-666.185348,-459.657299,9622.677246
483.225288,-518.144159,-306.438199,11029.068536
483.225613,-1184.329507,-383.047749,11547.212695
483.225938,-148.041188,-612.876398,8438.347739
483.226264,1480.411884,306.438199,7624.121203
483.226589,1998.556043,4290.134789,9326.594869
483.226914,1850.514855,4213.525239,9326.594869
483.227240,2072.576638,1608.800546,8586.388927
483.227565,1850.514855,842.705048,7846.182985
483.227890,666.185348,3217.601092,10140.821405
483.228216,-444.123565,2987.772442,9844.739029
483.228541,444.123565,536.266849,9030.512492
483.228866,-666.185348,0.000000,9992.780217
483.229192,-148.041188,1302.362347,8734.430116
483.229517,962.267725,3064.381992,8660.409521
483.229842,1628.453072,3064.381992,8364.327145
483.230168,592.164754,3370.820191,8808.450710
483.230493,-888.247130,2145.067394,8808.450710
483.230818,-370.102971,2145.067394,8142.265362
483.231144,-518.144159,2068.457845,8808.450710
483.231469,-1850.514855,1302.362347,8364.327145
483.231794,-2960.823768,1225.752797,9622.677246
483.232120,-1406.391290,1149.143247,9252.574275
483.232445,-2072.576638,0.000000,8586.388927
483.232770,-1480.411884,383.047749,8586.388927
483.233096,296.082377,2757.943793,8734.430116
483.233421,518.144159,3677.258390,9770.718434
483.233746,0.000000,536.266849,9252.574275
483.234072,0.000000,-383.047749,7550.100608
483.234397,518.144159,612.876398,9030.512492
483.234722,444.123565,2221.676944,10362.883188
483.235047,962.267725,766.095498,11621.233289
483.235373,74.020594,-536.266849,11843.295072
483.235698,2516.700203,0.000000,9104.533087
483.236023,3849.070898,1378.971896,9326.594869
483.236349,3701.029710,2298.286494,9030.512492
483.236674,2664.741391,2374.896044,7920.203579
483.236999,1998.556043,306.438199,8734.430116
483.237325,1924.535449,-306.438199,8956.491898
483.237650,222.061783,0.000000,9696.697840
483.237975,-2146.597232,-1378.971896,9622.677246
483.238301,-2368.659014,-2987.772442,9992.780217
483.238626,-2146.597232,-2604.724693,10584.944971
483.238951,-1184.329507,-1762.019645,10288.862594
483.239277,0.000000,-1302.362347,8438.347739
483.239602,518.144159,612.876398,8364.327145
483.239927,1628.453072,1608.800546,9178.553681
483.240253,1258.350101,612.876398,9770.718434
483.240578,0.000000,-1685.410096,8512.368333
483.240903,74.020594,-459.657299,8586.388927
483.241229,-666.185348,0.000000,10214.842000
483.241554,-2294.638420,-229.828649,11325.150913
483.241879,-2812.782580,-1532.190996,11029.068536
483.242205,-1332.370696,-2451.505594,8660.409521
483.242530,-592.164754,-536.266849,7994.224174
483.242855,370.102971,2604.724693,8956.491898
483.243181,740.205942,3370.820191,9252.574275
483.243506,-296.082377,1149.143247,8438.347739
483.243831,-222.061783,-766.095498,7179.997637
483.244157,-370.102971,459.657299,7994.224174
483.244482,-2590.720797,1685.410096,9474.636058
483.244807,-3330.926739,229.828649,9696.697840
483.245133,-2960.823768,-1302.362347,9696.697840
483.245458,-2960.823768,-1532.190996,9400.615463
483.245783,-2072.576638,689.485948,8438.347739
483.246109,0.000000,2145.067394,8438.347739
483.246434,74.020594,2681.334243,8882.471304
483.246759,-222.061783,995.924147,8808.450710
483.247085,-444.123565,-612.876398,9252.574275
483.247410,-962.267725,1455.581446,9474.636058
483.247735,148.041188,1455.581446,9770.718434
483.248061,740.205942,0.000000,11177.109724
483.248386,296.082377,-536.266849,11325.150913
483.248711,814.226536,229.828649,10362.883188
483.249037,2220.617826,995.924147,9474.636058
483.249362,2960.823768,2145.067394,9400.615463
483.249687,3701.029710,3217.601092,8142.265362
483.250013,3108.864956,2757.943793,7920.203579
483.250338,2072.576638,1838.629195,8808.450710
483.250663,1776.494261,842.705048,7920.203579
483.250989,666.185348,919.314598,9104.533087
483.251314,-1036.288319,459.657299,10584.944971
483.251639,-1480.411884,153.219100,9474.636058
483.251964,888.247130,-536.266849,8956.491898
483.252290,2664.741391,995.924147,8512.368333
483.252615,888.247130,2987.772442,8734.430116
483.252940,740.205942,3217.601092,7772.162391
483.253266,3404.947333,2145.067394,7920.203579
483.253591,2220.617826,1302.362347,7994.224174
483.253916,0.000000,612.876398,8216.285956
483.254242,-888.247130,229.828649,9400.615463
483.254567,-1776.494261,306.438199,10436.903782
483.254892,-1110.308913,-1685.410096,10732.986159
483.255218,-1776.494261,-2298.286494,10658.965565
483.255543,-888.247130,383.047749,9844.739029
483.255868,2146.597232,2681.334243,9992.780217
483.256194,3108.864956,1685.410096,9992.780217
483.256519,74.020594,1302.362347,9474.636058
483.256844,-444.123565,1378.971896,8882.471304
483.257170,592.164754,766.095498,8438.347739
483.257495,-444.123565,0.000000,10140.821405
483.257820,-2812.782580,-229.828649,10881.027347
483.258146,-3923.091493,-1302.362347,10732.986159
483.258471,-2960.823768,-1838.629195,8882.471304
483.258796,-888.247130,-842.705048,8956.491898
483.259122,-740.205942,1685.410096,8438.347739
483.259447,74.020594,2528.115143,7698.141797
483.259772,1554.432478,1991.848295,7846.182985
483.260098,1036.288319,995.924147,8438.347739
483.260423,0.000000,842.705048,7476.080014
483.260748,-1036.288319,-536.266849,8586.388927
483.261074,-666.185348,-842.705048,9844.739029
483.261399,-740.205942,-919.314598,11843.295072
483.261724,-1998.556043,-1532.190996,11843.295072
483.262050,-1258.350101,-2681.334243,8586.388927
483.262375,74.020594,-995.924147,9252.574275
483.262700,370.102971,1378.971896,9252.574275
483.263026,518.144159,919.314598,9548.656652
483.263351,0.000000,-689.485948,9622.677246
483.263676,-222.061783,0.000000,8586.388927
483.264002,-592.164754,0.000000,9104.533087
483.264327,-666.185348,-689.485948,9918.759623
483.264652,-2072.576638,-919.314598,10658.965565
483.264978,-1850.514855,-1455.581446,10362.883188
483.265303,370.102971,-995.924147,9770.718434
483.265628,1554.432478,536.266849,9770.718434
483.265954,2072.576638,2374.896044,8956.491898
483.266279,1924.535449,1991.848295,7476.080014
483.266604,2368.659014,1532.190996,7846.182985
483.266930,2294.638420,1072.533697,8364.327145
483.267255,1110.308913,1455.581446,9548.656652
483.267580,-370.102971,1149.143247,9992.780217
483.267906,-962.267725,153.219100,10362.883188
483.268231,-444.123565,-306.438199,10288.862594
483.268556,148.041188,0.000000,8586.388927
483.268881,444.123565,1991.848295,8142.265362
483.269207,2072.576638,3294.210641,8882.471304
483.269532,1702.473667,3064.381992,8956.491898
483.269857,296.082377,1608.800546,9178.553681
483.270183,-666.185348,1072.533697,8660.409521
483.270508,-444.123565,919.314598,8142.265362
483.270833,-814.226536,1302.362347,10214.842000
483.271159,-1998.556043,919.314598,11843.295072
483.271484,-2368.659014,-383.047749,12139.377449
483.271809,0.000000,-995.924147,9992.780217
483.272135,2220.617826,1225.752797,9252.574275
483.272460,1998.556043,3753.867940,9844.739029
483.272785,1554.432478,4136.915689,8808.450710
483.273111,1480.411884,1685.410096,8142.265362
483.273436,1184.329507,995.924147,6957.935855
483.273761,-1036.288319,1072.533697,7105.977043
483.274087,-3404.947333,1532.190996,7624.121203
483.274412,-4219.173869,536.266849,8734.430116
483.274737,-4737.318029,-1762.019645,9400.615463
483.275063,-1702.473667,-1378.971896,8068.244768
483.275388,-1702.473667,1225.752797,9400.615463
483.275713,-1406.391290,1685.410096,7254.018232
483.276039,666.185348,689.485948,7402.059420
483.276364,1628.453072,612.876398,9548.656652
483.276689,222.061783,229.828649,9474.636058
483.277015,962.267725,-766.095498,9030.512492
483.277340,2220.617826,-459.657299,11251.130318
483.277665,2516.700203,919.314598,13323.706956
483.277991,444.123565,-1455.581446,12361.439231
483.278316,666.185348,-3140.991542,9992.780217
483.278641,3701.029710,-766.095498,8882.471304
483.278967,3701.029710,3447.429741,9696.697840
483.279292,4145.153275,2987.772442,10658.965565
483.279617,3034.844362,766.095498,10214.842000
483.279943,1998.556043,-689.485948,8068.244768
483.280268,740.205942,0.000000,8438.347739
483.280593,-296.082377,766.095498,9548.656652
483.280919,-2368.659014,-306.438199,9474.636058
483.281244,-2516.700203,-2528.115143,10140.821405
483.281569,-2812.782580,-2987.772442,9622.677246
483.281895,-2368.659014,-153.219100,8586.388927
483.282220,-592.164754,689.485948,7254.018232
483.282545,222.061783,1455.581446,6513.812290
483.282871,518.144159,1608.800546,7624.121203
483.283196,74.020594,1991.848295,8438.347739
483.283521,-296.082377,1608.800546,8734.430116
483.283847,-296.082377,842.705048,8438.347739
483.284172,-444.123565,995.924147,10436.903782
483.284497,-1702.473667,689.485948,11547.212695
483.284823,-2146.597232,-459.657299,10140.821405
483.285148,0.000000,-536.266849,9992.780217
483.285473,148.041188,1455.581446,9622.677246
483.285798,0.000000,2451.505594,9030.512492
483.286124,-592.164754,2068.457845,9104.533087
483.286449,-370.102971,689.485948,8512.368333
483.286774,-962.267725,689.485948,9252.574275
483.287100,-1998.556043,1149.143247,10510.924376
483.287425,-1924.535449,995.924147,10510.924376
483.287750,-2738.761985,76.609550,9770.718434
483.288076,-1702.473667,-1378.971896,8586.388927
483.288401,74.020594,612.876398,8068.244768
483.288726,222.061783,3753.867940,8882.471304
483.289052,592.164754,3370.820191,8586.388927
483.289377,2442.679609,1149.143247,8586.388927
483.289702,1406.391290,0.000000,8216.285956
483.290028,518.144159,612.876398,7254.018232
483.290353,-888.247130,459.657299,9474.636058
483.290678,-592.164754,383.047749,9992.780217
483.291004,518.144159,-536.266849,11029.068536
483.291329,222.061783,-1685.410096,11029.068536
483.291654,1036.288319,536.266849,9104.533087
483.291980,2294.638420,1991.848295,7476.080014
483.292305,3478.967927,2451.505594,9474.636058
483.292630,3108.864956,2374.896044,10140.821405
483.292956,1850.514855,1302.362347,8586.388927
483.293281,1924.535449,-229.828649,8068.244768
483.293606,1406.391290,459.657299,9326.594869
483.293932,-962.267725,689.485948,10658.965565
483.294257,-2146.597232,-995.924147,11029.068536
483.294582,-592.164754,-3447.429741,9770.718434
483.294908,0.000000,-1685.410096,9992.780217
483.295233,1036.288319,1762.019645,9844.739029
483.295558,1628.453072,3064.381992,8956.491898
483.295884,1406.391290,1455.581446,8660.409521
483.296209,1998.556043,76.609550,7698.141797
483.296534,2664.741391,1225.752797,9178.553681
483.296860,592.164754,2145.067394,8290.306550
483.297185,-444.123565,459.657299,8882.471304
483.297510,-1406.391290,-229.828649,9696.697840
483.297836,-1924.535449,-153.219100,9770.718434
483.298161,-1480.411884,-536.266849,8216.285956
483.298486,-1184.329507,459.657299,7179.997637
483.298812,444.123565,2145.067394,8882.471304
483.299137,888.247130,2681.334243,8882.471304
483.299462,0.000000,1378.971896,9548.656652
483.299788,74.020594,-919.314598,8882.471304
483.300113,444.123565,153.219100,9400.615463
483.300438,0.000000,2068.457845,12287.418637
483.300764,-1628.453072,536.266849,13175.665768
483.301089,-1776.494261,-2681.334243,9844.739029
483.301414,-370.102971,-2298.286494,9252.574275
483.301740,814.226536,2451.505594,9252.574275
483.302065,-296.082377,3370.820191,9326.594869
483.302390,0.000000,995.924147,8290.306550
483.302715,-518.144159,76.609550,8142.265362
483.303041,-1332.370696,536.266849,8290.306550
483.303366,-1406.391290,919.314598,7994.224174
483.303691,-2368.659014,229.828649,10288.862594
483.304017,-3478.967927,-689.485948,9992.780217
483.304342,-2516.700203,-1838.629195,8882.471304
483.304667,-1554.432478,-1532.190996,8512.368333
483.304993,-1258.350101,1225.752797,7772.162391
483.305318,74.020594,2221.676944,7476.080014
483.305643,888.247130,1532.190996,9548.656652
483.305969,1332.370696,1149.143247,9474.636058
483.306294,740.205942,76.609550,7846.182985
483.306619,1184.329507,229.828649,7994.224174
483.306945,592.164754,842.705048,10362.883188
483.307270,-592.164754,383.047749,11473.192101
483.307595,-222.061783,-1608.800546,11843.295072
483.307921,1036.288319,-1225.752797,10066.800811
483.308246,2738.761985,1685.410096,9104.533087
483.308571,2960.823768,2681.334243,9252.574275
483.308897,2960.823768,2911.162892,10140.821405
483.309222,1850.514855,1378.971896,9252.574275
483.309547,1480.411884,-383.047749,8290.306550
483.309873,666.185348,-536.266849,8956.491898
483.310198,-1184.329507,842.705048,10066.800811
483.310523,-2146.597232,-229.828649,10658.965565
483.310849,-1480.411884,-2221.676944,10881.027347
483.311174,-666.185348,-1685.410096,9696.697840
483.311499,74.020594,1532.190996,8956.491898
483.311825,1258.350101,2451.505594,7476.080014
483.312150,1776.494261,2681.334243,7846.182985
483.312475,1554.432478,1608.800546,8142.265362
483.312801,1184.329507,766.095498,7328.038826
483.313126,1480.411884,536.266849,7031.956449
483.313451,-740.205942,1608.800546,10807.006753
483.313777,-1480.411884,383.047749,10732.986159
483.314102,-2664.741391,-1532.190996,10658.965565
483.314427,-1998.556043,-2451.505594,10140.821405
483.314753,-740.205942,-306.438199,8216.285956
483.315078,-296.082377,2451.505594,8882.471304
483.315403,1628.453072,2911.162892,10214.842000
483.315729,518.144159,1685.410096,10881.027347
483.316054,-296.082377,153.219100,8364.327145
483.316379,888.247130,229.828649,7772.162391
483.316705,296.082377,1302.362347,9030.512492
483.317030,-2368.659014,1225.752797,11029.068536
483.317355,-1850.514855,-383.047749,11621.233289
483.317681,-222.061783,-1991.848295,9770.718434
483.318006,74.020594,-306.438199,9030.512492
483.318331,222.061783,2451.505594,7698.141797
483.318657,888.247130,2987.772442,7698.141797
483.318982,1628.453072,1838.629195,7994.224174
483.319307,518.144159,919.314598,8734.430116
483.319632,-370.102971,536.266849,7846.182985
483.319958,-888.247130,1149.143247,9030.512492
483.320283,-666.185348,536.266849,10658.965565
483.320608,-740.205942,-766.095498,11399.171507
483.320934,-1184.329507,-1302.362347,10140.821405
483.321259,518.144159,153.219100,8068.244768
483.321584,2294.638420,2374.896044,8438.347739
483.321910,2368.659014,2987.772442,8586.388927
483.322235,740.205942,1072.533697,9104.533087
483.322560,444.123565,-995.924147,9178.553681
483.322886,814.226536,0.000000,9400.615463
483.323211,148.041188,766.095498,11177.109724
483.323536,-592.164754,0.000000,10881.027347
483.323862,-1628.453072,-1072.533697,10955.047942
483.324187,-592.164754,-1608.800546,9622.677246
483.324512,1480.411884,-229.828649,8438.347739
483.324838,1702.473667,2298.286494,8956.491898
483.325163,2220.617826,3753.867940,9252.574275
483.325488,518.144159,1072.533697,8142.265362
483.325814,-1554.432478,-766.095498,8586.388927
483.326139,-1702.473667,-612.876398,8290.306550
483.326464,-2368.659014,229.828649,8956.491898
483.326790,-3256.906145,-1838.629195,9770.718434
483.327115,-3849.070898,-2068.457845,11029.068536
483.327440,-2590.720797,-1072.533697,11177.109724
483.327766,-888.247130,-153.219100,9030.512492
483.328091,-370.102971,842.705048,6513.812290
483.328416,1184.329507,2604.724693,6587.832884
483.328741,2146.597232,3600.648841,8068.244768
483.329067,814.226536,2451.505594,8586.388927
483.329392,518.144159,-919.314598,7920.203579
483.329717,-444.123565,-76.609550,9622.677246
483.330043,-1480.411884,383.047749,11325.150913
483.330368,-2072.576638,-383.047749,11621.233289
483.330693,-1184.329507,-2451.505594,10732.986159
483.331019,-370.102971,-1532.190996,9770.718434
483.331344,962.267725,1149.143247,8734.430116
483.331669,2368.659014,3830.477490,9178.553681
483.331994,2442.679609,2911.162892,9992.780217
483.332320,2220.617826,383.047749,9548.656652
483.332645,2442.679609,-229.828649,9326.594869
483.332970,1480.411884,919.314598,9622.677246
483.333296,-370.102971,995.924147,10214.842000
483.333621,-370.102971,0.000000,10732.986159
483.333946,592.164754,-842.705048,10510.924376
483.334272,296.082377,-536.266849,8660.409521
483.334597,222.061783,1225.752797,7624.121203
483.334922,1258.350101,3064.381992,8068.244768
483.335248,1924.535449,2528.115143,8068.244768
483.335573,370.102971,995.924147,7994.224174
483.335898,-444.123565,76.609550,8364.327145
483.336223,-370.102971,1378.971896,8364.327145
483.336549,592.164754,1685.410096,9474.636058
483.336874,-296.082377,0.000000,10658.965565
483.337199,-1480.411884,-689.485948,9992.780217
483.337525,1184.329507,383.047749,8512.368333
483.337850,3552.988522,1915.238745,9104.533087
483.338175,2738.761985,2987.772442,9474.636058
483.338501,222.061783,2145.067394,9770.718434
483.338826,74.020594,766.095498,9178.553681
483.339151,1110.308913,536.266849,8216.285956
483.339476,-592.164754,229.828649,9400.615463
483.339802,-3034.844362,1072.533697,10732.986159
483.340127,-2220.617826,-536.266849,10140.821405
483.340452,-1332.370696,-1455.581446,10732.986159
483.340778,-888.247130,-1225.752797,10288.862594
483.341103,-814.226536,1072.533697,8290.306550
483.341428,814.226536,2604.724693,7624.121203
483.341754,888.247130,2451.505594,9400.615463
483.342079,-370.102971,612.876398,8882.471304
483.342404,-1184.329507,0.000000,8216.285956
483.342730,-1554.432478,76.609550,7254.018232
483.343055,-2368.659014,0.000000,9474.636058
483.343380,-2886.803174,-306.438199,10436.903782
483.343705,-1776.494261,-995.924147,11029.068536
483.344031,-814.226536,-1378.971896,9400.615463
483.344356,370.102971,-459.657299,7550.100608
483.344681,2072.576638,3140.991542,8068.244768
483.345007,1702.473667,3830.477490,9622.677246
483.345332,888.247130,1378.971896,9104.533087
483.345657,962.267725,-995.924147,8216.285956
483.345983,518.144159,76.609550,8586.388927
483.346308,-1184.329507,612.876398,10214.842000
483.346633,-2146.597232,-536.266849,10732.986159
483.346958,-1850.514855,-2145.067394,9696.697840
483.347284,-1332.370696,-2221.676944,9178.553681
483.347609,962.267725,229.828649,9400.615463
483.347934,1258.350101,2528.115143,9474.636058
483.348260,1554.432478,2451.505594,8882.471304
483.348585,1628.453072,459.657299,9622.677246
483.348910,1628.453072,-1149.143247,9104.533087
483.349236,0.000000,612.876398,9326.594869
483.349561,-1480.411884,919.314598,10214.842000
483.349886,-518.144159,-536.266849,10658.965565
483.350211,-518.144159,-1685.410096,10288.862594
483.350537,-1332.370696,-1072.533697,9770.718434
483.350862,-740.205942,766.095498,8734.430116
483.351187,1998.556043,3217.601092,7772.162391
483.351513,3923.091493,3600.648841,7846.182985
483.351838,1924.535449,1838.629195,8586.388927
483.352163,814.226536,306.438199,7328.038826
483.352489,1628.453072,2374.896044,8364.327145
483.352814,1480.411884,2221.676944,10807.006753
483.353139,-814.226536,76.609550,10881.027347
483.353465,-1554.432478,-1302.362347,9918.759623
483.353790,962.267725,76.609550,10214.842000
483.354115,1776.494261,2068.457845,9030.512492
483.354440,-518.144159,1991.848295,8734.430116
483.354766,-592.164754,1762.019645,9252.574275
483.355091,0.000000,2068.457845,7550.100608
483.355416,0.000000,766.095498,7920.203579
483.355742,-296.082377,306.438199,8734.430116
483.356067,-1554.432478,995.924147,9548.656652
483.356392,-2442.679609,612.876398,9548.656652
483.356718,-1480.411884,-1225.752797,10288.862594
483.357043,-2516.700203,-1762.019645,8956.491898
483.357368,-1258.350101,536.266849,6513.812290
483.357693,888.247130,2068.457845,9030.512492
483.358019,592.164754,2221.676944,11473.192101
483.358344,-148.041188,766.095498,10066.800811
483.358669,-740.205942,-1762.019645,8438.347739
483.358995,-592.164754,-1608.800546,7846.182985
483.359320,-666.185348,1378.971896,8882.471304
483.359645,-444.123565,995.924147,10362.883188
483.359971,-962.267725,-1608.800546,11399.171507
483.360296,-222.061783,-2221.676944,9252.574275
483.360621,1258.350101,689.485948,7920.203579
483.360946,3182.885551,2681.334243,7994.224174
483.361272,2960.823768,3140.991542,8438.347739
483.361597,2072.576638,1149.143247,9326.594869
483.361922,2146.597232,-306.438199,9474.636058
483.362248,2220.617826,-229.828649,8956.491898
483.362573,-814.226536,153.219100,10288.862594
483.362898,-1776.494261,-689.485948,10066.800811
483.363224,-888.247130,-2068.457845,10807.006753
483.363549,0.000000,-2221.676944,9844.739029
483.363874,1628.453072,-766.095498,10436.903782
483.364200,518.144159,1685.410096,9474.636058
483.364525,1332.370696,3064.381992,9178.553681
483.364850,1406.391290,1378.971896,9474.636058
483.365175,148.041188,-1072.533697,8142.265362
483.365501,-370.102971,919.314598,7550.100608
483.365826,-1702.473667,2451.505594,9474.636058
483.366151,-2590.720797,842.705048,10362.883188
483.366477,-3108.864956,-1762.019645,9918.759623
483.366802,-2960.823768,-2068.457845,8956.491898
483.367127,-1850.514855,76.609550,8438.347739
483.367453,296.082377,2604.724693,8364.327145
483.367778,1554.432478,2681.334243,9326.594869
483.368103,1258.350101,2911.162892,9696.697840
483.368428,740.205942,1762.019645,8068.244768
483.368754,2960.823768,1608.800546,7550.100608
483.369079,2220.617826,2298.286494,9400.615463
483.369404,-666.185348,2068.457845,10214.842000
483.369730,-2220.617826,229.828649,11399.171507
483.370055,-740.205942,-842.705048,10214.842000
483.370380,-296.082377,-306.438199,8364.327145
483.370706,-1332.370696,1225.752797,7846.182985
483.371031,-962.267725,2757.943793,8438.347739
483.371356,-962.267725,1991.848295,8512.368333
483.371681,-1850.514855,-383.047749,8660.409521
483.372007,-1480.411884,-919.314598,8142.265362
483.372332,-1184.329507,1072.533697,8734.430116
483.372657,-296.082377,1838.629195,9474.636058
483.372983,370.102971,-459.657299,11547.212695
483.373308,0.000000,-1838.629195,10955.047942
483.373633,1924.535449,0.000000,9696.697840
483.373959,4219.173869,2374.896044,9474.636058
483.374284,4071.132681,2604.724693,9770.718434
483.374609,2294.638420,1455.581446,9696.697840
483.374935,1554.432478,536.266849,9030.512492
483.375260,962.267725,-383.047749,8290.306550
483.375585,148.041188,-306.438199,8586.388927
483.375910,-962.267725,0.000000,9844.739029
483.376236,-1258.350101,-383.047749,11103.089130
483.376561,-2146.597232,-842.705048,10214.842000
483.376886,-1184.329507,-2451.505594,8808.450710
483.377212,222.061783,-766.095498,7772.162391
483.377537,-296.082377,2298.286494,7772.162391
483.377862,518.144159,2068.457845,9326.594869
483.378188,74.020594,-459.657299,9474.636058
483.378513,0.000000,-1455.581446,8438.347739
483.378838,370.102971,229.828649,7476.080014
483.379163,-888.247130,1302.362347,9770.718434
483.379489,-666.185348,153.219100,10140.821405
483.379814,0.000000,-459.657299,10066.800811
483.380139,222.061783,-995.924147,10288.862594
483.380465,592.164754,536.266849,8882.471304
483.380790,2294.638420,3217.601092,9178.553681
483.381115,2812.782580,3294.210641,10288.862594
483.381441,1332.370696,229.828649,9992.780217
483.381766,-592.164754,-919.314598,8734.430116
483.382091,-1184.329507,0.000000,8660.409521
483.382417,-1554.432478,1149.143247,9474.636058
483.382742,-3108.864956,-306.438199,10066.800811
483.383067,-3034.844362,-1838.629195,9030.512492
483.383392,-1850.514855,-459.657299,9474.636058
483.383718,-222.061783,2451.505594,9918.759623
483.384043,1628.453072,3294.210641,8882.471304
483.384368,666.185348,2528.115143,8364.327145
483.384694,444.123565,1302.362347,7402.059420
483.385019,1480.411884,2145.067394,8290.306550
483.385344,296.082377,2374.896044,9104.533087
483.385670,-1036.288319,689.485948,9622.677246
483.385995,-1628.453072,-383.047749,9844.739029
483.386320,-1702.473667,153.219100,10066.800811
483.386645,-1850.514855,536.266849,9844.739029
483.386971,-444.123565,-689.485948,8142.265362
483.387296,-296.082377,1149.143247,8512.368333
483.387621,74.020594,2681.334243,9696.697840
483.387947,444.123565,1302.362347,8882.471304
483.388272,296.082377,-612.876398,8438.347739
483.388597,0.000000,153.219100,8512.368333
483.388923,-222.061783,1991.848295,10140.821405
483.389248,-370.102971,536.266849,10881.027347
483.389573,-1036.288319,-1302.362347,10732.986159
483.389898,-444.123565,-1838.629195,9548.656652
483.390224,2368.659014,766.095498,8660.409521
483.390549,3256.906145,2374.896044,10066.800811
483.390874,74.020594,1991.848295,9770.718434
483.391200,740.205942,-536.266849,8660.409521
483.391525,1850.514855,0.000000,9104.533087
483.391850,1184.329507,306.438199,8734.430116
483.392176,-666.185348,0.000000,9178.553681
483.392501,-814.226536,-229.828649,10066.800811
483.392826,296.082377,612.876398,11399.171507
483.393152,1110.308913,0.000000,10140.821405
483.393477,0.000000,-766.095498,7698.141797
483.393802,222.061783,1378.971896,7624.121203
483.394127,1924.535449,3524.039291,8734.430116
483.394453,1110.308913,1762.019645,9326.594869
483.394778,-296.082377,-1302.362347,8216.285956
483.395103,-1480.411884,-306.438199,7920.203579
483.395429,-1406.391290,1225.752797,9400.615463
483.395754,-1628.453072,76.609550,9844.739029
483.396079,-2442.679609,-1685.410096,9844.739029
483.396405,-1258.350101,-1378.971896,9474.636058
483.396730,222.061783,1532.190996,9178.553681
483.397055,2220.617826,2681.334243,9622.677246
483.397380,2220.617826,2298.286494,8438.347739
483.397706,296.082377,1149.143247,8808.450710
483.398031,370.102971,842.705048,8586.388927
483.398356,1184.329507,1149.143247,9474.636058
483.398682,-666.185348,-306.438199,10658.965565
483.399007,-1480.411884,0.000000,11843.295072
483.399332,-2220.617826,-383.047749,11547.212695
483.399658,-1406.391290,-1608.800546,8956.491898
483.399983,888.247130,-995.924147,7402.059420
483.400308,0.000000,3140.991542,9992.780217
483.400633,1184.329507,4903.011187,8438.347739
483.400959,1406.391290,1915.238745,9326.594869
483.401284,1036.288319,-842.705048,7994.224174
483.401609,-962.267725,459.657299,7624.121203
483.401935,-1184.329507,1838.629195,8734.430116
483.402260,-592.164754,1149.143247,10362.883188
483.402585,-1184.329507,-536.266849,10584.944971
483.402911,-2294.638420,-1685.410096,9548.656652
483.403236,-888.247130,0.000000,7476.080014
483.403561,1036.288319,2528.115143,7179.997637
483.403887,2072.576638,2834.553343,8734.430116
483.404212,1258.350101,1608.800546,9770.718434
483.404537,814.226536,383.047749,9918.759623
483.404862,1924.535449,842.705048,9474.636058
483.405188,1184.329507,383.047749,9252.574275
483.405513,-592.164754,0.000000,10214.842000
483.405838,-1406.391290,153.219100,10510.924376
483.406164,-444.123565,-306.438199,11251.130318
483.406489,814.226536,-689.485948,10140.821405
483.406814,0.000000,1149.143247,9178.553681
483.407140,0.000000,2451.505594,7846.182985
483.407465,222.061783,1915.238745,8290.306550
483.407790,-666.185348,-842.705048,9104.533087
483.408115,-1036.288319,-766.095498,9622.677246
483.408441,-1998.556043,306.438199,9622.677246
483.408766,-1110.308913,-76.609550,9252.574275
483.409091,148.041188,-306.438199,10436.903782
483.409417,-666.185348,-229.828649,9992.780217
483.409742,-444.123565,0.000000,7031.956449
483.410067,2146.597232,612.876398,8068.244768
483.410393,2072.576638,3064.381992,9178.553681
483.410718,666.185348,2681.334243,9030.512492
483.411043,222.061783,0.000000,8290.306550
483.411368,-592.164754,-995.924147,8734.430116
483.411694,-962.267725,-153.219100,9474.636058
483.412019,-1036.288319,0.000000,11177.109724
483.412344,-1776.494261,-1149.143247,11325.150913
483.412670,-1332.370696,-2145.067394,9770.718434
483.412995,592.164754,-459.657299,8882.471304
483.413320,2220.617826,2528.115143,9400.615463
483.413646,2516.700203,3753.867940,8882.471304
483.413971,2146.597232,1838.629195,8512.368333
483.414296,2294.638420,1149.143247,9030.512492
483.414622,1924.535449,1455.581446,8586.388927
483.414947,296.082377,766.095498,8364.327145
483.415272,-296.082377,459.657299,9844.739029
483.415597,-1184.329507,0.000000,11473.192101
483.415923,-1036.288319,-1225.752797,9844.739029
483.416248,0.000000,-1991.848295,9770.718434
483.416573,-222.061783,766.095498,8808.450710
483.416899,1184.329507,3140.991542,7846.182985
483.417224,3034.844362,2911.162892,8808.450710
483.417549,740.205942,766.095498,9104.533087
483.417875,-2072.576638,0.000000,7624.121203
483.418200,-1554.432478,689.485948,7772.162391
483.418525,-2072.576638,612.876398,10214.842000
483.418850,-3627.009116,-689.485948,9844.739029
483.419176,-4219.173869,-2451.505594,9474.636058
483.419501,-2368.659014,-1225.752797,8438.347739
483.419826,0.000000,919.314598,9252.574275
483.420152,222.061783,2145.067394,10140.821405
483.420477,1036.288319,1762.019645,9252.574275
483.420802,1850.514855,1378.971896,9030.512492
483.421128,3627.009116,383.047749,8882.471304
483.421453,3108.864956,1915.238745,9474.636058
483.421778,1332.370696,919.314598,10658.965565
483.422103,370.102971,919.314598,11621.233289
483.422429,962.267725,612.876398,11547.212695
483.422754,1258.350101,-306.438199,9696.697840
483.423079,1332.370696,383.047749,7846.182985
483.423405,814.226536,2911.162892,8216.285956
483.423730,74.020594,3524.039291,9104.533087
483.424055,0.000000,995.924147,8142.265362
483.424381,-1258.350101,-1149.143247,8068.244768
483.424706,-2960.823768,0.000000,8216.285956
483.425031,-3034.844362,1378.971896,9474.636058
483.425357,-2220.617826,0.000000,10288.862594
483.425682,-2294.638420,-1532.190996,10658.965565
483.426007,-1776.494261,-919.314598,7846.182985
483.426332,814.226536,1455.581446,6957.935855
483.426658,2368.659014,3370.820191,8068.244768
483.426983,1702.473667,3370.820191,9252.574275
483.427308,1036.288319,1302.362347,9992.780217
483.427633,1406.391290,0.000000,8734.430116
483.427958,444.123565,0.000000,8882.471304
483.428284,-1258.350101,536.266849,11177.109724
483.428609,-1924.535449,76.609550,10955.047942
483.428934,-888.247130,-1532.190996,10436.903782
483.429259,222.061783,-1762.019645,10510.924376
483.429584,0.000000,842.705048,9770.718434
483.429909,-814.226536,2604.724693,8586.388927
483.430234,962.267725,1608.800546,8734.430116
483.430559,444.123565,-383.047749,9104.533087
483.430885,-1850.514855,-612.876398,7920.203579
483.431210,-962.267725,-383.047749,8512.368333
483.431535,-2072.576638,0.000000,9770.718434
483.431860,-3330.926739,-995.924147,10362.883188
483.432185,-2738.761985,-2604.724693,10510.924376
483.432510,-740.205942,-1378.971896,9252.574275
483.432835,888.247130,306.438199,7846.182985
483.433160,3627.009116,2221.676944,7624.121203
483.433486,3478.967927,3064.381992,8734.430116
483.433811,1258.350101,1838.629195,8660.409521
483.434136,1036.288319,153.219100,7846.182985
483.434461,2072.576638,383.047749,8216.285956
483.434786,1554.432478,1302.362347,10140.821405
483.435111,-1036.288319,-536.266849,11473.192101
483.435436,-2368.659014,-3064.381992,10066.800811
483.435761,-1554.432478,-2681.334243,9696.697840
483.436087,-148.041188,0.000000,9474.636058
483.436412,962.267725,1838.629195,9474.636058
483.436737,1480.411884,1838.629195,8956.491898
483.437062,2146.597232,919.314598,8438.347739
483.437387,1628.453072,1225.752797,9548.656652
483.437712,814.226536,612.876398,9178.553681
483.438037,296.082377,76.609550,8216.285956
483.438362,148.041188,306.438199,11103.089130
483.438688,-296.082377,76.609550,11695.253884
483.439013,-1184.329507,-842.705048,10881.027347
483.439338,-148.041188,-1072.533697,9178.553681
483.439663,222.061783,1762.019645,8956.491898
483.439988,1332.370696,2374.896044,8808.450710
483.440313,814.226536,2374.896044,9400.615463
483.440638,0.000000,153.219100,8512.368333
483.440963,-1628.453072,689.485948,7920.203579
483.441289,-1480.411884,1608.800546,8660.409521
483.441614,-1110.308913,1455.581446,9622.677246
483.441939,-2368.659014,536.266849,9474.636058
483.442264,-1554.432478,0.000000,8882.471304
483.442589,296.082377,1149.143247,7846.182985
483.442914,962.267725,3140.991542,7550.100608
483.443239,1406.391290,3600.648841,7698.141797
483.443564,2072.576638,3294.210641,8734.430116
483.443890,2664.741391,2451.505594,8660.409521
483.444215,2960.823768,1378.971896,8586.388927
483.444540,1406.391290,1302.362347,9992.780217
483.444865,296.082377,2068.457845,9770.718434
483.445190,740.205942,1149.143247,10732.986159
483.445515,962.267725,76.609550,11251.130318
483.445840,814.226536,0.000000,10658.965565
483.446165,0.000000,1455.581446,9400.615463
483.446491,-592.164754,2528.115143,9252.574275
483.446816,-1480.411884,842.705048,9474.636058
483.447141,-3256.906145,-995.924147,8512.368333
483.447466,-3627.009116,-1225.752797,8216.285956
483.447791,-3997.112087,-536.266849,9178.553681
483.448116,-5033.400406,-842.705048,9918.759623
483.448441,-5181.441594,-2145.067394,9400.615463
483.448766,-4367.215058,-2451.505594,9104.533087
483.449092,-1110.308913,-1378.971896,8882.471304
483.449417,2368.659014,2451.505594,9326.594869
483.449742,4959.379811,2604.724693,9992.780217
483.450067,3627.009116,1915.238745,9474.636058
483.450392,4071.132681,766.095498,8586.388927
483.450717,5625.565159,1685.410096,8660.409521
483.451042,3701.029710,1149.143247,9622.677246
483.451367,888.247130,76.609550,10436.903782
483.451693,-888.247130,-1532.190996,11547.212695
483.452018,-1332.370696,-1762.019645,10510.924376
483.452343,-518.144159,-2221.676944,8882.471304
483.452668,-1184.329507,-1302.362347,7624.121203
483.452993,-1554.432478,1608.800546,7476.080014
483.453318,0.000000,1685.410096,8956.491898
483.453643,-962.267725,-383.047749,9104.533087
483.453968,-4367.215058,-2145.067394,9178.553681
483.454294,-3997.112087,-2374.896044,8216.285956
483.454619,-1480.411884,-995.924147,8882.471304
483.454944,-1628.453072,-536.266849,12139.377449
483.455269,-1628.453072,-2145.067394,11547.212695
483.455594,-740.205942,-2298.286494,9030.512492
483.455919,2146.597232,766.095498,8956.491898
483.456244,3849.070898,4519.963438,10066.800811
483.456569,4071.132681,3753.867940,9770.718434
483.456895,4145.153275,2298.286494,8734.430116
483.457220,3478.967927,1685.410096,8882.471304
483.457545,2664.741391,2221.676944,8734.430116
483.457870,1406.391290,2528.115143,9400.615463
483.458195,-1110.308913,76.609550,9178.553681
483.458520,-1776.494261,0.000000,9326.594869
483.458845,-518.144159,995.924147,10214.842000
483.459170,-222.061783,1225.752797,8586.388927
483.459496,-1036.288319,1915.238745,6957.935855
483.459821,-444.123565,2987.772442,7402.059420
483.460146,518.144159,2834.553343,8364.327145
483.460471,74.020594,1302.362347,7698.141797
483.460796,-592.164754,995.924147,8956.491898
483.461121,-1332.370696,1149.143247,9474.636058
483.461446,-1184.329507,2451.505594,10658.965565
483.461771,0.000000,76.609550,11177.109724
483.462097,148.041188,-995.924147,9622.677246
483.462422,444.123565,766.095498,8586.388927
483.462747,2368.659014,4596.572988,10288.862594
483.463072,3034.844362,4290.134789,10140.821405
483.463397,518.144159,1149.143247,8956.491898
483.463722,0.000000,-842.705048,7772.162391
483.464047,518.144159,1762.019645,8216.285956
483.464372,0.000000,1838.629195,9918.759623
483.464698,-1036.288319,0.000000,11177.109724
483.465023,-1998.556043,-1302.362347,11029.068536
483.465348,-962.267725,-842.705048,9104.533087
483.465673,1332.370696,1149.143247,9252.574275
483.465998,0.000000,1455.581446,8290.306550
483.466323,148.041188,1838.629195,7624.121203
483.466648,1036.288319,1685.410096,8734.430116
483.466973,370.102971,383.047749,8364.327145
483.467299,-1702.473667,-766.095498,8364.327145
483.467624,-2368.659014,-919.314598,9400.615463
483.467949,-2886.803174,-766.095498,9770.718434
483.468274,-3256.906145,-2528.115143,10584.944971
483.468599,-2072.576638,-3524.039291,10807.006753
483.468924,-1184.329507,-1762.019645,10214.842000
483.469249,222.061783,1378.971896,9030.512492
483.469574,1702.473667,1455.581446,9474.636058
483.469900,740.205942,-229.828649,9326.594869
483.470225,0.000000,-1225.752797,8142.265362
483.470550,0.000000,0.000000,9622.677246
483.470875,296.082377,-306.438199,10658.965565
483.471200,-1184.329507,-2068.457845,10732.986159
483.471525,-2072.576638,-3294.210641,9992.780217
483.471850,-296.082377,-1915.238745,9548.656652
483.472175,1036.288319,0.000000,9696.697840
483.472501,2590.720797,1532.190996,9178.553681
483.472826,2960.823768,1685.410096,9400.615463
483.473151,1628.453072,1608.800546,7994.224174
483.473476,1998.556043,919.314598,7698.141797
483.473801,2812.782580,1149.143247,8364.327145
483.474126,962.267725,1762.019645,9992.780217
483.474451,-370.102971,459.657299,10362.883188
483.474776,74.020594,-1225.752797,9770.718434
483.475101,370.102971,-766.095498,10214.842000
483.475427,-296.082377,995.924147,9474.636058
483.475752,-296.082377,1378.971896,7846.182985
483.476077,1924.535449,1608.800546,7550.100608
483.476402,2516.700203,2221.676944,8734.430116
483.476727,370.102971,2145.067394,9400.615463
483.477052,-1036.288319,1608.800546,9178.553681
483.477377,-740.205942,766.095498,9030.512492
483.477702,-740.205942,842.705048,11177.109724
483.478028,-962.267725,459.657299,11251.130318
483.478353,-740.205942,153.219100,9622.677246
483.478678,444.123565,1762.019645,8882.471304
483.479003,1184.329507,3677.258390,9622.677246
483.479328,1110.308913,3294.210641,9474.636058
483.479653,222.061783,2068.457845,7402.059420
483.479978,370.102971,1378.971896,6809.894666
483.480303,74.020594,2068.457845,8364.327145
483.480629,-592.164754,3140.991542,9770.718434
483.480954,-1480.411884,2145.067394,10658.965565
483.481279,-1554.432478,-1149.143247,8882.471304
483.481604,-666.185348,-459.657299,7254.018232
483.481929,296.082377,2604.724693,9326.594869
483.482254,518.144159,3294.210641,9474.636058
483.482579,222.061783,1838.629195,8956.491898
483.482904,444.123565,766.095498,8734.430116
483.483230,-666.185348,1378.971896,7772.162391
483.483555,-962.267725,76.609550,6587.832884
483.483880,-1406.391290,0.000000,8734.430116
483.484205,-1776.494261,-306.438199,10955.047942
483.484530,-2368.659014,-459.657299,12139.377449
483.484855,-1480.411884,-2145.067394,11325.150913
483.485180,148.041188,-2374.896044,8290.306550
483.485505,740.205942,612.876398,7698.141797
483.485831,2294.638420,2987.772442,9326.594869
483.486156,2072.576638,1608.800546,10510.924376
483.486481,962.267725,-1532.190996,8808.450710
483.486806,518.144159,-1685.410096,9030.512492
483.487131,-148.041188,-536.266849,9844.739029
483.487456,-1258.350101,-995.924147,9252.574275
483.487781,-1628.453072,-3140.991542,11325.150913
483.488106,-592.164754,-2681.334243,12287.418637
483.488432,1036.288319,-995.924147,10436.903782
483.488757,2960.823768,459.657299,9178.553681
483.489082,1850.514855,1532.190996,8364.327145
483.489407,222.061783,919.314598,8216.285956
483.489732,444.123565,76.609550,8364.327145
483.490057,222.061783,-229.828649,8438.347739
483.490382,-2146.597232,-919.314598,7550.100608
483.490707,-3256.906145,-1532.190996,9030.512492
483.491033,-3330.926739,-1302.362347,9918.759623
483.491358,-3108.864956,-1838.629195,10066.800811
483.491683,-2886.803174,-2834.553343,8956.491898
483.492008,-1628.453072,-1072.533697,8142.265362
483.492333,-370.102971,2451.505594,8438.347739
483.492658,1110.308913,3064.381992,8734.430116
483.492983,1258.350101,842.705048,8364.327145
483.493308,592.164754,153.219100,9030.512492
483.493634,1628.453072,1378.971896,8882.471304
483.493959,2368.659014,2681.334243,11547.212695
483.494284,1628.453072,1455.581446,12065.356855
483.494609,888.247130,-459.657299,10066.800811
483.494934,2368.659014,-842.705048,8586.388927
483.495259,3404.947333,3294.210641,9252.574275
483.495584,2812.782580,4903.011187,9474.636058
483.495909,1480.411884,3064.381992,9252.574275
483.496235,370.102971,919.314598,9474.636058
483.496560,0.000000,1378.971896,8586.388927
483.496885,-1554.432478,1685.410096,8364.327145
483.497210,-3034.844362,153.219100,8956.491898
483.497535,-2664.741391,0.000000,9474.636058
483.497860,-2146.597232,536.266849,10658.965565
483.498185,-1184.329507,76.609550,9178.553681
483.498510,-1110.308913,1378.971896,8068.244768
483.498836,148.041188,3447.429741,7105.977043
483.499161,2072.576638,4366.744339,8142.265362
483.499486,1628.453072,2451.505594,8216.285956
483.499811,0.000000,1378.971896,7476.080014
483.500136,888.247130,2145.067394,8364.327145
483.500461,-148.041188,2757.943793,9252.574275
483.500786,-962.267725,459.657299,10066.800811
483.501111,-1554.432478,-612.876398,10436.903782
483.501437,0.000000,-689.485948,9474.636058
483.501762,2294.638420,1608.800546,9474.636058
483.502087,2738.761985,2068.457845,10881.027347
483.502412,1628.453072,2221.676944,10362.883188
483.502737,1554.432478,689.485948,8808.450710
483.503062,1628.453072,-229.828649,8882.471304
483.503387,888.247130,842.705048,9474.636058
483.503712,-814.226536,766.095498,9770.718434
483.504038,-1554.432478,-1149.143247,9474.636058
483.504363,-2590.720797,-2145.067394,9770.718434
483.504688,-2220.617826,-1915.238745,8956.491898
483.505013,-1184.329507,153.219100,8956.491898
483.505338,-740.205942,919.314598,9548.656652
483.505663,-888.247130,689.485948,9622.677246
483.505988,0.000000,-995.924147,8808.450710
483.506313,148.041188,-1455.581446,7179.997637
483.506639,-1332.370696,-536.266849,8216.285956
483.506964,-1628.453072,-1762.019645,9918.759623
483.507289,-1110.308913,-1838.629195,10288.862594
483.507614,-1554.432478,-2681.334243,11251.130318
483.507939,-962.267725,-2757.943793,9548.656652
483.508264,222.061783,-1991.848295,8068.244768
483.508589,2220.617826,1149.143247,9178.553681
483.508914,3108.864956,1991.848295,10362.883188
483.509240,1184.329507,1762.019645,10140.821405
483.509565,1258.350101,-689.485948,7920.203579
483.509890,1554.432478,306.438199,8216.285956
483.510215,222.061783,842.705048,9918.759623
483.510540,-1036.288319,0.000000,10436.903782
483.510865,-2146.597232,-2374.896044,10732.986159
483.511190,-1628.453072,-2911.162892,9844.739029
483.511515,-1332.370696,76.609550,10066.800811
483.511841,-888.247130,1455.581446,9178.553681
483.512166,0.000000,1302.362347,8068.244768
483.512491,-296.082377,76.609550,8882.471304
483.512816,-740.205942,153.219100,9400.615463
483.513141,-740.205942,1072.533697,9030.512492
483.513466,-1628.453072,689.485948,9178.553681
483.513791,-1258.350101,0.000000,9474.636058
483.514116,370.102971,0.000000,10362.883188
483.514442,296.082377,1532.190996,9696.697840
483.514767,1184.329507,1685.410096,8808.450710
483.515092,1998.556043,2298.286494,8512.368333
483.515417,2368.659014,4519.963438,8512.368333
483.515742,1850.514855,4060.306139,9030.512492
483.516067,1702.473667,1685.410096,7698.141797
483.516392,1776.494261,1225.752797,7994.224174
483.516717,962.267725,2068.457845,9992.780217
483.517043,-148.041188,2451.505594,11547.212695
483.517368,-1258.350101,383.047749,10584.944971
483.517693,444.123565,-153.219100,8586.388927
483.518018,1850.514855,2298.286494,9030.512492
483.518343,2146.597232,4596.572988,8216.285956
483.518668,1332.370696,4673.182538,8438.347739
483.518993,1110.308913,2145.067394,7920.203579
483.519318,74.020594,1302.362347,8068.244768
483.519644,-1036.288319,1532.190996,8068.244768
483.519969,-1850.514855,1302.362347,8586.388927
483.520294,-2886.803174,306.438199,10436.903782
483.520619,-3330.926739,-766.095498,9992.780217
483.520944,-2516.700203,-1762.019645,9474.636058
483.521269,-2368.659014,-842.705048,8734.430116
483.521594,-296.082377,1455.581446,7105.977043
483.521919,1258.350101,2834.553343,9770.718434
483.522245,1702.473667,2068.457845,10510.924376
483.522570,1036.288319,153.219100,8956.491898
483.522895,962.267725,-1532.190996,7328.038826
483.523220,1184.329507,153.219100,8882.471304
483.523545,1184.329507,1149.143247,10214.842000
483.523870,-814.226536,-153.219100,11843.295072
483.524195,-370.102971,-2451.505594,10584.944971
483.524520,1036.288319,-1378.971896,8956.491898
483.524846,2590.720797,1455.581446,8290.306550
483.525171,2738.761985,3064.381992,9844.739029
483.525496,2220.617826,1072.533697,9104.533087
483.525821,2294.638420,-919.314598,8882.471304
483.526146,2368.659014,-612.876398,10807.006753
483.526471,-222.061783,0.000000,10807.006753
483.526796,-1332.370696,-1991.848295,9622.677246
483.527121,-2294.638420,-2681.334243,10732.986159
483.527446,-3108.864956,-2298.286494,10510.924376
483.527771,-2294.638420,-2068.457845,8956.491898
483.528097,-814.226536,-1225.752797,7402.059420
483.528422,-1776.494261,459.657299,8068.244768
483.528747,-2146.597232,536.266849,7846.182985
483.529072,-1554.432478,-459.657299,8290.306550
483.529397,-1776.494261,-1762.019645,8734.430116
483.529722,-2590.720797,-766.095498,8586.388927
483.530047,-1776.494261,0.000000,9548.656652
483.530372,-1184.329507,-995.924147,9992.780217
483.530697,-1184.329507,-1302.362347,9252.574275
483.531022,-444.123565,-1072.533697,9178.553681
483.531348,1480.411884,1762.019645,9178.553681
483.531673,2590.720797,3677.258390,9622.677246
483.531998,1924.535449,2298.286494,9326.594869
483.532323,1184.329507,919.314598,8512.368333
483.532648,1258.350101,536.266849,8882.471304
483.532973,444.123565,2068.457845,9400.615463
483.533298,-740.205942,1302.362347,10955.047942
483.533623,-2294.638420,-536.266849,10214.842000
483.533948,-1554.432478,-536.266849,10066.800811
483.534273,222.061783,995.924147,9918.759623
483.534599,74.020594,1838.629195,9178.553681
483.534924,0.000000,2221.676944,8216.285956
483.535249,1406.391290,2528.115143,8882.471304
483.535574,1332.370696,2681.334243,8438.347739
483.535899,296.082377,1991.848295,8660.409521
483.536224,-518.144159,1225.752797,8882.471304
483.536549,-814.226536,1838.629195,8882.471304
483.536874,370.102971,766.095498,9622.677246
483.537199,296.082377,689.485948,10584.944971
483.537524,-222.061783,536.266849,9474.636058
483.537850,2812.782580,2145.067394,7402.059420
483.538175,4219.173869,3600.648841,9400.615463
483.538500,2590.720797,3064.381992,8956.491898
483.538825,1924.535449,2451.505594,8068.244768
483.539150,3108.864956,1532.190996,8734.430116
483.539475,1924.535449,1838.629195,8882.471304
483.539800,-518.144159,919.314598,10658.965565
483.540125,-1850.514855,229.828649,9474.636058
483.540450,-1480.411884,-612.876398,9030.512492
483.540775,-1776.494261,-842.705048,8956.491898
483.541101,-1258.350101,536.266849,8808.450710
483.541426,444.123565,3217.601092,9178.553681
483.541751,0.000000,2374.896044,9770.718434
483.542076,-740.205942,229.828649,9474.636058
483.542401,370.102971,76.609550,9326.594869
483.542726,-370.102971,536.266849,9400.615463
483.543051,-1776.494261,-306.438199,8956.491898
483.543376,-740.205942,-1608.800546,10066.800811
483.543701,0.000000,0.000000,11769.274478
483.544026,-814.226536,689.485948,11103.089130
483.544352,-370.102971,-919.314598,8808.450710
483.544677,222.061783,-689.485948,7031.956449
483.545002,814.226536,1455.581446,9104.533087
483.545327,0.000000,1455.581446,9622.677246
483.545652,-148.041188,-766.095498,8512.368333
483.545977,0.000000,-1149.143247,8512.368333
483.546302,-814.226536,76.609550,10807.006753
483.546627,-1554.432478,-536.266849,9992.780217
483.546952,-1702.473667,-2298.286494,8808.450710
483.547277,-1406.391290,-3370.820191,8882.471304
483.547603,-296.082377,-536.266849,9622.677246
483.547928,444.123565,1991.848295,9696.697840
483.548253,-370.102971,76.609550,9400.615463
483.548578,-814.226536,-1991.848295,7698.141797
483.548903,-1406.391290,-1378.971896,8290.306550
483.549228,-444.123565,383.047749,9696.697840
483.549553,-1184.329507,-459.657299,10288.862594
483.549878,-1776.494261,-2145.067394,9844.739029
483.550203,-740.205942,-1915.238745,10436.903782
483.550528,592.164754,0.000000,9030.512492
483.550854,-370.102971,689.485948,7550.100608
483.551179,1110.308913,842.705048,10066.800811
483.551504,1776.494261,1608.800546,9474.636058
483.551829,518.144159,1991.848295,10584.944971
483.552154,296.082377,-612.876398,8956.491898
483.552479,0.000000,-1149.143247,7920.203579
483.552804,-666.185348,306.438199,9326.594869
483.553129,-370.102971,1072.533697,11029.068536
483.553454,-740.205942,-919.314598,11473.192101
483.553779,148.041188,-766.095498,9400.615463
483.554105,2516.700203,1532.190996,7994.224174
483.554430,2886.803174,3830.477490,8586.388927
483.554755,2220.617826,4290.134789,8216.285956
483.555080,888.247130,2604.724693,8956.491898
483.555405,1110.308913,1608.800546,8512.368333
483.555730,888.247130,2451.505594,8956.491898
483.556055,-592.164754,2298.286494,8660.409521
483.556380,-1850.514855,1225.752797,8364.327145
483.556705,-1258.350101,153.219100,9178.553681
483.557030,-518.144159,919.314598,9622.677246
483.557356,888.247130,1915.238745,9252.574275
483.557681,1702.473667,3907.087040,8956.491898
483.558006,2146.597232,3140.991542,8216.285956
483.558331,1924.535449,3140.991542,8512.368333
483.558656,1998.556043,2451.505594,8956.491898
483.558981,1036.288319,2221.676944,8290.306550
483.559306,-296.082377,1378.971896,9030.512492
483.559631,0.000000,1455.581446,10214.842000
483.559956,-1406.391290,459.657299,10955.047942
483.560282,-2294.638420,-306.438199,10288.862594
483.560607,-1258.350101,-919.314598,7994.224174
483.560932,-296.082377,1455.581446,8882.471304
483.561257,518.144159,2298.286494,9178.553681
483.561582,0.000000,1532.190996,9548.656652
483.561907,-518.144159,306.438199,8438.347739
483.562232,0.000000,229.828649,8808.450710
483.562557,0.000000,229.828649,10214.842000
483.562882,-296.082377,76.609550,10881.027347
483.563207,296.082377,-612.876398,11177.109724
483.563533,0.000000,-1455.581446,11473.192101
483.563858,888.247130,-1608.800546,9104.533087
483.564183,1480.411884,0.000000,8290.306550
483.564508,888.247130,2221.676944,8068.244768
483.564833,518.144159,1072.533697,8438.347739
483.565158,0.000000,-689.485948,8734.430116
483.565483,0.000000,-1762.019645,9622.677246
483.565808,-1480.411884,-1072.533697,8808.450710
483.566133,-1776.494261,-1455.581446,9178.553681
483.566458,-1702.473667,-1302.362347,10140.821405
483.566784,-1850.514855,-2145.067394,10214.842000
483.567109,-1110.308913,-2451.505594,8142.265362
483.567434,148.041188,0.000000,8364.327145
483.567759,370.102971,1378.971896,8882.471304
483.568084,-444.123565,766.095498,8808.450710
483.568409,-666.185348,-689.485948,9326.594869
483.568734,-222.061783,-1455.581446,9178.553681
483.569059,-1110.308913,0.000000,8956.491898
483.569384,-1702.473667,0.000000,10955.047942
483.569709,-1924.535449,-306.438199,11399.171507
483.570035,-296.082377,-919.314598,10288.862594
483.570360,1480.411884,-995.924147,9474.636058
483.570685,2590.720797,1762.019645,9178.553681
483.571010,1850.514855,3677.258390,8660.409521
483.571335,1998.556043,3064.381992,8586.388927
483.571660,1702.473667,995.924147,9252.574275
483.571985,0.000000,536.266849,9400.615463
483.572310,-1110.308913,1302.362347,8882.471304
483.572635,-1628.453072,766.095498,8956.491898
483.572960,-2590.720797,-306.438199,9474.636058
483.573286,-2886.803174,0.000000,9474.636058
483.573611,-1702.473667,-76.609550,8364.327145
483.573936,-1480.411884,1455.581446,7698.141797
483.574261,-518.144159,2451.505594,7994.224174
483.574586,666.185348,2911.162892,9918.759623
483.574911,444.123565,1915.238745,9030.512492
483.575236,74.020594,383.047749,8216.285956
483.575561,74.020594,0.000000,8956.491898
483.575886,962.267725,3064.381992,9844.739029
483.576211,962.267725,2451.505594,10955.047942
483.576537,1036.288319,0.000000,10584.944971
483.576862,1554.432478,0.000000,8660.409521
483.577187,3775.050304,3294.210641,8882.471304
483.577512,5329.482782,5362.668486,9622.677246
483.577837,3775.050304,4519.963438,9770.718434
483.578162,2738.761985,2374.896044,8882.471304
483.578487,3701.029710,2451.505594,9030.512492
483.578812,1184.329507,1991.848295,7920.203579
483.579137,-2294.638420,536.266849,8586.388927
483.579462,-2368.659014,459.657299,9548.656652
483.579788,-1850.514855,0.000000,10732.986159
483.580113,-2072.576638,-995.924147,9326.594869
483.580438,-1776.494261,-1302.362347,7402.059420
483.580763,-814.226536,1149.143247,8068.244768
483.581088,-222.061783,3140.991542,8882.471304
483.581413,0.000000,1072.533697,8586.388927
483.581738,0.000000,-1378.971896,8364.327145
483.582063,-1110.308913,0.000000,8438.347739
483.582388,-962.267725,1608.800546,9992.780217
483.582713,1110.308913,-306.438199,11177.109724
483.583039,-222.061783,-1915.238745,11695.253884
483.583364,-444.123565,-2681.334243,9622.677246
483.583689,1554.432478,-689.485948,9992.780217
483.584014,1406.391290,1685.410096,9844.739029
483.584339,-222.061783,1149.143247,10584.944971
483.584664,666.185348,-1532.190996,8290.306550
483.584989,296.082377,229.828649,9696.697840
483.585314,296.082377,689.485948,9992.780217
483.585639,-1332.370696,-766.095498,9474.636058
483.585964,-2960.823768,-2681.334243,9918.759623
483.586290,-2590.720797,-1915.238745,9622.677246
483.586615,-148.041188,-459.657299,9178.553681
483.586940,1110.308913,153.219100,8364.327145
483.587265,1184.329507,1838.629195,8142.265362
483.587590,740.205942,1378.971896,9104.533087
483.587915,444.123565,1302.362347,8512.368333
483.588240,666.185348,-612.876398,8586.388927
483.588565,-518.144159,-459.657299,8364.327145
483.588890,-814.226536,153.219100,9326.594869
483.589215,-1332.370696,-536.266849,10807.006753
483.589541,-2146.597232,-1838.629195,9992.780217
483.589866,-1776.494261,-1685.410096,9252.574275
483.590191,444.123565,383.047749,8438.347739
483.590516,2442.679609,3294.210641,8956.491898
483.590841,2442.679609,2987.772442,9992.780217
483.591166,814.226536,1455.581446,9918.759623
483.591491,0.000000,0.000000,9030.512492
483.591816,-74.020594,612.876398,8586.388927
483.592141,-888.247130,1149.143247,9770.718434
483.592466,-2072.576638,612.876398,11029.068536
483.592792,-2072.576638,-1225.752797,10214.842000
483.593117,-1406.391290,-1225.752797,10214.842000
483.593442,0.000000,766.095498,9326.594869
483.593767,1258.350101,3524.039291,8068.244768
483.594092,2146.597232,3447.429741,8068.244768
483.594417,2220.617826,3064.381992,7698.141797
483.594742,1480.411884,2681.334243,8882.471304
483.595067,296.082377,2221.676944,9030.512492
483.595392,-666.185348,2068.457845,8438.347739
483.595717,-518.144159,1072.533697,9474.636058
483.596043,-222.061783,842.705048,9326.594869
483.596368,-888.247130,766.095498,9178.553681
483.596693,-592.164754,1225.752797,7772.162391
483.597018,-740.205942,2451.505594,7624.121203
483.597343,740.205942,2987.772442,8734.430116
483.597668,1258.350101,2068.457845,9326.594869
483.597993,0.000000,766.095498,8882.471304
483.598318,-296.082377,842.705048,8364.327145
483.598643,74.020594,766.095498,10066.800811
483.598968,-1110.308913,0.000000,10955.047942
483.599294,-2220.617826,-1225.752797,11029.068536
483.599619,-814.226536,-1225.752797,11399.171507
483.599944,1184.329507,-76.609550,10066.800811
483.600269,2072.576638,919.314598,9844.739029
483.600594,1184.329507,919.314598,9252.574275
483.600919,1924.535449,1532.190996,8586.388927
483.601244,2516.700203,1762.019645,9252.574275
483.601569,1628.453072,995.924147,8512.368333
483.601894,-518.144159,-766.095498,7698.141797
483.602219,-1998.556043,-612.876398,9400.615463
483.602545,-1258.350101,-766.095498,9252.574275
483.602870,-888.247130,-1532.190996,11029.068536
483.603195,-1702.473667,-2145.067394,9400.615463
483.603520,-666.185348,76.609550,7698.141797
483.603845,888.247130,1225.752797,7698.141797
483.604170,888.247130,1302.362347,8660.409521
483.604495,444.123565,-383.047749,8364.327145
483.604820,-444.123565,-1225.752797,8364.327145
483.605145,1036.288319,-536.266849,8438.347739
483.605470,0.000000,153.219100,11029.068536
483.605796,-1110.308913,-1225.752797,11473.192101
483.606121,-1850.514855,-2374.896044,10214.842000
483.606446,518.144159,-1532.190996,9400.615463
483.606771,2072.576638,1378.971896,10066.800811
483.607096,2960.823768,2451.505594,10214.842000
483.607421,2072.576638,2221.676944,9770.718434
483.607746,1480.411884,1149.143247,9474.636058
483.608071,740.205942,-766.095498,8068.244768
483.608396,-1924.535449,-229.828649,8290.306550
483.608721,-2146.597232,153.219100,10807.006753
483.609047,-1702.473667,536.266849,11251.130318
483.609372,-1628.453072,-1225.752797,10510.924376
483.609697,-1554.432478,-1838.629195,9474.636058
483.610022,74.020594,1762.019645,7698.141797
483.610347,1628.453072,4596.572988,7624.121203
483.610672,2886.803174,4596.572988,8364.327145
483.610997,1406.391290,1455.581446,8142.265362
483.611322,-740.205942,1149.143247,7254.018232
483.611647,-1554.432478,1991.848295,7105.977043
483.611972,-2368.659014,919.314598,9104.533087
483.612298,-3627.009116,-995.924147,9844.739029
483.612623,-4367.215058,-1302.362347,10140.821405
483.612948,-3627.009116,-689.485948,10066.800811
483.613273,-2368.659014,842.705048,8956.491898
483.613598,-1110.308913,1378.971896,8512.368333
483.613923,0.000000,2145.067394,8808.450710
483.614248,0.000000,1685.410096,9400.615463
483.614573,1110.308913,1302.362347,9252.574275
483.614898,1850.514855,1149.143247,10140.821405
483.615223,1110.308913,1072.533697,11177.109724
483.615549,-296.082377,1072.533697,10658.965565
483.615874,444.123565,-536.266849,10066.800811
483.616199,2886.803174,0.000000,9030.512492
483.616524,2738.761985,2068.457845,9178.553681
483.616849,1850.514855,2911.162892,9326.594869
483.617174,1776.494261,3064.381992,8438.347739
483.617499,2516.700203,1532.190996,8364.327145
483.617824,1258.350101,-306.438199,8068.244768
483.618149,148.041188,229.828649,8068.244768
483.618474,-592.164754,689.485948,9030.512492
483.618800,370.102971,-153.219100,10214.842000
483.619125,-518.144159,-1072.533697,10510.924376
483.619450,-1110.308913,-306.438199,8882.471304
483.619775,148.041188,383.047749,8512.368333
483.620100,1258.350101,1149.143247,8068.244768
483.620425,2368.659014,1302.362347,8586.388927
483.620750,1110.308913,842.705048,9400.615463
483.621075,-444.123565,0.000000,9400.615463
483.621400,-1184.329507,-766.095498,8660.409521
483.621726,-518.144159,-536.266849,9918.759623
483.622051,-2072.576638,-766.095498,11621.233289
483.622376,-3552.988522,-2221.676944,9992.780217
483.622701,-1924.535449,-2145.067394,9252.574275
483.623026,1332.370696,-689.485948,10362.883188
483.623351,814.226536,1608.800546,10436.903782
483.623676,-296.082377,689.485948,9474.636058
483.624001,592.164754,-689.485948,8438.347739
483.624326,1258.350101,229.828649,8660.409521
483.624651,148.041188,995.924147,9178.553681
483.624977,0.000000,1072.533697,8956.491898
483.625302,74.020594,-842.705048,8660.409521
483.625627,-666.185348,-1149.143247,9474.636058
483.625952,0.000000,689.485948,10436.903782
483.626277,1036.288319,1608.800546,9252.574275
483.626602,1998.556043,1455.581446,7179.997637
483.626927,1702.473667,1608.800546,9252.574275
483.627252,296.082377,2298.286494,9474.636058
483.627577,-740.205942,1072.533697,8438.347739
483.627903,-1554.432478,-1762.019645,8438.347739
483.628228,-1998.556043,-1608.800546,9474.636058
483.628553,-2960.823768,612.876398,10510.924376
483.628878,-2294.638420,0.000000,10584.944971
483.629203,-1554.432478,-1838.629195,10584.944971
483.629528,-1332.370696,-689.485948,8216.285956
483.629853,370.102971,2374.896044,8586.388927
483.630178,1776.494261,3753.867940,8956.491898
483.630503,1406.391290,2528.115143,9770.718434
483.630828,1924.535449,1378.971896,9400.615463
483.631154,1406.391290,1225.752797,9474.636058
483.631479,-444.123565,1378.971896,9030.512492
483.631804,-518.144159,612.876398,9548.656652
483.632129,296.082377,689.485948,9770.718434
483.632454,444.123565,459.657299,10658.965565
483.632779,0.000000,76.609550,9030.512492
483.633104,370.102971,1378.971896,7698.141797
483.633429,296.082377,3370.820191,9104.533087
483.633754,444.123565,3064.381992,8586.388927
483.634079,-444.123565,306.438199,8586.388927
483.634405,-444.123565,-536.266849,7328.038826
483.634730,-222.061783,1225.752797,8438.347739
483.635055,-1110.308913,1455.581446,10658.965565
483.635380,-1998.556043,0.000000,9992.780217
483.635705,-2516.700203,-2374.896044,9622.677246
483.636030,-666.185348,-2068.457845,8660.409521
483.636355,1480.411884,1532.190996,8586.388927
483.636680,1406.391290,2451.505594,9770.718434
483.637005,444.123565,919.314598,9104.533087
483.637330,370.102971,-612.876398,8586.388927
483.637656,814.226536,-153.219100,8734.430116
483.637981,888.247130,1225.752797,9252.574275
483.638306,592.164754,689.485948,10732.986159
483.638631,222.061783,0.000000,11325.150913
483.638956,2072.576638,-1149.143247,11029.068536
483.639281,3552.988522,-536.266849,10807.006753
483.639606,2442.679609,995.924147,9030.512492
483.639931,1184.329507,2221.676944,9474.636058
483.640256,1924.535449,1991.848295,10510.924376
483.640581,74.020594,0.000000,9992.780217
483.640907,-1110.308913,-1455.581446,7772.162391
483.641232,-1998.556043,-1532.190996,7698.141797
483.641557,-2590.720797,459.657299,8068.244768
483.641882,-2516.700203,536.266849,10140.821405
483.642207,-3849.070898,-1455.581446,9918.759623
483.642532,-2812.782580,-2528.115143,7105.977043
483.642857,-296.082377,919.314598,6217.729913
483.643182,2294.638420,4443.353888,7402.059420
483.643507,1332.370696,4519.963438,8660.409521
483.643832,962.267725,919.314598,9030.512492
483.644158,888.247130,-153.219100,8882.471304
483.644483,518.144159,1302.362347,9030.512492
483.644808,-666.185348,1225.752797,9474.636058
483.645133,-666.185348,-459.657299,10436.903782
483.645458,148.041188,-1455.581446,10214.842000
483.645783,888.247130,229.828649,11029.068536
483.646108,1406.391290,1762.019645,10955.047942
483.646433,1776.494261,2451.505594,9770.718434
483.646758,1702.473667,2374.896044,9474.636058
483.647083,1998.556043,1378.971896,9992.780217
483.647409,1258.350101,995.924147,10510.924376
483.647734,0.000000,919.314598,9696.697840
483.648059,74.020594,995.924147,9474.636058
483.648384,222.061783,383.047749,10436.903782
483.648709,-740.205942,229.828649,9622.677246
483.649034,-444.123565,229.828649,7846.182985
483.649359,592.164754,2374.896044,8586.388927
483.649684,1110.308913,3370.820191,8808.450710
483.650009,0.000000,2528.115143,7994.224174
483.650334,-814.226536,459.657299,7179.997637
483.650659,-1850.514855,0.000000,6883.915261
483.650985,-2442.679609,689.485948,8290.306550
483.651310,-2442.679609,612.876398,10436.903782
483.651635,-2738.761985,-459.657299,10510.924376
483.651960,-2886.803174,-1991.848295,8882.471304
483.652285,-1258.350101,-1072.533697,8216.285956
483.652610,962.267725,1608.800546,7550.100608
483.652935,1258.350101,3447.429741,8438.347739
483.653260,1776.494261,1302.362347,9400.615463
483.653585,1702.473667,1378.971896,9696.697840
483.653910,1110.308913,1455.581446,11177.109724
483.654236,1406.391290,612.876398,10436.903782
483.654561,74.020594,-995.924147,10362.883188
483.654886,-370.102971,-1455.581446,10658.965565
483.655211,740.205942,229.828649,12435.459826
483.655536,74.020594,-306.438199,11917.315666
483.655861,740.205942,-995.924147,9030.512492
483.656186,592.164754,459.657299,7550.100608
483.656511,1184.329507,1991.848295,9474.636058
483.656836,518.144159,2221.676944,9474.636058
483.657161,-370.102971,153.219100,8364.327145
483.657487,-1776.494261,-1608.800546,8142.265362
483.657812,-2220.617826,-612.876398,8290.306550
483.658137,-3552.988522,612.876398,9252.574275
483.658462,-3182.885551,-842.705048,9474.636058
483.658787,-1924.535449,-1532.190996,8660.409521
483.659112,222.061783,-536.266849,8290.306550
483.659437,1554.432478,1838.629195,8438.347739
483.659762,962.267725,2528.115143,8142.265362
483.660087,1628.453072,229.828649,8290.306550
483.660412,2516.700203,-229.828649,8808.450710
483.660738,1554.432478,842.705048,9474.636058
483.661063,888.247130,1225.752797,10732.986159
483.661388,888.247130,-612.876398,9844.739029
483.661713,-1480.411884,-1532.190996,10066.800811
483.662038,1184.329507,-1532.190996,9326.594869
483.662363,2960.823768,1685.410096,10140.821405
483.662688,1406.391290,2451.505594,10584.944971
483.663013,1480.411884,1532.190996,9474.636058
483.663338,1480.411884,459.657299,8364.327145
483.663663,74.020594,766.095498,9400.615463
483.663989,-1554.432478,-306.438199,8364.327145
483.664314,-2738.761985,-612.876398,8882.471304
483.664639,-1184.329507,-1149.143247,11029.068536
483.664964,-2590.720797,-766.095498,12065.356855
483.665289,-3923.091493,-2068.457845,8808.450710
483.665614,-1702.473667,-1455.581446,6809.894666
483.665939,1184.329507,2145.067394,7846.182985
483.666264,2146.597232,4519.963438,9400.615463
483.666589,2294.638420,2604.724693,8512.368333
483.666914,1924.535449,153.219100,7105.977043
483.667240,1184.329507,1302.362347,9030.512492
483.667565,1406.391290,2911.162892,9770.718434
483.667890,0.000000,995.924147,10584.944971
483.668215,296.082377,-689.485948,9622.677246
483.668540,0.000000,0.000000,9400.615463
483.668865,740.205942,1225.752797,8956.491898
483.669190,444.123565,3217.601092,7772.162391
483.669515,1258.350101,2451.505594,8438.347739
483.669840,962.267725,1991.848295,9252.574275
483.670165,444.123565,1838.629195,9992.780217
483.670491,-666.185348,1302.362347,9548.656652
483.670816,-1554.432478,612.876398,8956.491898
483.671141,-2368.659014,-1378.971896,9104.533087
483.671466,-1776.494261,76.609550,9844.739029
483.671791,-2368.659014,76.609550,10436.903782
483.672116,-1998.556043,0.000000,10362.883188
483.672441,1332.370696,536.266849,8882.471304
483.672766,1554.432478,3140.991542,9178.553681
483.673091,-1258.350101,2145.067394,9474.636058
483.673416,-814.226536,-153.219100,7624.121203
483.673742,0.000000,-383.047749,7550.100608
483.674067,-1258.350101,1302.362347,10658.965565
483.674392,-2664.741391,459.657299,10658.965565
483.674717,-2738.761985,-1072.533697,9474.636058
483.675042,-518.144159,-2068.457845,8068.244768
483.675367,592.164754,0.000000,9844.739029
483.675692,740.205942,2528.115143,9622.677246
483.676017,1258.350101,2145.067394,8660.409521
483.676342,592.164754,229.828649,8734.430116
483.676667,814.226536,-919.314598,8068.244768
483.676993,0.000000,766.095498,8882.471304
483.677318,0.000000,153.219100,9252.574275
483.677643,-1258.350101,-842.705048,10436.903782
483.677968,-1258.350101,-2068.457845,10881.027347
483.678293,-518.144159,-1149.143247,10732.986159
483.678618,0.000000,0.000000,9326.594869
483.678943,814.226536,919.314598,7920.203579
483.679268,2960.823768,1685.410096,9548.656652
483.679593,3108.864956,1838.629195,10140.821405
483.679918,1924.535449,1225.752797,9104.533087
483.680244,74.020594,0.000000,8808.450710
483.680569,-148.041188,0.000000,7994.224174
483.680894,74.020594,-383.047749,9548.656652
483.681219,-592.164754,-612.876398,10955.047942
483.681544,-1258.350101,-995.924147,9474.636058
483.681869,-740.205942,-766.095498,8956.491898
483.682194,1110.308913,1455.581446,9252.574275
483.682519,888.247130,3447.429741,9770.718434
483.682844,296.082377,2068.457845,8956.491898
483.683169,518.144159,-306.438199,7772.162391
483.683495,1258.350101,229.828649,9474.636058
483.683820,-296.082377,1608.800546,10881.027347
483.684145,-2220.617826,766.095498,10214.842000
483.684470,-2294.638420,-1915.238745,9844.739029
483.684795,-1258.350101,-1915.238745,8512.368333
483.685120,-962.267725,306.438199,9326.594869
483.685445,222.061783,1532.190996,8808.450710
483.685770,1332.370696,2757.943793,9400.615463
483.686095,1998.556043,2221.676944,9104.533087
483.686420,1850.514855,1762.019645,8512.368333
483.686746,1924.535449,1762.019645,7476.080014
483.687071,1110.308913,2987.772442,7105.977043
483.687396,148.041188,2528.115143,9030.512492
483.687721,370.102971,919.314598,10732.986159
483.688046,-1406.391290,306.438199,9992.780217
483.688371,-666.185348,-612.876398,8882.471304
483.688696,888.247130,842.705048,8512.368333
483.689021,296.082377,2451.505594,9474.636058
483.689346,-518.144159,2221.676944,9770.718434
483.689671,-1184.329507,0.000000,8956.491898
483.689996,-740.205942,-919.314598,8290.306550
483.690322,-370.102971,1149.143247,8808.450710
483.690647,-2590.720797,1532.190996,10807.006753
483.690972,-2960.823768,-536.266849,10288.862594
483.691297,-1036.288319,-1608.800546,9548.656652
483.691622,814.226536,-612.876398,10140.821405
483.691947,518.144159,1455.581446,8586.388927
483.692272,444.123565,2451.505594,8734.430116
483.692597,1184.329507,2068.457845,10066.800811
483.692922,1554.432478,689.485948,10140.821405
483.693247,-296.082377,-612.876398,9400.615463
483.693573,0.000000,153.219100,7402.059420
483.693898,444.123565,1762.019645,9252.574275
483.694223,-518.144159,995.924147,10288.862594
483.694548,-1332.370696,-995.924147,10362.883188
483.694873,-814.226536,-1532.190996,9030.512492
483.695198,370.102971,919.314598,8142.265362
483.695523,2220.617826,2757.943793,9548.656652
483.695848,2220.617826,2221.676944,9474.636058
483.696173,-74.020594,995.924147,8438.347739
483.696498,148.041188,766.095498,7920.203579
483.696824,-296.082377,995.924147,8142.265362
483.697149,-2294.638420,-612.876398,8290.306550
483.697474,-3627.009116,-1302.362347,9622.677246
483.697799,-3256.906145,-1991.848295,10658.965565
483.698124,-2664.741391,-1149.143247,10807.006753
483.698449,148.041188,-995.924147,8882.471304
483.698774,814.226536,1302.362347,9474.636058
483.699099,592.164754,3217.601092,8438.347739
483.699424,1776.494261,2911.162892,8660.409521
483.699749,2812.782580,306.438199,9030.512492
483.700075,888.247130,842.705048,9030.512492
483.700400,592.164754,1149.143247,9770.718434
483.700725,740.205942,1378.971896,10436.903782
483.701050,1036.288319,-459.657299,11547.212695
483.701375,296.082377,-1378.971896,11621.233289
483.701700,1184.329507,-153.219100,8734.430116
483.702025,2294.638420,1838.629195,9030.512492
483.702350,2664.741391,3064.381992,9696.697840
483.702675,1850.514855,2145.067394,9252.574275
483.703000,962.267725,689.485948,9622.677246
483.703326,148.041188,459.657299,7772.162391
483.703651,0.000000,766.095498,8512.368333
483.703976,-592.164754,0.000000,9400.615463
483.704301,-2664.741391,153.219100,9474.636058
483.704626,-2220.617826,-842.705048,8586.388927
483.704951,-1036.288319,-306.438199,8512.368333
483.705276,-370.102971,1378.971896,8808.450710
483.705601,-592.164754,1608.800546,7698.141797
483.705926,0.000000,919.314598,8364.327145
483.706251,1036.288319,689.485948,9400.615463
483.706577,2442.679609,612.876398,9696.697840
483.706902,1702.473667,459.657299,11029.068536
483.707227,296.082377,229.828649,11325.150913
483.707552,740.205942,153.219100,9252.574275
483.707877,1110.308913,306.438199,10436.903782
483.708202,1628.453072,766.095498,9326.594869
483.708527,1702.473667,2145.067394,8142.265362
483.708852,1110.308913,2451.505594,8882.471304
483.709177,888.247130,1532.190996,8438.347739
483.709502,-888.247130,76.609550,9252.574275
483.709828,-1924.535449,0.000000,8586.388927
483.710153,-814.226536,0.000000,8216.285956
483.710478,-1702.473667,0.000000,10140.821405
483.710803,-1628.453072,0.000000,9770.718434
483.711128,-1850.514855,0.000000,9696.697840
483.711453,222.061783,0.000000,8142.265362
483.711778,1480.411884,2374.896044,8734.430116
483.712103,888.247130,2987.772442,9992.780217
483.712428,0.000000,1838.629195,8956.491898
483.712753,0.000000,76.609550,8808.450710
483.713079,-1258.350101,-76.609550,9474.636058
483.713404,-3330.926739,76.609550,9104.533087
483.713729,-3775.050304,-383.047749,9474.636058
483.714054,-2812.782580,-1915.238745,9474.636058
483.714379,-2738.761985,-1838.629195,9844.739029
483.714704,-1776.494261,0.000000,9400.615463
483.715029,-370.102971,1608.800546,8956.491898
483.715354,74.020594,1455.581446,8808.450710
483.715679,1332.370696,1915.238745,8216.285956
483.716004,1924.535449,689.485948,9104.533087
483.716330,814.226536,306.438199,8882.471304
483.716655,-370.102971,612.876398,8438.347739
483.716980,-592.164754,-306.438199,10066.800811
483.717305,-962.267725,-1072.533697,10140.821405
483.717630,-1850.514855,-1991.848295,10066.800811
483.717955,-592.164754,-2221.676944,9326.594869
483.718280,962.267725,-459.657299,8586.388927
483.718605,1258.350101,1225.752797,9844.739029
483.718930,1184.329507,1532.190996,10288.862594
483.719255,814.226536,76.609550,9474.636058
483.719581,1998.556043,-306.438199,8438.347739
483.719906,1628.453072,153.219100,8512.368333
483.720231,-296.082377,383.047749,9400.615463
483.720556,-1258.350101,229.828649,11399.171507
483.720881,148.041188,-689.485948,10658.965565
483.721206,1480.411884,-1455.581446,9474.636058
483.721531,1406.391290,0.000000,8438.347739
483.721856,888.247130,2451.505594,7550.100608
483.722181,2146.597232,2068.457845,9178.553681
483.722506,2294.638420,612.876398,8956.491898
483.722832,1184.329507,0.000000,9844.739029
483.723157,1110.308913,1532.190996,8734.430116
483.723482,1184.329507,1991.848295,9400.615463
483.723807,1332.370696,842.705048,11029.068536
483.724132,148.041188,766.095498,11029.068536
483.724457,0.000000,842.705048,9622.677246
483.724782,1702.473667,2451.505594,8290.306550
483.725107,1480.411884,2834.553343,9252.574275
483.725432,-814.226536,2757.943793,9104.533087
483.725757,-1776.494261,1915.238745,8364.327145
483.726083,-1258.350101,459.657299,8068.244768
483.726408,-1998.556043,153.219100,7772.162391
483.726733,-2368.659014,919.314598,8882.471304
483.727058,-2886.803174,1072.533697,9622.677246
483.727383,-3034.844362,689.485948,8956.491898
483.727708,-1702.473667,0.000000,8068.244768
483.728033,740.205942,1915.238745,7698.141797
483.728358,1036.288319,4979.620737,8364.327145
483.728683,222.061783,3677.258390,9252.574275
483.729008,962.267725,536.266849,7846.182985
483.729333,296.082377,1072.533697,9252.574275
483.729658,-740.205942,1072.533697,8660.409521
483.729984,-1110.308913,1225.752797,9622.677246
483.730309,0.000000,306.438199,10658.965565
483.730634,74.020594,306.438199,10658.965565
483.730959,0.000000,-766.095498,10362.883188
483.731284,518.144159,536.266849,9326.594869
483.731609,2294.638420,2451.505594,9474.636058
483.731934,2294.638420,2068.457845,10732.986159
483.732259,1628.453072,229.828649,9770.718434
483.732584,-148.041188,-842.705048,9474.636058
483.732909,-740.205942,-612.876398,9252.574275
483.733234,0.000000,-459.657299,9400.615463
483.733560,-1258.350101,-1378.971896,10140.821405
483.733885,-2294.638420,-2298.286494,9252.574275
483.734210,-1258.350101,-1838.629195,9104.533087
483.734535,222.061783,0.000000,8956.491898
483.734860,370.102971,1072.533697,8364.327145
483.735185,-666.185348,689.485948,8808.450710
483.735510,-370.102971,536.266849,8512.368333
483.735835,1628.453072,229.828649,9030.512492
483.736160,1036.288319,-1378.971896,7994.224174
483.736485,-2812.782580,-1532.190996,8882.471304
483.736810,-2738.761985,-459.657299,9104.533087
483.737135,-888.247130,-536.266849,10140.821405
483.737461,-222.061783,-2374.896044,9474.636058
483.737786,-1110.308913,-1072.533697,8364.327145
483.738111,592.164754,2298.286494,8882.471304
483.738436,1406.391290,2834.553343,8142.265362
483.738761,1110.308913,-536.266849,8216.285956
483.739086,-222.061783,-1378.971896,10436.903782
483.739411,-666.185348,689.485948,11325.150913
483.739736,-296.082377,842.705048,10658.965565
483.740061,1628.453072,-2298.286494,11251.130318
483.740386,740.205942,-306.438199,11621.233289
483.740711,148.041188,1378.971896,10584.944971
483.741037,1924.535449,2145.067394,9104.533087
483.741362,3849.070898,1915.238745,8882.471304
483.741687,888.247130,2604.724693,10658.965565
483.742012,-518.144159,2834.553343,7624.121203
483.742337,-222.061783,383.047749,7698.141797
483.742662,-814.226536,229.828649,8142.265362
483.742987,-3108.864956,229.828649,9918.759623
483.743312,-4515.256246,-689.485948,9474.636058
483.743637,-2368.659014,-1225.752797,7402.059420
483.743962,-2146.597232,229.828649,8512.368333
483.744287,-740.205942,1302.362347,8586.388927
483.744612,0.000000,2145.067394,7254.018232
483.744938,1332.370696,1378.971896,7254.018232
483.745263,1480.411884,2528.115143,8290.306550
483.745588,1924.535449,2145.067394,9548.656652
483.745913,74.020594,1685.410096,9252.574275
483.746238,1332.370696,306.438199,9104.533087
483.746563,1184.329507,612.876398,10955.047942
483.746888,1702.473667,229.828649,10807.006753
483.747213,1480.411884,1072.533697,10658.965565
483.747538,2960.823768,1991.848295,9474.636058
483.747863,3330.926739,3140.991542,9178.553681
483.748188,3404.947333,2068.457845,9696.697840
483.748514,1480.411884,1532.190996,8956.491898
483.748839,296.082377,919.314598,10214.842000
483.749164,-222.061783,919.314598,9622.677246
483.749489,-2220.617826,-1149.143247,9326.594869
483.749814,-2738.761985,-2298.286494,9770.718434
483.750139,-3330.926739,-842.705048,9474.636058
483.750464,-2738.761985,-1072.533697,8660.409521
483.750789,-1258.350101,-1225.752797,7994.224174
483.751114,0.000000,1149.143247,9400.615463
483.751439,740.205942,2834.553343,10140.821405
483.751764,1480.411884,1838.629195,7920.203579
483.752090,2368.659014,-766.095498,8142.265362
483.752415,2146.597232,-153.219100,8956.491898
483.752740,518.144159,2451.505594,9252.574275
483.753065,518.144159,229.828649,9474.636058
483.753390,888.247130,-2145.067394,10214.842000
483.753715,370.102971,-1302.362347,10510.924376
483.754040,296.082377,995.924147,9474.636058
483.754365,1850.514855,1072.533697,8438.347739
483.754690,1258.350101,1072.533697,8512.368333
483.755015,222.061783,995.924147,9474.636058
483.755340,-1258.350101,919.314598,9104.533087
483.755665,-2738.761985,-1072.533697,8142.265362
483.755991,-3997.112087,-1225.752797,9326.594869
483.756316,-4663.297435,-1378.971896,10658.965565
483.756641,-5329.482782,-1991.848295,10732.986159
483.756966,-4959.379811,-3600.648841,9474.636058
483.757291,-3256.906145,-4136.915689,9400.615463
483.757616,-1184.329507,229.828649,9770.718434
483.757941,-444.123565,2757.943793,9844.739029
483.758266,0.000000,1225.752797,8808.450710
483.758591,740.205942,-612.876398,6513.812290
483.758916,1406.391290,459.657299,8216.285956
483.759241,1406.391290,2374.896044,8956.491898
483.759567,888.247130,2221.676944,10436.903782
483.759892,2516.700203,-306.438199,9770.718434
483.760217,2738.761985,0.000000,10214.842000
483.760542,1776.494261,1991.848295,9178.553681
483.760867,2812.782580,3600.648841,8512.368333
483.761192,4219.173869,3370.820191,9030.512492
483.761517,2442.679609,3370.820191,9104.533087
483.761842,592.164754,2068.457845,10584.944971
483.762167,-296.082377,1302.362347,9178.553681
483.762492,-1480.411884,229.828649,7994.224174
483.762817,-2072.576638,-153.219100,10658.965565
483.763142,-2590.720797,766.095498,10732.986159
483.763468,-2146.597232,1072.533697,8808.450710
483.763793,-888.247130,0.000000,8364.327145
483.764118,888.247130,1762.019645,7920.203579
483.764443,1924.535449,4903.011187,8364.327145
483.764768,2812.782580,4903.011187,8586.388927
483.765093,2590.720797,3217.601092,8068.244768
483.765418,2220.617826,2451.505594,8956.491898
483.765743,1258.350101,3524.039291,9104.533087
483.766068,222.061783,3140.991542,9178.553681
483.766393,-1184.329507,229.828649,9104.533087
483.766718,-740.205942,0.000000,8956.491898
483.767044,296.082377,1149.143247,10140.821405
483.767369,740.205942,2374.896044,9252.574275
483.767694,0.000000,1532.190996,8660.409521
483.768019,962.267725,1685.410096,8660.409521
483.768344,1406.391290,1838.629195,8438.347739
483.768669,74.020594,1149.143247,9400.615463
483.768994,-592.164754,0.000000,8956.491898
483.769319,-814.226536,0.000000,9992.780217
483.769644,-1258.350101,-689.485948,10658.965565
483.769969,-2220.617826,-1685.410096,9918.759623
483.770294,-1850.514855,-2528.115143,9474.636058
483.770619,-888.247130,-1149.143247,8586.388927
483.770945,666.185348,842.705048,10288.862594
483.771270,740.205942,0.000000,10658.965565
483.771595,0.000000,-919.314598,9178.553681
483.771920,-592.164754,-1762.019645,8808.450710
483.772245,0.000000,-1532.190996,9178.553681
483.772570,0.000000,-306.438199,10881.027347
483.772895,-1184.329507,-2145.067394,10214.842000
483.773220,0.000000,-3140.991542,10288.862594
483.773545,518.144159,-2987.772442,10214.842000
483.773870,1110.308913,-306.438199,9326.594869
483.774195,962.267725,1302.362347,9030.512492
483.774521,222.061783,383.047749,8438.347739
483.774846,740.205942,-766.095498,7254.018232
483.775171,0.000000,-306.438199,8364.327145
483.775496,-1776.494261,-612.876398,7476.080014
483.775821,-3256.906145,-1608.800546,8290.306550
483.776146,-2442.679609,-2757.943793,9326.594869
483.776471,-1554.432478,-2298.286494,10288.862594
483.776796,-2368.659014,-1608.800546,10436.903782
483.777121,-1258.350101,-842.705048,9400.615463
483.777446,888.247130,229.828649,9400.615463
483.777771,1332.370696,1532.190996,10436.903782
483.778096,814.226536,1378.971896,10140.821405
483.778422,888.247130,306.438199,9622.677246
483.778747,888.247130,383.047749,9178.553681
483.779072,-370.102971,1378.971896,10436.903782
483.779397,-1850.514855,1225.752797,10955.047942
483.779722,-1406.391290,76.609550,10362.883188
483.780047,-444.123565,-306.438199,7846.182985
483.780372,1850.514855,1378.971896,8586.388927
483.780697,1406.391290,4213.525239,9474.636058
483.781022,148.041188,4673.182538,9252.574275
483.781347,962.267725,2604.724693,8364.327145
483.781672,1184.329507,1149.143247,7624.121203
483.781998,148.041188,1991.848295,7994.224174
483.782323,-222.061783,3217.601092,9622.677246
483.782648,-740.205942,1762.019645,10436.903782
483.782973,814.226536,153.219100,9104.533087
483.783298,1554.432478,2068.457845,9400.615463
483.783623,2590.720797,3907.087040,7846.182985
483.783948,2886.803174,5209.449386,6291.750507
483.784273,3330.926739,4290.134789,8512.368333
483.784598,2368.659014,3677.258390,9548.656652
483.784923,222.061783,2451.505594,8586.388927
483.785248,-740.205942,612.876398,8068.244768
483.785574,-1332.370696,766.095498,9326.594869
483.785899,-3552.988522,0.000000,11695.253884
483.786224,-4663.297435,-689.485948,11325.150913
483.786549,-3404.947333,-2834.553343,9622.677246
483.786874,-1850.514855,-1838.629195,8586.388927
483.787199,370.102971,1608.800546,9030.512492
483.787524,370.102971,2757.943793,10362.883188
483.787849,1036.288319,1225.752797,8956.491898
483.788174,1628.453072,-459.657299,9474.636058
483.788499,2960.823768,995.924147,9326.594869
483.788824,2294.638420,2834.553343,9918.759623
483.789149,1184.329507,1302.362347,10214.842000
483.789475,2072.576638,-612.876398,8808.450710
483.789800,2812.782580,-766.095498,9474.636058
483.790125,1924.535449,1378.971896,9252.574275
483.790450,1036.288319,2145.067394,8216.285956
483.790775,2590.720797,1608.800546,8142.265362
483.791100,3701.029710,2451.505594,8142.265362
483.791425,222.061783,842.705048,9400.615463
483.791750,-1258.350101,76.609550,8956.491898
483.792075,-2442.679609,0.000000,7846.182985
483.792400,-2738.761985,-1608.800546,11103.089130
483.792725,-2516.700203,-2145.067394,11547.212695
483.793051,-5033.400406,-1762.019645,11029.068536
483.793376,-3256.906145,-2528.115143,9474.636058
483.793701,-2072.576638,-1455.581446,8660.409521
483.794026,-2146.597232,536.266849,10955.047942
483.794351,-1776.494261,1225.752797,10214.842000
483.794676,-666.185348,612.876398,8364.327145
483.795001,-740.205942,-689.485948,9918.759623
483.795326,0.000000,1455.581446,8660.409521
483.795651,-888.247130,1915.238745,9326.594869
483.795976,-1702.473667,-536.266849,9696.697840
483.796301,518.144159,-306.438199,8068.244768
483.796626,1776.494261,1072.533697,9326.594869
483.796952,2442.679609,2451.505594,8808.450710
483.797277,962.267725,2221.676944,8438.347739
483.797602,962.267725,1378.971896,7772.162391
483.797927,1406.391290,1302.362347,7920.203579
483.798252,296.082377,-459.657299,7772.162391
483.798577,-962.267725,-229.828649,8290.306550
483.798902,-1184.329507,0.000000,10066.800811
483.799227,-1776.494261,-919.314598,10066.800811
483.799552,-2220.617826,-2834.553343,9474.636058
483.799877,-2220.617826,-2298.286494,9474.636058
483.800202,-1184.329507,459.657299,8216.285956
483.800528,222.061783,459.657299,9548.656652
483.800853,592.164754,-612.876398,11399.171507
483.801178,-2368.659014,-1685.410096,10436.903782
483.801503,-3552.988522,-2451.505594,8956.491898
483.801828,-1332.370696,-2681.334243,8734.430116
483.802153,-1480.411884,-2604.724693,11473.192101
483.802478,-2812.782580,-1915.238745,11695.253884
483.802803,-1998.556043,-2911.162892,9992.780217
483.803128,0.000000,-2221.676944,8734.430116
483.803453,1702.473667,0.000000,7476.080014
483.803778,1628.453072,1915.238745,8142.265362
483.804103,3478.967927,2911.162892,8438.347739
483.804429,4219.173869,2374.896044,8290.306550
483.804754,3034.844362,0.000000,9844.739029
483.805079,444.123565,76.609550,7994.224174
483.805404,-1332.370696,-306.438199,7772.162391
483.805729,-1776.494261,-1225.752797,9992.780217
483.806054,-2664.741391,-1838.629195,11473.192101
483.806379,-4441.235652,-3140.991542,10066.800811
483.806704,-3478.967927,-3907.087040,7846.182985
483.807029,-2590.720797,-1455.581446,7179.997637
483.807354,-3404.947333,1532.190996,9400.615463
483.807679,-1850.514855,1838.629195,9918.759623
483.808005,-2590.720797,-612.876398,10584.944971
483.808330,-4219.173869,-2834.553343,9622.677246
483.808655,-4145.153275,-2451.505594,8364.327145
483.808980,-4441.235652,-1685.410096,9474.636058
483.809305,-4811.338623,-1915.238745,9918.759623
483.809630,-4811.338623,-2451.505594,11473.192101
483.809955,-3849.070898,-4060.306139,10732.986159
483.810280,-2368.659014,-2068.457845,8216.285956
483.810605,-962.267725,0.000000,6587.832884
483.810930,0.000000,1685.410096,7550.100608
483.811255,1924.535449,2604.724693,8734.430116
483.811580,3330.926739,2528.115143,9844.739029
483.811906,1702.473667,306.438199,8290.306550
483.812231,-814.226536,-842.705048,7328.038826
483.812556,-2072.576638,-919.314598,8364.327145
483.812881,-1924.535449,0.000000,11251.130318
483.813206,-3034.844362,-3140.991542,11843.295072
483.813531,-4811.338623,-6052.154434,9400.615463
483.813856,-4589.276840,-5439.278036,8660.409521
483.814181,-3701.029710,-1608.800546,8956.491898
483.814506,-4071.132681,-842.705048,8216.285956
483.814831,-3701.029710,-2298.286494,8216.285956
483.815156,-1406.391290,-2298.286494,8660.409521
483.815482,-740.205942,689.485948,9844.739029
483.815807,-444.123565,459.657299,9030.512492
483.816132,-2516.700203,-1532.190996,9178.553681
483.816457,-3330.926739,-2987.772442,10214.842000
483.816782,-3034.844362,-4290.134789,10732.986159
483.817107,-2516.700203,-5669.106685,10658.965565
483.817432,-3997.112087,-6205.373534,10881.027347
483.817757,-4367.215058,-4673.182538,11917.315666
483.818082,-2072.576638,-1915.238745,11325.150913
483.818407,518.144159,-1532.190996,9992.780217
483.818732,814.226536,-2221.676944,7772.162391
483.819058,74.020594,306.438199,7179.997637
483.819383,962.267725,2757.943793,8142.265362
483.819708,666.185348,2681.334243,8438.347739
483.820033,-444.123565,-459.657299,8882.471304
483.820358,-1850.514855,-1149.143247,8216.285956
483.820683,-1628.453072,-689.485948,8512.368333
483.821008,-2738.761985,-1915.238745,10584.944971
483.821333,-6365.771101,-3600.648841,12361.439231
483.821658,-8290.306550,-6665.030833,10140.821405
483.821983,-6143.709319,-7890.783629,9474.636058
483.822308,-4589.276840,-4290.134789,9696.697840
483.822633,-3627.009116,229.828649,9918.759623
483.822959,-1258.350101,1915.238745,8808.450710
483.823284,962.267725,1608.800546,8290.306550
483.823609,1702.473667,3217.601092,7994.224174
483.823934,1628.453072,5592.497135,7031.956449
483.824259,814.226536,4903.011187,6291.750507
483.824584,-962.267725,2298.286494,7179.997637
483.824909,-4293.194464,-612.876398,8364.327145
483.825234,-7476.080014,-1685.410096,9178.553681
483.825559,-7031.956449,-3370.820191,8438.347739
483.825884,-5995.668130,-5056.230287,10140.821405
483.826209,-5847.626942,-5745.716235,11399.171507
483.826535,-4737.318029,-4903.011187,11843.295072
483.826860,-1998.556043,-1762.019645,11695.253884
483.827185,814.226536,-919.314598,11325.150913
483.827510,2220.617826,-306.438199,8956.491898
483.827835,4145.153275,2145.067394,8364.327145
483.828160,6217.729913,4903.011187,8956.491898
483.828485,5995.668130,5132.839837,8808.450710
483.828810,4441.235652,3753.867940,8808.450710
483.829135,2664.741391,2374.896044,7846.182985
483.829460,-1184.329507,1378.971896,7105.977043
483.829785,-4663.297435,-766.095498,7105.977043
483.830110,-6809.894666,-3370.820191,7624.121203
483.830436,-9992.780217,-6205.373534,8660.409521
483.830761,-12879.583391,-7967.393179,8808.450710
483.831086,-11251.130318,-9806.022374,9178.553681
483.831411,-9918.759623,-9422.974625,10362.883188
483.831737,-7920.203579,-7814.174080,11325.150913
483.832062,-5033.400406,-6052.154434,12583.501014
483.832387,-592.164754,-2604.724693,11473.192101
483.832712,4737.318029,536.266849,11399.171507
483.833038,7402.059420,2068.457845,10881.027347
483.833363,7105.977043,3447.429741,9474.636058
483.833688,6883.915261,3600.648841,8290.306550
483.834013,6809.894666,2834.553343,9030.512492
483.834339,3923.091493,1915.238745,9992.780217
483.834664,-666.185348,-383.047749,9474.636058
483.834989,-3775.050304,-2911.162892,8956.491898
483.835314,-5551.544565,-4443.353888,9178.553681
483.835639,-6809.894666,-5669.106685,9918.759623
483.835965,-8808.450710,-6435.202183,9400.615463
483.836290,-9770.718434,-6741.640382,7328.038826
483.836615,-7550.100608,-5975.544884,7179.997637
483.836940,-4367.215058,-2834.553343,8068.244768
483.837266,-3034.844362,-229.828649,7624.121203
483.837591,-1776.494261,689.485948,8660.409521
483.837916,-592.164754,842.705048,7550.100608
483.838241,592.164754,1532.190996,7994.224174
483.838567,814.226536,2221.676944,8216.285956
483.838892,-740.205942,1378.971896,7994.224174
483.839217,-2146.597232,-383.047749,8808.450710
483.839542,-2516.700203,-2068.457845,10140.821405
483.839867,-3775.050304,-2604.724693,11843.295072
483.840193,-5033.400406,-3907.087040,12731.542202
483.840518,-4959.379811,-5592.497135,11473.192101
483.840843,-4959.379811,-6052.154434,11547.212695
483.841168,-3701.029710,-5362.668486,11621.233289
483.841494,-2072.576638,-2911.162892,11399.171507
483.841819,-518.144159,-153.219100,9622.677246
483.842144,888.247130,306.438199,9400.615463
483.842469,1998.556043,1455.581446,9178.553681
483.842795,2294.638420,2834.553343,8290.306550
483.843120,2220.617826,2987.772442,7698.141797
483.843445,814.226536,2528.115143,7254.018232
483.843770,-592.164754,1302.362347,6957.935855
483.844096,-888.247130,229.828649,7994.224174
483.844421,-2516.700203,-919.314598,8068.244768
483.844746,-5033.400406,-1915.238745,7772.162391
483.845071,-5477.523971,-4290.134789,8660.409521
483.845396,-4885.359217,-4903.011187,9770.718434
483.845722,-5329.482782,-4519.963438,10214.842000
483.846047,-4959.379811,-4519.963438,9918.759623
483.846372,-3701.029710,-4443.353888,10288.862594
483.846697,-2516.700203,-3140.991542,10510.924376
483.847023,-518.144159,-1378.971896,10362.883188
483.847348,740.205942,229.828649,10658.965565
483.847673,740.205942,919.314598,10066.800811
483.847998,1258.350101,689.485948,9474.636058
483.848324,2368.659014,383.047749,9622.677246
483.848649,1850.514855,1072.533697,9252.574275
483.848974,74.020594,612.876398,9400.615463
483.849299,-962.267725,-459.657299,9622.677246
483.849624,-518.144159,-1225.752797,10214.842000
483.849950,-1332.370696,-1302.362347,10362.883188
483.850275,-2146.597232,-1762.019645,9770.718434
483.850600,-2738.761985,-1685.410096,9326.594869
483.850925,-2516.700203,-612.876398,9104.533087
483.851251,-1702.473667,-459.657299,8734.430116
483.851576,-2590.720797,-612.876398,8586.388927
483.851901,-3404.947333,-536.266849,8216.285956
483.852226,-3108.864956,1072.533697,8216.285956
483.852552,-1258.350101,1685.410096,8660.409521
483.852877,0.000000,1455.581446,8364.327145
483.853202,-888.247130,1149.143247,7476.080014
483.853527,-1258.350101,2221.676944,7105.977043
483.853853,0.000000,1915.238745,8438.347739
483.854178,-592.164754,612.876398,8364.327145
483.854503,-1332.370696,0.000000,9548.656652
483.854828,-2072.576638,-612.876398,10362.883188
483.855153,-1702.473667,-383.047749,11177.109724
483.855479,-1036.288319,-1685.410096,10362.883188
483.855804,-2072.576638,-1532.190996,10214.842000
483.856129,-2664.741391,-919.314598,9844.739029
483.856454,-2294.638420,76.609550,9252.574275
483.856780,-1850.514855,-536.266849,8956.491898
483.857105,-2664.741391,-995.924147,9252.574275
483.857430,-4293.194464,-1762.019645,8512.368333
483.857755,-6439.791695,-1455.581446,6809.894666
483.858081,-6291.750507,-2451.505594,7476.080014
483.858406,-5107.421000,-4136.915689,9104.533087
483.858731,-7179.997637,-4903.011187,8438.347739
483.859056,-7476.080014,-5898.935335,8660.409521
483.859381,-6587.832884,-5975.544884,9104.533087
483.859707,-4737.318029,-5669.106685,10140.821405
483.860032,-2368.659014,-5286.058936,10584.944971
483.860357,-2294.638420,-5362.668486,10436.903782
483.860682,-1036.288319,-4903.011187,10362.883188
483.861008,1776.494261,-4213.525239,11029.068536
483.861333,3627.009116,-3447.429741,11325.150913
483.861658,2146.597232,-2834.553343,10658.965565
483.861983,1406.391290,-2757.943793,10510.924376
483.862309,1776.494261,-2834.553343,10362.883188
483.862634,1406.391290,-3140.991542,10510.924376
483.862959,-1406.391290,-3600.648841,9326.594869
483.863284,-3108.864956,-4290.134789,8956.491898
483.863610,-4515.256246,-5515.887586,8586.388927
483.863935,-4737.318029,-5745.716235,9252.574275
483.864260,-4219.173869,-5286.058936,10807.006753
483.864585,-5551.544565,-3753.867940,9104.533087
483.864910,-5403.503377,-3217.601092,7105.977043
483.865236,-3997.112087,-3294.210641,8216.285956
483.865561,-3404.947333,-2911.162892,8438.347739
483.865886,-4071.132681,-1302.362347,7920.203579
483.866211,-3478.967927,-1072.533697,8438.347739
483.866537,-2516.700203,-842.705048,8660.409521
483.866862,-2516.700203,-842.705048,9474.636058
483.867187,-2294.638420,153.219100,9844.739029
483.867512,-1258.350101,-612.876398,10066.800811
483.867838,-1332.370696,-995.924147,10510.924376
483.868163,-444.123565,-229.828649,10732.986159
483.868488,518.144159,1072.533697,10955.047942
483.868813,888.247130,1685.410096,10362.883188
483.869138,2220.617826,2451.505594,9844.739029
483.869464,3034.844362,3217.601092,9770.718434
483.869789,3404.947333,4749.792088,9030.512492
483.870114,3108.864956,4903.011187,8512.368333
483.870439,2294.638420,5898.935335,7624.121203
483.870765,1480.411884,5592.497135,7772.162391
483.871090,-666.185348,4673.182538,8142.265362
483.871415,-3256.906145,2834.553343,6883.915261
483.871740,-5107.421000,995.924147,6661.853478
483.872066,-7105.977043,-536.266849,7105.977043
483.872391,-7846.182985,-1302.362347,8512.368333
483.872716,-7772.162391,-2451.505594,8586.388927
483.873041,-6661.853478,-2451.505594,8068.244768
483.873366,-4811.338623,-2221.676944,8660.409521
483.873692,-2886.803174,0.000000,8882.471304
483.874017,-962.267725,1685.410096,9030.512492
483.874342,148.041188,1532.190996,9178.553681
483.874667,740.205942,383.047749,9252.574275
483.874993,148.041188,76.609550,9178.553681
483.875318,-666.185348,-995.924147,8956.491898
483.875643,-1776.494261,-2221.676944,10140.821405
483.875968,-3034.844362,-3370.820191,11473.192101
483.876294,-2368.659014,-5209.449386,11547.212695
483.876619,-1850.514855,-6435.202183,12583.501014
483.876944,-2146.597232,-6052.154434,12139.377449
483.877269,-814.226536,-4903.011187,11399.171507
483.877595,296.082377,-4443.353888,10584.944971
483.877920,-370.102971,-3983.696590,9622.677246
483.878245,-444.123565,-3753.867940,8660.409521
483.878570,-814.226536,-3217.601092,9178.553681
483.878895,-1776.494261,-2911.162892,8808.450710
483.879221,-3034.844362,-3677.258390,7772.162391
483.879546,-4663.297435,-3753.867940,8142.265362
483.879871,-5995.668130,-4443.353888,7698.141797
483.880196,-6439.791695,-6128.763984,7254.018232
483.880522,-7031.956449,-7507.735880,8364.327145
483.880847,-8512.368333,-7124.688131,9326.594869
483.881172,-7698.141797,-7507.735880,8956.491898
483.881497,-4589.276840,-7354.516781,10140.821405
483.881823,-3552.988522,-6741.640382,10807.006753
483.882148,-3330.926739,-5745.716235,11769.274478
483.882473,-1110.308913,-4979.620737,12583.501014
483.882798,2072.576638,-3983.696590,12657.521608
483.883123,3034.844362,-1762.019645,12435.459826
483.883449,3182.885551,-842.705048,11029.068536
483.883774,4515.256246,689.485948,9474.636058
483.884099,4959.379811,2987.772442,9770.718434
483.884424,2886.803174,3217.601092,9474.636058
483.884750,444.123565,2374.896044,8364.327145
483.885075,-1628.453072,2374.896044,6069.688724
483.885400,-3552.988522,2221.676944,6513.812290
483.885725,-6143.709319,1455.581446,7105.977043
483.886051,-9252.574275,-766.095498,6587.832884
483.886376,-11769.274478,-3294.210641,7105.977043
483.886701,-11029.068536,-5822.325785,7031.956449
483.887026,-10881.027347,-6205.373534,8068.244768
483.887352,-8512.368333,-4596.572988,10288.862594
483.887677,-3923.091493,-1302.362347,10436.903782
483.888002,-296.082377,383.047749,10658.965565
483.888327,2146.597232,2374.896044,10510.924376
483.888652,5255.462188,5822.325785,9252.574275
483.888978,8808.450710,8273.831378,9178.553681
483.889303,10066.800811,8810.098227,8586.388927
483.889628,8438.347739,7890.783629,8660.409521
483.889953,5255.462188,7277.907231,8956.491898
483.890279,1036.288319,4979.620737,9992.780217
483.890604,-3997.112087,229.828649,9474.636058
483.890929,-8586.388927,-2757.943793,8068.244768
483.891254,-11251.130318,-6281.983084,9326.594869
483.891580,-11399.171507,-7737.564530,9918.759623
483.891905,-9030.512492,-8273.831378,9696.697840
483.892230,-7031.956449,-5898.935335,10807.006753
483.892555,-4367.215058,-2528.115143,8808.450710
483.892880,592.164754,1149.143247,7698.141797
483.893206,7920.203579,4749.792088,8068.244768
483.893531,11473.192101,7890.783629,9474.636058
483.893856,9400.615463,6435.202183,9918.759623
483.894181,7402.059420,4749.792088,8808.450710
483.894507,6809.894666,3600.648841,8660.409521
483.894832,3034.844362,1685.410096,9030.512492
483.895157,-2368.659014,-1915.238745,9696.697840
483.895482,-5699.585753,-4136.915689,11251.130318
483.895808,-8216.285956,-5822.325785,11177.109724
483.896133,-8660.409521,-7967.393179,8734.430116
483.896458,-8808.450710,-9422.974625,7994.224174
483.896783,-8882.471304,-6205.373534,7772.162391
483.897109,-5403.503377,-1762.019645,7698.141797
483.897434,-1924.535449,-1072.533697,10140.821405
483.897759,-148.041188,-2451.505594,9844.739029
