#time,accel_x,accel_y,accel_z
1103.514341,370.102971,612.876398,9844.739029
1103.514667,-518.144159,766.095498,9400.615463
1103.514993,0.000000,842.705048,9326.594869
1103.515319,814.226536,536.266849,9992.780217
1103.515645,0.000000,0.000000,9622.677246
1103.515972,-444.123565,536.266849,9474.636058
1103.516298,0.000000,919.314598,9622.677246
1103.516624,148.041188,689.485948,9474.636058
1103.516950,296.082377,153.219100,9622.677246
1103.517276,222.061783,1149.143247,9400.615463
1103.517602,296.082377,1685.410096,8734.430116
1103.517928,1628.453072,1149.143247,8882.471304
1103.518254,1406.391290,1302.362347,9992.780217
1103.518580,0.000000,1225.752797,9252.574275
1103.518906,-592.164754,1072.533697,8882.471304
1103.519232,592.164754,383.047749,9474.636058
1103.519558,-74.020594,-306.438199,9548.656652
1103.519884,-1628.453072,0.000000,8512.368333
1103.520210,-592.164754,842.705048,8956.491898
1103.520536,0.000000,612.876398,8956.491898
1103.520862,0.000000,536.266849,8882.471304
1103.521188,-222.061783,689.485948,9252.574275
1103.521514,148.041188,1532.190996,8660.409521
1103.521840,1110.308913,919.314598,8956.491898
1103.522166,2294.638420,1225.752797,9548.656652
1103.522492,1332.370696,1225.752797,9030.512492
1103.522818,444.123565,1762.019645,8290.306550
1103.523144,1998.556043,1455.581446,9252.574275
1103.523470,2220.617826,842.705048,9770.718434
1103.523796,1184.329507,919.314598,9696.697840
1103.524122,1110.308913,1302.362347,9326.594869
1103.524448,1850.514855,2145.067394,9474.636058
1103.524774,2368.659014,2145.067394,9548.656652
1103.525100,2516.700203,1991.848295,9844.739029
1103.525426,2738.761985,3217.601092,9622.677246
1103.525752,3404.947333,3677.258390,9178.553681
1103.526079,4293.194464,3064.381992,9992.780217
1103.526405,3849.070898,2911.162892,9844.739029
1103.526731,2516.700203,3907.087040,9474.636058
1103.527057,2812.782580,3983.696590,8808.450710
1103.527383,3775.050304,2757.943793,9474.636058
1103.527709,2220.617826,3217.601092,9104.533087
1103.528035,1332.370696,3524.039291,8512.368333
1103.528361,1628.453072,3830.477490,8438.347739
1103.528687,1554.432478,3064.381992,8808.450710
1103.529013,1184.329507,2757.943793,9104.533087
1103.529339,1406.391290,3600.648841,8290.306550
1103.529665,1480.411884,4749.792088,8364.327145
1103.529991,2146.597232,4213.525239,8586.388927
1103.530317,2664.741391,3677.258390,9474.636058
1103.530643,1702.473667,3753.867940,9104.533087
1103.530969,1702.473667,4290.134789,8882.471304
1103.531295,2812.782580,3677.258390,9696.697840
1103.531621,2886.803174,2987.772442,10214.842000
1103.531947,2146.597232,3064.381992,9696.697840
1103.532273,2590.720797,3524.039291,9844.739029
1103.532599,3108.864956,3600.648841,10584.944971
1103.532925,3182.885551,2681.334243,10214.842000
1103.533251,3701.029710,2987.772442,10214.842000
1103.533577,3849.070898,4673.182538,9696.697840
1103.533903,4589.276840,4596.572988,8808.450710
1103.534229,4959.379811,3830.477490,8586.388927
1103.534555,3923.091493,4290.134789,8216.285956
1103.534881,2590.720797,4443.353888,7254.018232
1103.535207,2442.679609,4060.306139,7105.977043
1103.535533,2072.576638,3140.991542,7698.141797
1103.535860,-518.144159,2987.772442,6883.915261
1103.536186,-1110.308913,1608.800546,6513.812290
1103.536512,-1258.350101,1225.752797,7402.059420
1103.536838,-1776.494261,919.314598,7994.224174
1103.537164,-2072.576638,612.876398,8142.265362
1103.537490,-1480.411884,1072.533697,8512.368333
1103.537816,-962.267725,766.095498,9326.594869
1103.538142,-370.102971,383.047749,10658.965565
1103.538468,-814.226536,76.609550,11177.109724
1103.538794,-518.144159,-1072.533697,11621.233289
1103.539120,-518.144159,-1685.410096,12065.356855
1103.539446,740.205942,-2145.067394,13397.727550
1103.539772,518.144159,-1608.800546,13619.789333
1103.540098,222.061783,-1149.143247,13323.706956
1103.540424,1332.370696,-995.924147,12879.583391
1103.540750,2886.803174,-383.047749,11325.150913
1103.541076,4293.194464,766.095498,9992.780217
1103.541402,5699.585753,3294.210641,9178.553681
1103.541728,6883.915261,4979.620737,7105.977043
1103.542054,8290.306550,5822.325785,6883.915261
1103.542380,8438.347739,6281.983084,6957.935855
1103.542706,6587.832884,6588.421283,6069.688724
1103.543032,5551.544565,5439.278036,6661.853478
1103.543358,5403.503377,3677.258390,7994.224174
1103.543684,3330.926739,2451.505594,9844.739029
1103.544010,444.123565,1608.800546,10955.047942
1103.544336,-666.185348,-383.047749,10732.986159
1103.544662,-1480.411884,-1915.238745,10658.965565
1103.544988,-962.267725,-612.876398,10140.821405
1103.545314,222.061783,2451.505594,9400.615463
1103.545640,2072.576638,5286.058936,7624.121203
1103.545967,4219.173869,6358.592633,5255.462188
1103.546293,5551.544565,7124.688131,4367.215058
1103.546619,4441.235652,8580.269578,3701.029710
1103.546945,3034.844362,9806.022374,4145.153275
1103.547271,2812.782580,8427.050478,6883.915261
1103.547597,1628.453072,3983.696590,9918.759623
1103.547923,-2294.638420,306.438199,12139.377449
1103.548249,-3627.009116,-689.485948,13101.645173
1103.548575,-2442.679609,-1378.971896,15322.262999
1103.548901,-1702.473667,-1149.143247,16728.654289
1103.549227,0.000000,-153.219100,16654.633695
1103.549553,2368.659014,2681.334243,14508.036463
1103.549879,4663.297435,4903.011187,11473.192101
1103.550205,6143.709319,6205.373534,8734.430116
1103.550531,5847.626942,7354.516781,5477.523971
1103.550857,5551.544565,9193.145976,3034.844362
1103.551183,6439.791695,9959.241474,3552.988522
1103.551509,5773.606348,9116.536426,4515.256246
1103.551835,3034.844362,6588.421283,3552.988522
1103.552161,1184.329507,4673.182538,3701.029710
1103.552487,-296.082377,2604.724693,5255.462188
1103.552813,-2146.597232,1378.971896,7624.121203
1103.553139,-3330.926739,0.000000,9326.594869
1103.553465,-4071.132681,-1532.190996,10881.027347
1103.553791,-4071.132681,-2451.505594,11621.233289
1103.554117,-2516.700203,-2374.896044,12805.562797
1103.554443,-296.082377,-2298.286494,14211.954086
1103.554769,0.000000,-1991.848295,13693.809927
1103.555095,0.000000,-2298.286494,13915.871710
1103.555421,1406.391290,-2681.334243,12805.562797
1103.555747,2812.782580,-2374.896044,11769.274478
1103.556074,3775.050304,0.000000,11399.171507
1103.556400,5699.585753,1608.800546,9770.718434
1103.556726,6661.853478,2911.162892,7624.121203
1103.557052,8142.265362,2911.162892,6735.874072
1103.557378,7846.182985,4366.744339,6735.874072
1103.557704,5403.503377,5439.278036,5477.523971
1103.558030,4441.235652,3294.210641,4663.297435
1103.558356,3552.988522,1225.752797,7105.977043
1103.558682,1110.308913,536.266849,10140.821405
1103.559008,-1702.473667,229.828649,11399.171507
1103.559334,-2368.659014,-1915.238745,12361.439231
1103.559660,-3997.112087,-6128.763984,13323.706956
1103.559986,-6513.812290,-7584.345430,13545.768739
1103.560312,-5255.462188,-5898.935335,12361.439231
1103.560638,-2220.617826,-2298.286494,12361.439231
1103.560964,-1554.432478,1072.533697,10140.821405
1103.561290,1332.370696,2298.286494,6661.853478
1103.561616,4737.318029,5592.497135,3478.967927
1103.561942,5477.523971,7354.516781,2368.659014
1103.562268,3775.050304,9269.755526,1036.288319
1103.562594,4515.256246,8427.050478,-222.061783
1103.562920,5477.523971,7431.126331,3552.988522
1103.563246,2886.803174,7354.516781,8586.388927
1103.563572,-1998.556043,4596.572988,10362.883188
1103.563898,-5551.544565,-1378.971896,12213.398043
1103.564224,-8142.265362,-7048.078582,15174.221811
1103.564550,-10436.903782,-8656.879127,17542.880825
1103.564876,-9252.574275,-6818.249932,18505.148550
1103.565202,-7550.100608,-5362.668486,19171.333898
1103.565528,-6513.812290,-4826.401637,17098.757260
1103.565854,-3627.009116,-2068.457845,11917.315666
1103.566181,1776.494261,2757.943793,7179.997637
1103.566507,4737.318029,8044.002729,3182.885551
1103.566833,6513.812290,10648.727422,666.185348
1103.567159,8734.430116,10878.556072,-814.226536
1103.567485,10288.862594,10495.508323,592.164754
1103.567811,6587.832884,10342.289223,4515.256246
1103.568137,2368.659014,6971.469032,5847.626942
1103.568463,0.000000,536.266849,7846.182985
1103.568789,-4959.379811,-5132.839837,12287.418637
1103.569115,-9030.512492,-8427.050478,14878.139434
1103.569441,-10140.821405,-8656.879127,15396.283594
1103.569767,-9770.718434,-9576.193725,15988.448347
1103.570093,-8364.327145,-9806.022374,15840.407159
1103.570419,-4663.297435,-5745.716235,13249.686362
1103.570745,-222.061783,-689.485948,10288.862594
1103.571071,4589.276840,3447.429741,6809.894666
1103.571397,8808.450710,6205.373534,3923.091493
1103.571723,11399.171507,8733.488677,1998.556043
1103.572049,12139.377449,10112.460574,1184.329507
1103.572375,11769.274478,9806.022374,3627.009116
1103.572701,8290.306550,6665.030833,7920.203579
1103.573027,3775.050304,2068.457845,10732.986159
1103.573353,-1332.370696,-2451.505594,13027.624579
1103.573680,-4515.256246,-7890.783629,14211.954086
1103.574006,-6217.729913,-9882.631924,15840.407159
1103.574332,-7328.038826,-8656.879127,16432.571912
1103.574658,-7254.018232,-6435.202183,15840.407159
1103.574984,-5921.647536,-3524.039291,12879.583391
1103.575310,-2146.597232,-2145.067394,9252.574275
1103.575636,1406.391290,1225.752797,5477.523971
1103.575962,4367.215058,7124.688131,3478.967927
1103.576288,5699.585753,11491.432470,2960.823768
1103.576615,6217.729913,10035.851024,3404.947333
1103.576941,4145.153275,5669.106685,3627.009116
1103.577267,1776.494261,1762.019645,6143.709319
1103.577593,-814.226536,766.095498,9844.739029
1103.577919,-3478.967927,-1302.362347,12583.501014
1103.578245,-5033.400406,-5209.449386,15840.407159
1103.578571,-5847.626942,-8044.002729,15618.345376
1103.578897,-6291.750507,-6741.640382,13545.768739
1103.579223,-5181.441594,-2528.115143,11917.315666
1103.579549,-2738.761985,689.485948,8808.450710
1103.579876,-1036.288319,1838.629195,6513.812290
1103.580202,1110.308913,3064.381992,5107.421000
1103.580528,3108.864956,6665.030833,5551.544565
1103.580854,3034.844362,8350.440928,6735.874072
1103.581180,74.020594,5592.497135,6069.688724
1103.581506,-1924.535449,229.828649,6661.853478
1103.581832,-2516.700203,-2757.943793,9696.697840
1103.582158,-3552.988522,-4060.306139,12805.562797
1103.582484,-4663.297435,-2911.162892,14211.954086
1103.582811,-3404.947333,-4749.792088,14582.057057
1103.583137,-1850.514855,-5286.058936,13545.768739
1103.583463,222.061783,-2528.115143,10732.986159
1103.583789,1628.453072,919.314598,7846.182985
1103.584115,3108.864956,4136.915689,4737.318029
1103.584441,5255.462188,5898.935335,2960.823768
1103.584767,7698.141797,7048.078582,3775.050304
1103.585093,7624.121203,7890.783629,5847.626942
1103.585419,4293.194464,6741.640382,6143.709319
1103.585745,1776.494261,2528.115143,8734.430116
1103.586072,-740.205942,-2145.067394,11991.336260
1103.586398,-2738.761985,-4749.792088,13175.665768
1103.586724,-3923.091493,-6358.592633,15618.345376
1103.587050,-4293.194464,-6052.154434,16506.592507
1103.587376,-2442.679609,-5439.278036,15100.201217
1103.587702,-666.185348,-3447.429741,12213.398043
1103.588028,1332.370696,-306.438199,8438.347739
1103.588354,2738.761985,3907.087040,4885.359217
1103.588680,6217.729913,6741.640382,2368.659014
1103.589007,8512.368333,9422.974625,1702.473667
1103.589333,7105.977043,10572.117872,1924.535449
1103.589659,4737.318029,9193.145976,3997.112087
1103.589985,2220.617826,5056.230287,6957.935855
1103.590311,-1628.453072,76.609550,11473.192101
1103.590637,-6143.709319,-4443.353888,15396.283594
1103.590963,-9252.574275,-7660.954980,16358.551318
1103.591289,-9474.636058,-9193.145976,17246.798449
1103.591615,-8364.327145,-9116.536426,18505.148550
1103.591941,-7698.141797,-5975.544884,16876.695478
1103.592268,-5033.400406,-1762.019645,10955.047942
1103.592594,-444.123565,1072.533697,6365.771101
1103.592920,3849.070898,4213.525239,2812.782580
1103.593246,6587.832884,9729.412825,296.082377
1103.593572,8216.285956,14938.862211,148.041188
1103.593898,8364.327145,13330.061665,1258.350101
1103.594224,6365.771101,7967.393179,3108.864956
1103.594550,1702.473667,3370.820191,6809.894666
1103.594876,-4145.153275,0.000000,10584.944971
1103.595203,-8068.244768,-5132.839837,13693.809927
1103.595529,-8956.491898,-10648.727422,17172.777854
1103.595855,-10066.800811,-12334.137518,19319.375086
1103.596181,-10807.006753,-9882.631924,17542.880825
1103.596507,-7920.203579,-6358.592633,14656.077652
1103.596833,-3701.029710,-3830.477490,10658.965565
1103.597159,0.000000,-76.609550,7105.977043
1103.597485,5107.421000,5132.839837,2516.700203
1103.597811,9178.553681,10648.727422,740.205942
1103.598137,9548.656652,12410.747068,-0.000000
1103.598464,9326.594869,9882.631924,1924.535449
1103.598790,7698.141797,6894.859482,5847.626942
1103.599116,2960.823768,3140.991542,9474.636058
1103.599442,-1554.432478,-2757.943793,12657.521608
1103.599768,-3256.906145,-8886.707777,15396.283594
1103.600094,-4959.379811,-10572.117872,18357.107362
1103.600420,-6365.771101,-8580.269578,17838.963202
1103.600746,-4515.256246,-6052.154434,16358.551318
1103.601072,-1702.473667,-4443.353888,13175.665768
1103.601399,666.185348,-1762.019645,9474.636058
1103.601725,4589.276840,4519.963438,6143.709319
1103.602051,9030.512492,9882.631924,3478.967927
1103.602377,9918.759623,11721.261119,2368.659014
1103.602703,8512.368333,9729.412825,1702.473667
1103.603029,6439.791695,7584.345430,2960.823768
1103.603355,2664.741391,5209.449386,6587.832884
1103.603681,-1776.494261,1302.362347,10436.903782
1103.604007,-5255.462188,-4519.963438,12213.398043
1103.604333,-6513.812290,-7967.393179,14878.139434
1103.604660,-7476.080014,-7507.735880,16062.468941
1103.604986,-6735.874072,-5439.278036,14804.118840
1103.605312,-4811.338623,-2681.334243,12805.562797
1103.605638,-2368.659014,-919.314598,10288.862594
1103.605964,222.061783,3294.210641,7328.038826
1103.606290,5181.441594,6971.469032,4145.153275
1103.606616,6809.894666,9193.145976,3256.906145
1103.606942,4885.359217,9729.412825,3552.988522
1103.607268,3108.864956,8810.098227,4737.318029
1103.607595,1924.535449,5745.716235,6587.832884
1103.607921,-2368.659014,536.266849,9918.759623
1103.608247,-6809.894666,-4903.011187,11177.109724
1103.608573,-7402.059420,-6358.592633,13545.768739
1103.608899,-7105.977043,-4903.011187,16728.654289
1103.609225,-6587.832884,-4673.182538,16210.510130
1103.609551,-3404.947333,-4673.182538,11547.212695
1103.609877,-296.082377,-1838.629195,7328.038826
1103.610203,1702.473667,3447.429741,6069.688724
1103.610529,5107.421000,8733.488677,4219.173869
1103.610856,7254.018232,10418.898773,3182.885551
1103.611182,6439.791695,7431.126331,3849.070898
1103.611508,5181.441594,4749.792088,4737.318029
1103.611834,2516.700203,4596.572988,7624.121203
1103.612160,-1776.494261,1608.800546,10288.862594
1103.612486,-4885.359217,-5362.668486,12213.398043
1103.612812,-4959.379811,-10418.898773,14804.118840
1103.613138,-4959.379811,-8963.317327,17616.901420
1103.613464,-4515.256246,-4596.572988,17320.819043
1103.613791,-1850.514855,-2911.162892,13619.789333
1103.614117,814.226536,-3140.991542,9474.636058
1103.614443,4219.173869,-612.876398,7105.977043
1103.614769,6587.832884,6818.249932,4367.215058
1103.615095,7698.141797,10955.165621,1480.411884
1103.615421,7994.224174,8886.707777,2590.720797
1103.615747,6957.935855,5286.058936,4737.318029
1103.616073,4367.215058,3983.696590,7254.018232
1103.616399,296.082377,2145.067394,10362.883188
1103.616725,-3849.070898,-3217.601092,13545.768739
1103.617052,-5625.565159,-8503.660028,15026.180623
1103.617378,-5847.626942,-10418.898773,16432.571912
1103.617704,-6291.750507,-7048.078582,17616.901420
1103.618030,-5551.544565,-4290.134789,15248.242405
1103.618356,-3182.885551,-2757.943793,11621.233289
1103.618682,444.123565,-766.095498,8364.327145
1103.619008,3404.947333,3677.258390,5625.565159
1103.619334,5033.400406,9652.803275,1110.308913
1103.619660,7105.977043,10648.727422,-0.000000
1103.619987,6809.894666,7737.564530,888.247130
1103.620313,2664.741391,6741.640382,3478.967927
1103.620639,0.000000,5439.278036,7772.162391
1103.620965,-3923.091493,459.657299,11621.233289
1103.621291,-7328.038826,-6052.154434,12287.418637
1103.621617,-8216.285956,-9269.755526,15174.221811
1103.621943,-8808.450710,-7814.174080,16802.674883
1103.622269,-7550.100608,-4060.306139,15396.283594
1103.622595,-4589.276840,-3447.429741,14285.974681
1103.622921,-1776.494261,-2911.162892,10288.862594
1103.623248,148.041188,1838.629195,6291.750507
1103.623574,4589.276840,7584.345430,3552.988522
1103.623900,7402.059420,10878.556072,1702.473667
1103.624226,6217.729913,10725.336972,2220.617826
1103.624552,4737.318029,7890.783629,3478.967927
1103.624878,3404.947333,5515.887586,6439.791695
1103.625204,-444.123565,1762.019645,9474.636058
1103.625530,-5329.482782,-3983.696590,12213.398043
1103.625856,-5995.668130,-7584.345430,15100.201217
1103.626183,-5773.606348,-7354.516781,17987.004391
1103.626509,-5847.626942,-6971.469032,18505.148550
1103.626835,-3552.988522,-6588.421283,15544.324782
1103.627161,-1554.432478,-3753.867940,11843.295072
1103.627487,1406.391290,459.657299,8142.265362
1103.627813,6735.874072,5439.278036,5033.400406
1103.628139,9696.697840,8810.098227,3256.906145
1103.628465,9178.553681,9806.022374,2220.617826
1103.628791,7846.182985,9806.022374,2220.617826
1103.629117,6809.894666,7431.126331,4145.153275
1103.629444,2738.761985,3447.429741,7254.018232
1103.629770,-2294.638420,-1685.410096,10214.842000
1103.630096,-5107.421000,-5898.935335,12065.356855
1103.630422,-5625.565159,-8044.002729,15100.201217
1103.630748,-6439.791695,-7660.954980,17246.798449
1103.631074,-6957.935855,-6818.249932,15174.221811
1103.631400,-5033.400406,-5439.278036,12139.377449
1103.631726,-1406.391290,-2528.115143,9252.574275
1103.632052,1480.411884,2068.457845,7328.038826
1103.632379,4071.132681,6435.202183,4145.153275
1103.632705,7031.956449,8963.317327,2516.700203
1103.633031,7105.977043,8733.488677,3256.906145
1103.633357,5329.482782,7048.078582,4663.297435
1103.633683,4071.132681,4979.620737,7698.141797
1103.634009,592.164754,2221.676944,11325.150913
1103.634335,-3330.926739,-2681.334243,12657.521608
1103.634661,-5033.400406,-6511.811733,14285.974681
1103.634987,-4959.379811,-7354.516781,16506.592507
1103.635313,-6217.729913,-5209.449386,16062.468941
1103.635640,-4515.256246,-3677.258390,12731.542202
1103.635966,-2886.803174,-2374.896044,9770.718434
1103.636292,-1258.350101,383.047749,7105.977043
1103.636618,1924.535449,5439.278036,3404.947333
1103.636944,5033.400406,8963.317327,1776.494261
1103.637270,4441.235652,9346.365076,1850.514855
1103.637596,2220.617826,7584.345430,2146.597232
1103.637922,1110.308913,6205.373534,5551.544565
1103.638248,-444.123565,1762.019645,9104.533087
1103.638575,-4885.359217,-2911.162892,10584.944971
1103.638901,-6735.874072,-6741.640382,13693.809927
1103.639227,-6217.729913,-7660.954980,16876.695478
1103.639553,-5921.647536,-5975.544884,17690.922014
1103.639879,-3478.967927,-5822.325785,16580.613101
1103.640205,-962.267725,-4673.182538,14137.933492
1103.640531,592.164754,-1685.410096,8438.347739
1103.640857,5403.503377,3983.696590,6291.750507
1103.641183,9696.697840,8273.831378,4811.338623
1103.641509,9696.697840,10572.117872,3627.009116
1103.641836,8364.327145,9729.412825,3034.844362
1103.642162,7105.977043,7277.907231,4811.338623
1103.642488,3182.885551,5056.230287,8216.285956
1103.642814,-2294.638420,0.000000,10066.800811
1103.643140,-5477.523971,-5745.716235,12139.377449
1103.643466,-6291.750507,-9039.926876,14878.139434
1103.643792,-7105.977043,-8656.879127,17172.777854
1103.644118,-6883.915261,-6818.249932,15470.304188
1103.644444,-5181.441594,-5515.887586,11843.295072
1103.644771,-2664.741391,-3983.696590,8438.347739
1103.645097,1628.453072,153.219100,6143.709319
1103.645423,5551.544565,6818.249932,2960.823768
1103.645749,7772.162391,10418.898773,2146.597232
1103.646075,7402.059420,10112.460574,2220.617826
1103.646401,6883.915261,7737.564530,2738.761985
1103.646727,4885.359217,5439.278036,6439.791695
1103.647053,-370.102971,2451.505594,9178.553681
1103.647379,-4737.318029,-2911.162892,11695.253884
1103.647705,-4885.359217,-7660.954980,14434.015869
1103.648032,-5773.606348,-8886.707777,18505.148550
1103.648358,-8068.244768,-7048.078582,17616.901420
1103.648684,-6587.832884,-5056.230287,14063.912898
1103.649010,-2368.659014,-4060.306139,11103.089130
1103.649336,0.000000,-383.047749,8586.388927
1103.649662,3108.864956,6281.983084,5403.503377
1103.649988,6735.874072,10725.336972,3256.906145
1103.650314,7624.121203,10495.508323,2368.659014
1103.650640,6217.729913,8273.831378,2886.803174
1103.650967,3775.050304,7431.126331,6217.729913
1103.651293,0.000000,4826.401637,7846.182985
1103.651619,-4885.359217,-1302.362347,9844.739029
1103.651945,-6143.709319,-8733.488677,13545.768739
1103.652271,-7550.100608,-9729.412825,17098.757260
1103.652597,-9326.594869,-5898.935335,17690.922014
1103.652923,-7328.038826,-4826.401637,14804.118840
1103.653249,-2812.782580,-5669.106685,11769.274478
1103.653575,370.102971,-2834.553343,8660.409521
1103.653901,3182.885551,5898.935335,5995.668130
1103.654228,7402.059420,12487.356617,3330.926739
1103.654554,10362.883188,10955.165621,2368.659014
1103.654880,10066.800811,6971.469032,2960.823768
1103.655206,7550.100608,7201.297681,5329.482782
1103.655532,4071.132681,7814.174080,8512.368333
1103.655858,-296.082377,1225.752797,11177.109724
1103.656184,-3552.988522,-7584.345430,12065.356855
1103.656510,-5329.482782,-9959.241474,15248.242405
1103.656836,-7179.997637,-7124.688131,16506.592507
1103.657163,-6587.832884,-4596.572988,14434.015869
1103.657489,-4663.297435,-5439.278036,12509.480420
1103.657815,-2146.597232,-4979.620737,9770.718434
1103.658141,0.000000,995.924147,5329.482782
1103.658467,3775.050304,8656.879127,3182.885551
1103.658793,6513.812290,9193.145976,2294.638420
1103.659119,5625.565159,7124.688131,2442.679609
1103.659445,3552.988522,5439.278036,2738.761985
1103.659771,2294.638420,5669.106685,7105.977043
1103.660097,-962.267725,2757.943793,10436.903782
1103.660424,-4885.359217,-4136.915689,11843.295072
1103.660750,-5551.544565,-9499.584175,13693.809927
1103.661076,-4959.379811,-7354.516781,17542.880825
1103.661402,-5107.421000,-4366.744339,17468.860231
1103.661728,-2590.720797,-3907.087040,14285.974681
1103.662054,-370.102971,-3753.867940,11473.192101
1103.662380,1554.432478,-229.828649,8142.265362
1103.662706,5625.565159,6894.859482,5551.544565
1103.663032,8216.285956,11031.775171,3627.009116
1103.663359,7328.038826,9576.193725,3034.844362
1103.663685,5255.462188,7584.345430,3182.885551
1103.664011,4589.276840,6435.202183,5551.544565
1103.664337,-592.164754,4519.963438,8882.471304
1103.664663,-6661.853478,-2068.457845,10362.883188
1103.664989,-7698.141797,-8427.050478,12435.459826
1103.665315,-7179.997637,-8810.098227,16358.551318
1103.665641,-8290.306550,-5898.935335,16580.613101
1103.665967,-7105.977043,-4443.353888,15100.201217
1103.666293,-3849.070898,-4673.182538,11473.192101
1103.666620,-666.185348,-2681.334243,8216.285956
1103.666946,3034.844362,3830.477490,5773.606348
1103.667272,6439.791695,9346.365076,2294.638420
1103.667598,8660.409521,11338.213370,2220.617826
1103.667924,8216.285956,9422.974625,3552.988522
1103.668250,6957.935855,6665.030833,5847.626942
1103.668576,3256.906145,5822.325785,8068.244768
1103.668902,-1184.329507,459.657299,10214.842000
1103.669228,-3775.050304,-5209.449386,12361.439231
1103.669555,-3849.070898,-7737.564530,15396.283594
1103.669881,-4219.173869,-6281.983084,18875.251521
1103.670207,-4663.297435,-4443.353888,16580.613101
1103.670533,-2368.659014,-3830.477490,13027.624579
1103.670859,666.185348,-2374.896044,10214.842000
1103.671185,2516.700203,2834.553343,6809.894666
1103.671511,4663.297435,8580.269578,3330.926739
1103.671837,7031.956449,9806.022374,1554.432478
1103.672163,6365.771101,7584.345430,1776.494261
1103.672489,3330.926739,7124.688131,2368.659014
1103.672815,296.082377,5515.887586,5403.503377
1103.673141,-3404.947333,2298.286494,9622.677246
1103.673467,-7550.100608,-4903.011187,11029.068536
1103.673793,-7402.059420,-10035.851024,13545.768739
1103.674119,-7105.977043,-7431.126331,16876.695478
1103.674445,-7920.203579,-4979.620737,16580.613101
1103.674771,-5107.421000,-5515.887586,13619.789333
1103.675097,-1480.411884,-5439.278036,11843.295072
1103.675424,0.000000,-1838.629195,9622.677246
1103.675750,3627.009116,5362.668486,6439.791695
1103.676076,8438.347739,9499.584175,4515.256246
1103.676402,9030.512492,8427.050478,3849.070898
1103.676728,6587.832884,6358.592633,4367.215058
1103.677054,5625.565159,7277.907231,6291.750507
1103.677380,2590.720797,5669.106685,8512.368333
1103.677706,-2368.659014,-919.314598,10288.862594
1103.678032,-4737.318029,-7048.078582,12805.562797
1103.678358,-4885.359217,-7890.783629,15100.201217
1103.678684,-6513.812290,-4903.011187,16728.654289
1103.679010,-5551.544565,-5592.497135,15174.221811
1103.679336,-4293.194464,-6358.592633,11399.171507
1103.679662,-2960.823768,-5132.839837,7550.100608
1103.679988,518.144159,1455.581446,6587.832884
1103.680314,4515.256246,7507.735880,4737.318029
1103.680640,5477.523971,8810.098227,3256.906145
1103.680966,4811.338623,5898.935335,2368.659014
1103.681292,4441.235652,5286.058936,3849.070898
1103.681618,1702.473667,6435.202183,6291.750507
1103.681944,-592.164754,2451.505594,9770.718434
1103.682270,-3034.844362,-3753.867940,12287.418637
1103.682597,-3404.947333,-6971.469032,14137.933492
1103.682923,-4441.235652,-5592.497135,16506.592507
1103.683249,-4293.194464,-4213.525239,15174.221811
1103.683575,-2368.659014,-4596.572988,13175.665768
1103.683901,-296.082377,-2604.724693,10732.986159
1103.684227,2146.597232,1762.019645,8290.306550
1103.684553,4737.318029,6665.030833,5477.523971
1103.684879,7179.997637,9193.145976,3627.009116
1103.685205,7105.977043,8580.269578,3404.947333
1103.685531,5625.565159,7814.174080,3478.967927
1103.685857,3775.050304,7354.516781,6217.729913
1103.686183,222.061783,4443.353888,8956.491898
1103.686509,-3330.926739,-766.095498,11473.192101
1103.686835,-4219.173869,-5669.106685,12657.521608
1103.687161,-5255.462188,-6281.983084,15322.262999
1103.687487,-7105.977043,-4903.011187,15322.262999
1103.687813,-5921.647536,-4290.134789,13767.830521
1103.688139,-2886.803174,-3907.087040,12583.501014
1103.688465,-1554.432478,-1762.019645,9104.533087
1103.688791,0.000000,3217.601092,5625.565159
1103.689117,4145.153275,6894.859482,4145.153275
1103.689444,5699.585753,8427.050478,4367.215058
1103.689770,4811.338623,7431.126331,4219.173869
1103.690096,3701.029710,6281.983084,6143.709319
1103.690422,1480.411884,3600.648841,7920.203579
1103.690748,-1924.535449,-612.876398,9252.574275
1103.691074,-2960.823768,-4443.353888,11991.336260
1103.691400,-4367.215058,-5745.716235,15396.283594
1103.691726,-5995.668130,-5056.230287,16580.613101
1103.692052,-3997.112087,-5592.497135,15248.242405
1103.692378,-1776.494261,-5745.716235,12509.480420
1103.692704,-1924.535449,-2834.553343,9178.553681
1103.693030,592.164754,1378.971896,5995.668130
1103.693356,5551.544565,6205.373534,4959.379811
1103.693682,7179.997637,7354.516781,4663.297435
1103.694008,5329.482782,6358.592633,3997.112087
1103.694334,4071.132681,5975.544884,4589.276840
1103.694660,3034.844362,5132.839837,6661.853478
1103.694986,0.000000,766.095498,9622.677246
1103.695312,-3330.926739,-4136.915689,10881.027347
1103.695638,-4885.359217,-6281.983084,12953.603985
1103.695964,-5107.421000,-6435.202183,15470.304188
1103.696291,-4663.297435,-6128.763984,15470.304188
1103.696617,-4589.276840,-5286.058936,12731.542202
1103.696943,-2886.803174,-4060.306139,10658.965565
1103.697269,148.041188,-153.219100,7994.224174
1103.697595,4071.132681,3677.258390,5477.523971
1103.697921,7179.997637,6818.249932,4145.153275
1103.698247,6365.771101,8427.050478,4589.276840
1103.698573,5773.606348,8120.612279,4367.215058
1103.698899,5033.400406,6435.202183,6809.894666
1103.699225,1406.391290,2604.724693,9844.739029
1103.699551,-2960.823768,-1608.800546,10807.006753
1103.699877,-3552.988522,-3907.087040,13101.645173
1103.700203,-3034.844362,-4519.963438,15618.345376
1103.700529,-5403.503377,-4979.620737,15988.448347
1103.700855,-5847.626942,-5439.278036,12953.603985
1103.701181,-3182.885551,-3524.039291,11399.171507
1103.701507,-1184.329507,76.609550,9474.636058
1103.701833,1110.308913,3830.477490,6365.771101
1103.702159,4663.297435,7048.078582,4663.297435
1103.702485,5625.565159,8580.269578,3330.926739
1103.702811,4589.276840,8197.221829,3552.988522
1103.703138,3478.967927,6588.421283,5551.544565
1103.703464,444.123565,4136.915689,8068.244768
1103.703790,-3627.009116,-383.047749,9844.739029
1103.704116,-5181.441594,-3983.696590,12139.377449
1103.704442,-5477.523971,-6128.763984,14804.118840
1103.704768,-5921.647536,-5975.544884,14137.933492
1103.705094,-5107.421000,-4213.525239,13545.768739
1103.705420,-2738.761985,-3370.820191,11695.253884
1103.705746,-1184.329507,-1608.800546,9030.512492
1103.706072,222.061783,2834.553343,6809.894666
1103.706398,4071.132681,5669.106685,5033.400406
1103.706724,6735.874072,6971.469032,3701.029710
1103.707050,6735.874072,7431.126331,4367.215058
1103.707376,5329.482782,7048.078582,6217.729913
1103.707702,2294.638420,4903.011187,7772.162391
1103.708028,-1184.329507,153.219100,10066.800811
1103.708354,-2812.782580,-5669.106685,11769.274478
1103.708680,-3701.029710,-6281.983084,11917.315666
1103.709006,-4219.173869,-4366.744339,14359.995275
1103.709332,-3552.988522,-3753.867940,15174.221811
1103.709658,-1480.411884,-4136.915689,13175.665768
1103.709984,-444.123565,-2451.505594,10955.047942
1103.710311,444.123565,842.705048,7920.203579
1103.710637,4071.132681,4903.011187,3627.009116
1103.710963,8142.265362,6971.469032,3923.091493
1103.711289,7105.977043,8273.831378,5773.606348
1103.711615,4441.235652,7584.345430,4959.379811
1103.711941,2812.782580,5209.449386,6661.853478
1103.712267,814.226536,459.657299,9474.636058
1103.712593,-3849.070898,-3370.820191,11473.192101
1103.712919,-6069.688724,-5286.058936,12435.459826
1103.713245,-5033.400406,-5439.278036,14878.139434
1103.713571,-4959.379811,-5056.230287,15766.386565
1103.713897,-3627.009116,-4979.620737,13175.665768
1103.714223,-1850.514855,-2987.772442,10362.883188
1103.714549,-148.041188,1072.533697,8068.244768
1103.714875,2368.659014,4903.011187,6217.729913
1103.715201,6217.729913,7048.078582,5107.421000
1103.715527,6809.894666,7737.564530,4589.276840
1103.715853,4293.194464,7814.174080,4367.215058
1103.716179,2812.782580,5898.935335,6291.750507
1103.716505,518.144159,2221.676944,8216.285956
1103.716831,-4145.153275,-2221.676944,10732.986159
1103.717158,-6513.812290,-5515.887586,12509.480420
1103.717484,-5773.606348,-6435.202183,13619.789333
1103.717810,-5995.668130,-5898.935335,14804.118840
1103.718136,-5033.400406,-4060.306139,13693.809927
1103.718462,-3182.885551,-2374.896044,10140.821405
1103.718788,-962.267725,0.000000,7105.977043
1103.719114,2072.576638,2451.505594,6809.894666
1103.719440,4811.338623,5898.935335,4737.318029
1103.719766,5403.503377,8350.440928,3849.070898
1103.720092,5181.441594,7737.564530,4589.276840
1103.720418,4737.318029,5592.497135,5847.626942
1103.720744,1110.308913,3294.210641,8216.285956
1103.721070,-2368.659014,-919.314598,10066.800811
1103.721396,-4515.256246,-4060.306139,12065.356855
1103.721722,-4145.153275,-6281.983084,14730.098246
1103.722048,-4145.153275,-5515.887586,16210.510130
1103.722374,-3849.070898,-3677.258390,14582.057057
1103.722700,-1332.370696,-2298.286494,11843.295072
1103.723026,1998.556043,-995.924147,9992.780217
1103.723352,2516.700203,3064.381992,7402.059420
1103.723678,4663.297435,6665.030833,4663.297435
1103.724005,7624.121203,8656.879127,3330.926739
1103.724331,8660.409521,8733.488677,4071.132681
1103.724657,5403.503377,7507.735880,5255.462188
1103.724983,2294.638420,5286.058936,6513.812290
1103.725309,-518.144159,1685.410096,9252.574275
1103.725635,-4367.215058,-3370.820191,11621.233289
1103.725961,-5181.441594,-6741.640382,13323.706956
1103.726287,-5847.626942,-5975.544884,15766.386565
1103.726613,-5477.523971,-5209.449386,15766.386565
1103.726939,-3775.050304,-4673.182538,13323.706956
1103.727265,-1702.473667,-2987.772442,10881.027347
1103.727591,148.041188,766.095498,8734.430116
1103.727917,1850.514855,5515.887586,5403.503377
1103.728243,5255.462188,7354.516781,3330.926739
1103.728569,5921.647536,7124.688131,3997.112087
1103.728895,3849.070898,7048.078582,4589.276840
1103.729221,2294.638420,6818.249932,6069.688724
1103.729547,222.061783,2604.724693,8142.265362
1103.729873,-3849.070898,-2834.553343,10140.821405
1103.730199,-6365.771101,-6894.859482,12657.521608
1103.730525,-5699.585753,-6894.859482,15322.262999
1103.730852,-6365.771101,-5132.839837,15988.448347
1103.731178,-4663.297435,-5745.716235,14730.098246
1103.731504,-2664.741391,-5592.497135,11621.233289
1103.731830,-1776.494261,-1378.971896,9178.553681
1103.732156,370.102971,3677.258390,6661.853478
1103.732482,4293.194464,6205.373534,4219.173869
1103.732808,5107.421000,6588.421283,3701.029710
1103.733134,4219.173869,6052.154434,3108.864956
1103.733460,2516.700203,6741.640382,4737.318029
1103.733786,888.247130,4826.401637,7624.121203
1103.734112,-2812.782580,-919.314598,9770.718434
1103.734438,-5107.421000,-5362.668486,11399.171507
1103.734764,-4367.215058,-6894.859482,13915.871710
1103.735090,-4663.297435,-5592.497135,16062.468941
1103.735416,-4737.318029,-5822.325785,15100.201217
1103.735742,-3182.885551,-5439.278036,13471.748144
1103.736068,296.082377,-3140.991542,11325.150913
1103.736394,2812.782580,1072.533697,9252.574275
1103.736720,5551.544565,5515.887586,5403.503377
1103.737046,7698.141797,7354.516781,4071.132681
1103.737372,8068.244768,7277.907231,4515.256246
1103.737698,6735.874072,7737.564530,5329.482782
1103.738025,4589.276840,7277.907231,7105.977043
1103.738351,1776.494261,3064.381992,9622.677246
1103.738677,-1998.556043,-2451.505594,10955.047942
1103.739003,-2960.823768,-5592.497135,11177.109724
1103.739329,-4367.215058,-4903.011187,15618.345376
1103.739655,-4737.318029,-4136.915689,15988.448347
1103.739981,-3404.947333,-3830.477490,13027.624579
1103.740307,-1554.432478,-3677.258390,10658.965565
1103.740633,-962.267725,-1302.362347,8364.327145
1103.740959,444.123565,4903.011187,4885.359217
1103.741285,4737.318029,7967.393179,2960.823768
1103.741611,6883.915261,8656.879127,3997.112087
1103.741937,4367.215058,7660.954980,3478.967927
1103.742263,2220.617826,7354.516781,4441.235652
1103.742589,1332.370696,5286.058936,7179.997637
1103.742915,-2072.576638,306.438199,9696.697840
1103.743241,-4959.379811,-3907.087040,11843.295072
1103.743567,-5625.565159,-5209.449386,14211.954086
1103.743893,-5921.647536,-4826.401637,15692.365970
1103.744219,-5995.668130,-5515.887586,14211.954086
1103.744545,-4145.153275,-5362.668486,12509.480420
1103.744872,-2294.638420,-1762.019645,9844.739029
1103.745198,444.123565,2681.334243,6735.874072
1103.745524,4589.276840,6281.983084,5181.441594
1103.745850,6143.709319,6818.249932,4737.318029
1103.746176,4293.194464,8886.707777,4367.215058
1103.746502,3627.009116,7737.564530,3775.050304
1103.746828,2960.823768,5209.449386,5847.626942
1103.747154,-148.041188,459.657299,9770.718434
1103.747480,-4737.318029,-3370.820191,12583.501014
1103.747806,-6217.729913,-5439.278036,13619.789333
1103.748132,-5699.585753,-7431.126331,16358.551318
1103.748458,-5625.565159,-9116.536426,15618.345376
1103.748784,-4145.153275,-6665.030833,12879.583391
1103.749110,-888.247130,-1915.238745,11473.192101
1103.749436,2146.597232,1608.800546,8882.471304
1103.749762,5181.441594,3983.696590,5995.668130
1103.750088,8512.368333,5669.106685,4367.215058
1103.750414,8808.450710,8886.707777,4293.194464
1103.750740,8364.327145,9882.631924,4737.318029
1103.751066,7402.059420,6741.640382,7698.141797
1103.751392,3404.947333,1991.848295,9770.718434
1103.751719,-2516.700203,-2528.115143,10362.883188
1103.752045,-5255.462188,-6052.154434,12287.418637
1103.752371,-4959.379811,-7890.783629,14656.077652
1103.752697,-6809.894666,-7967.393179,15470.304188
1103.753023,-7105.977043,-7354.516781,13101.645173
1103.753349,-4219.173869,-4903.011187,10510.924376
1103.753675,-1480.411884,-689.485948,9474.636058
1103.754001,962.267725,2451.505594,5921.647536
1103.754327,4145.153275,5745.716235,2664.741391
1103.754653,6217.729913,8350.440928,2516.700203
1103.754979,5995.668130,9576.193725,3478.967927
1103.755305,5329.482782,8580.269578,5921.647536
1103.755631,2812.782580,5132.839837,7179.997637
1103.755957,-2368.659014,-306.438199,9548.656652
1103.756283,-4515.256246,-4749.792088,12139.377449
1103.756609,-4441.235652,-5822.325785,15026.180623
1103.756935,-5995.668130,-5439.278036,17764.942608
1103.757261,-7031.956449,-6511.811733,15396.283594
1103.757587,-4959.379811,-5515.887586,12657.521608
1103.757913,-3182.885551,-3217.601092,10362.883188
1103.758239,-666.185348,1915.238745,7254.018232
1103.758566,2590.720797,7431.126331,4367.215058
1103.758892,6587.832884,9422.974625,3108.864956
1103.759218,6365.771101,10189.070123,3627.009116
1103.759544,4811.338623,8963.317327,3997.112087
1103.759870,1998.556043,7431.126331,5625.565159
1103.760196,-1184.329507,3140.991542,7328.038826
1103.760522,-4145.153275,-3600.648841,10584.944971
1103.760848,-5329.482782,-6971.469032,14582.057057
1103.761174,-6587.832884,-7124.688131,16802.674883
1103.761500,-6661.853478,-6665.030833,17024.736666
1103.761826,-4293.194464,-6588.421283,14359.995275
1103.762152,-1036.288319,-4596.572988,12287.418637
1103.762478,1258.350101,459.657299,8660.409521
1103.762804,4885.359217,6128.763984,4885.359217
1103.763130,8808.450710,8733.488677,2812.782580
1103.763456,8956.491898,9576.193725,3182.885551
1103.763782,6513.812290,9882.631924,3256.906145
1103.764108,5107.421000,9039.926876,5773.606348
1103.764434,3034.844362,3370.820191,9326.594869
1103.764760,-2072.576638,-2911.162892,10658.965565
1103.765086,-4885.359217,-7048.078582,11843.295072
1103.765412,-4515.256246,-7201.297681,15766.386565
1103.765739,-5107.421000,-5898.935335,16950.716072
1103.766065,-4589.276840,-5515.887586,14063.912898
1103.766391,-2294.638420,-4673.182538,11769.274478
1103.766717,-296.082377,-2451.505594,9622.677246
1103.767043,2590.720797,4443.353888,5551.544565
1103.767369,6439.791695,8503.660028,3627.009116
1103.767695,7105.977043,8810.098227,3034.844362
1103.768021,4367.215058,7277.907231,2220.617826
1103.768347,3478.967927,6435.202183,3552.988522
1103.768673,1406.391290,4290.134789,7254.018232
1103.768999,-3552.988522,-306.438199,10658.965565
1103.769325,-6809.894666,-4366.744339,12287.418637
1103.769651,-6513.812290,-8197.221829,14804.118840
1103.769977,-7105.977043,-8886.707777,16580.613101
1103.770303,-7254.018232,-6894.859482,15100.201217
1103.770629,-4737.318029,-4366.744339,13249.686362
1103.770955,-1776.494261,-1762.019645,10658.965565
1103.771281,2072.576638,1838.629195,8364.327145
1103.771607,5477.523971,5822.325785,5847.626942
1103.771933,5921.647536,7814.174080,3552.988522
1103.772259,5551.544565,8810.098227,3627.009116
1103.772585,5921.647536,7814.174080,4515.256246
1103.772911,3849.070898,5515.887586,6291.750507
1103.773237,-666.185348,1838.629195,9400.615463
1103.773563,-4885.359217,-3294.210641,11621.233289
1103.773890,-6069.688724,-6511.811733,13915.871710
1103.774216,-6217.729913,-8273.831378,16136.489536
1103.774542,-6217.729913,-7431.126331,16580.613101
1103.774868,-4811.338623,-4979.620737,13989.892304
1103.775194,-2368.659014,-2604.724693,11325.150913
1103.775520,962.267725,-1149.143247,7772.162391
1103.775846,3108.864956,4136.915689,4663.297435
1103.776172,5551.544565,7967.393179,2590.720797
1103.776498,7179.997637,9422.974625,3256.906145
1103.776824,6217.729913,8427.050478,3478.967927
1103.777150,4219.173869,5822.325785,5477.523971
1103.777476,1480.411884,2834.553343,7994.224174
1103.777802,-1258.350101,-766.095498,10807.006753
1103.778128,-3256.906145,-4443.353888,11325.150913
1103.778454,-2146.597232,-7201.297681,15322.262999
1103.778780,-3552.988522,-6052.154434,17838.963202
1103.779106,-2812.782580,-3983.696590,15396.283594
1103.779432,-296.082377,-2451.505594,12879.583391
1103.779758,1850.514855,-919.314598,9918.759623
1103.780084,2516.700203,2987.772442,6217.729913
1103.780410,6587.832884,8044.002729,3701.029710
1103.780736,8068.244768,10342.289223,3034.844362
1103.781062,5477.523971,9193.145976,3256.906145
1103.781388,3627.009116,6894.859482,3330.926739
1103.781714,2220.617826,5132.839837,7031.956449
1103.782040,-2516.700203,1838.629195,9918.759623
1103.782366,-6661.853478,-2451.505594,10732.986159
1103.782692,-6809.894666,-6665.030833,13323.706956
1103.783018,-5107.421000,-7890.783629,15840.407159
1103.783344,-6069.688724,-5209.449386,15618.345376
1103.783670,-4885.359217,-3217.601092,13471.748144
1103.783996,-3182.885551,-2221.676944,10658.965565
1103.784322,-1184.329507,-306.438199,7698.141797
1103.784648,2368.659014,4136.915689,5847.626942
1103.784974,4811.338623,8656.879127,5107.421000
1103.785300,4737.318029,9959.241474,3923.091493
1103.785626,3923.091493,6971.469032,4663.297435
1103.785952,2220.617826,4290.134789,7105.977043
1103.786278,-1258.350101,2145.067394,9104.533087
1103.786604,-4071.132681,-1378.971896,11029.068536
1103.786930,-4737.318029,-5439.278036,12731.542202
1103.787256,-5033.400406,-7431.126331,15766.386565
1103.787582,-5551.544565,-6665.030833,16358.551318
1103.787908,-4737.318029,-5056.230287,14063.912898
1103.788234,-3256.906145,-4366.744339,10881.027347
1103.788560,-592.164754,-3447.429741,8512.368333
1103.788886,2146.597232,1378.971896,5995.668130
1103.789213,5107.421000,7660.954980,3775.050304
1103.789539,6587.832884,9269.755526,4293.194464
1103.789865,6217.729913,6358.592633,4219.173869
1103.790191,4959.379811,4673.182538,4811.338623
1103.790517,2368.659014,3217.601092,7476.080014
1103.790843,-1332.370696,306.438199,9474.636058
1103.791169,-3330.926739,-4366.744339,11251.130318
1103.791495,-3182.885551,-8350.440928,15248.242405
1103.791821,-4367.215058,-7737.564530,17394.839637
1103.792147,-4737.318029,-6205.373534,14656.077652
1103.792473,-2146.597232,-5209.449386,12583.501014
1103.792799,-148.041188,-3983.696590,10510.924376
1103.793125,1554.432478,689.485948,6883.915261
1103.793451,5255.462188,6281.983084,4663.297435
1103.793777,7772.162391,9806.022374,4589.276840
1103.794103,6513.812290,9039.926876,4219.173869
1103.794429,5921.647536,6511.811733,3627.009116
1103.794755,3997.112087,5975.544884,6809.894666
1103.795081,0.000000,3294.210641,10066.800811
1103.795407,-3330.926739,-1455.581446,11547.212695
1103.795733,-3256.906145,-6358.592633,13249.686362
1103.796059,-4441.235652,-7124.688131,15618.345376
1103.796385,-6217.729913,-5286.058936,15840.407159
1103.796711,-3182.885551,-2681.334243,14063.912898
1103.797037,-1110.308913,-1532.190996,11473.192101
1103.797363,-740.205942,612.876398,7624.121203
1103.797689,2664.741391,4903.011187,4737.318029
1103.798015,5847.626942,9806.022374,3627.009116
1103.798341,4811.338623,11184.994271,3108.864956
1103.798667,3997.112087,8733.488677,3552.988522
1103.798993,3478.967927,6358.592633,5403.503377
1103.799319,0.000000,4136.915689,9030.512492
1103.799645,-4293.194464,76.609550,11621.233289
1103.799971,-4885.359217,-4826.401637,12287.418637
1103.800297,-5329.482782,-7048.078582,15766.386565
1103.800623,-6365.771101,-6511.811733,17172.777854
1103.800949,-5921.647536,-4213.525239,13989.892304
1103.801275,-4293.194464,-3064.381992,10288.862594
1103.801601,-2146.597232,-2451.505594,8956.491898
1103.801927,814.226536,2221.676944,6069.688724
1103.802253,4737.318029,7814.174080,2812.782580
1103.802579,6365.771101,9806.022374,3034.844362
1103.802905,4737.318029,7890.783629,3256.906145
1103.803231,4145.153275,5745.716235,4515.256246
1103.803557,2590.720797,4673.182538,7550.100608
1103.803883,-2738.761985,1149.143247,9696.697840
1103.804209,-4219.173869,-4903.011187,9548.656652
1103.804535,-1702.473667,-8044.002729,13915.871710
1103.804862,-3330.926739,-6358.592633,17542.880825
1103.805188,-4885.359217,-4903.011187,15544.324782
1103.805514,-2886.803174,-4979.620737,11621.233289
1103.805840,814.226536,-4826.401637,10510.924376
1103.806166,2146.597232,-995.924147,8438.347739
1103.806492,4737.318029,6741.640382,6069.688724
1103.806818,7105.977043,9882.631924,4811.338623
1103.807144,6883.915261,7048.078582,4737.318029
1103.807470,5773.606348,4443.353888,5033.400406
1103.807796,3923.091493,5056.230287,6513.812290
1103.808122,-888.247130,3907.087040,9252.574275
1103.808448,-4071.132681,-2298.286494,11473.192101
1103.808774,-3701.029710,-8427.050478,13101.645173
1103.809100,-5255.462188,-9116.536426,15914.427753
1103.809426,-7328.038826,-5592.497135,15618.345376
1103.809752,-4885.359217,-4443.353888,13397.727550
1103.810078,-1406.391290,-4290.134789,11547.212695
1103.810404,222.061783,-1685.410096,9104.533087
1103.810730,2442.679609,5132.839837,6439.791695
1103.811056,6365.771101,9269.755526,3701.029710
1103.811382,6809.894666,9116.536426,3404.947333
1103.811708,5329.482782,7048.078582,4293.194464
1103.812034,2886.803174,6741.640382,5329.482782
1103.812360,-962.267725,5975.544884,7772.162391
1103.812686,-3775.050304,-842.705048,10288.862594
1103.813012,-4737.318029,-6128.763984,11769.274478
1103.813338,-5995.668130,-6665.030833,13841.851115
1103.813664,-6957.935855,-4290.134789,15544.324782
1103.813990,-5403.503377,-3064.381992,13249.686362
1103.814316,-2294.638420,-2987.772442,11473.192101
1103.814642,-1258.350101,-1608.800546,8438.347739
1103.814968,0.000000,4519.963438,4885.359217
1103.815294,4293.194464,9729.412825,2294.638420
1103.815620,6883.915261,9729.412825,4219.173869
1103.815946,4663.297435,7584.345430,4737.318029
1103.816272,2146.597232,6435.202183,5107.421000
1103.816598,740.205942,4443.353888,8068.244768
1103.816924,-2516.700203,0.000000,10732.986159
1103.817250,-5107.421000,-5209.449386,11917.315666
1103.817576,-4737.318029,-7354.516781,14582.057057
1103.817902,-3923.091493,-5515.887586,16136.489536
1103.818228,-4219.173869,-4290.134789,14952.160028
1103.818554,-1406.391290,-3217.601092,12805.562797
1103.818880,1036.288319,-1225.752797,9844.739029
1103.819206,2886.803174,3294.210641,7031.956449
1103.819532,6957.935855,7354.516781,5033.400406
1103.819858,7994.224174,9499.584175,4367.215058
1103.820185,6439.791695,8350.440928,4219.173869
1103.820511,5255.462188,5975.544884,4959.379811
1103.820837,3997.112087,4519.963438,7624.121203
1103.821163,-740.205942,842.705048,10510.924376
1103.821489,-4959.379811,-4443.353888,11473.192101
1103.821815,-4441.235652,-7277.907231,12805.562797
1103.822141,-3552.988522,-7737.564530,16506.592507
1103.822467,-4811.338623,-6128.763984,14952.160028
1103.822793,-3923.091493,-4596.572988,12213.398043
1103.823119,-888.247130,-2757.943793,10732.986159
1103.823445,1184.329507,153.219100,8512.368333
1103.823771,3701.029710,4366.744339,5773.606348
1103.824097,5995.668130,7277.907231,3552.988522
1103.824423,4959.379811,7354.516781,3701.029710
1103.824749,3923.091493,6128.763984,4737.318029
1103.825075,2368.659014,4443.353888,7179.997637
1103.825401,-1554.432478,1455.581446,8956.491898
1103.825727,-5773.606348,-3217.601092,10436.903782
1103.826053,-5921.647536,-6818.249932,11917.315666
1103.826379,-4737.318029,-7507.735880,14656.077652
1103.826705,-5995.668130,-4443.353888,16432.571912
1103.827031,-4737.318029,-3753.867940,13989.892304
1103.827357,-1554.432478,-2834.553343,10658.965565
1103.827683,1998.556043,-1302.362347,8512.368333
1103.828009,2590.720797,3600.648841,6365.771101
1103.828335,4885.359217,8733.488677,3330.926739
1103.828661,6735.874072,9882.631924,3627.009116
1103.828987,5403.503377,7354.516781,4663.297435
1103.829313,3256.906145,5132.839837,5329.482782
1103.829639,0.000000,3983.696590,7105.977043
1103.829965,-3627.009116,383.047749,10214.842000
1103.830291,-5773.606348,-5056.230287,11547.212695
1103.830617,-4737.318029,-7277.907231,14285.974681
1103.830943,-4959.379811,-5515.887586,16136.489536
1103.831269,-4885.359217,-2528.115143,13471.748144
1103.831595,-2368.659014,-2451.505594,11325.150913
1103.831921,962.267725,-2145.067394,10214.842000
1103.832247,1628.453072,2604.724693,7698.141797
1103.832573,4811.338623,7890.783629,4737.318029
1103.832899,8142.265362,9499.584175,4589.276840
1103.833225,6809.894666,7967.393179,4145.153275
1103.833551,4811.338623,6435.202183,5255.462188
1103.833877,3256.906145,5515.887586,7550.100608
1103.834203,0.000000,2221.676944,10584.944971
1103.834529,-3775.050304,-3524.039291,11843.295072
1103.834855,-3478.967927,-6894.859482,14285.974681
1103.835181,-3849.070898,-5362.668486,15914.427753
1103.835507,-4219.173869,-3524.039291,14582.057057
1103.835834,-2516.700203,-3677.258390,12583.501014
1103.836160,-1036.288319,-2681.334243,9992.780217
1103.836486,296.082377,536.266849,7994.224174
1103.836812,3034.844362,5286.058936,4441.235652
1103.837138,5477.523971,8427.050478,3182.885551
1103.837464,4589.276840,7890.783629,3330.926739
1103.837790,3404.947333,6818.249932,4071.132681
1103.838116,2738.761985,6052.154434,6069.688724
1103.838442,0.000000,2451.505594,8734.430116
1103.838768,-4367.215058,-2451.505594,10584.944971
1103.839094,-5403.503377,-6281.983084,12361.439231
1103.839420,-4293.194464,-6894.859482,14582.057057
1103.839746,-5033.400406,-5975.544884,16358.551318
1103.840072,-4811.338623,-5822.325785,13841.851115
1103.840398,-2590.720797,-4519.963438,11177.109724
1103.840724,0.000000,-1149.143247,9178.553681
1103.841050,1776.494261,3140.991542,6809.894666
1103.841376,3775.050304,5975.544884,4071.132681
1103.841702,3923.091493,6511.811733,3182.885551
1103.842028,2738.761985,6128.763984,4071.132681
1103.842354,1850.514855,5132.839837,6439.791695
1103.842680,-888.247130,3447.429741,9548.656652
1103.843006,-4663.297435,-1378.971896,11473.192101
1103.843332,-6217.729913,-6665.030833,11843.295072
1103.843658,-4515.256246,-8273.831378,14656.077652
1103.843984,-4293.194464,-6358.592633,17172.777854
1103.844310,-3404.947333,-3907.087040,15322.262999
1103.844636,-592.164754,-2451.505594,12287.418637
1103.844962,2886.803174,-2298.286494,9918.759623
1103.845288,3775.050304,2451.505594,6661.853478
1103.845614,5699.585753,7584.345430,3701.029710
1103.845940,7994.224174,9652.803275,4071.132681
1103.846266,6883.915261,8886.707777,4515.256246
1103.846592,4737.318029,5898.935335,4589.276840
1103.846918,3108.864956,4443.353888,7402.059420
1103.847244,-1702.473667,1838.629195,9548.656652
1103.847570,-5773.606348,-4060.306139,10362.883188
1103.847896,-4737.318029,-7967.393179,11843.295072
1103.848222,-4515.256246,-7737.564530,15544.324782
1103.848548,-5921.647536,-4673.182538,15544.324782
1103.848874,-3775.050304,-2604.724693,13027.624579
1103.849200,-222.061783,-3140.991542,10510.924376
1103.849526,370.102971,-1225.752797,7402.059420
1103.849852,3627.009116,4290.134789,4737.318029
1103.850178,7772.162391,10035.851024,4071.132681
1103.850504,8586.388927,10495.508323,5181.441594
1103.850830,5625.565159,7660.954980,5403.503377
1103.851157,3849.070898,5822.325785,6069.688724
1103.851483,1184.329507,3983.696590,8068.244768
1103.851809,-2590.720797,-229.828649,11103.089130
1103.852135,-4367.215058,-4826.401637,12287.418637
1103.852461,-5033.400406,-6741.640382,14804.118840
1103.852787,-6217.729913,-6052.154434,15840.407159
1103.853113,-5699.585753,-5056.230287,13767.830521
1103.853439,-4663.297435,-3447.429741,11325.150913
1103.853765,-3108.864956,-1762.019645,8808.450710
1103.854091,-148.041188,2987.772442,5921.647536
1103.854417,3701.029710,7431.126331,3552.988522
1103.854743,5181.441594,9116.536426,3627.009116
1103.855069,4367.215058,9039.926876,3330.926739
1103.855395,3775.050304,7201.297681,4367.215058
1103.855721,2738.761985,5362.668486,7105.977043
1103.856047,-1554.432478,1838.629195,10066.800811
1103.856373,-5181.441594,-3447.429741,11177.109724
1103.856699,-4663.297435,-7584.345430,13693.809927
1103.857025,-3775.050304,-7890.783629,16950.716072
1103.857351,-5477.523971,-6052.154434,16284.530724
1103.857677,-3849.070898,-4826.401637,13767.830521
1103.858003,-296.082377,-3907.087040,12139.377449
1103.858329,1924.535449,-842.705048,9696.697840
1103.858655,4885.359217,4826.401637,6291.750507
1103.858981,7105.977043,8197.221829,4293.194464
1103.859307,7698.141797,8427.050478,3775.050304
1103.859633,6587.832884,7584.345430,4071.132681
1103.859959,4737.318029,5975.544884,7031.956449
1103.860285,666.185348,2451.505594,9030.512492
1103.860611,-4145.153275,-2451.505594,10140.821405
1103.860937,-4293.194464,-7201.297681,11621.233289
1103.861263,-4145.153275,-8273.831378,15100.201217
1103.861589,-5847.626942,-6665.030833,15322.262999
1103.861915,-4737.318029,-4903.011187,13249.686362
1103.862241,-1554.432478,-4136.915689,11325.150913
1103.862567,592.164754,-1685.410096,8216.285956
1103.862893,2442.679609,3447.429741,5699.585753
1103.863219,6587.832884,8810.098227,3849.070898
1103.863545,7254.018232,9806.022374,3701.029710
1103.863871,6439.791695,7660.954980,3627.009116
1103.864197,4145.153275,6358.592633,5847.626942
1103.864523,0.000000,4826.401637,7402.059420
1103.864849,-3182.885551,76.609550,9992.780217
1103.865175,-4663.297435,-5669.106685,12213.398043
1103.865501,-5773.606348,-7890.783629,15026.180623
1103.865827,-7476.080014,-6741.640382,17098.757260
1103.866153,-6661.853478,-5975.544884,14434.015869
1103.866480,-3775.050304,-4596.572988,12879.583391
1103.866806,-1702.473667,-2528.115143,10658.965565
1103.867132,814.226536,2911.162892,7179.997637
1103.867458,5255.462188,7737.564530,4219.173869
1103.867784,8068.244768,9652.803275,4441.235652
1103.868110,5847.626942,9116.536426,4737.318029
1103.868436,3775.050304,7277.907231,5403.503377
1103.868762,2072.576638,6128.763984,7476.080014
1103.869088,-1776.494261,766.095498,10436.903782
1103.869414,-5625.565159,-4060.306139,11843.295072
1103.869740,-5551.544565,-7354.516781,13101.645173
1103.870066,-5773.606348,-6741.640382,15470.304188
1103.870392,-5699.585753,-5898.935335,14508.036463
1103.870718,-3330.926739,-3907.087040,12287.418637
1103.871044,-592.164754,-842.705048,10214.842000
1103.871370,592.164754,2528.115143,6883.915261
1103.871696,4367.215058,6052.154434,4145.153275
1103.872022,7846.182985,8656.879127,3478.967927
1103.872348,6587.832884,9729.412825,3256.906145
1103.872674,5107.421000,8197.221829,3552.988522
1103.873000,4367.215058,5056.230287,6069.688724
1103.873326,888.247130,1838.629195,9696.697840
1103.873651,-4737.318029,-3064.381992,11399.171507
1103.873977,-4663.297435,-6052.154434,12953.603985
1103.874303,-3552.988522,-6281.983084,16062.468941
1103.874629,-4071.132681,-6205.373534,15914.427753
1103.874955,-2590.720797,-4596.572988,13693.809927
1103.875281,-444.123565,-2374.896044,11251.130318
1103.875607,1776.494261,689.485948,9548.656652
1103.875933,4145.153275,4596.572988,6513.812290
1103.876258,5847.626942,7584.345430,3923.091493
1103.876584,5995.668130,7967.393179,2738.761985
1103.876910,4441.235652,7354.516781,4219.173869
1103.877236,2812.782580,6128.763984,6143.709319
1103.877562,-1184.329507,2834.553343,8364.327145
1103.877888,-4441.235652,-2528.115143,10066.800811
1103.878214,-6291.750507,-6665.030833,13027.624579
1103.878540,-4959.379811,-7660.954980,14804.118840
1103.878865,-4811.338623,-6128.763984,16654.633695
1103.879191,-4145.153275,-4903.011187,14952.160028
1103.879517,-1554.432478,-3524.039291,12361.439231
1103.879843,1036.288319,-383.047749,9770.718434
1103.880169,3552.988522,3370.820191,7179.997637
1103.880495,4737.318029,6665.030833,4589.276840
1103.880821,5773.606348,8427.050478,3775.050304
1103.881147,5477.523971,7660.954980,5107.421000
1103.881472,4145.153275,5439.278036,5699.585753
1103.881798,74.020594,3830.477490,6365.771101
1103.882124,-3256.906145,-306.438199,8956.491898
1103.882450,-5921.647536,-4673.182538,10658.965565
1103.882776,-6143.709319,-6894.859482,12657.521608
1103.883102,-6069.688724,-6435.202183,16358.551318
1103.883428,-6143.709319,-5362.668486,14804.118840
1103.883754,-3330.926739,-4673.182538,11843.295072
1103.884079,0.000000,-3294.210641,11177.109724
1103.884405,1184.329507,1225.752797,8142.265362
1103.884731,3478.967927,6052.154434,4737.318029
1103.885057,7920.203579,7584.345430,4145.153275
1103.885383,7772.162391,7431.126331,5329.482782
1103.885709,5477.523971,7277.907231,4737.318029
1103.886035,4071.132681,6128.763984,6587.832884
1103.886361,1776.494261,3140.991542,9030.512492
1103.886687,-2146.597232,-2221.676944,10510.924376
1103.887012,-3256.906145,-5592.497135,11991.336260
1103.887338,-3108.864956,-4673.182538,15026.180623
1103.887664,-3775.050304,-4136.915689,14285.974681
1103.887990,-3256.906145,-3830.477490,13175.665768
1103.888316,-1924.535449,-3524.039291,11029.068536
1103.888642,-814.226536,-612.876398,8216.285956
1103.888968,2072.576638,4903.011187,6069.688724
1103.889294,5403.503377,7124.688131,4219.173869
1103.889619,4737.318029,7890.783629,4219.173869
1103.889945,3552.988522,7354.516781,4145.153275
1103.890271,2886.803174,6588.421283,5551.544565
1103.890597,444.123565,3370.820191,7846.182985
1103.890923,-4145.153275,-689.485948,10732.986159
1103.891249,-4589.276840,-3600.648841,12287.418637
1103.891575,-3182.885551,-5132.839837,13619.789333
1103.891901,-3923.091493,-4673.182538,16654.633695
1103.892226,-4145.153275,-4060.306139,15840.407159
1103.892552,-2368.659014,-2757.943793,12509.480420
1103.892878,-444.123565,-1838.629195,9770.718434
1103.893204,1110.308913,1072.533697,7550.100608
1103.893530,3552.988522,5209.449386,4663.297435
1103.893856,5551.544565,9422.974625,4663.297435
1103.894182,4589.276840,8733.488677,5329.482782
1103.894508,2590.720797,5439.278036,5329.482782
1103.894833,370.102971,2757.943793,6069.688724
1103.895159,-2516.700203,-153.219100,8586.388927
1103.895485,-5033.400406,-2911.162892,10288.862594
1103.895811,-5181.441594,-4903.011187,12657.521608
1103.896137,-4367.215058,-6588.421283,15100.201217
1103.896463,-5107.421000,-6435.202183,14211.954086
1103.896789,-3775.050304,-4979.620737,11547.212695
1103.897115,-1332.370696,-2604.724693,10362.883188
1103.897440,0.000000,229.828649,8734.430116
1103.897766,2368.659014,3447.429741,6143.709319
1103.898092,5847.626942,5669.106685,4367.215058
1103.898418,6661.853478,7124.688131,5107.421000
1103.898744,4145.153275,6665.030833,4737.318029
1103.899070,2812.782580,5439.278036,6365.771101
1103.899396,1332.370696,2298.286494,9326.594869
1103.899722,-2368.659014,-2451.505594,10214.842000
1103.900047,-3256.906145,-5056.230287,11843.295072
1103.900373,-3108.864956,-5592.497135,14434.015869
1103.900699,-4663.297435,-4979.620737,15396.283594
1103.901025,-3627.009116,-4519.963438,13619.789333
1103.901351,0.000000,-4060.306139,11917.315666
1103.901677,444.123565,-995.924147,9696.697840
1103.902003,2368.659014,2834.553343,5847.626942
1103.902329,5699.585753,6818.249932,4885.359217
1103.902655,7031.956449,8503.660028,5255.462188
1103.902980,4071.132681,7890.783629,4589.276840
1103.903306,3997.112087,6971.469032,5403.503377
1103.903632,2146.597232,3677.258390,8142.265362
1103.903958,-2220.617826,306.438199,10362.883188
1103.904284,-4885.359217,-3217.601092,11325.150913
1103.904610,-4811.338623,-5669.106685,14063.912898
1103.904936,-5625.565159,-6741.640382,15470.304188
1103.905262,-5181.441594,-5975.544884,13175.665768
1103.905587,-2960.823768,-3217.601092,11843.295072
1103.905913,-1850.514855,-766.095498,9548.656652
1103.906239,-370.102971,2834.553343,7624.121203
1103.906565,3627.009116,5132.839837,5107.421000
1103.906891,5847.626942,7354.516781,4515.256246
1103.907217,4515.256246,9039.926876,4145.153275
1103.907543,3997.112087,8886.707777,4811.338623
1103.907869,3627.009116,6128.763984,6587.832884
1103.908194,592.164754,1455.581446,9622.677246
1103.908520,-4219.173869,-2451.505594,11251.130318
1103.908846,-4515.256246,-4749.792088,11843.295072
1103.909172,-3775.050304,-5209.449386,14656.077652
1103.909498,-4663.297435,-5286.058936,15470.304188
1103.909824,-4219.173869,-4290.134789,12287.418637
1103.910150,-2368.659014,-2604.724693,9770.718434
1103.910476,-592.164754,-536.266849,8068.244768
1103.910801,1628.453072,3064.381992,5625.565159
1103.911127,4515.256246,6818.249932,4145.153275
1103.911453,5107.421000,8044.002729,4737.318029
1103.911779,4145.153275,7124.688131,4737.318029
1103.912105,3775.050304,5515.887586,5773.606348
1103.912431,1850.514855,3217.601092,7846.182985
1103.912757,-2146.597232,-689.485948,9844.739029
1103.913083,-2738.761985,-3830.477490,11843.295072
1103.913408,-1850.514855,-5592.497135,15396.283594
1103.913734,-3701.029710,-5439.278036,16654.633695
1103.914060,-3997.112087,-5362.668486,13619.789333
1103.914386,-1924.535449,-4213.525239,11843.295072
1103.914712,962.267725,-2145.067394,9844.739029
1103.915038,2442.679609,3064.381992,8956.491898
1103.915364,5477.523971,7048.078582,6069.688724
1103.915690,6587.832884,7507.735880,4589.276840
1103.916016,5181.441594,6894.859482,3849.070898
1103.916341,3627.009116,5592.497135,5255.462188
1103.916667,1406.391290,5439.278036,8068.244768
1103.916993,-2072.576638,1302.362347,10140.821405
1103.917319,-4219.173869,-5056.230287,11621.233289
1103.917645,-4811.338623,-7814.174080,12953.603985
1103.917971,-6439.791695,-6665.030833,14582.057057
1103.918297,-5995.668130,-4903.011187,13841.851115
1103.918623,-2664.741391,-3140.991542,11843.295072
1103.918948,-296.082377,-2451.505594,10510.924376
1103.919274,1406.391290,1532.190996,7698.141797
1103.919600,3404.947333,6665.030833,4219.173869
1103.919926,6217.729913,8810.098227,3478.967927
1103.920252,5847.626942,7660.954980,4737.318029
1103.920578,3627.009116,6281.983084,4885.359217
1103.920904,888.247130,5515.887586,6735.874072
1103.921230,-1184.329507,1455.581446,9770.718434
1103.921555,-4663.297435,-3830.477490,11029.068536
1103.921881,-6587.832884,-7277.907231,11843.295072
1103.922207,-6069.688724,-6741.640382,14508.036463
1103.922533,-5551.544565,-4596.572988,14434.015869
1103.922859,-4293.194464,-3524.039291,12879.583391
1103.923185,-1702.473667,-2451.505594,10732.986159
1103.923511,-592.164754,229.828649,7920.203579
1103.923837,2146.597232,4519.963438,4959.379811
1103.924162,5625.565159,7737.564530,4515.256246
1103.924488,5551.544565,7967.393179,5847.626942
1103.924814,3182.885551,6741.640382,5995.668130
1103.925140,1924.535449,3907.087040,7624.121203
1103.925466,-370.102971,919.314598,9844.739029
1103.925792,-4737.318029,-2681.334243,12065.356855
1103.926118,-4885.359217,-5822.325785,12213.398043
1103.926444,-3849.070898,-5822.325785,14211.954086
1103.926769,-3701.029710,-4979.620737,15618.345376
1103.927095,-1924.535449,-3753.867940,13101.645173
1103.927421,222.061783,-995.924147,10955.047942
1103.927747,2220.617826,1838.629195,8586.388927
1103.928073,4663.297435,4903.011187,5403.503377
1103.928399,8290.306550,7890.783629,4071.132681
1103.928725,8438.347739,8350.440928,3923.091493
1103.929051,5551.544565,7890.783629,3775.050304
1103.929376,4589.276840,6971.469032,6143.709319
1103.929702,2220.617826,3753.867940,8734.430116
1103.930028,-2590.720797,-995.924147,10214.842000
1103.930354,-4515.256246,-5362.668486,10436.903782
1103.930680,-3997.112087,-6818.249932,13175.665768
1103.931006,-4663.297435,-4673.182538,15248.242405
1103.931332,-5329.482782,-3753.867940,14804.118840
1103.931658,-2960.823768,-3524.039291,11547.212695
1103.931984,0.000000,-2298.286494,8956.491898
1103.932309,1332.370696,2451.505594,7105.977043
1103.932635,3182.885551,6435.202183,4515.256246
1103.932961,4293.194464,8273.831378,3552.988522
1103.933287,4885.359217,6588.421283,5477.523971
1103.933613,2886.803174,4826.401637,6883.915261
1103.933939,740.205942,4060.306139,7328.038826
1103.934265,-2072.576638,76.609550,9326.594869
1103.934591,-5255.462188,-4673.182538,11917.315666
1103.934916,-4589.276840,-6435.202183,13545.768739
1103.935242,-3701.029710,-6205.373534,15544.324782
1103.935568,-3849.070898,-5362.668486,14211.954086
1103.935894,-2738.761985,-3600.648841,11843.295072
1103.936220,-148.041188,-1149.143247,11251.130318
1103.936546,1184.329507,2451.505594,8882.471304
1103.936872,2368.659014,5132.839837,4515.256246
1103.937198,4811.338623,5515.887586,3552.988522
1103.937523,5181.441594,6588.421283,4293.194464
1103.937849,2368.659014,7201.297681,5403.503377
1103.938175,296.082377,5286.058936,7105.977043
1103.938501,-2146.597232,229.828649,9770.718434
1103.938827,-5403.503377,-5056.230287,11029.068536
1103.939153,-5477.523971,-6588.421283,12731.542202
1103.939479,-3923.091493,-5286.058936,14582.057057
1103.939805,-3775.050304,-4366.744339,14804.118840
1103.940130,-1776.494261,-4443.353888,12879.583391
1103.940456,1554.432478,-2374.896044,11399.171507
1103.940782,2590.720797,1838.629195,8512.368333
1103.941108,4293.194464,5439.278036,6217.729913
1103.941434,7402.059420,6894.859482,4441.235652
1103.941760,7994.224174,7584.345430,4885.359217
1103.942086,5255.462188,8733.488677,5181.441594
1103.942412,3552.988522,6128.763984,6513.812290
1103.942737,962.267725,2604.724693,9400.615463
1103.943063,-3182.885551,-2374.896044,10807.006753
1103.943389,-5699.585753,-5745.716235,11843.295072
1103.943715,-4811.338623,-6128.763984,13545.768739
1103.944041,-4589.276840,-5056.230287,14804.118840
1103.944367,-3849.070898,-4060.306139,13545.768739
1103.944693,-2368.659014,-2987.772442,10584.944971
1103.945019,-888.247130,229.828649,8586.388927
1103.945345,1998.556043,4366.744339,6661.853478
1103.945670,4737.318029,6818.249932,3997.112087
1103.945996,5477.523971,8044.002729,2812.782580
1103.946322,4959.379811,7890.783629,3627.009116
1103.946648,3627.009116,7354.516781,5625.565159
1103.946974,1924.535449,4673.182538,7846.182985
1103.947300,-1628.453072,383.047749,10436.903782
1103.947626,-5107.421000,-3753.867940,12361.439231
1103.947952,-5477.523971,-6205.373534,13767.830521
1103.948277,-4441.235652,-6052.154434,16136.489536
1103.948603,-3997.112087,-5286.058936,15840.407159
1103.948929,-3108.864956,-3753.867940,13249.686362
1103.949255,-1406.391290,-2221.676944,11029.068536
1103.949581,592.164754,1532.190996,8216.285956
1103.949907,1406.391290,4596.572988,5181.441594
1103.950233,3775.050304,6511.811733,3034.844362
1103.950559,4589.276840,7354.516781,3997.112087
1103.950884,2516.700203,7431.126331,4811.338623
1103.951210,1110.308913,5209.449386,7031.956449
1103.951536,-1110.308913,919.314598,9770.718434
1103.951862,-5329.482782,-3983.696590,11325.150913
1103.952188,-5921.647536,-7431.126331,11991.336260
1103.952514,-3552.988522,-6741.640382,15248.242405
1103.952840,-4219.173869,-5056.230287,16506.592507
1103.953166,-3997.112087,-4060.306139,13249.686362
1103.953491,-222.061783,-4290.134789,9844.739029
1103.953817,2664.741391,-1915.238745,8882.471304
1103.954143,2960.823768,5515.887586,6365.771101
1103.954469,6069.688724,8733.488677,2960.823768
1103.954795,7550.100608,8580.269578,3552.988522
1103.955121,6291.750507,6128.763984,4441.235652
1103.955447,3330.926739,5669.106685,5625.565159
1103.955773,1850.514855,3830.477490,7254.018232
1103.956098,-1332.370696,-612.876398,9770.718434
1103.956424,-3256.906145,-5209.449386,12805.562797
1103.956750,-3627.009116,-6358.592633,15618.345376
1103.957076,-3849.070898,-5592.497135,16062.468941
1103.957402,-4071.132681,-5822.325785,14063.912898
1103.957728,-2146.597232,-5056.230287,11399.171507
1103.958054,0.000000,-1532.190996,10362.883188
1103.958380,2368.659014,3600.648841,8216.285956
1103.958705,4589.276840,7967.393179,4737.318029
1103.959031,5551.544565,7048.078582,2960.823768
1103.959357,4145.153275,6511.811733,3849.070898
1103.959683,2738.761985,7048.078582,5033.400406
1103.960009,2220.617826,7124.688131,8142.265362
1103.960335,-1258.350101,2451.505594,10436.903782
1103.960661,-5329.482782,-4979.620737,11399.171507
1103.960987,-5477.523971,-7048.078582,12065.356855
1103.961313,-4737.318029,-4903.011187,15174.221811
1103.961638,-5329.482782,-4290.134789,15248.242405
1103.961964,-4737.318029,-4673.182538,12953.603985
1103.962290,-1628.453072,-3600.648841,10658.965565
1103.962616,1480.411884,689.485948,9030.512492
1103.962942,2368.659014,6205.373534,5773.606348
1103.963268,5773.606348,8427.050478,3627.009116
1103.963594,6365.771101,9116.536426,4737.318029
1103.963920,5033.400406,7737.564530,4293.194464
1103.964245,3775.050304,5898.935335,5921.647536
1103.964571,592.164754,3294.210641,9252.574275
1103.964897,-4441.235652,-1762.019645,10955.047942
1103.965223,-6587.832884,-5056.230287,11769.274478
1103.965549,-4515.256246,-7737.564530,14137.933492
1103.965875,-5625.565159,-7584.345430,15692.365970
1103.966201,-6143.709319,-5669.106685,13027.624579
1103.966527,-2960.823768,-3753.867940,10955.047942
1103.966852,370.102971,-1302.362347,9326.594869
1103.967178,2664.741391,2221.676944,6069.688724
1103.967504,5403.503377,7201.297681,3701.029710
1103.967830,8364.327145,8963.317327,3478.967927
1103.968156,7402.059420,8810.098227,4515.256246
1103.968482,6069.688724,6741.640382,6217.729913
1103.968808,3627.009116,4290.134789,8586.388927
1103.969134,0.000000,-153.219100,9770.718434
1103.969459,-2812.782580,-5056.230287,12139.377449
1103.969785,-3034.844362,-7201.297681,14878.139434
1103.970111,-4367.215058,-6741.640382,16728.654289
1103.970437,-4737.318029,-5592.497135,14582.057057
1103.970763,-1554.432478,-5056.230287,11769.274478
1103.971089,296.082377,-2528.115143,9918.759623
1103.971415,1036.288319,2757.943793,7920.203579
1103.971741,3478.967927,7890.783629,3997.112087
1103.972066,6291.750507,8810.098227,2590.720797
1103.972392,5847.626942,7201.297681,3627.009116
1103.972718,4071.132681,6741.640382,5033.400406
1103.973044,1702.473667,7124.688131,6883.915261
1103.973370,-1998.556043,2374.896044,10140.821405
1103.973696,-5847.626942,-5515.887586,11991.336260
1103.974022,-7031.956449,-8427.050478,12879.583391
1103.974348,-6735.874072,-6435.202183,15692.365970
1103.974674,-7179.997637,-4903.011187,16284.530724
1103.975000,-5181.441594,-4826.401637,13619.789333
1103.975325,-1628.453072,-4136.915689,11769.274478
1103.975651,0.000000,536.266849,8956.491898
1103.975977,1850.514855,6205.373534,4589.276840
1103.976303,5773.606348,9116.536426,2664.741391
1103.976629,5921.647536,8810.098227,3478.967927
1103.976955,3256.906145,8580.269578,4737.318029
1103.977281,2368.659014,6435.202183,4885.359217
1103.977607,-370.102971,2834.553343,8660.409521
1103.977933,-5699.585753,-3600.648841,10881.027347
1103.978259,-8290.306550,-7201.297681,11843.295072
1103.978585,-5477.523971,-7507.735880,14211.954086
1103.978910,-4737.318029,-7124.688131,16210.510130
1103.979236,-4737.318029,-5975.544884,14211.954086
1103.979562,-1406.391290,-3753.867940,11769.274478
1103.979888,1702.473667,-76.609550,9104.533087
1103.980214,4441.235652,4519.963438,6735.874072
1103.980540,8512.368333,8197.221829,4367.215058
1103.980866,9770.718434,9806.022374,3182.885551
1103.981192,6809.894666,10189.070123,4219.173869
1103.981518,5699.585753,7431.126331,5255.462188
1103.981844,3552.988522,3753.867940,7476.080014
1103.982170,-1924.535449,-919.314598,10214.842000
1103.982496,-5477.523971,-5132.839837,11843.295072
1103.982821,-4219.173869,-7201.297681,13989.892304
1103.983147,-4071.132681,-6741.640382,16358.551318
1103.983473,-5403.503377,-6741.640382,15100.201217
1103.983799,-3775.050304,-4903.011187,12509.480420
1103.984125,-518.144159,-1532.190996,9918.759623
1103.984451,3182.885551,2374.896044,8734.430116
1103.984777,5921.647536,5898.935335,5477.523971
1103.985103,6365.771101,8350.440928,2738.761985
1103.985429,6513.812290,9576.193725,3997.112087
1103.985755,5773.606348,7814.174080,5255.462188
1103.986081,4219.173869,6052.154434,7179.997637
1103.986406,-222.061783,1608.800546,9326.594869
1103.986732,-3849.070898,-2757.943793,11843.295072
1103.987058,-5033.400406,-5515.887586,13027.624579
1103.987384,-3923.091493,-6741.640382,15544.324782
1103.987710,-4293.194464,-6358.592633,16876.695478
1103.988036,-4367.215058,-5439.278036,13545.768739
1103.988362,-2368.659014,-2068.457845,10140.821405
1103.988688,888.247130,766.095498,8586.388927
1103.989014,1184.329507,4366.744339,5921.647536
1103.989340,2368.659014,7354.516781,2294.638420
1103.989666,4219.173869,7967.393179,3404.947333
1103.989992,2960.823768,7660.954980,4145.153275
1103.990317,814.226536,5975.544884,4367.215058
1103.990643,-1110.308913,2834.553343,7179.997637
1103.990969,-5477.523971,-1838.629195,9992.780217
1103.991295,-7698.141797,-5822.325785,11251.130318
1103.991621,-5625.565159,-6894.859482,14285.974681
1103.991947,-4811.338623,-6435.202183,16432.571912
1103.992273,-4515.256246,-4903.011187,13841.851115
1103.992599,-814.226536,-3677.258390,11843.295072
1103.992925,2294.638420,-612.876398,10140.821405
1103.993251,2220.617826,3140.991542,7624.121203
1103.993577,5921.647536,6818.249932,4663.297435
1103.993902,8512.368333,8197.221829,4737.318029
1103.994228,6365.771101,7967.393179,5033.400406
1103.994554,4367.215058,6205.373534,4885.359217
1103.994880,3034.844362,4903.011187,7476.080014
1103.995206,-740.205942,766.095498,10658.965565
1103.995532,-4737.318029,-4366.744339,12509.480420
1103.995858,-4663.297435,-7277.907231,13915.871710
1103.996184,-3849.070898,-7354.516781,15618.345376
1103.996510,-3849.070898,-6281.983084,15026.180623
1103.996836,-2368.659014,-3447.429741,12953.603985
1103.997162,0.000000,-1608.800546,10436.903782
1103.997487,2294.638420,1532.190996,7920.203579
1103.997813,4885.359217,4673.182538,5255.462188
1103.998139,7698.141797,7737.564530,3627.009116
1103.998465,6735.874072,9499.584175,3775.050304
1103.998791,5329.482782,8963.317327,4737.318029
1103.999117,4737.318029,6281.983084,6809.894666
1103.999443,1776.494261,2451.505594,8956.491898
1103.999769,-2590.720797,-1455.581446,11621.233289
1104.000095,-5033.400406,-4826.401637,11621.233289
1104.000421,-4737.318029,-6435.202183,13545.768739
1104.000747,-4811.338623,-6128.763984,16580.613101
1104.001073,-5329.482782,-5056.230287,14063.912898
1104.001398,-4145.153275,-2757.943793,11029.068536
1104.001724,-1554.432478,-1149.143247,8290.306550
1104.002050,518.144159,2145.067394,5921.647536
1104.002376,2368.659014,7354.516781,3849.070898
1104.002702,4219.173869,9193.145976,3182.885551
1104.003028,3404.947333,8120.612279,4071.132681
1104.003354,2146.597232,5669.106685,4367.215058
1104.003680,-740.205942,3830.477490,7624.121203
1104.004006,-3256.906145,689.485948,9252.574275
1104.004332,-5403.503377,-3370.820191,10066.800811
1104.004658,-5033.400406,-5898.935335,14285.974681
1104.004983,-5477.523971,-7124.688131,16876.695478
1104.005309,-7105.977043,-5286.058936,14952.160028
1104.005635,-4145.153275,-4596.572988,12583.501014
1104.005961,-1702.473667,-3907.087040,11399.171507
1104.006287,-296.082377,383.047749,7550.100608
1104.006613,2960.823768,5439.278036,5033.400406
1104.006939,6291.750507,8197.221829,5329.482782
1104.007265,5403.503377,8120.612279,5625.565159
1104.007591,3849.070898,6205.373534,4737.318029
1104.007917,3627.009116,4596.572988,6365.771101
1104.008243,1702.473667,2757.943793,8808.450710
1104.008569,-1554.432478,-1225.752797,10955.047942
1104.008894,-2146.597232,-5439.278036,12509.480420
1104.009220,-2442.679609,-6128.763984,15100.201217
1104.009546,-3478.967927,-5745.716235,15470.304188
1104.009872,-1332.370696,-4749.792088,12805.562797
1104.010198,444.123565,-2987.772442,11399.171507
1104.010524,1036.288319,-306.438199,9030.512492
1104.010850,3478.967927,3830.477490,6883.915261
1104.011176,7031.956449,7890.783629,4737.318029
1104.011502,6217.729913,7660.954980,3775.050304
1104.011828,3552.988522,6818.249932,3404.947333
1104.012154,3478.967927,5669.106685,4737.318029
1104.012479,1036.288319,3600.648841,8216.285956
1104.012805,-2812.782580,-766.095498,10658.965565
1104.013131,-5181.441594,-4290.134789,12139.377449
1104.013457,-4811.338623,-7277.907231,13175.665768
1104.013783,-3997.112087,-5745.716235,15322.262999
1104.014109,-3775.050304,-5056.230287,14063.912898
1104.014435,-2368.659014,-3064.381992,11621.233289
1104.014761,148.041188,-459.657299,9918.759623
1104.015087,3108.864956,3524.039291,8068.244768
1104.015413,5255.462188,7507.735880,5181.441594
1104.015739,6143.709319,9422.974625,4071.132681
1104.016064,4737.318029,9193.145976,3627.009116
1104.016390,3775.050304,7048.078582,5107.421000
1104.016716,2294.638420,5439.278036,8512.368333
1104.017042,-2294.638420,1455.581446,10436.903782
1104.017368,-6439.791695,-3064.381992,10362.883188
1104.017694,-6143.709319,-6665.030833,12583.501014
1104.018020,-5033.400406,-5898.935335,15396.283594
1104.018346,-6735.874072,-4136.915689,14804.118840
1104.018672,-5403.503377,-2987.772442,11399.171507
1104.018998,-1776.494261,-2528.115143,9770.718434
1104.019324,74.020594,0.000000,7105.977043
1104.019650,2072.576638,5132.839837,4811.338623
1104.019975,4219.173869,8963.317327,4367.215058
1104.020301,5181.441594,7967.393179,4441.235652
1104.020627,4811.338623,5439.278036,5181.441594
1104.020953,2960.823768,4290.134789,7698.141797
1104.021279,-592.164754,3294.210641,9918.759623
1104.021605,-2812.782580,-1378.971896,10510.924376
1104.021931,-1850.514855,-6128.763984,12879.583391
1104.022257,-1850.514855,-7354.516781,15026.180623
1104.022583,-3627.009116,-4673.182538,15174.221811
1104.022909,-1628.453072,-2604.724693,12657.521608
1104.023235,592.164754,-2451.505594,12435.459826
1104.023560,1776.494261,-1685.410096,9030.512492
1104.023886,3256.906145,3064.381992,5255.462188
1104.024212,6513.812290,7814.174080,3775.050304
1104.024538,6735.874072,8580.269578,4441.235652
1104.024864,5107.421000,6741.640382,5921.647536
1104.025190,3849.070898,4060.306139,6513.812290
1104.025516,-222.061783,2451.505594,7550.100608
1104.025842,-3182.885551,-1685.410096,9622.677246
1104.026168,-5033.400406,-5822.325785,11621.233289
1104.026494,-5329.482782,-7354.516781,13841.851115
1104.026820,-6513.812290,-6511.811733,15544.324782
1104.027145,-5551.544565,-4903.011187,13693.809927
1104.027471,-1776.494261,-4213.525239,11399.171507
1104.027797,0.000000,-1991.848295,9844.739029
1104.028123,1110.308913,1915.238745,6957.935855
1104.028449,4293.194464,6435.202183,5181.441594
1104.028775,6809.894666,9116.536426,5847.626942
1104.029101,5181.441594,7660.954980,6291.750507
1104.029427,2960.823768,5362.668486,4885.359217
1104.029753,1776.494261,3524.039291,6735.874072
1104.030079,-1924.535449,612.876398,10955.047942
1104.030405,-5773.606348,-3370.820191,11621.233289
1104.030731,-5625.565159,-5975.544884,13397.727550
1104.031056,-4885.359217,-6894.859482,15766.386565
1104.031382,-5773.606348,-5745.716235,13693.809927
1104.031708,-3775.050304,-4903.011187,11695.253884
1104.032034,-1628.453072,-1532.190996,10881.027347
1104.032360,-592.164754,1225.752797,8290.306550
1104.032686,2442.679609,4443.353888,6069.688724
1104.033012,5995.668130,7048.078582,5699.585753
1104.033338,4441.235652,7890.783629,4441.235652
1104.033664,2812.782580,6665.030833,3849.070898
1104.033990,3182.885551,4519.963438,6217.729913
1104.034316,370.102971,1915.238745,9326.594869
1104.034641,-4441.235652,-1378.971896,10881.027347
1104.034967,-4219.173869,-4673.182538,11695.253884
1104.035293,-2516.700203,-6281.983084,14063.912898
1104.035619,-3330.926739,-5362.668486,14582.057057
1104.035945,-2516.700203,-3217.601092,12879.583391
1104.036271,222.061783,-1225.752797,10436.903782
1104.036597,2294.638420,689.485948,8068.244768
1104.036923,4885.359217,3677.258390,6957.935855
1104.037249,7179.997637,7890.783629,4885.359217
1104.037575,6513.812290,9959.241474,4071.132681
1104.037901,5847.626942,7354.516781,4441.235652
1104.038227,5181.441594,4519.963438,6143.709319
1104.038552,2072.576638,2757.943793,9030.512492
1104.038878,-2516.700203,0.000000,9992.780217
1104.039204,-4219.173869,-3983.696590,10881.027347
1104.039530,-3552.988522,-7354.516781,13101.645173
1104.039856,-4811.338623,-5898.935335,16506.592507
1104.040182,-4441.235652,-3983.696590,14434.015869
1104.040508,-1924.535449,-2298.286494,12287.418637
1104.040834,370.102971,-2068.457845,11177.109724
1104.041160,2072.576638,995.924147,7920.203579
1104.041486,3627.009116,6358.592633,3923.091493
1104.041812,5329.482782,8580.269578,4071.132681
1104.042137,4737.318029,7124.688131,5107.421000
1104.042463,3404.947333,5132.839837,5921.647536
1104.042789,888.247130,4290.134789,7105.977043
1104.043115,-2072.576638,76.609550,9474.636058
1104.043441,-5921.647536,-4443.353888,9992.780217
1104.043767,-5699.585753,-7431.126331,12139.377449
1104.044093,-4959.379811,-6665.030833,16210.510130
1104.044419,-5551.544565,-4519.963438,15544.324782
1104.044745,-4145.153275,-3983.696590,12953.603985
1104.045071,-740.205942,-3524.039291,11177.109724
1104.045397,222.061783,-1149.143247,8586.388927
1104.045722,1036.288319,4519.963438,5847.626942
1104.046048,5329.482782,8044.002729,5699.585753
1104.046374,5403.503377,7201.297681,5625.565159
1104.046700,3034.844362,4979.620737,4737.318029
1104.047026,1258.350101,3600.648841,6069.688724
1104.047352,-1110.308913,2451.505594,8660.409521
1104.047678,-4145.153275,-2221.676944,9844.739029
1104.048004,-3627.009116,-5822.325785,11769.274478
1104.048330,-2146.597232,-6818.249932,14582.057057
1104.048656,-2738.761985,-3983.696590,14285.974681
1104.048982,-518.144159,-1991.848295,13175.665768
1104.049308,2146.597232,-1378.971896,11621.233289
1104.049633,2664.741391,612.876398,8438.347739
1104.049959,4737.318029,3753.867940,5551.544565
1104.050285,9104.533087,7890.783629,5921.647536
1104.050611,7550.100608,9652.803275,5551.544565
1104.050937,4071.132681,7201.297681,4367.215058
1104.051263,2590.720797,4596.572988,5181.441594
1104.051589,222.061783,2681.334243,8734.430116
1104.051915,-4737.318029,-76.609550,10362.883188
1104.052241,-7105.977043,-4060.306139,11177.109724
1104.052567,-5995.668130,-8044.002729,12879.583391
1104.052893,-6513.812290,-6435.202183,14952.160028
1104.053218,-6439.791695,-4213.525239,14582.057057
1104.053544,-4293.194464,-2451.505594,11769.274478
1104.053870,-444.123565,-1838.629195,9326.594869
1104.054196,1998.556043,1838.629195,8216.285956
1104.054522,4367.215058,6205.373534,5773.606348
1104.054848,5995.668130,10112.460574,3849.070898
1104.055174,7254.018232,8580.269578,4737.318029
1104.055500,5921.647536,5592.497135,5773.606348
1104.055826,3330.926739,5056.230287,6957.935855
1104.056152,-666.185348,3524.039291,9474.636058
1104.056478,-3404.947333,-1455.581446,10658.965565
1104.056804,-3330.926739,-5975.544884,11843.295072
1104.057129,-3923.091493,-7354.516781,14878.139434
1104.057455,-4737.318029,-4749.792088,14508.036463
1104.057781,-4885.359217,-2681.334243,12213.398043
1104.058107,-1924.535449,-2604.724693,11325.150913
1104.058433,-1110.308913,-1608.800546,9400.615463
1104.058759,-370.102971,2757.943793,4293.194464
1104.059085,2072.576638,6128.763984,2220.617826
1104.059411,3552.988522,7201.297681,3775.050304
1104.059737,1332.370696,6052.154434,5107.421000
1104.060063,74.020594,4826.401637,7624.121203
1104.060389,-1702.473667,1455.581446,9104.533087
1104.060714,-4737.318029,-3600.648841,9622.677246
1104.061040,-5403.503377,-7814.174080,11251.130318
1104.061366,-3849.070898,-6818.249932,14730.098246
1104.061692,-3849.070898,-4673.182538,17246.798449
1104.062018,-2664.741391,-4903.011187,14508.036463
1104.062344,962.267725,-4519.963438,12805.562797
1104.062670,2368.659014,-1532.190996,9474.636058
1104.062996,3775.050304,4060.306139,5847.626942
1104.063322,8290.306550,8197.221829,4367.215058
1104.063648,9474.636058,9116.536426,5329.482782
1104.063974,7402.059420,8044.002729,5255.462188
1104.064299,5847.626942,6894.859482,5107.421000
1104.064625,3256.906145,4979.620737,7105.977043
1104.064951,-1036.288319,536.266849,9622.677246
1104.065277,-3182.885551,-4519.963438,10881.027347
1104.065603,-3034.844362,-6128.763984,13249.686362
1104.065929,-4219.173869,-5592.497135,15544.324782
1104.066255,-4737.318029,-4903.011187,14359.995275
1104.066581,-3478.967927,-3753.867940,11103.089130
1104.066907,-2072.576638,-2068.457845,9548.656652
1104.067233,-592.164754,1532.190996,7179.997637
1104.067559,2368.659014,5669.106685,4737.318029
1104.067885,4293.194464,7507.735880,4441.235652
1104.068210,3552.988522,7277.907231,5107.421000
1104.068536,2516.700203,6588.421283,6291.750507
1104.068862,1776.494261,4749.792088,7105.977043
1104.069188,-888.247130,1225.752797,9918.759623
1104.069514,-4367.215058,-2681.334243,11473.192101
1104.069840,-4293.194464,-5822.325785,12805.562797
1104.070166,-2664.741391,-6052.154434,15766.386565
1104.070492,-3478.967927,-4366.744339,15840.407159
1104.070818,-2590.720797,-2528.115143,12879.583391
1104.071144,444.123565,-612.876398,10288.862594
1104.071470,2886.803174,1532.190996,8734.430116
1104.071795,4145.153275,5898.935335,5773.606348
1104.072121,5255.462188,8886.707777,3404.947333
1104.072447,5329.482782,9499.584175,3478.967927
1104.072773,4219.173869,7890.783629,3923.091493
1104.073099,1998.556043,5592.497135,5847.626942
1104.073425,-2294.638420,3064.381992,8290.306550
1104.073751,-7105.977043,-2145.067394,9992.780217
1104.074077,-7772.162391,-6894.859482,11251.130318
1104.074403,-6291.750507,-8810.098227,14211.954086
1104.074729,-7550.100608,-7201.297681,15396.283594
1104.075054,-6587.832884,-4979.620737,12509.480420
1104.075380,-2294.638420,-3217.601092,11177.109724
1104.075706,1036.288319,-1225.752797,10510.924376
1104.076032,2590.720797,3294.210641,7698.141797
1104.076358,5773.606348,8656.879127,4959.379811
1104.076683,8290.306550,10112.460574,4219.173869
1104.077009,8660.409521,7814.174080,5551.544565
1104.077335,6587.832884,6665.030833,6143.709319
1104.077661,2960.823768,4903.011187,8438.347739
1104.077987,-962.267725,536.266849,11029.068536
1104.078312,-3108.864956,-5439.278036,12361.439231
1104.078638,-2960.823768,-8656.879127,14285.974681
1104.078964,-4219.173869,-7431.126331,15840.407159
1104.079290,-4811.338623,-4749.792088,13915.871710
1104.079616,-2220.617826,-4060.306139,11991.336260
1104.079942,-222.061783,-2604.724693,9326.594869
1104.080267,592.164754,1608.800546,7328.038826
1104.080593,3330.926739,6588.421283,3923.091493
1104.080919,6143.709319,9116.536426,2590.720797
1104.081245,5773.606348,8120.612279,3997.112087
1104.081571,3404.947333,6052.154434,4589.276840
1104.081896,1036.288319,5132.839837,6143.709319
1104.082222,-1110.308913,459.657299,8068.244768
1104.082548,-5033.400406,-4673.182538,10436.903782
1104.082874,-6365.771101,-7584.345430,12139.377449
1104.083200,-5921.647536,-6894.859482,14582.057057
1104.083525,-6143.709319,-5822.325785,15322.262999
1104.083851,-3478.967927,-5669.106685,12583.501014
1104.084177,-370.102971,-3830.477490,10807.006753
1104.084503,148.041188,1225.752797,9178.553681
1104.084829,3182.885551,6128.763984,6735.874072
1104.085154,5699.585753,7584.345430,5699.585753
1104.085480,5551.544565,6588.421283,6143.709319
1104.085806,2812.782580,6128.763984,5551.544565
1104.086132,2368.659014,5592.497135,6513.812290
1104.086458,-222.061783,3217.601092,10362.883188
1104.086784,-5329.482782,-2528.115143,11621.233289
1104.087109,-7994.224174,-6741.640382,11473.192101
1104.087435,-5699.585753,-7814.174080,14359.995275
1104.087761,-5033.400406,-6205.373534,15766.386565
1104.088087,-4737.318029,-3753.867940,13619.789333
1104.088413,-1258.350101,-1991.848295,11695.253884
1104.088738,1924.535449,229.828649,8882.471304
1104.089064,4515.256246,4903.011187,6143.709319
1104.089390,8068.244768,8273.831378,3552.988522
1104.089716,8586.388927,10878.556072,3256.906145
1104.090042,7105.977043,10265.679673,3775.050304
1104.090367,6365.771101,7660.954980,5847.626942
1104.090693,3330.926739,4213.525239,7550.100608
1104.091019,-2294.638420,0.000000,9030.512492
1104.091345,-5699.585753,-4443.353888,9400.615463
1104.091671,-4219.173869,-6128.763984,12287.418637
1104.091996,-4071.132681,-5975.544884,15470.304188
1104.092322,-5847.626942,-5056.230287,15248.242405
1104.092648,-4737.318029,-3907.087040,11621.233289
1104.092974,-888.247130,-2374.896044,9548.656652
1104.093300,814.226536,1149.143247,8068.244768
1104.093626,3034.844362,5975.544884,5329.482782
1104.093951,4515.256246,9269.755526,3701.029710
1104.094277,4959.379811,8044.002729,4885.359217
1104.094603,4737.318029,4979.620737,5477.523971
1104.094929,2664.741391,4290.134789,8216.285956
1104.095255,-222.061783,2298.286494,9992.780217
1104.095580,-3849.070898,-1838.629195,11843.295072
1104.095906,-3108.864956,-6281.983084,12583.501014
1104.096232,-1850.514855,-6818.249932,15692.365970
1104.096558,-2664.741391,-4290.134789,15396.283594
1104.096884,-2294.638420,-1915.238745,13027.624579
1104.097209,740.205942,-1378.971896,11251.130318
1104.097535,1850.514855,-153.219100,8808.450710
1104.097861,1776.494261,4290.134789,5699.585753
1104.098187,3256.906145,7048.078582,3330.926739
1104.098513,3701.029710,7890.783629,3330.926739
1104.098838,2146.597232,5592.497135,4663.297435
1104.099164,-222.061783,3753.867940,5847.626942
1104.099490,-2886.803174,1685.410096,8216.285956
1104.099816,-6365.771101,-2757.943793,9992.780217
1104.100142,-6587.832884,-7584.345430,11251.130318
1104.100468,-4589.276840,-8580.269578,14063.912898
1104.100793,-4737.318029,-5362.668486,16506.592507
1104.101119,-4293.194464,-3524.039291,13767.830521
1104.101445,-888.247130,-3447.429741,11991.336260
1104.101771,666.185348,-2911.162892,10510.924376
1104.102097,2220.617826,2068.457845,7772.162391
1104.102422,5921.647536,7660.954980,5403.503377
1104.102748,8216.285956,8350.440928,5403.503377
1104.103074,5995.668130,6511.811733,5551.544565
1104.103400,4145.153275,4596.572988,5625.565159
1104.103726,2442.679609,3600.648841,7772.162391
1104.104051,-1258.350101,459.657299,9844.739029
1104.104377,-4737.318029,-3677.258390,10955.047942
1104.104703,-3034.844362,-6052.154434,12731.542202
1104.105029,-2294.638420,-5056.230287,14359.995275
1104.105355,-2960.823768,-3064.381992,13249.686362
1104.105680,-1702.473667,-2604.724693,11473.192101
1104.106006,296.082377,-919.314598,8364.327145
1104.106332,2442.679609,2757.943793,6809.894666
1104.106658,4589.276840,6358.592633,4885.359217
1104.106984,5477.523971,8273.831378,4367.215058
1104.107310,4441.235652,8503.660028,4293.194464
1104.107635,3849.070898,6128.763984,5181.441594
1104.107961,3108.864956,5056.230287,6809.894666
1104.108287,-222.061783,1915.238745,9474.636058
1104.108613,-4737.318029,-1685.410096,10955.047942
1104.108939,-4737.318029,-4903.011187,11325.150913
1104.109264,-3701.029710,-5745.716235,15174.221811
1104.109590,-4441.235652,-4366.744339,16136.489536
1104.109916,-4145.153275,-2757.943793,12657.521608
1104.110242,-1776.494261,-1378.971896,10881.027347
1104.110568,1406.391290,0.000000,10066.800811
1104.110893,1702.473667,3677.258390,7846.182985
1104.111219,3108.864956,6205.373534,5477.523971
1104.111545,3552.988522,7048.078582,5699.585753
1104.111871,2442.679609,4903.011187,5773.606348
1104.112197,1776.494261,3983.696590,6439.791695
1104.112522,-814.226536,1532.190996,8068.244768
1104.112848,-4219.173869,-1455.581446,10955.047942
1104.113174,-5403.503377,-4673.182538,12065.356855
1104.113500,-4145.153275,-6205.373534,13915.871710
1104.113826,-4589.276840,-6588.421283,13101.645173
1104.114152,-4811.338623,-3907.087040,11251.130318
1104.114477,-1554.432478,-2451.505594,9918.759623
1104.114803,518.144159,459.657299,8660.409521
1104.115129,1480.411884,2757.943793,6291.750507
1104.115455,4145.153275,5132.839837,3849.070898
1104.115781,6439.791695,7048.078582,3849.070898
1104.116106,4885.359217,7354.516781,4589.276840
1104.116432,2960.823768,6358.592633,5921.647536
1104.116758,1702.473667,3677.258390,7772.162391
1104.117084,-1480.411884,-1608.800546,10214.842000
1104.117410,-4145.153275,-4903.011187,11029.068536
1104.117735,-4219.173869,-6511.811733,13175.665768
1104.118061,-4219.173869,-6511.811733,14878.139434
1104.118387,-3627.009116,-6052.154434,15322.262999
1104.118713,-1480.411884,-4060.306139,13693.809927
1104.119039,74.020594,-689.485948,11399.171507
1104.119364,1776.494261,1532.190996,7328.038826
1104.119690,5477.523971,3677.258390,4737.318029
1104.120016,7105.977043,7048.078582,5551.544565
1104.120342,6439.791695,9652.803275,6513.812290
1104.120668,4737.318029,8580.269578,6587.832884
1104.120994,4737.318029,5056.230287,7624.121203
1104.121319,1554.432478,459.657299,9622.677246
1104.121645,-3330.926739,-1762.019645,11029.068536
1104.121971,-4441.235652,-3677.258390,11769.274478
1104.122297,-4219.173869,-5286.058936,14137.933492
1104.122623,-4367.215058,-6281.983084,14804.118840
1104.122948,-4145.153275,-4443.353888,12361.439231
1104.123274,-2146.597232,-919.314598,9400.615463
1104.123600,-592.164754,1378.971896,7031.956449
1104.123926,1702.473667,4136.915689,6069.688724
1104.124252,3478.967927,7048.078582,4219.173869
1104.124577,4515.256246,8810.098227,4071.132681
1104.124903,3330.926739,7967.393179,4441.235652
1104.125229,2146.597232,5056.230287,5699.585753
1104.125555,0.000000,2604.724693,8660.409521
1104.125881,-3330.926739,-1302.362347,10288.862594
1104.126206,-5625.565159,-4136.915689,11843.295072
1104.126532,-4589.276840,-6588.421283,14211.954086
1104.126858,-4441.235652,-6511.811733,15396.283594
1104.127184,-4811.338623,-4519.963438,12953.603985
1104.127510,-3330.926739,-1838.629195,11325.150913
1104.127836,-296.082377,0.000000,9548.656652
1104.128161,1628.453072,2298.286494,7698.141797
1104.128487,4145.153275,5515.887586,5329.482782
1104.128813,5551.544565,7814.174080,5033.400406
1104.129139,4737.318029,7431.126331,4737.318029
1104.129465,4293.194464,5439.278036,6513.812290
1104.129790,2072.576638,3677.258390,8586.388927
1104.130116,-1480.411884,766.095498,9844.739029
1104.130442,-2960.823768,-4903.011187,11251.130318
1104.130768,-2960.823768,-7124.688131,12435.459826
1104.131094,-4441.235652,-5898.935335,14656.077652
1104.131419,-3775.050304,-3830.477490,13989.892304
1104.131745,-740.205942,-3064.381992,11769.274478
1104.132071,1184.329507,-2528.115143,10658.965565
1104.132397,1998.556043,689.485948,9178.553681
1104.132723,4071.132681,5515.887586,5181.441594
1104.133049,7105.977043,7814.174080,4145.153275
1104.133374,6735.874072,6052.154434,5329.482782
1104.133700,4663.297435,5209.449386,6069.688724
1104.134026,2220.617826,5515.887586,6587.832884
1104.134352,-74.020594,1762.019645,8956.491898
1104.134678,-3330.926739,-4443.353888,10807.006753
1104.135003,-4811.338623,-7431.126331,11695.253884
1104.135329,-5329.482782,-6128.763984,13323.706956
1104.135655,-4959.379811,-5209.449386,13989.892304
1104.135981,-3404.947333,-5209.449386,12805.562797
1104.136307,-1184.329507,-2757.943793,11843.295072
1104.136632,518.144159,1378.971896,9326.594869
1104.136958,2368.659014,4979.620737,6069.688724
1104.137284,5477.523971,5669.106685,4219.173869
1104.137610,6513.812290,6052.154434,5329.482782
1104.137936,4145.153275,7354.516781,6661.853478
1104.138261,1702.473667,6741.640382,6587.832884
1104.138587,0.000000,2068.457845,8808.450710
1104.138913,-3701.029710,-3370.820191,10955.047942
1104.139239,-6661.853478,-5898.935335,10881.027347
1104.139565,-5921.647536,-5439.278036,11843.295072
1104.139891,-6143.709319,-4903.011187,14211.954086
1104.140216,-5329.482782,-4979.620737,13027.624579
1104.140542,-2886.803174,-2604.724693,11103.089130
1104.140868,-1184.329507,995.924147,9030.512492
1104.141194,148.041188,3217.601092,6439.791695
1104.141520,3182.885551,5286.058936,4959.379811
1104.141845,5847.626942,7354.516781,4515.256246
1104.142171,4737.318029,8810.098227,5403.503377
1104.142497,2886.803174,6818.249932,6217.729913
1104.142823,1184.329507,3294.210641,8216.285956
1104.143149,-1628.453072,-1378.971896,9770.718434
1104.143474,-4737.318029,-4290.134789,10881.027347
1104.143800,-3478.967927,-5592.497135,12657.521608
1104.144126,-3108.864956,-5362.668486,14582.057057
1104.144452,-2960.823768,-4060.306139,14878.139434
1104.144778,-1702.473667,-3217.601092,12435.459826
1104.145103,592.164754,-1072.533697,9770.718434
1104.145429,3404.947333,2221.676944,8364.327145
1104.145755,5773.606348,5822.325785,6587.832884
1104.146081,7031.956449,7431.126331,4515.256246
1104.146407,6957.935855,8427.050478,4811.338623
1104.146733,6217.729913,6971.469032,5699.585753
1104.147058,3552.988522,4903.011187,6809.894666
1104.147384,666.185348,1762.019645,8142.265362
1104.147710,-2072.576638,-1991.848295,10807.006753
1104.148036,-3108.864956,-5056.230287,12731.542202
1104.148362,-2812.782580,-6205.373534,15026.180623
1104.148687,-3404.947333,-5669.106685,15248.242405
1104.149013,-3034.844362,-3753.867940,12361.439231
1104.149339,-666.185348,-2145.067394,9770.718434
1104.149665,1110.308913,-306.438199,9030.512492
1104.149991,1702.473667,3677.258390,7105.977043
1104.150316,2812.782580,6741.640382,4589.276840
1104.150642,4441.235652,7354.516781,3775.050304
1104.150968,3627.009116,5745.716235,4145.153275
1104.151294,1332.370696,4903.011187,4885.359217
1104.151620,-1850.514855,3830.477490,7624.121203
1104.151945,-4737.318029,-766.095498,10140.821405
1104.152271,-6513.812290,-6205.373534,11843.295072
1104.152597,-4885.359217,-7737.564530,12953.603985
1104.152923,-4885.359217,-4903.011187,15544.324782
1104.153249,-4367.215058,-2911.162892,14063.912898
1104.153575,-1628.453072,-2681.334243,12435.459826
1104.153900,740.205942,-1455.581446,11029.068536
1104.154226,1924.535449,2068.457845,8882.471304
1104.154552,3923.091493,7354.516781,4737.318029
1104.154878,6513.812290,8503.660028,4737.318029
1104.155204,4959.379811,6894.859482,6291.750507
1104.155529,1776.494261,5975.544884,5921.647536
1104.155855,888.247130,4596.572988,7402.059420
1104.156181,-1850.514855,0.000000,8586.388927
1104.156507,-5551.544565,-3983.696590,10288.862594
1104.156833,-5921.647536,-5439.278036,12361.439231
1104.157158,-4663.297435,-4979.620737,13915.871710
1104.157484,-4071.132681,-4749.792088,13471.748144
1104.157810,-2664.741391,-5209.449386,11769.274478
1104.158136,-518.144159,-2451.505594,9622.677246
1104.158462,1850.514855,2757.943793,8290.306550
1104.158787,4145.153275,5286.058936,7105.977043
1104.159113,5847.626942,5439.278036,5329.482782
1104.159439,5477.523971,5975.544884,4663.297435
1104.159765,4737.318029,6358.592633,5329.482782
1104.160091,3775.050304,6052.154434,7105.977043
1104.160417,1628.453072,2911.162892,9030.512492
1104.160742,-1998.556043,-2528.115143,11103.089130
1104.161068,-3330.926739,-5286.058936,11843.295072
1104.161394,-2738.761985,-4826.401637,13175.665768
1104.161720,-2664.741391,-4136.915689,15544.324782
1104.162046,-2294.638420,-3983.696590,13323.706956
1104.162371,-666.185348,-2068.457845,10288.862594
1104.162697,2072.576638,-459.657299,8512.368333
1104.163023,3404.947333,3600.648841,6217.729913
1104.163349,4811.338623,7507.735880,5255.462188
1104.163675,5995.668130,8656.879127,5181.441594
1104.164000,5329.482782,7814.174080,5329.482782
1104.164326,3182.885551,6435.202183,6439.791695
1104.164652,222.061783,3983.696590,8068.244768
1104.164978,-3256.906145,536.266849,9326.594869
1104.165304,-5995.668130,-4060.306139,10214.842000
1104.165629,-6069.688724,-6741.640382,13101.645173
1104.165955,-6439.791695,-6358.592633,14878.139434
1104.166281,-6735.874072,-4673.182538,13841.851115
1104.166607,-5181.441594,-3753.867940,11917.315666
1104.166933,-2368.659014,-1991.848295,9918.759623
1104.167259,-444.123565,536.266849,8364.327145
1104.167584,1554.432478,5056.230287,4589.276840
1104.167910,4071.132681,7354.516781,4219.173869
1104.168236,3849.070898,7660.954980,5329.482782
1104.168562,2664.741391,6894.859482,5847.626942
1104.168888,1776.494261,4903.011187,7179.997637
1104.169213,-592.164754,0.000000,8882.471304
1104.169539,-3256.906145,-4136.915689,11103.089130
1104.169865,-4219.173869,-5669.106685,13101.645173
1104.170191,-2738.761985,-6128.763984,15692.365970
1104.170517,-3478.967927,-5669.106685,14804.118840
1104.170842,-2368.659014,-5669.106685,12435.459826
1104.171168,296.082377,-2987.772442,11251.130318
1104.171494,1776.494261,1302.362347,8068.244768
1104.171820,3775.050304,5669.106685,5329.482782
1104.172146,5921.647536,6358.592633,3997.112087
1104.172471,5847.626942,7201.297681,3849.070898
1104.172797,3404.947333,7890.783629,3923.091493
1104.173123,2368.659014,5822.325785,5921.647536
1104.173449,-74.020594,1225.752797,8068.244768
1104.173775,-3701.029710,-2987.772442,9844.739029
1104.174101,-5181.441594,-6511.811733,12065.356855
1104.174426,-5107.421000,-6358.592633,14285.974681
1104.174752,-4441.235652,-5745.716235,15248.242405
1104.175078,-2960.823768,-5898.935335,14211.954086
1104.175404,-1258.350101,-3600.648841,12139.377449
1104.175731,1406.391290,306.438199,9474.636058
1104.176057,4811.338623,3677.258390,7254.018232
1104.176383,7402.059420,7048.078582,5403.503377
1104.176709,7550.100608,8810.098227,4737.318029
1104.177035,6735.874072,9269.755526,5107.421000
1104.177361,6069.688724,8197.221829,6217.729913
1104.177687,3775.050304,4903.011187,8882.471304
1104.178013,-1036.288319,0.000000,10584.944971
1104.178339,-5403.503377,-4060.306139,10732.986159
1104.178665,-5921.647536,-5975.544884,12139.377449
1104.178991,-5255.462188,-7201.297681,14656.077652
1104.179317,-6365.771101,-5745.716235,14359.995275
1104.179643,-5995.668130,-3830.477490,12065.356855
1104.179968,-3034.844362,-1762.019645,9770.718434
1104.180294,296.082377,1302.362347,8068.244768
1104.180620,2590.720797,5209.449386,5551.544565
1104.180946,3775.050304,7967.393179,3256.906145
1104.181272,4367.215058,9652.803275,4293.194464
1104.181598,4367.215058,7814.174080,4959.379811
1104.181924,2590.720797,5439.278036,7698.141797
1104.182250,-1184.329507,1991.848295,8882.471304
1104.182576,-5255.462188,-2451.505594,9696.697840
1104.182902,-5107.421000,-6052.154434,11843.295072
1104.183228,-3701.029710,-6741.640382,15544.324782
1104.183554,-4589.276840,-5209.449386,15618.345376
1104.183880,-3923.091493,-4443.353888,11843.295072
1104.184206,-1554.432478,-3217.601092,9918.759623
1104.184532,1850.514855,0.000000,8734.430116
1104.184857,3701.029710,5056.230287,6439.791695
1104.185183,6365.771101,9422.974625,4293.194464
1104.185509,7920.203579,9422.974625,4071.132681
1104.185835,6957.935855,7967.393179,5107.421000
1104.186161,4663.297435,6358.592633,6883.915261
1104.186487,814.226536,3524.039291,8068.244768
1104.186813,-2738.761985,-1378.971896,10214.842000
1104.187139,-3923.091493,-6971.469032,12731.542202
1104.187465,-4589.276840,-8273.831378,14878.139434
1104.187791,-5033.400406,-6511.811733,15914.427753
1104.188117,-4737.318029,-5898.935335,13545.768739
1104.188443,-2368.659014,-4979.620737,11695.253884
1104.188769,-296.082377,-2451.505594,10066.800811
1104.189095,1924.535449,3064.381992,8364.327145
1104.189420,4959.379811,7660.954980,5625.565159
1104.189746,7254.018232,8273.831378,5033.400406
1104.190072,5551.544565,6511.811733,5551.544565
1104.190398,3330.926739,5898.935335,5181.441594
1104.190724,1554.432478,5515.887586,7105.977043
1104.191050,-444.123565,459.657299,10214.842000
1104.191376,-4293.194464,-4749.792088,11621.233289
1104.191702,-5773.606348,-7277.907231,12435.459826
1104.192028,-5477.523971,-6665.030833,13841.851115
1104.192354,-4885.359217,-5362.668486,13619.789333
1104.192680,-3627.009116,-3983.696590,11843.295072
1104.193006,-1480.411884,-2068.457845,10288.862594
1104.193332,666.185348,2298.286494,7550.100608
1104.193658,3775.050304,5669.106685,4959.379811
1104.193984,6217.729913,7584.345430,3997.112087
1104.194309,3997.112087,8656.879127,4293.194464
1104.194635,2442.679609,8427.050478,3701.029710
1104.194961,1776.494261,5592.497135,5921.647536
1104.195287,-1702.473667,1149.143247,9400.615463
1104.195613,-6735.874072,-4213.525239,10732.986159
1104.195939,-7920.203579,-6205.373534,12065.356855
1104.196265,-6069.688724,-7277.907231,14211.954086
1104.196591,-5181.441594,-7277.907231,15174.221811
1104.196917,-4367.215058,-5209.449386,14137.933492
1104.197243,-1258.350101,-2068.457845,12287.418637
1104.197569,1480.411884,1762.019645,9252.574275
1104.197895,5477.523971,4979.620737,8068.244768
1104.198221,8956.491898,7507.735880,5921.647536
1104.198547,8808.450710,10265.679673,4737.318029
1104.198873,7550.100608,10035.851024,5403.503377
1104.199198,6365.771101,7354.516781,6809.894666
1104.199524,2442.679609,3600.648841,7846.182985
1104.199850,-2960.823768,-306.438199,9622.677246
1104.200176,-5551.544565,-4826.401637,10658.965565
1104.200502,-5033.400406,-7354.516781,12213.398043
1104.200828,-5477.523971,-7048.078582,15470.304188
1104.201154,-5995.668130,-5209.449386,14285.974681
1104.201480,-4071.132681,-3294.210641,10214.842000
1104.201806,-740.205942,-1608.800546,7994.224174
1104.202132,2368.659014,1762.019645,7254.018232
1104.202458,3552.988522,7584.345430,4959.379811
1104.202784,5403.503377,10418.898773,3627.009116
1104.203110,5477.523971,8886.707777,4737.318029
1104.203436,4737.318029,4749.792088,4441.235652
1104.203762,2590.720797,4213.525239,6439.791695
1104.204087,-962.267725,2987.772442,9104.533087
1104.204413,-3627.009116,-2911.162892,11103.089130
1104.204739,-4959.379811,-7277.907231,13397.727550
1104.205065,-3701.029710,-8197.221829,16802.674883
1104.205391,-4219.173869,-5209.449386,15396.283594
1104.205717,-2812.782580,-3064.381992,11695.253884
1104.206043,296.082377,-2604.724693,11399.171507
1104.206369,1776.494261,0.000000,9696.697840
1104.206695,2886.803174,5362.668486,6069.688724
1104.207021,5921.647536,7814.174080,5107.421000
1104.207347,6143.709319,7431.126331,5403.503377
1104.207673,2590.720797,6511.811733,5255.462188
1104.207999,740.205942,5209.449386,6069.688724
1104.208325,-1184.329507,1455.581446,7328.038826
1104.208651,-4737.318029,-3907.087040,9548.656652
1104.208976,-7698.141797,-6205.373534,12879.583391
1104.209302,-6069.688724,-6741.640382,14730.098246
1104.209628,-5477.523971,-5822.325785,14582.057057
1104.209954,-4737.318029,-6205.373534,13767.830521
1104.210280,-2960.823768,-5592.497135,12065.356855
1104.210606,-444.123565,-229.828649,8882.471304
1104.210932,2590.720797,4443.353888,6439.791695
1104.211258,7328.038826,6818.249932,5773.606348
1104.211584,7846.182985,8044.002729,4515.256246
1104.211910,5699.585753,8963.317327,4367.215058
1104.212236,5255.462188,7431.126331,5329.482782
1104.212562,3701.029710,4443.353888,7698.141797
1104.212888,148.041188,459.657299,10066.800811
1104.213214,-2886.803174,-2604.724693,11399.171507
1104.213539,-1332.370696,-4673.182538,12139.377449
1104.213865,-2220.617826,-4519.963438,15248.242405
1104.214191,-3627.009116,-5286.058936,14656.077652
1104.214517,-2442.679609,-3983.696590,12287.418637
1104.214843,-814.226536,-1685.410096,10658.965565
1104.215169,1332.370696,1532.190996,8068.244768
1104.215495,3478.967927,5669.106685,6291.750507
1104.215821,4737.318029,7737.564530,4441.235652
1104.216147,3404.947333,8503.660028,3923.091493
1104.216473,2590.720797,6894.859482,4367.215058
1104.216799,370.102971,4826.401637,7179.997637
1104.217125,-1924.535449,1915.238745,9622.677246
1104.217451,-4589.276840,-995.924147,10436.903782
1104.217777,-5181.441594,-5056.230287,11325.150913
1104.218103,-5033.400406,-5898.935335,14211.954086
1104.218428,-5699.585753,-6052.154434,14285.974681
1104.218754,-4589.276840,-4673.182538,12805.562797
1104.219080,-2294.638420,-2757.943793,11695.253884
1104.219406,666.185348,-919.314598,9474.636058
1104.219732,2812.782580,4290.134789,7698.141797
1104.220058,6291.750507,8733.488677,4737.318029
1104.220384,7920.203579,9806.022374,4663.297435
1104.220710,6513.812290,8427.050478,4885.359217
1104.221036,4293.194464,6971.469032,5329.482782
1104.221362,1850.514855,5745.716235,7328.038826
1104.221688,-2072.576638,842.705048,9400.615463
1104.222014,-5773.606348,-4673.182538,11029.068536
1104.222340,-6439.791695,-8427.050478,14211.954086
1104.222666,-7402.059420,-7201.297681,16210.510130
1104.222992,-8290.306550,-6971.469032,13619.789333
1104.223317,-5551.544565,-6971.469032,11399.171507
1104.223643,-3627.009116,-4979.620737,10140.821405
1104.223969,-1702.473667,689.485948,7254.018232
1104.224295,3701.029710,5209.449386,5477.523971
1104.224621,6587.832884,7737.564530,6291.750507
1104.224947,4885.359217,7201.297681,4293.194464
1104.225273,4663.297435,6358.592633,3923.091493
1104.225599,4663.297435,5362.668486,7179.997637
1104.225925,1332.370696,2145.067394,9918.759623
1104.226251,-1776.494261,-2757.943793,10881.027347
1104.226577,-1628.453072,-5898.935335,13471.748144
1104.226903,-1406.391290,-6741.640382,15544.324782
1104.227229,-2146.597232,-5745.716235,15470.304188
1104.227555,-666.185348,-4596.572988,13397.727550
1104.227881,740.205942,-2374.896044,10584.944971
1104.228206,1924.535449,1762.019645,7624.121203
1104.228532,5477.523971,5286.058936,5699.585753
1104.228858,7402.059420,8886.707777,4737.318029
1104.229184,5107.421000,9499.584175,3330.926739
1104.229510,3182.885551,7584.345430,3404.947333
1104.229836,2368.659014,5286.058936,4885.359217
1104.230162,-666.185348,2451.505594,8216.285956
1104.230488,-4811.338623,-995.924147,10436.903782
1104.230814,-6661.853478,-5515.887586,10955.047942
1104.231140,-5699.585753,-7277.907231,13471.748144
1104.231466,-5699.585753,-7584.345430,16506.592507
1104.231792,-5921.647536,-4903.011187,14878.139434
1104.232118,-3775.050304,-2451.505594,11547.212695
1104.232444,0.000000,-2374.896044,9622.677246
1104.232769,3034.844362,2451.505594,8142.265362
1104.233095,5403.503377,8963.317327,6439.791695
1104.233421,6735.874072,11491.432470,5107.421000
1104.233747,5699.585753,8656.879127,4441.235652
1104.234073,5033.400406,5209.449386,5995.668130
1104.234399,1776.494261,4519.963438,8438.347739
1104.234725,-2738.761985,2911.162892,9030.512492
1104.235051,-5477.523971,-2528.115143,10658.965565
1104.235377,-4515.256246,-8503.660028,13693.809927
1104.235703,-5181.441594,-7737.564530,15766.386565
1104.236029,-6883.915261,-5362.668486,12657.521608
1104.236355,-4589.276840,-3907.087040,10658.965565
1104.236681,-1480.411884,-3294.210641,9474.636058
1104.237007,814.226536,229.828649,8216.285956
1104.237333,3552.988522,6971.469032,6143.709319
1104.237658,6069.688724,9959.241474,3923.091493
1104.237984,5477.523971,7431.126331,3478.967927
1104.238310,4589.276840,4366.744339,4145.153275
1104.238636,2738.761985,4979.620737,7105.977043
1104.238962,-740.205942,3907.087040,9030.512492
1104.239288,-3404.947333,-2834.553343,10881.027347
1104.239614,-3478.967927,-9116.536426,12953.603985
1104.239940,-3775.050304,-8503.660028,15396.283594
1104.240266,-4515.256246,-4903.011187,15248.242405
1104.240592,-2368.659014,-3600.648841,13619.789333
1104.240918,1332.370696,-3524.039291,11991.336260
1104.241244,2886.803174,-1838.629195,9030.512492
1104.241570,5329.482782,5056.230287,7031.956449
1104.241896,8142.265362,9806.022374,5921.647536
1104.242222,7846.182985,9729.412825,6365.771101
1104.242547,6439.791695,7048.078582,5699.585753
1104.242873,4367.215058,5439.278036,5403.503377
1104.243199,888.247130,3294.210641,6809.894666
1104.243525,-3404.947333,-1302.362347,9992.780217
1104.243851,-5995.668130,-5592.497135,12139.377449
1104.244177,-6883.915261,-7431.126331,14063.912898
1104.244503,-7105.977043,-7354.516781,14582.057057
1104.244829,-6291.750507,-6358.592633,12805.562797
1104.245155,-3775.050304,-4060.306139,10807.006753
1104.245481,-1036.288319,-153.219100,8586.388927
1104.245807,2368.659014,3907.087040,6883.915261
1104.246133,5699.585753,8656.879127,5403.503377
1104.246459,6661.853478,10112.460574,4589.276840
1104.246785,4737.318029,9039.926876,3404.947333
1104.247111,3182.885551,7660.954980,3997.112087
1104.247436,1406.391290,5056.230287,7994.224174
1104.247762,-1628.453072,766.095498,10436.903782
1104.248088,-5477.523971,-3677.258390,10584.944971
1104.248414,-5773.606348,-7431.126331,13545.768739
1104.248740,-6365.771101,-7354.516781,16210.510130
1104.249066,-5847.626942,-5975.544884,14878.139434
1104.249392,-3701.029710,-4366.744339,13545.768739
1104.249718,-2220.617826,-2681.334243,10807.006753
1104.250044,222.061783,383.047749,7550.100608
1104.250370,3552.988522,6128.763984,7179.997637
1104.250696,4885.359217,8656.879127,5773.606348
1104.251022,3182.885551,8733.488677,3552.988522
1104.251348,3034.844362,5669.106685,2886.803174
1104.251674,2220.617826,3217.601092,5551.544565
1104.252000,-1332.370696,2145.067394,7846.182985
1104.252325,-4441.235652,-1762.019645,9400.615463
1104.252651,-4589.276840,-5975.544884,11473.192101
1104.252977,-3330.926739,-7354.516781,14359.995275
1104.253303,-3627.009116,-5056.230287,15618.345376
1104.253629,-2294.638420,-2987.772442,12435.459826
1104.253955,0.000000,-3064.381992,11399.171507
1104.254281,2886.803174,-1225.752797,9326.594869
1104.254607,6661.853478,4519.963438,8734.430116
1104.254933,8142.265362,9116.536426,5551.544565
1104.255259,7254.018232,9039.926876,4737.318029
1104.255585,5995.668130,6128.763984,5033.400406
1104.255911,4515.256246,4596.572988,6735.874072
1104.256237,518.144159,3830.477490,8364.327145
1104.256563,-2590.720797,-689.485948,9252.574275
1104.256888,-4811.338623,-5132.839837,10658.965565
1104.257214,-4441.235652,-8120.612279,13397.727550
1104.257540,-4663.297435,-5975.544884,16358.551318
1104.257866,-4441.235652,-3907.087040,13767.830521
1104.258192,-2368.659014,-3753.867940,11917.315666
1104.258518,592.164754,-2987.772442,9548.656652
1104.258844,2590.720797,2911.162892,7624.121203
1104.259170,4737.318029,8580.269578,5699.585753
1104.259496,6069.688724,8886.707777,5107.421000
1104.259822,4737.318029,6894.859482,4589.276840
1104.260148,2664.741391,5132.839837,5181.441594
1104.260474,148.041188,4903.011187,7402.059420
1104.260800,-3552.988522,1302.362347,8364.327145
1104.261126,-6365.771101,-4903.011187,9326.594869
1104.261452,-6143.709319,-7814.174080,12435.459826
1104.261777,-5847.626942,-4903.011187,15618.345376
1104.262103,-5625.565159,-3140.991542,13619.789333
1104.262429,-3108.864956,-3447.429741,11473.192101
1104.262755,-1184.329507,-3677.258390,9770.718434
1104.263081,518.144159,1149.143247,7550.100608
1104.263407,4441.235652,8197.221829,6735.874072
1104.263733,6365.771101,9652.803275,5847.626942
1104.264059,4441.235652,7048.078582,4737.318029
1104.264385,3182.885551,4903.011187,4441.235652
1104.264711,2590.720797,4290.134789,7105.977043
1104.265037,-888.247130,2911.162892,9918.759623
1104.265363,-4293.194464,-2451.505594,11029.068536
1104.265689,-3997.112087,-7431.126331,13027.624579
1104.266015,-3034.844362,-7431.126331,14508.036463
1104.266341,-3478.967927,-4519.963438,15100.201217
1104.266666,-1702.473667,-2757.943793,14211.954086
1104.266992,0.000000,-2528.115143,11843.295072
1104.267318,1702.473667,-1149.143247,8734.430116
1104.267644,5255.462188,3294.210641,6587.832884
1104.267970,7550.100608,8120.612279,5551.544565
1104.268296,5921.647536,8886.707777,4071.132681
1104.268622,4737.318029,7354.516781,3552.988522
1104.268948,3701.029710,5439.278036,5847.626942
1104.269274,518.144159,2834.553343,8068.244768
1104.269600,-3256.906145,-612.876398,8438.347739
1104.269926,-4145.153275,-5056.230287,10214.842000
1104.270252,-4589.276840,-7124.688131,13323.706956
1104.270578,-4737.318029,-4749.792088,14952.160028
1104.270904,-3997.112087,-4136.915689,13323.706956
1104.271230,-2368.659014,-3217.601092,11251.130318
1104.271555,-518.144159,-2681.334243,9178.553681
1104.271881,2368.659014,2451.505594,7254.018232
1104.272207,5329.482782,8197.221829,5847.626942
1104.272533,5995.668130,9422.974625,4811.338623
1104.272859,4959.379811,7201.297681,4515.256246
1104.273185,3256.906145,5669.106685,5921.647536
1104.273511,-148.041188,4749.792088,7698.141797
1104.273837,-1406.391290,1072.533697,9326.594869
1104.274163,-3997.112087,-2528.115143,11991.336260
1104.274489,-5551.544565,-6741.640382,14359.995275
1104.274815,-6365.771101,-6818.249932,16136.489536
1104.275141,-5921.647536,-5439.278036,14508.036463
1104.275467,-5329.482782,-4903.011187,13545.768739
1104.275793,-3330.926739,-3677.258390,10288.862594
1104.276118,-592.164754,995.924147,7846.182985
1104.276444,2590.720797,6128.763984,6365.771101
1104.276770,4515.256246,7890.783629,5329.482782
1104.277096,3923.091493,7277.907231,4071.132681
1104.277422,3330.926739,6052.154434,3849.070898
1104.277748,1628.453072,6205.373534,5773.606348
1104.278074,-740.205942,2528.115143,8290.306550
1104.278400,-2812.782580,-3140.991542,9252.574275
1104.278725,-3478.967927,-6665.030833,11917.315666
1104.279051,-3849.070898,-6358.592633,14582.057057
1104.279377,-4219.173869,-4213.525239,13989.892304
1104.279703,-1628.453072,-3983.696590,12065.356855
1104.280029,0.000000,-3140.991542,11473.192101
1104.280355,814.226536,383.047749,8438.347739
1104.280681,3997.112087,5362.668486,5329.482782
1104.281007,7550.100608,7890.783629,5329.482782
1104.281332,6735.874072,7737.564530,5033.400406
1104.281658,5107.421000,7048.078582,4441.235652
1104.281984,4663.297435,5898.935335,6069.688724
1104.282310,1110.308913,3370.820191,9770.718434
1104.282636,-3330.926739,-1302.362347,11399.171507
1104.282962,-3849.070898,-6358.592633,12509.480420
1104.283288,-4367.215058,-7967.393179,14359.995275
1104.283613,-5403.503377,-7354.516781,15470.304188
1104.283939,-3997.112087,-5822.325785,14211.954086
1104.284265,-1480.411884,-2681.334243,12879.583391
1104.284591,-370.102971,0.000000,9696.697840
1104.284917,2442.679609,2451.505594,7772.162391
1104.285243,5921.647536,5975.544884,5329.482782
1104.285569,6439.791695,8963.317327,4293.194464
1104.285895,4885.359217,8733.488677,4589.276840
1104.286220,4737.318029,6971.469032,5107.421000
1104.286546,2442.679609,4749.792088,7402.059420
1104.286872,-1776.494261,1225.752797,9918.759623
1104.287198,-5403.503377,-3524.039291,10214.842000
1104.287524,-5107.421000,-5362.668486,12361.439231
1104.287850,-4293.194464,-6741.640382,14804.118840
1104.288176,-4663.297435,-5822.325785,13989.892304
1104.288501,-3552.988522,-3907.087040,10955.047942
1104.288827,-1998.556043,-2145.067394,9400.615463
1104.289153,0.000000,2068.457845,7698.141797
1104.289479,3552.988522,5822.325785,5551.544565
1104.289805,5773.606348,7507.735880,5033.400406
1104.290131,4737.318029,7967.393179,4811.338623
1104.290457,3256.906145,6435.202183,5773.606348
1104.290782,1998.556043,4903.011187,7994.224174
1104.291108,-2146.597232,1991.848295,9918.759623
1104.291434,-5773.606348,-3677.258390,9474.636058
1104.291760,-4885.359217,-7814.174080,11769.274478
1104.292086,-4293.194464,-7431.126331,14804.118840
1104.292412,-6365.771101,-5592.497135,15766.386565
1104.292738,-4737.318029,-4443.353888,12953.603985
1104.293064,-592.164754,-3983.696590,11103.089130
1104.293389,2220.617826,-995.924147,9030.512492
1104.293715,4663.297435,5515.887586,6069.688724
1104.294041,7550.100608,10955.165621,4885.359217
1104.294367,9326.594869,9806.022374,4737.318029
1104.294693,8142.265362,7431.126331,5107.421000
1104.295019,6513.812290,6205.373534,6143.709319
1104.295345,2960.823768,5209.449386,7550.100608
1104.295670,-1924.535449,383.047749,9844.739029
1104.295996,-3627.009116,-5669.106685,11843.295072
1104.296322,-4885.359217,-7814.174080,14582.057057
1104.296648,-6143.709319,-6435.202183,15174.221811
1104.296974,-5773.606348,-5286.058936,13471.748144
1104.297300,-2886.803174,-4749.792088,11103.089130
1104.297626,-1110.308913,-2987.772442,8956.491898
1104.297952,444.123565,2681.334243,7994.224174
1104.298277,4663.297435,8350.440928,5329.482782
1104.298603,7476.080014,9729.412825,4737.318029
1104.298929,5477.523971,7890.783629,4811.338623
1104.299255,2368.659014,6511.811733,4515.256246
1104.299581,1554.432478,5362.668486,6513.812290
1104.299907,-740.205942,842.705048,10066.800811
1104.300233,-5033.400406,-5209.449386,12213.398043
1104.300558,-6957.935855,-7660.954980,13619.789333
1104.300884,-6069.688724,-6971.469032,16210.510130
1104.301210,-4959.379811,-5898.935335,14730.098246
1104.301536,-3627.009116,-6052.154434,12731.542202
1104.301862,-1924.535449,-3217.601092,11029.068536
1104.302188,592.164754,2298.286494,8512.368333
1104.302514,4441.235652,7814.174080,6587.832884
1104.302839,7254.018232,8273.831378,5107.421000
1104.303165,6217.729913,8197.221829,4071.132681
1104.303491,2886.803174,7354.516781,2442.679609
1104.303817,1702.473667,6588.421283,5699.585753
1104.304143,-1332.370696,2604.724693,8438.347739
1104.304469,-6513.812290,-4213.525239,9400.615463
1104.304795,-8364.327145,-8273.831378,11103.089130
1104.305121,-7328.038826,-7967.393179,12953.603985
1104.305446,-7254.018232,-6665.030833,14434.015869
1104.305772,-5329.482782,-5898.935335,13693.809927
1104.306098,-2368.659014,-4290.134789,11769.274478
1104.306424,740.205942,-1072.533697,8734.430116
1104.306750,5107.421000,4443.353888,7772.162391
1104.307076,8142.265362,9039.926876,6291.750507
1104.307402,8068.244768,10189.070123,4219.173869
1104.307727,7105.977043,7737.564530,4145.153275
1104.308053,6957.935855,5515.887586,6587.832884
1104.308379,3404.947333,4290.134789,9178.553681
1104.308705,-1258.350101,612.876398,10510.924376
1104.309031,-3478.967927,-5286.058936,11325.150913
1104.309357,-3775.050304,-8197.221829,14211.954086
