#time,accel_x,accel_y,accel_z
21027.210885,-222.061783,-306.438199,9030.512492
21027.211208,222.061783,0.000000,9030.512492
21027.211532,666.185348,-229.828649,9474.636058
21027.211855,666.185348,229.828649,9400.615463
21027.212179,518.144159,76.609550,9252.574275
21027.212503,148.041188,0.000000,9252.574275
21027.212826,296.082377,76.609550,9474.636058
21027.213150,0.000000,0.000000,8882.471304
21027.213474,-222.061783,-919.314598,8808.450710
21027.213797,-592.164754,-842.705048,8586.388927
21027.214121,-814.226536,-459.657299,8808.450710
21027.214445,-740.205942,-383.047749,8734.430116
21027.214768,-518.144159,-306.438199,8882.471304
21027.215092,-518.144159,-383.047749,8882.471304
21027.215416,-370.102971,0.000000,9400.615463
21027.215739,-222.061783,-383.047749,9474.636058
21027.216063,-592.164754,-383.047749,9178.553681
21027.216386,-1110.308913,-766.095498,9400.615463
21027.216710,-592.164754,-766.095498,9548.656652
21027.217034,-962.267725,-536.266849,9400.615463
21027.217357,-1480.411884,-842.705048,9622.677246
21027.217681,-666.185348,-689.485948,9252.574275
21027.218005,-518.144159,-612.876398,9326.594869
21027.218328,-518.144159,0.000000,9622.677246
21027.218652,-740.205942,153.219100,9326.594869
21027.218976,-518.144159,306.438199,9474.636058
21027.219299,74.020594,536.266849,9400.615463
21027.219623,222.061783,919.314598,9474.636058
21027.219947,-592.164754,842.705048,9400.615463
21027.220270,-888.247130,0.000000,9474.636058
21027.220594,-1332.370696,1225.752797,9104.533087
21027.220917,-1480.411884,919.314598,9474.636058
21027.221241,-3034.844362,766.095498,9474.636058
21027.221565,-3627.009116,919.314598,8882.471304
21027.221888,-3330.926739,995.924147,9178.553681
21027.222212,-3182.885551,1149.143247,9104.533087
21027.222536,-4071.132681,1915.238745,8882.471304
21027.222859,-3923.091493,2298.286494,8882.471304
21027.223183,-3775.050304,1762.019645,8290.306550
21027.223507,-3034.844362,2374.896044,9104.533087
21027.223830,-3034.844362,2451.505594,8808.450710
21027.224154,-3849.070898,2298.286494,8808.450710
21027.224478,-3701.029710,1915.238745,8512.368333
21027.224801,-2960.823768,2374.896044,8216.285956
21027.225125,-3478.967927,2374.896044,8734.430116
21027.225448,-3552.988522,1762.019645,8438.347739
21027.225772,-2738.761985,1838.629195,8586.388927
21027.226096,-2220.617826,2068.457845,8216.285956
21027.226419,-2072.576638,2451.505594,8586.388927
21027.226743,-1258.350101,2451.505594,8438.347739
21027.227067,-1036.288319,2834.553343,8808.450710
21027.227390,-370.102971,2374.896044,8808.450710
21027.227714,-296.082377,2911.162892,8882.471304
21027.228038,-296.082377,2298.286494,9252.574275
21027.228361,-962.267725,2145.067394,9400.615463
21027.228685,-962.267725,1762.019645,9770.718434
21027.229009,-1554.432478,1608.800546,9770.718434
21027.229332,-2442.679609,1455.581446,10288.862594
21027.229656,-3256.906145,995.924147,10362.883188
21027.229979,-2960.823768,766.095498,11103.089130
21027.230303,-4367.215058,1532.190996,10584.944971
21027.230627,-4737.318029,2145.067394,10584.944971
21027.230950,-4145.153275,2221.676944,10510.924376
21027.231274,-3849.070898,2298.286494,10288.862594
21027.231598,-4293.194464,3140.991542,9622.677246
21027.231921,-4515.256246,3370.820191,9030.512492
21027.232245,-4219.173869,3064.381992,9030.512492
21027.232569,-4293.194464,3140.991542,8364.327145
21027.232892,-3627.009116,2834.553343,7772.162391
21027.233216,-3478.967927,2145.067394,7105.977043
21027.233540,-3330.926739,1838.629195,6217.729913
21027.233863,-2590.720797,1915.238745,5847.626942
21027.234187,-1850.514855,1225.752797,5995.668130
21027.234510,-1776.494261,766.095498,6883.915261
21027.234834,-2146.597232,1225.752797,7179.997637
21027.235158,-1850.514855,306.438199,8290.306550
21027.235481,-1998.556043,459.657299,9400.615463
21027.235805,-1554.432478,536.266849,10288.862594
21027.236129,-1332.370696,536.266849,10584.944971
21027.236452,-1850.514855,612.876398,10436.903782
21027.236776,-592.164754,1455.581446,10214.842000
21027.237100,888.247130,1608.800546,10214.842000
21027.237423,370.102971,919.314598,9992.780217
21027.237747,1332.370696,842.705048,9474.636058
21027.238071,2220.617826,0.000000,8956.491898
21027.238394,2146.597232,-842.705048,9178.553681
21027.238718,1776.494261,-1302.362347,9548.656652
21027.239041,1110.308913,-1608.800546,10807.006753
21027.239365,-1184.329507,-2834.553343,11251.130318
21027.239689,-2294.638420,-2604.724693,12879.583391
21027.240012,-3330.926739,-2834.553343,13323.706956
21027.240336,-4293.194464,-2298.286494,14211.954086
21027.240660,-5995.668130,-766.095498,14211.954086
21027.240983,-5921.647536,1302.362347,13175.665768
21027.241307,-5625.565159,2681.334243,11621.233289
21027.241631,-4515.256246,4673.182538,8660.409521
21027.241954,-2738.761985,5439.278036,6661.853478
21027.242278,-2516.700203,6894.859482,4589.276840
21027.242602,-2516.700203,6741.640382,2738.761985
21027.242925,-2516.700203,6128.763984,2812.782580
21027.243249,-3478.967927,4673.182538,3256.906145
21027.243572,-3849.070898,2451.505594,3330.926739
21027.243896,-5181.441594,459.657299,4367.215058
21027.244220,-5477.523971,-1608.800546,5625.565159
21027.244543,-5255.462188,-2145.067394,7328.038826
21027.244867,-4367.215058,-2298.286494,8660.409521
21027.245191,-3256.906145,-995.924147,9770.718434
21027.245514,-2664.741391,0.000000,11251.130318
21027.245838,-1332.370696,1685.410096,11769.274478
21027.246162,-1110.308913,2834.553343,12731.542202
21027.246485,-1850.514855,5286.058936,13693.809927
21027.246809,-2368.659014,6511.811733,13471.748144
21027.247133,-2960.823768,7048.078582,13101.645173
21027.247456,-1480.411884,6818.249932,12065.356855
21027.247780,-444.123565,7201.297681,11399.171507
21027.248103,-962.267725,6128.763984,11103.089130
21027.248427,-2220.617826,4443.353888,9474.636058
21027.248751,-2294.638420,3294.210641,7772.162391
21027.249074,-1628.453072,153.219100,7105.977043
21027.249398,-2738.761985,-919.314598,7031.956449
21027.249722,-4515.256246,-2451.505594,5699.585753
21027.250045,-3997.112087,-3600.648841,5033.400406
21027.250369,-2812.782580,-3753.867940,5477.523971
21027.250693,-2294.638420,-2757.943793,6883.915261
21027.251016,-2590.720797,-842.705048,8956.491898
21027.251340,-2072.576638,536.266849,10881.027347
21027.251664,-1184.329507,3217.601092,12435.459826
21027.251987,-1850.514855,5132.839837,13101.645173
21027.252311,-2294.638420,6818.249932,11991.336260
21027.252634,-814.226536,7814.174080,9844.739029
21027.252958,222.061783,8656.879127,8290.306550
21027.253282,296.082377,8810.098227,6661.853478
21027.253605,1258.350101,8044.002729,4441.235652
21027.253929,814.226536,5286.058936,3182.885551
21027.254253,0.000000,1838.629195,3478.967927
21027.254576,0.000000,-1762.019645,3256.906145
21027.254900,-814.226536,-4979.620737,4885.359217
21027.255224,-3404.947333,-7354.516781,9548.656652
21027.255547,-5847.626942,-8733.488677,12731.542202
21027.255871,-7031.956449,-8427.050478,15544.324782
21027.256195,-8142.265362,-9193.145976,18579.169144
21027.256518,-8660.409521,-6665.030833,20059.581028
21027.256842,-6291.750507,-3447.429741,19837.519246
21027.257165,-4441.235652,612.876398,18949.272115
21027.257489,-2664.741391,5822.325785,16136.489536
21027.257813,444.123565,10035.851024,10584.944971
21027.258136,3701.029710,10955.165621,5773.606348
21027.258460,5107.421000,11184.994271,666.185348
21027.258784,4663.297435,10189.070123,-740.205942
21027.259107,1258.350101,7354.516781,-444.123565
21027.259431,-2886.803174,2757.943793,1776.494261
21027.259755,-6291.750507,-1608.800546,4071.132681
21027.260078,-9474.636058,-5362.668486,6587.832884
21027.260402,-12287.418637,-9729.412825,9104.533087
21027.260726,-12509.480420,-10035.851024,10436.903782
21027.261049,-10955.047942,-7814.174080,14211.954086
21027.261373,-8734.430116,-2834.553343,16802.674883
21027.261696,-3552.988522,1302.362347,12583.501014
21027.262020,888.247130,5439.278036,8882.471304
21027.262344,4885.359217,8273.831378,7550.100608
21027.262667,6957.935855,12487.356617,5033.400406
21027.262991,7105.977043,14402.595362,4959.379811
21027.263315,5551.544565,12640.575717,5699.585753
21027.263638,3256.906145,10572.117872,6439.791695
21027.263962,296.082377,6511.811733,7846.182985
21027.264286,-3034.844362,1149.143247,10584.944971
21027.264609,-5773.606348,-2221.676944,12953.603985
21027.264933,-6587.832884,-4443.353888,12879.583391
21027.265256,-7698.141797,-6588.421283,12879.583391
21027.265580,-5551.544565,-6435.202183,11473.192101
21027.265903,-4589.276840,-5132.839837,9844.739029
21027.266227,-4293.194464,-3447.429741,9992.780217
21027.266551,-3478.967927,-612.876398,10066.800811
21027.266874,-2220.617826,2145.067394,9622.677246
21027.267198,-1110.308913,4366.744339,8586.388927
21027.267521,518.144159,6588.421283,8438.347739
21027.267845,2368.659014,7967.393179,9474.636058
21027.268168,4145.153275,8656.879127,10140.821405
21027.268492,4441.235652,8733.488677,10362.883188
21027.268816,5625.565159,6971.469032,8364.327145
21027.269139,3775.050304,6128.763984,8142.265362
21027.269463,1110.308913,2221.676944,7031.956449
21027.269786,-1110.308913,-229.828649,7105.977043
21027.270110,-2664.741391,-1991.848295,7550.100608
21027.270433,-4663.297435,-4060.306139,5847.626942
21027.270757,-7105.977043,-4366.744339,4885.359217
21027.271081,-7105.977043,-4673.182538,4219.173869
21027.271404,-5255.462188,-2451.505594,6587.832884
21027.271728,-3108.864956,-612.876398,9622.677246
21027.272051,-1184.329507,1762.019645,10362.883188
21027.272375,-2516.700203,1072.533697,10510.924376
21027.272698,-3330.926739,1302.362347,9548.656652
21027.273022,-2294.638420,1685.410096,10436.903782
21027.273346,-2072.576638,1838.629195,11843.295072
21027.273669,-3330.926739,1685.410096,13175.665768
21027.273993,-3552.988522,383.047749,11473.192101
21027.274316,-1554.432478,-995.924147,10066.800811
21027.274640,0.000000,-2451.505594,10955.047942
21027.274963,-2146.597232,-2451.505594,13397.727550
21027.275287,-3478.967927,-2834.553343,14137.933492
21027.275611,-2960.823768,-3217.601092,12287.418637
21027.275934,-1332.370696,-3370.820191,9696.697840
21027.276258,-2146.597232,-2528.115143,7105.977043
21027.276581,-3552.988522,-2145.067394,5847.626942
21027.276905,-2220.617826,0.000000,5847.626942
21027.277229,1110.308913,1762.019645,6291.750507
21027.277552,962.267725,1149.143247,4737.318029
21027.277876,-2146.597232,689.485948,6661.853478
21027.278199,-4515.256246,459.657299,9178.553681
21027.278523,-4145.153275,766.095498,10066.800811
21027.278846,-1628.453072,0.000000,9326.594869
21027.279170,-814.226536,-1608.800546,9326.594869
21027.279494,-296.082377,229.828649,8142.265362
21027.279817,3404.947333,1149.143247,6587.832884
21027.280141,7105.977043,919.314598,6735.874072
21027.280464,6143.709319,1378.971896,8512.368333
21027.280788,3404.947333,2451.505594,9400.615463
21027.281111,3627.009116,1225.752797,9474.636058
21027.281435,3256.906145,-1838.629195,10584.944971
21027.281759,444.123565,-2451.505594,11325.150913
21027.282082,-2590.720797,-2528.115143,12139.377449
21027.282406,-2738.761985,-3370.820191,11251.130318
21027.282729,-1332.370696,-2451.505594,11103.089130
21027.283053,148.041188,-1991.848295,11769.274478
21027.283376,-1776.494261,-766.095498,11917.315666
21027.283700,-3034.844362,0.000000,11547.212695
21027.284024,74.020594,1378.971896,11473.192101
21027.284347,1998.556043,2221.676944,9622.677246
21027.284671,2368.659014,2451.505594,7698.141797
21027.284994,2442.679609,2528.115143,6513.812290
21027.285318,3330.926739,2374.896044,5107.421000
21027.285641,4515.256246,1378.971896,5477.523971
21027.285965,2960.823768,842.705048,7476.080014
21027.286289,1036.288319,306.438199,6291.750507
21027.286612,-962.267725,-1225.752797,8068.244768
21027.286936,-1924.535449,-2451.505594,8660.409521
21027.287259,-3478.967927,-1915.238745,9770.718434
21027.287583,-4293.194464,-1915.238745,9622.677246
21027.287906,-3404.947333,-1762.019645,7698.141797
21027.288230,-518.144159,-689.485948,7624.121203
21027.288554,-296.082377,306.438199,7772.162391
21027.288877,-1406.391290,919.314598,9252.574275
21027.289201,-3034.844362,1302.362347,9030.512492
21027.289524,-962.267725,1838.629195,9474.636058
21027.289848,-1702.473667,153.219100,10066.800811
21027.290171,-3404.947333,-1762.019645,11473.192101
21027.290495,-1036.288319,-2451.505594,8956.491898
21027.290819,444.123565,-2145.067394,8882.471304
21027.291142,-666.185348,-842.705048,11991.336260
21027.291466,-1480.411884,-842.705048,10881.027347
21027.291789,-740.205942,-2987.772442,10214.842000
21027.292113,-1110.308913,-3064.381992,11991.336260
21027.292436,-2368.659014,-1072.533697,13175.665768
21027.292760,-3256.906145,-536.266849,11917.315666
21027.293084,-3108.864956,-2757.943793,8660.409521
21027.293407,-1702.473667,-1915.238745,7328.038826
21027.293731,518.144159,919.314598,7476.080014
21027.294054,-148.041188,1302.362347,8290.306550
21027.294378,-1628.453072,1225.752797,9104.533087
21027.294701,-1332.370696,689.485948,7846.182985
21027.295025,-592.164754,0.000000,7179.997637
21027.295349,-666.185348,-76.609550,7105.977043
21027.295672,-962.267725,-689.485948,6809.894666
21027.295996,666.185348,-459.657299,5625.565159
21027.296319,2146.597232,-1762.019645,4441.235652
21027.296643,3701.029710,-995.924147,5699.585753
21027.296966,2516.700203,-536.266849,9400.615463
21027.297290,592.164754,-612.876398,10436.903782
21027.297614,1554.432478,-153.219100,12139.377449
21027.297937,1998.556043,-153.219100,12953.603985
21027.298261,296.082377,-1072.533697,11473.192101
21027.298584,74.020594,-1455.581446,8808.450710
21027.298908,2516.700203,-842.705048,8586.388927
21027.299232,4145.153275,1149.143247,9474.636058
21027.299555,2516.700203,2451.505594,10584.944971
21027.299879,1776.494261,1072.533697,10510.924376
21027.300202,370.102971,612.876398,9474.636058
21027.300526,0.000000,536.266849,11029.068536
21027.300849,-518.144159,-1455.581446,11769.274478
21027.301173,-2072.576638,-2528.115143,10584.944971
21027.301497,-814.226536,-3064.381992,8142.265362
21027.301820,0.000000,-2834.553343,7402.059420
21027.302144,-222.061783,-2451.505594,6735.874072
21027.302467,-1776.494261,-766.095498,9400.615463
21027.302791,-1184.329507,-1378.971896,9474.636058
21027.303114,-740.205942,0.000000,10066.800811
21027.303438,-444.123565,-612.876398,8068.244768
21027.303762,-1036.288319,0.000000,7698.141797
21027.304085,-222.061783,842.705048,8290.306550
21027.304409,2442.679609,1915.238745,7476.080014
21027.304732,3108.864956,2604.724693,6735.874072
21027.305056,1924.535449,1225.752797,6809.894666
21027.305379,-1110.308913,383.047749,7031.956449
21027.305703,-1110.308913,766.095498,9030.512492
21027.306027,-888.247130,-306.438199,10807.006753
21027.306350,-1702.473667,-1685.410096,10066.800811
21027.306674,-2812.782580,-2987.772442,9252.574275
21027.306997,-2442.679609,-3753.867940,7846.182985
21027.307321,-962.267725,-2451.505594,8142.265362
21027.307644,-370.102971,-1302.362347,10214.842000
21027.307968,-2146.597232,-1685.410096,12731.542202
21027.308292,-3108.864956,-1302.362347,11621.233289
21027.308615,-2368.659014,-612.876398,11917.315666
21027.308939,-2368.659014,-766.095498,12657.521608
21027.309262,-3330.926739,-612.876398,11991.336260
21027.309586,-2072.576638,-1072.533697,8586.388927
21027.309909,370.102971,-2221.676944,9030.512492
21027.310233,1480.411884,76.609550,7994.224174
21027.310557,-666.185348,995.924147,7624.121203
21027.310880,-2368.659014,-689.485948,7550.100608
21027.311204,-2812.782580,-766.095498,9252.574275
21027.311527,-370.102971,-919.314598,9622.677246
21027.311851,-148.041188,-995.924147,9474.636058
21027.312174,-148.041188,-2451.505594,6957.935855
21027.312498,518.144159,-229.828649,5477.523971
21027.312822,2294.638420,-306.438199,6735.874072
21027.313145,2886.803174,842.705048,7254.018232
21027.313469,1628.453072,229.828649,7994.224174
21027.313792,592.164754,383.047749,8586.388927
21027.314116,0.000000,1685.410096,10955.047942
21027.314439,888.247130,536.266849,10955.047942
21027.314763,1480.411884,-766.095498,10066.800811
21027.315087,1702.473667,-1608.800546,8290.306550
21027.315410,3404.947333,153.219100,7402.059420
21027.315734,3701.029710,919.314598,8586.388927
21027.316057,2516.700203,0.000000,9622.677246
21027.316381,1110.308913,-229.828649,10436.903782
21027.316704,518.144159,-689.485948,11695.253884
21027.317028,740.205942,-689.485948,11843.295072
21027.317352,-1184.329507,-1455.581446,11843.295072
21027.317675,-1258.350101,-3217.601092,9770.718434
21027.317999,-666.185348,-2528.115143,8956.491898
21027.318322,222.061783,-1991.848295,9400.615463
21027.318646,-1702.473667,-995.924147,9474.636058
21027.318969,-2812.782580,-2374.896044,8364.327145
21027.319293,-2516.700203,-1608.800546,9474.636058
21027.319617,-1184.329507,-536.266849,11029.068536
21027.319940,-1480.411884,-229.828649,10436.903782
21027.320264,-444.123565,-612.876398,9252.574275
21027.320587,518.144159,-919.314598,8290.306550
21027.320911,2516.700203,76.609550,6883.915261
21027.321235,4367.215058,153.219100,5921.647536
21027.321558,1998.556043,1072.533697,8438.347739
21027.321882,592.164754,1685.410096,9030.512492
21027.322205,518.144159,995.924147,10140.821405
21027.322529,222.061783,0.000000,9178.553681
21027.322852,-1554.432478,-1378.971896,8882.471304
21027.323176,-1554.432478,-1225.752797,8068.244768
21027.323500,-2516.700203,-1149.143247,7550.100608
21027.323823,-1258.350101,-1608.800546,7179.997637
21027.324147,-2368.659014,-229.828649,8586.388927
21027.324470,-3256.906145,0.000000,9918.759623
21027.324794,-4219.173869,-612.876398,11177.109724
21027.325117,-3775.050304,-1149.143247,11177.109724
21027.325441,-4367.215058,-1072.533697,12213.398043
21027.325765,-4811.338623,-1685.410096,9326.594869
21027.326088,-3108.864956,-612.876398,6883.915261
21027.326412,-888.247130,-1378.971896,6217.729913
21027.326735,-1110.308913,-766.095498,7476.080014
21027.327059,-1924.535449,-459.657299,9474.636058
21027.327382,-1406.391290,-306.438199,10436.903782
21027.327706,444.123565,-229.828649,11547.212695
21027.328030,2146.597232,-153.219100,11325.150913
21027.328353,1776.494261,229.828649,11843.295072
21027.328677,2294.638420,0.000000,10362.883188
21027.329000,3849.070898,689.485948,8290.306550
21027.329324,4589.276840,1608.800546,7624.121203
21027.329647,2812.782580,1225.752797,9474.636058
21027.329971,1258.350101,536.266849,9474.636058
21027.330295,0.000000,1149.143247,9992.780217
21027.330618,-1776.494261,689.485948,10362.883188
21027.330942,-1480.411884,919.314598,7476.080014
21027.331265,-592.164754,0.000000,6661.853478
21027.331589,222.061783,-229.828649,6291.750507
21027.331912,962.267725,842.705048,7105.977043
21027.332236,74.020594,383.047749,7105.977043
21027.332560,-1480.411884,-306.438199,9030.512492
21027.332883,-1924.535449,-536.266849,9252.574275
21027.333207,-1554.432478,-689.485948,10140.821405
21027.333530,-1258.350101,-2068.457845,10881.027347
21027.333854,-962.267725,-2987.772442,10955.047942
21027.334177,-296.082377,-1608.800546,9992.780217
21027.334501,518.144159,-1378.971896,8808.450710
21027.334825,1554.432478,-689.485948,8734.430116
21027.335148,888.247130,0.000000,10288.862594
21027.335472,888.247130,76.609550,10584.944971
21027.335795,370.102971,0.000000,10584.944971
21027.336119,74.020594,459.657299,9400.615463
21027.336442,-444.123565,383.047749,9992.780217
21027.336766,962.267725,-612.876398,8586.388927
21027.337090,2072.576638,-612.876398,7105.977043
21027.337413,2516.700203,-1302.362347,6883.915261
21027.337737,1036.288319,0.000000,8438.347739
21027.338060,296.082377,-919.314598,9252.574275
21027.338384,0.000000,-689.485948,9770.718434
21027.338707,0.000000,-689.485948,10436.903782
21027.339031,-1406.391290,-1991.848295,11547.212695
21027.339355,-1776.494261,-1608.800546,9326.594869
21027.339678,-148.041188,-1072.533697,7105.977043
21027.340002,1036.288319,0.000000,6661.853478
21027.340325,814.226536,306.438199,7550.100608
21027.340649,0.000000,1225.752797,9770.718434
21027.340973,-1332.370696,1149.143247,10362.883188
21027.341296,-2960.823768,0.000000,9696.697840
21027.341620,-4959.379811,-919.314598,9696.697840
21027.341943,-5477.523971,-2221.676944,9474.636058
21027.342267,-3775.050304,-3294.210641,7476.080014
21027.342590,-2220.617826,-2681.334243,7698.141797
21027.342914,-1628.453072,-1302.362347,8290.306550
21027.343238,-2886.803174,-766.095498,8808.450710
21027.343561,-2590.720797,-1149.143247,8956.491898
21027.343885,-1480.411884,-1225.752797,10214.842000
21027.344208,0.000000,-536.266849,11177.109724
21027.344532,962.267725,459.657299,11473.192101
21027.344855,1184.329507,0.000000,10436.903782
21027.345179,2146.597232,306.438199,8956.491898
21027.345503,3997.112087,919.314598,7994.224174
21027.345826,4515.256246,1302.362347,8512.368333
21027.346150,1998.556043,1225.752797,10807.006753
21027.346473,0.000000,612.876398,10362.883188
21027.346797,-370.102971,383.047749,9992.780217
21027.347120,0.000000,-919.314598,9844.739029
21027.347444,-2072.576638,-919.314598,9030.512492
21027.347768,-3627.009116,-1762.019645,6661.853478
21027.348091,-1332.370696,-1225.752797,5329.482782
21027.348415,518.144159,-612.876398,6217.729913
21027.348738,-222.061783,229.828649,8068.244768
21027.349062,-1480.411884,76.609550,8216.285956
21027.349385,-1258.350101,0.000000,8956.491898
21027.349709,-888.247130,-536.266849,10436.903782
21027.350033,-1554.432478,76.609550,10955.047942
21027.350356,-1850.514855,-1762.019645,9326.594869
21027.350680,-888.247130,-1225.752797,8512.368333
21027.351003,1850.514855,-766.095498,7698.141797
21027.351327,2812.782580,-229.828649,8808.450710
21027.351650,2146.597232,0.000000,10436.903782
21027.351974,1480.411884,536.266849,10510.924376
21027.352298,1332.370696,1072.533697,11399.171507
21027.352621,1258.350101,1378.971896,12139.377449
21027.352945,1480.411884,76.609550,10288.862594
21027.353268,2738.761985,-1302.362347,7550.100608
21027.353592,2812.782580,-1072.533697,6735.874072
21027.353915,2220.617826,76.609550,7920.203579
21027.354239,814.226536,383.047749,9178.553681
21027.354563,-1332.370696,-306.438199,8956.491898
21027.354886,-2442.679609,-842.705048,9992.780217
21027.355210,-3330.926739,-1762.019645,9770.718434
21027.355533,-3627.009116,-2298.286494,10066.800811
21027.355857,-3330.926739,-2145.067394,9104.533087
21027.356180,-1036.288319,-1149.143247,7105.977043
21027.356504,1110.308913,0.000000,7105.977043
21027.356828,1406.391290,153.219100,7624.121203
21027.357151,-518.144159,612.876398,7698.141797
21027.357475,148.041188,536.266849,9400.615463
21027.357798,666.185348,306.438199,10436.903782
21027.358122,-370.102971,-306.438199,11103.089130
21027.358445,-962.267725,-1378.971896,10362.883188
21027.358769,-1332.370696,-2451.505594,9326.594869
21027.359093,-444.123565,-2298.286494,7179.997637
21027.359416,-74.020594,-1608.800546,7772.162391
21027.359740,-2886.803174,-1378.971896,8956.491898
21027.360063,-4293.194464,-1685.410096,7994.224174
21027.360387,-2442.679609,-459.657299,11399.171507
21027.360710,-3034.844362,-229.828649,12953.603985
21027.361034,-4515.256246,-1072.533697,11473.192101
21027.361358,-1628.453072,-2221.676944,6809.894666
21027.361681,1924.535449,-1532.190996,6883.915261
21027.362005,4515.256246,1149.143247,7772.162391
21027.362328,3775.050304,2987.772442,8660.409521
21027.362652,2220.617826,1532.190996,10732.986159
21027.362976,148.041188,229.828649,10066.800811
21027.363299,592.164754,383.047749,9030.512492
21027.363623,296.082377,-612.876398,12657.521608
21027.363946,-1702.473667,-1225.752797,9918.759623
21027.364270,-370.102971,-536.266849,7846.182985
21027.364593,1776.494261,-919.314598,5625.565159
21027.364917,0.000000,76.609550,6513.812290
21027.365241,-2368.659014,1149.143247,8734.430116
21027.365564,-2664.741391,306.438199,9030.512492
21027.365888,-2664.741391,-383.047749,10510.924376
21027.366211,-3330.926739,-1149.143247,11251.130318
21027.366535,-3627.009116,-1302.362347,9252.574275
21027.366858,-3108.864956,-2298.286494,7476.080014
21027.367182,-1924.535449,-2145.067394,6439.791695
21027.367506,1036.288319,-766.095498,6957.935855
21027.367829,1924.535449,-306.438199,9474.636058
21027.368152,444.123565,536.266849,10658.965565
21027.368476,666.185348,689.485948,10807.006753
21027.368799,1554.432478,306.438199,10584.944971
21027.369123,1924.535449,-383.047749,10362.883188
21027.369446,2294.638420,-689.485948,9622.677246
21027.369770,2738.761985,0.000000,8734.430116
21027.370093,4293.194464,153.219100,6735.874072
21027.370417,3182.885551,536.266849,7994.224174
21027.370740,1998.556043,842.705048,10214.842000
21027.371064,814.226536,1455.581446,10140.821405
21027.371387,740.205942,-153.219100,10732.986159
21027.371711,0.000000,-612.876398,10732.986159
21027.372034,-2368.659014,-919.314598,9696.697840
21027.372358,-2442.679609,-1608.800546,7698.141797
21027.372681,814.226536,-1838.629195,6365.771101
21027.373005,2960.823768,-689.485948,6513.812290
21027.373328,1036.288319,0.000000,8512.368333
21027.373651,-814.226536,0.000000,8512.368333
21027.373975,-1554.432478,-536.266849,11325.150913
21027.374298,-1110.308913,-1225.752797,11843.295072
21027.374622,-1406.391290,-1915.238745,10955.047942
21027.374945,-1628.453072,-3370.820191,8512.368333
21027.375269,-740.205942,-2987.772442,7179.997637
21027.375592,1036.288319,-1532.190996,7402.059420
21027.375916,-222.061783,0.000000,9474.636058
21027.376239,-1776.494261,-536.266849,9104.533087
21027.376563,-3256.906145,-919.314598,8512.368333
21027.376886,-2886.803174,-1302.362347,10066.800811
21027.377210,-2738.761985,-1225.752797,11769.274478
21027.377533,-3478.967927,-1302.362347,11029.068536
21027.377857,-2516.700203,-1991.848295,8068.244768
21027.378180,0.000000,-1915.238745,7105.977043
21027.378503,0.000000,-689.485948,7105.977043
21027.378827,-2368.659014,-536.266849,8660.409521
21027.379150,-2590.720797,-766.095498,9474.636058
21027.379474,-444.123565,-536.266849,10140.821405
21027.379797,592.164754,-306.438199,11325.150913
21027.380121,-518.144159,-1455.581446,11325.150913
21027.380444,-2220.617826,-1149.143247,9326.594869
21027.380768,222.061783,-1072.533697,7031.956449
21027.381091,2960.823768,0.000000,7624.121203
21027.381415,1998.556043,459.657299,9474.636058
21027.381738,-444.123565,842.705048,9104.533087
21027.382062,-1480.411884,842.705048,9326.594869
21027.382385,-962.267725,76.609550,10140.821405
21027.382709,-1924.535449,0.000000,10362.883188
21027.383032,-2812.782580,-2451.505594,9696.697840
21027.383356,-2516.700203,-2221.676944,7179.997637
21027.383679,-222.061783,-1532.190996,6513.812290
21027.384002,518.144159,-306.438199,8364.327145
21027.384326,-740.205942,383.047749,9030.512492
21027.384649,-222.061783,536.266849,8438.347739
21027.384973,1110.308913,689.485948,9178.553681
21027.385296,1480.411884,1302.362347,10436.903782
21027.385620,1702.473667,1991.848295,10807.006753
21027.385943,3330.926739,842.705048,9252.574275
21027.386267,4811.338623,612.876398,7550.100608
21027.386590,4885.359217,536.266849,6587.832884
21027.386914,2886.803174,1608.800546,8660.409521
21027.387237,1258.350101,842.705048,9474.636058
21027.387561,0.000000,919.314598,10807.006753
21027.387884,0.000000,0.000000,11325.150913
21027.388208,-962.267725,-1532.190996,8956.491898
21027.388531,-2146.597232,-2221.676944,8808.450710
21027.388855,-814.226536,-2221.676944,7550.100608
21027.389178,1036.288319,-689.485948,7105.977043
21027.389501,1110.308913,-383.047749,8956.491898
21027.389825,-740.205942,-1378.971896,8512.368333
21027.390148,-1850.514855,-766.095498,8734.430116
21027.390472,-1480.411884,-1378.971896,10288.862594
21027.390795,-1036.288319,-1302.362347,11769.274478
21027.391119,0.000000,-1532.190996,11177.109724
21027.391442,-1332.370696,-1915.238745,9474.636058
21027.391766,-592.164754,-2451.505594,8512.368333
21027.392089,1924.535449,-2145.067394,6513.812290
21027.392413,-592.164754,0.000000,8882.471304
21027.392736,-666.185348,-1149.143247,10140.821405
21027.393060,-1628.453072,0.000000,10955.047942
21027.393383,-962.267725,-1149.143247,11399.171507
21027.393707,-4441.235652,-1991.848295,11547.212695
21027.394030,-5699.585753,-2374.896044,8438.347739
21027.394353,-2738.761985,-2757.943793,8142.265362
21027.394677,0.000000,-2221.676944,7476.080014
21027.395000,-592.164754,536.266849,8734.430116
21027.395324,-2368.659014,-306.438199,6587.832884
21027.395647,-4145.153275,76.609550,7031.956449
21027.395971,-1554.432478,153.219100,9548.656652
21027.396294,-814.226536,919.314598,10658.965565
21027.396618,-1480.411884,-1149.143247,9622.677246
21027.396941,-1554.432478,-2374.896044,7550.100608
21027.397265,1258.350101,-919.314598,6883.915261
21027.397588,2146.597232,-459.657299,8734.430116
21027.397912,1110.308913,-153.219100,9770.718434
21027.398235,148.041188,-153.219100,9548.656652
21027.398559,962.267725,306.438199,11029.068536
21027.398882,1480.411884,153.219100,11769.274478
21027.399206,-296.082377,-919.314598,11029.068536
21027.399529,-222.061783,-612.876398,8808.450710
21027.399852,1554.432478,0.000000,7254.018232
21027.400176,2960.823768,-153.219100,6365.771101
21027.400499,1036.288319,612.876398,7772.162391
21027.400823,-962.267725,459.657299,8956.491898
21027.401146,-1480.411884,766.095498,10807.006753
21027.401470,-666.185348,306.438199,11843.295072
21027.401793,-370.102971,0.000000,11029.068536
21027.402117,-1036.288319,-1762.019645,9844.739029
21027.402440,-740.205942,-1762.019645,8364.327145
21027.402764,1110.308913,-459.657299,7105.977043
21027.403087,2368.659014,689.485948,7772.162391
21027.403411,1110.308913,766.095498,8216.285956
21027.403734,888.247130,1532.190996,8068.244768
21027.404058,2220.617826,2374.896044,8734.430116
21027.404381,1776.494261,1225.752797,9548.656652
21027.404704,962.267725,842.705048,10510.924376
21027.405028,1554.432478,459.657299,8068.244768
21027.405351,2886.803174,0.000000,7105.977043
21027.405675,2516.700203,-536.266849,7402.059420
21027.405998,1036.288319,153.219100,7920.203579
21027.406322,-814.226536,0.000000,9844.739029
21027.406645,-814.226536,0.000000,11251.130318
21027.406969,74.020594,-306.438199,10658.965565
21027.407292,-1850.514855,-1302.362347,10732.986159
21027.407616,-2368.659014,-2374.896044,8586.388927
21027.407939,-1406.391290,-1838.629195,7624.121203
21027.408263,740.205942,-1225.752797,8364.327145
21027.408586,-222.061783,-306.438199,9400.615463
21027.408910,-2368.659014,-153.219100,8882.471304
21027.409233,-2738.761985,-1072.533697,9844.739029
21027.409557,-1998.556043,-1685.410096,10807.006753
21027.409880,-2960.823768,-1455.581446,11843.295072
21027.410203,-4367.215058,-2221.676944,11251.130318
21027.410527,-2960.823768,-2221.676944,8586.388927
21027.410850,74.020594,-2757.943793,7698.141797
21027.411174,444.123565,-1685.410096,7698.141797
21027.411497,-3330.926739,-1225.752797,9104.533087
21027.411821,-3849.070898,-1225.752797,8068.244768
21027.412144,-2442.679609,-383.047749,9548.656652
21027.412468,-148.041188,-842.705048,9696.697840
21027.412791,-1702.473667,-689.485948,9252.574275
21027.413115,-1924.535449,-1991.848295,7328.038826
21027.413438,-74.020594,-1149.143247,7624.121203
21027.413762,2368.659014,-229.828649,6957.935855
21027.414085,1776.494261,-383.047749,7994.224174
21027.414409,-444.123565,-1225.752797,9696.697840
21027.414732,-962.267725,-995.924147,10362.883188
21027.415056,222.061783,-1225.752797,10881.027347
21027.415379,222.061783,-1685.410096,11695.253884
21027.415702,-444.123565,-1302.362347,11251.130318
21027.416026,592.164754,-766.095498,9474.636058
21027.416349,2146.597232,-995.924147,8660.409521
21027.416673,3256.906145,-536.266849,8512.368333
21027.416996,518.144159,919.314598,9326.594869
21027.417320,-1258.350101,766.095498,9252.574275
21027.417643,814.226536,612.876398,9474.636058
21027.417967,1480.411884,689.485948,9770.718434
21027.418290,-740.205942,919.314598,10658.965565
21027.418614,-1776.494261,-842.705048,9400.615463
21027.418937,-962.267725,-612.876398,7920.203579
21027.419261,0.000000,-612.876398,7550.100608
21027.419584,-666.185348,-459.657299,8438.347739
21027.419908,-740.205942,-1149.143247,8290.306550
21027.420231,-148.041188,306.438199,9474.636058
21027.420554,814.226536,1302.362347,10658.965565
21027.420878,1036.288319,2528.115143,10288.862594
21027.421201,1258.350101,1378.971896,8734.430116
21027.421525,2960.823768,1838.629195,6883.915261
21027.421848,4885.359217,2374.896044,6809.894666
21027.422172,4219.173869,2987.772442,7698.141797
21027.422495,1406.391290,2681.334243,9400.615463
21027.422819,1776.494261,1455.581446,7698.141797
21027.423142,1332.370696,1072.533697,8438.347739
21027.423466,-2368.659014,76.609550,11251.130318
21027.423789,-4441.235652,-383.047749,11399.171507
21027.424113,-3182.885551,-1532.190996,8734.430116
21027.424436,-1184.329507,-2374.896044,8290.306550
21027.424760,-1332.370696,-1838.629195,7031.956449
21027.425083,-3478.967927,-919.314598,7846.182985
21027.425407,-3552.988522,0.000000,8734.430116
21027.425730,-2294.638420,306.438199,9178.553681
21027.426053,-1332.370696,1838.629195,10066.800811
21027.426377,-1554.432478,459.657299,9622.677246
21027.426700,-1258.350101,-919.314598,8586.388927
21027.427024,1776.494261,-459.657299,8956.491898
21027.427347,2812.782580,0.000000,8142.265362
21027.427671,1110.308913,-766.095498,8882.471304
21027.427994,-962.267725,-1302.362347,11991.336260
21027.428318,-1702.473667,-1149.143247,10955.047942
21027.428641,-888.247130,-2374.896044,10732.986159
21027.428965,-1480.411884,-3677.258390,11769.274478
21027.429288,-3182.885551,-3370.820191,10658.965565
21027.429612,-1258.350101,-1455.581446,9104.533087
21027.429935,1110.308913,-2221.676944,7031.956449
21027.430259,1332.370696,-1149.143247,7254.018232
21027.430582,-1110.308913,-842.705048,9178.553681
21027.430905,-3182.885551,-1838.629195,8068.244768
21027.431229,-2960.823768,-2451.505594,8660.409521
21027.431552,-1480.411884,-2604.724693,10807.006753
21027.431876,-2368.659014,-2374.896044,10436.903782
21027.432199,-2590.720797,-4366.744339,7920.203579
21027.432523,0.000000,-4443.353888,7624.121203
21027.432846,2146.597232,-2374.896044,8808.450710
21027.433170,1628.453072,76.609550,10436.903782
21027.433493,1554.432478,0.000000,9696.697840
21027.433817,2516.700203,-153.219100,9030.512492
21027.434140,3108.864956,-229.828649,9400.615463
21027.434464,2442.679609,919.314598,11251.130318
21027.434787,1184.329507,306.438199,8956.491898
21027.435111,1924.535449,459.657299,6809.894666
21027.435434,3552.988522,-383.047749,7254.018232
21027.435758,2738.761985,-842.705048,7698.141797
21027.436081,0.000000,-766.095498,9622.677246
21027.436404,-1924.535449,-1455.581446,9844.739029
21027.436728,-1628.453072,-919.314598,11473.192101
21027.437051,-888.247130,-459.657299,12065.356855
21027.437375,-2368.659014,-2221.676944,11991.336260
21027.437698,-1554.432478,-2528.115143,8512.368333
21027.438022,444.123565,-995.924147,8216.285956
21027.438345,2368.659014,229.828649,8068.244768
21027.438669,1554.432478,1455.581446,7698.141797
21027.438992,0.000000,1455.581446,7031.956449
21027.439316,-518.144159,1532.190996,8512.368333
21027.439639,74.020594,1378.971896,9474.636058
21027.439963,-1850.514855,1915.238745,10436.903782
21027.440286,-2220.617826,-689.485948,8808.450710
21027.440610,0.000000,-919.314598,7402.059420
21027.440933,1184.329507,0.000000,7254.018232
21027.441257,148.041188,1149.143247,8734.430116
21027.441580,-962.267725,2145.067394,9326.594869
21027.441903,-740.205942,1915.238745,8808.450710
21027.442227,0.000000,1149.143247,9030.512492
21027.442550,740.205942,1915.238745,9918.759623
21027.442874,-296.082377,1685.410096,10732.986159
21027.443197,-444.123565,842.705048,8660.409521
21027.443521,444.123565,766.095498,7624.121203
21027.443844,888.247130,76.609550,6883.915261
21027.444168,-2294.638420,0.000000,8216.285956
21027.444491,-3627.009116,-459.657299,9696.697840
21027.444815,-2442.679609,-766.095498,10658.965565
21027.445138,-3182.885551,-1302.362347,11399.171507
21027.445462,-4737.318029,-1532.190996,12657.521608
21027.445785,-5329.482782,-1685.410096,10658.965565
21027.446109,-2960.823768,-1762.019645,7994.224174
21027.446432,-888.247130,-2068.457845,5921.647536
21027.446755,-518.144159,-689.485948,8216.285956
21027.447079,-1998.556043,-229.828649,8512.368333
21027.447402,-1628.453072,1072.533697,9104.533087
21027.447726,-148.041188,0.000000,9326.594869
21027.448049,-148.041188,-76.609550,8882.471304
21027.448373,-1184.329507,-995.924147,9622.677246
21027.448696,592.164754,-1991.848295,8068.244768
21027.449020,2960.823768,-1302.362347,8216.285956
21027.449343,3627.009116,-766.095498,8142.265362
21027.449667,2072.576638,-459.657299,9992.780217
21027.449990,1184.329507,-1225.752797,9252.574275
21027.450314,1184.329507,-1378.971896,10066.800811
21027.450637,740.205942,-1225.752797,11991.336260
21027.450961,-1036.288319,-536.266849,11769.274478
21027.451284,-592.164754,-2987.772442,8216.285956
21027.451608,1480.411884,-3753.867940,5255.462188
21027.451931,1702.473667,-2298.286494,7105.977043
21027.452254,962.267725,-919.314598,10214.842000
21027.452578,-888.247130,-612.876398,9844.739029
21027.452901,-1036.288319,-1608.800546,10658.965565
21027.453225,-296.082377,-1915.238745,11103.089130
21027.453548,296.082377,-1991.848295,9696.697840
21027.453872,148.041188,-2757.943793,9252.574275
21027.454195,1850.514855,-1991.848295,9400.615463
21027.454519,3923.091493,229.828649,9622.677246
21027.454842,3552.988522,229.828649,9178.553681
21027.455166,2368.659014,-1225.752797,8216.285956
21027.455489,1406.391290,-689.485948,9474.636058
21027.455813,444.123565,536.266849,11103.089130
21027.456136,444.123565,229.828649,10881.027347
21027.456460,-518.144159,-459.657299,9474.636058
21027.456783,-740.205942,-2374.896044,6217.729913
21027.457106,-1036.288319,0.000000,6587.832884
21027.457430,-370.102971,153.219100,7624.121203
21027.457753,-962.267725,1455.581446,8586.388927
21027.458077,-1850.514855,1378.971896,9326.594869
21027.458400,-1924.535449,1302.362347,9030.512492
21027.458724,-1998.556043,76.609550,8956.491898
21027.459047,-2220.617826,-229.828649,9474.636058
21027.459371,-2220.617826,0.000000,10066.800811
21027.459694,0.000000,-229.828649,8142.265362
21027.460018,2072.576638,383.047749,8068.244768
21027.460341,592.164754,459.657299,8142.265362
21027.460665,-2146.597232,995.924147,9770.718434
21027.460988,-1554.432478,-306.438199,9104.533087
21027.461312,-1184.329507,0.000000,9400.615463
21027.461635,-2220.617826,689.485948,12657.521608
21027.461959,-3701.029710,612.876398,11769.274478
21027.462282,-3182.885551,-459.657299,8956.491898
21027.462605,-1480.411884,-1685.410096,7920.203579
21027.462929,-2072.576638,-766.095498,7772.162391
21027.463252,-3182.885551,-536.266849,9178.553681
21027.463576,-4071.132681,-1378.971896,10584.944971
21027.463899,-4293.194464,-383.047749,10066.800811
21027.464223,-3701.029710,0.000000,9844.739029
21027.464546,-2664.741391,-1838.629195,9400.615463
21027.464870,-2146.597232,-1991.848295,7772.162391
21027.465193,-222.061783,0.000000,7179.997637
21027.465517,3701.029710,536.266849,6365.771101
21027.465840,2664.741391,1378.971896,7994.224174
21027.466164,1776.494261,689.485948,7772.162391
21027.466487,1110.308913,1685.410096,8068.244768
21027.466811,2886.803174,536.266849,9548.656652
21027.467134,2886.803174,1532.190996,10807.006753
21027.467458,2072.576638,536.266849,10436.903782
21027.467781,3404.947333,-459.657299,8438.347739
21027.468104,3478.967927,-766.095498,7920.203579
21027.468428,3923.091493,-306.438199,8068.244768
21027.468751,1110.308913,-229.828649,9696.697840
21027.469074,-1110.308913,-1762.019645,8290.306550
21027.469398,-1628.453072,-1532.190996,9326.594869
21027.469721,-518.144159,-1532.190996,10362.883188
21027.470045,-1406.391290,-2145.067394,11251.130318
21027.470368,-2294.638420,-3140.991542,10288.862594
21027.470691,-962.267725,-1915.238745,10214.842000
21027.471015,666.185348,-2298.286494,8956.491898
21027.471338,0.000000,-2068.457845,9252.574275
21027.471661,-1184.329507,-2681.334243,8438.347739
21027.471985,-2072.576638,-1762.019645,10436.903782
21027.472308,0.000000,-612.876398,11769.274478
21027.472632,1110.308913,-229.828649,10807.006753
21027.472955,-148.041188,-919.314598,9474.636058
21027.473278,888.247130,-766.095498,7105.977043
21027.473602,3552.988522,0.000000,6365.771101
21027.473925,5107.421000,536.266849,7328.038826
21027.474248,2886.803174,1225.752797,8586.388927
21027.474572,962.267725,1991.848295,9400.615463
21027.474895,148.041188,919.314598,8734.430116
21027.475218,-814.226536,76.609550,9844.739029
21027.475542,-1924.535449,-1302.362347,8808.450710
21027.475865,-2220.617826,-1685.410096,8734.430116
21027.476189,-962.267725,-1762.019645,8586.388927
21027.476512,-296.082377,-612.876398,7254.018232
21027.476835,-2146.597232,-612.876398,9104.533087
21027.477159,-4145.153275,-1532.190996,8216.285956
21027.477482,-4737.318029,-612.876398,8438.347739
21027.477805,-5033.400406,-766.095498,9474.636058
21027.478129,-4737.318029,-1225.752797,10807.006753
21027.478452,-3627.009116,-1302.362347,10214.842000
21027.478776,-2516.700203,-1608.800546,9548.656652
21027.479099,-1702.473667,-1302.362347,9030.512492
21027.479422,-666.185348,-612.876398,9548.656652
21027.479746,-1406.391290,-536.266849,10362.883188
21027.480069,-2294.638420,-306.438199,10658.965565
21027.480392,-1110.308913,0.000000,10214.842000
21027.480716,-370.102971,0.000000,9326.594869
21027.481039,-888.247130,0.000000,10584.944971
21027.481362,0.000000,76.609550,9400.615463
21027.481686,2368.659014,1378.971896,7328.038826
21027.482009,2960.823768,842.705048,6883.915261
21027.482333,1332.370696,1532.190996,8586.388927
21027.482656,444.123565,1072.533697,8068.244768
21027.482979,666.185348,536.266849,8660.409521
21027.483303,1702.473667,229.828649,10066.800811
21027.483626,0.000000,995.924147,10658.965565
21027.483949,-888.247130,-229.828649,9844.739029
21027.484273,148.041188,-766.095498,7624.121203
21027.484596,2664.741391,-1225.752797,4959.379811
21027.484920,1406.391290,-536.266849,7624.121203
21027.485243,148.041188,-306.438199,8512.368333
21027.485566,0.000000,459.657299,8512.368333
21027.485890,444.123565,229.828649,9474.636058
21027.486213,-370.102971,-919.314598,9474.636058
21027.486536,-518.144159,-1378.971896,10140.821405
21027.486860,518.144159,-1532.190996,9474.636058
21027.487183,2812.782580,-1608.800546,8586.388927
21027.487507,2812.782580,-1608.800546,8290.306550
21027.487830,740.205942,-1762.019645,9918.759623
21027.488153,-1554.432478,-1072.533697,10807.006753
21027.488477,-1184.329507,-1685.410096,11399.171507
21027.488800,-148.041188,-2451.505594,11991.336260
21027.489123,0.000000,-2298.286494,12731.542202
21027.489447,888.247130,-2068.457845,11547.212695
21027.489770,1480.411884,-2528.115143,9030.512492
21027.490093,2590.720797,-1915.238745,7994.224174
21027.490417,1924.535449,0.000000,9770.718434
21027.490740,1184.329507,0.000000,9400.615463
21027.491064,592.164754,-536.266849,7846.182985
21027.491387,444.123565,-612.876398,8142.265362
21027.491710,-592.164754,0.000000,9474.636058
21027.492034,-1184.329507,-689.485948,7920.203579
21027.492357,-370.102971,-1762.019645,6883.915261
21027.492680,888.247130,-1149.143247,6439.791695
21027.493004,74.020594,383.047749,8512.368333
21027.493327,-962.267725,0.000000,9178.553681
21027.493651,-2368.659014,-1225.752797,7698.141797
21027.493974,-2886.803174,-1225.752797,10214.842000
21027.494297,-3256.906145,-612.876398,9918.759623
21027.494621,-2590.720797,-229.828649,10362.883188
21027.494944,-2516.700203,-1225.752797,9548.656652
21027.495267,-3478.967927,-919.314598,8290.306550
21027.495591,-2516.700203,-459.657299,9030.512492
21027.495914,-1924.535449,-766.095498,9030.512492
21027.496237,-4071.132681,0.000000,8882.471304
21027.496561,-5181.441594,-612.876398,9992.780217
21027.496884,-4959.379811,-153.219100,10362.883188
21027.497208,-4515.256246,-995.924147,10584.944971
21027.497531,-3256.906145,-1532.190996,9178.553681
21027.497854,-2072.576638,-383.047749,8290.306550
21027.498178,592.164754,459.657299,7328.038826
21027.498501,2886.803174,1378.971896,8586.388927
21027.498824,2294.638420,2298.286494,9992.780217
21027.499148,814.226536,2528.115143,9770.718434
21027.499471,1036.288319,2604.724693,9474.636058
21027.499795,2072.576638,1762.019645,10658.965565
21027.500118,1924.535449,536.266849,9548.656652
21027.500441,1924.535449,766.095498,7550.100608
21027.500765,2812.782580,459.657299,7105.977043
21027.501088,2812.782580,1302.362347,7476.080014
21027.501411,1480.411884,1838.629195,7179.997637
21027.501735,1184.329507,1225.752797,7105.977043
21027.502058,148.041188,1225.752797,9326.594869
21027.502382,370.102971,1762.019645,10214.842000
21027.502705,518.144159,2298.286494,10140.821405
21027.503028,370.102971,-689.485948,7624.121203
21027.503352,74.020594,-229.828649,7105.977043
21027.503675,962.267725,153.219100,7105.977043
21027.503998,814.226536,-383.047749,8586.388927
21027.504322,0.000000,-1608.800546,9992.780217
21027.504645,-1628.453072,-1378.971896,10362.883188
21027.504968,-1776.494261,-1608.800546,10658.965565
21027.505292,-1258.350101,-2757.943793,11325.150913
21027.505615,-962.267725,-3064.381992,9918.759623
21027.505939,444.123565,-2451.505594,10288.862594
21027.506262,1924.535449,-1532.190996,9696.697840
21027.506585,2294.638420,-1149.143247,8808.450710
21027.506909,2368.659014,-1302.362347,9326.594869
21027.507232,1628.453072,-1915.238745,8586.388927
21027.507555,296.082377,-1225.752797,10658.965565
21027.507879,148.041188,-1532.190996,11473.192101
21027.508202,-518.144159,-1608.800546,11177.109724
21027.508526,-222.061783,-3830.477490,9844.739029
21027.508849,444.123565,-3524.039291,8364.327145
21027.509172,2368.659014,-3140.991542,7105.977043
21027.509496,1406.391290,-2451.505594,7846.182985
21027.509819,-666.185348,-1455.581446,9178.553681
21027.510142,-1628.453072,-229.828649,8586.388927
21027.510466,-814.226536,-766.095498,8290.306550
21027.510789,-1110.308913,-2604.724693,8068.244768
21027.511112,-2146.597232,-2221.676944,9474.636058
21027.511436,-2368.659014,-1838.629195,9104.533087
21027.511759,-518.144159,-2374.896044,8364.327145
21027.512083,-814.226536,-2221.676944,8660.409521
21027.512406,-3627.009116,-2834.553343,9474.636058
21027.512729,-5699.585753,-3830.477490,9030.512492
21027.513053,-5181.441594,-3753.867940,10510.924376
21027.513376,-2516.700203,-2604.724693,12805.562797
21027.513699,-4071.132681,-1991.848295,13471.748144
21027.514023,-4219.173869,-2528.115143,10732.986159
21027.514346,-1924.535449,-2757.943793,8512.368333
21027.514670,740.205942,-1149.143247,8586.388927
21027.514993,444.123565,612.876398,12287.418637
21027.515316,-962.267725,919.314598,10214.842000
21027.515640,-888.247130,1455.581446,9474.636058
21027.515963,74.020594,1149.143247,9696.697840
21027.516286,-518.144159,2068.457845,9030.512492
21027.516610,0.000000,1225.752797,6809.894666
21027.516933,2146.597232,1685.410096,6069.688724
21027.517257,3552.988522,3294.210641,6513.812290
21027.517580,2960.823768,4903.011187,8142.265362
21027.517903,3775.050304,4136.915689,5107.421000
21027.518227,1702.473667,4749.792088,5995.668130
21027.518550,2072.576638,4213.525239,7179.997637
21027.518873,2146.597232,5056.230287,7105.977043
21027.519197,2146.597232,3600.648841,8660.409521
21027.519520,1332.370696,2757.943793,7402.059420
21027.519843,148.041188,2451.505594,5921.647536
21027.520167,1406.391290,995.924147,6809.894666
21027.520490,222.061783,153.219100,9178.553681
21027.520814,-1554.432478,306.438199,10584.944971
21027.521137,-3256.906145,0.000000,10881.027347
21027.521460,-3701.029710,-919.314598,10658.965565
21027.521784,-3923.091493,-1915.238745,11473.192101
21027.522107,-4515.256246,-2987.772442,11325.150913
21027.522430,-2368.659014,-3600.648841,8586.388927
21027.522754,0.000000,-2451.505594,8956.491898
21027.523077,592.164754,-1072.533697,11029.068536
21027.523401,370.102971,-229.828649,10658.965565
21027.523724,1480.411884,-1149.143247,10362.883188
21027.524047,3478.967927,-689.485948,11399.171507
21027.524371,3034.844362,229.828649,12805.562797
21027.524694,2590.720797,0.000000,11769.274478
21027.525017,3256.906145,-2221.676944,8068.244768
21027.525341,4959.379811,-1991.848295,7254.018232
21027.525664,5181.441594,-919.314598,7994.224174
21027.525987,2738.761985,-995.924147,8290.306550
21027.526311,888.247130,-1915.238745,8290.306550
21027.526634,0.000000,-1762.019645,8438.347739
21027.526958,-1110.308913,-1762.019645,9030.512492
21027.527281,-3627.009116,-2987.772442,8734.430116
21027.527604,-4071.132681,-4903.011187,6883.915261
21027.527928,-3182.885551,-4903.011187,6365.771101
21027.528251,-2886.803174,-4290.134789,7698.141797
21027.528574,-4367.215058,-3600.648841,8808.450710
21027.528898,-5773.606348,-4596.572988,8512.368333
21027.529221,-6809.894666,-4596.572988,9548.656652
21027.529545,-4811.338623,-4979.620737,10362.883188
21027.529868,-3997.112087,-3907.087040,11177.109724
21027.530191,-2590.720797,-4213.525239,11399.171507
21027.530515,-1628.453072,-2757.943793,11473.192101
21027.530838,2368.659014,-1149.143247,10436.903782
21027.531161,4293.194464,-842.705048,10436.903782
21027.531485,1998.556043,-842.705048,11177.109724
21027.531808,1406.391290,-153.219100,11399.171507
21027.532132,2516.700203,766.095498,11547.212695
21027.532455,2738.761985,536.266849,12509.480420
21027.532778,1036.288319,0.000000,11843.295072
21027.533102,-592.164754,229.828649,8438.347739
21027.533425,-148.041188,0.000000,5995.668130
21027.533748,1258.350101,459.657299,4663.297435
21027.534072,-370.102971,1608.800546,6809.894666
21027.534395,-2294.638420,2221.676944,7772.162391
21027.534718,-3108.864956,2681.334243,7476.080014
21027.535042,-1702.473667,1838.629195,7105.977043
21027.535365,-2220.617826,1302.362347,7402.059420
21027.535689,-4441.235652,1915.238745,7846.182985
21027.536012,-2442.679609,1532.190996,7105.977043
21027.536335,740.205942,153.219100,4663.297435
21027.536659,1184.329507,459.657299,6735.874072
21027.536982,-1110.308913,1532.190996,9252.574275
21027.537305,-1628.453072,2374.896044,9548.656652
21027.537629,148.041188,689.485948,9622.677246
21027.537952,1036.288319,459.657299,10584.944971
21027.538276,222.061783,1378.971896,11029.068536
21027.538599,2220.617826,1072.533697,9622.677246
21027.538922,4885.359217,536.266849,8882.471304
21027.539246,4885.359217,1685.410096,10066.800811
21027.539569,3404.947333,2451.505594,11473.192101
21027.539892,2072.576638,1378.971896,10066.800811
21027.540216,888.247130,-229.828649,11177.109724
21027.540539,370.102971,76.609550,12657.521608
21027.540862,-1554.432478,0.000000,12731.542202
21027.541186,-2368.659014,-2451.505594,8882.471304
21027.541509,-592.164754,-3447.429741,6883.915261
21027.541833,296.082377,-2451.505594,6809.894666
21027.542156,-740.205942,-306.438199,9104.533087
21027.542479,-592.164754,0.000000,8068.244768
21027.542803,74.020594,0.000000,7402.059420
21027.543126,-148.041188,0.000000,7402.059420
21027.543449,148.041188,0.000000,7624.121203
21027.543773,148.041188,-306.438199,7328.038826
21027.544096,962.267725,-1149.143247,7105.977043
21027.544420,1036.288319,-766.095498,8068.244768
21027.544743,1406.391290,-459.657299,8364.327145
21027.545066,-1406.391290,-2068.457845,8142.265362
21027.545390,-4145.153275,-3830.477490,7624.121203
21027.545713,-3478.967927,-3524.039291,9326.594869
21027.546036,-2664.741391,-3907.087040,12361.439231
21027.546360,-3478.967927,-3677.258390,13027.624579
21027.546683,-3923.091493,-4213.525239,10214.842000
21027.547006,-3627.009116,-3983.696590,9474.636058
21027.547330,-2516.700203,-3217.601092,10140.821405
21027.547653,-962.267725,-2221.676944,10510.924376
21027.547977,-888.247130,-2834.553343,9770.718434
21027.548300,-1406.391290,-1838.629195,10436.903782
21027.548623,-148.041188,-153.219100,11399.171507
21027.548947,518.144159,76.609550,11917.315666
21027.549270,-370.102971,-1225.752797,9770.718434
21027.549593,-444.123565,-1532.190996,8734.430116
21027.549917,3330.926739,-459.657299,7698.141797
21027.550240,4589.276840,689.485948,8512.368333
21027.550564,2590.720797,766.095498,8438.347739
21027.550887,740.205942,1455.581446,7402.059420
21027.551210,444.123565,995.924147,8438.347739
21027.551534,592.164754,1149.143247,10140.821405
21027.551857,74.020594,919.314598,9400.615463
21027.552180,-222.061783,0.000000,7328.038826
21027.552504,0.000000,-842.705048,6217.729913
21027.552827,592.164754,919.314598,7772.162391
21027.553151,0.000000,919.314598,8512.368333
21027.553474,-3330.926739,459.657299,7550.100608
21027.553797,-3330.926739,-612.876398,7254.018232
21027.554121,-2886.803174,306.438199,9252.574275
21027.554444,-2886.803174,612.876398,11251.130318
21027.554767,-1184.329507,76.609550,10732.986159
21027.555091,1258.350101,0.000000,9178.553681
21027.555414,1924.535449,-153.219100,7698.141797
21027.555737,1628.453072,1149.143247,9474.636058
21027.556061,1110.308913,1149.143247,10584.944971
21027.556384,1258.350101,1378.971896,12287.418637
21027.556708,2072.576638,1762.019645,12435.459826
21027.557031,2294.638420,1302.362347,10807.006753
21027.557354,888.247130,689.485948,9252.574275
21027.557678,1036.288319,229.828649,7994.224174
21027.558001,2738.761985,1378.971896,7031.956449
21027.558324,2368.659014,1991.848295,7328.038826
21027.558648,0.000000,1302.362347,6809.894666
21027.558971,-2294.638420,536.266849,6883.915261
21027.559295,-2442.679609,0.000000,8734.430116
21027.559618,-2516.700203,-153.219100,9696.697840
21027.559941,-3478.967927,-995.924147,9178.553681
21027.560265,-4589.276840,-2987.772442,7624.121203
21027.560588,-3182.885551,-2528.115143,7179.997637
21027.560911,0.000000,-1532.190996,6735.874072
21027.561235,0.000000,-2145.067394,7846.182985
21027.561558,-1480.411884,-2374.896044,7994.224174
21027.561881,-1184.329507,-1225.752797,9400.615463
21027.562205,1184.329507,-1149.143247,10140.821405
21027.562528,1110.308913,-766.095498,11399.171507
21027.562852,370.102971,-2068.457845,10881.027347
21027.563175,1258.350101,-2834.553343,9622.677246
21027.563498,3552.988522,-3140.991542,9030.512492
21027.563822,2886.803174,-2298.286494,10584.944971
21027.564145,666.185348,-1915.238745,12583.501014
21027.564468,-2368.659014,-2145.067394,12361.439231
21027.564792,-2960.823768,-3294.210641,12509.480420
21027.565115,-3256.906145,-3907.087040,12435.459826
21027.565439,-5329.482782,-4060.306139,12435.459826
21027.565762,-6143.709319,-4519.963438,10140.821405
21027.566085,-4515.256246,-3677.258390,8438.347739
21027.566409,-2294.638420,-3447.429741,6957.935855
21027.566732,-3108.864956,-1762.019645,8068.244768
21027.567055,-3849.070898,153.219100,7846.182985
21027.567379,-1850.514855,612.876398,7402.059420
21027.567702,814.226536,919.314598,6957.935855
21027.568026,1776.494261,1225.752797,8142.265362
21027.568349,2516.700203,1455.581446,7698.141797
21027.568672,3997.112087,1915.238745,6587.832884
21027.568996,6143.709319,2987.772442,6439.791695
21027.569319,6365.771101,3830.477490,7698.141797
21027.569643,3923.091493,2987.772442,9104.533087
21027.569966,3849.070898,2145.067394,8364.327145
21027.570289,3478.967927,2451.505594,9030.512492
21027.570613,1776.494261,2374.896044,10732.986159
21027.570936,-1554.432478,1685.410096,9770.718434
21027.571260,-2368.659014,612.876398,8882.471304
21027.571583,-1184.329507,-995.924147,7402.059420
21027.571906,-2146.597232,153.219100,8142.265362
21027.572230,-5181.441594,-612.876398,9252.574275
21027.572553,-7179.997637,-1455.581446,10066.800811
21027.572877,-6587.832884,-1838.629195,10214.842000
21027.573200,-4737.318029,-1838.629195,10658.965565
21027.573524,-4885.359217,-1762.019645,11843.295072
21027.573847,-5033.400406,-1225.752797,10807.006753
21027.574170,-2368.659014,-1378.971896,9252.574275
21027.574494,2442.679609,-383.047749,7179.997637
21027.574817,5107.421000,1072.533697,9178.553681
21027.575141,4959.379811,2451.505594,9696.697840
21027.575464,4885.359217,2911.162892,9178.553681
21027.575787,6661.853478,2604.724693,9252.574275
21027.576111,6661.853478,2757.943793,10214.842000
21027.576434,4737.318029,2757.943793,10732.986159
21027.576758,4441.235652,-229.828649,6661.853478
21027.577081,5181.441594,-995.924147,5551.544565
21027.577404,4367.215058,-995.924147,7994.224174
21027.577728,444.123565,0.000000,9474.636058
21027.578051,-1850.514855,-1378.971896,7920.203579
21027.578375,-3034.844362,-3217.601092,8216.285956
21027.578698,-3775.050304,-3370.820191,9104.533087
21027.579021,-4885.359217,-2374.896044,9844.739029
21027.579345,-4145.153275,-3983.696590,8734.430116
21027.579668,-2590.720797,-3983.696590,7698.141797
21027.579992,-2146.597232,-3064.381992,8216.285956
21027.580315,-2664.741391,-2374.896044,9400.615463
21027.580639,-2738.761985,-3140.991542,9326.594869
21027.580962,-2886.803174,-2987.772442,10807.006753
21027.581285,-4071.132681,-3064.381992,12805.562797
21027.581609,-3182.885551,-4060.306139,11325.150913
21027.581932,-3108.864956,-3524.039291,12731.542202
21027.582256,-1184.329507,-3830.477490,11769.274478
21027.582579,74.020594,-2528.115143,8956.491898
21027.582902,1850.514855,-2451.505594,7328.038826
21027.583226,2072.576638,-1608.800546,10436.903782
21027.583549,814.226536,919.314598,10881.027347
21027.583873,1036.288319,1225.752797,10955.047942
21027.584196,1406.391290,306.438199,9104.533087
21027.584519,0.000000,612.876398,10066.800811
21027.584843,-1258.350101,459.657299,8808.450710
21027.585166,-518.144159,0.000000,6365.771101
21027.585490,1184.329507,-842.705048,5625.565159
21027.585813,-1702.473667,306.438199,7402.059420
21027.586137,-3552.988522,383.047749,7328.038826
21027.586460,-3330.926739,0.000000,8068.244768
21027.586783,-1258.350101,-612.876398,7920.203579
21027.587107,-2442.679609,383.047749,9474.636058
21027.587430,-2664.741391,229.828649,9104.533087
21027.587754,0.000000,0.000000,7476.080014
21027.588077,3627.009116,-153.219100,6439.791695
21027.588400,2516.700203,1915.238745,8956.491898
21027.588724,814.226536,1608.800546,9474.636058
21027.589047,1110.308913,1532.190996,9178.553681
21027.589371,2368.659014,1072.533697,9992.780217
21027.589694,1036.288319,1378.971896,12139.377449
21027.590017,-370.102971,919.314598,12287.418637
21027.590341,222.061783,-383.047749,10436.903782
21027.590664,1554.432478,-842.705048,8660.409521
21027.590988,2368.659014,689.485948,8734.430116
21027.591311,1258.350101,995.924147,10214.842000
21027.591635,962.267725,689.485948,9474.636058
21027.591958,222.061783,689.485948,9770.718434
21027.592281,1184.329507,459.657299,8956.491898
21027.592605,1332.370696,1378.971896,10510.924376
21027.592928,1554.432478,0.000000,9104.533087
21027.593252,2368.659014,-306.438199,7846.182985
21027.593575,3478.967927,383.047749,7550.100608
21027.593898,2368.659014,1532.190996,7920.203579
21027.594222,0.000000,1225.752797,7254.018232
21027.594545,-1036.288319,-383.047749,7179.997637
21027.594869,-1480.411884,-536.266849,7624.121203
21027.595192,-3997.112087,306.438199,11399.171507
21027.595515,-3108.864956,689.485948,11695.253884
21027.595839,-3478.967927,-1225.752797,7105.977043
21027.596162,-3404.947333,-2221.676944,5995.668130
21027.596486,-2590.720797,-1532.190996,7550.100608
21027.596809,-4663.297435,-689.485948,8216.285956
21027.597133,-5551.544565,-1991.848295,7846.182985
21027.597456,-4663.297435,-2374.896044,9474.636058
21027.597779,-4737.318029,-1608.800546,10881.027347
21027.598103,-5033.400406,-1991.848295,11177.109724
21027.598426,-3330.926739,-3447.429741,10955.047942
21027.598750,-740.205942,-3753.867940,8882.471304
21027.599073,518.144159,-1915.238745,9622.677246
21027.599396,1332.370696,-995.924147,10510.924376
21027.599720,1184.329507,76.609550,10955.047942
21027.600043,1998.556043,-766.095498,10436.903782
21027.600367,2442.679609,0.000000,11547.212695
21027.600690,1850.514855,-383.047749,11473.192101
21027.601013,888.247130,-919.314598,10066.800811
21027.601337,1554.432478,-2068.457845,8956.491898
21027.601660,1998.556043,-1991.848295,8142.265362
21027.601984,1036.288319,-1608.800546,7105.977043
21027.602307,-666.185348,-2374.896044,7994.224174
21027.602631,-2516.700203,-2604.724693,7550.100608
21027.602954,-2738.761985,-1149.143247,8290.306550
21027.603277,-1998.556043,-1455.581446,10288.862594
21027.603601,-1258.350101,-1915.238745,9992.780217
21027.603924,-222.061783,-2221.676944,7698.141797
21027.604248,666.185348,-689.485948,7772.162391
21027.604571,2886.803174,0.000000,7105.977043
21027.604894,2590.720797,612.876398,8068.244768
21027.605218,2368.659014,-153.219100,8512.368333
21027.605541,1406.391290,689.485948,9844.739029
21027.605865,2072.576638,612.876398,11695.253884
21027.606188,1554.432478,689.485948,11843.295072
21027.606511,1554.432478,-536.266849,11103.089130
21027.606835,2368.659014,-536.266849,8364.327145
21027.607158,2886.803174,0.000000,8586.388927
21027.607482,2220.617826,1225.752797,9178.553681
21027.607805,518.144159,842.705048,8882.471304
21027.608128,0.000000,0.000000,7624.121203
21027.608452,-888.247130,689.485948,9474.636058
21027.608775,-2664.741391,1532.190996,11917.315666
21027.609099,-3404.947333,306.438199,10732.986159
21027.609422,-2812.782580,-612.876398,8586.388927
21027.609746,-1480.411884,-1915.238745,7550.100608
21027.610069,-1924.535449,-459.657299,6883.915261
21027.610392,-1998.556043,153.219100,8068.244768
21027.610716,-2146.597232,0.000000,8068.244768
21027.611039,-2146.597232,1302.362347,8586.388927
21027.611363,-962.267725,1915.238745,9844.739029
21027.611686,-888.247130,995.924147,9992.780217
21027.612009,-740.205942,842.705048,9696.697840
21027.612333,1406.391290,1225.752797,7698.141797
21027.612656,2886.803174,842.705048,6365.771101
21027.612980,1776.494261,1302.362347,7254.018232
21027.613303,-740.205942,919.314598,8808.450710
21027.613626,-3034.844362,689.485948,8882.471304
21027.613950,-3108.864956,-689.485948,8660.409521
21027.614273,-3997.112087,-919.314598,9696.697840
21027.614597,-4441.235652,-1455.581446,11177.109724
21027.614920,-4811.338623,-2221.676944,9770.718434
21027.615244,-2664.741391,-2987.772442,6809.894666
21027.615567,-1332.370696,-1915.238745,8364.327145
21027.615890,-888.247130,-1685.410096,9770.718434
21027.616214,-518.144159,-919.314598,9252.574275
21027.616537,148.041188,-919.314598,11251.130318
21027.616861,962.267725,153.219100,11843.295072
21027.617184,1406.391290,0.000000,10955.047942
21027.617507,1036.288319,-1762.019645,9622.677246
21027.617831,1924.535449,-2374.896044,7550.100608
21027.618154,2442.679609,-1991.848295,7179.997637
21027.618478,2442.679609,-1608.800546,10214.842000
21027.618801,1554.432478,-1685.410096,10436.903782
21027.619124,-444.123565,-766.095498,10362.883188
21027.619448,-370.102971,-1455.581446,9474.636058
21027.619771,-296.082377,-842.705048,10436.903782
21027.620095,-740.205942,-1608.800546,9918.759623
21027.620418,296.082377,-1455.581446,7920.203579
21027.620742,1554.432478,-689.485948,6513.812290
21027.621065,1628.453072,383.047749,6439.791695
21027.621388,296.082377,459.657299,7550.100608
21027.621712,-296.082377,-229.828649,7254.018232
21027.622035,-1184.329507,-689.485948,9326.594869
21027.622359,-1480.411884,-995.924147,10510.924376
21027.622682,-1776.494261,-995.924147,11843.295072
21027.623005,-1110.308913,-2298.286494,10066.800811
21027.623329,1110.308913,-2681.334243,6883.915261
21027.623652,2368.659014,-1608.800546,7031.956449
21027.623976,888.247130,-229.828649,9400.615463
21027.624299,-74.020594,766.095498,9548.656652
21027.624622,666.185348,919.314598,10066.800811
21027.624946,740.205942,0.000000,10881.027347
21027.625269,-1258.350101,-536.266849,11621.233289
21027.625593,-1850.514855,-1225.752797,9696.697840
21027.625916,-740.205942,0.000000,7920.203579
21027.626240,370.102971,459.657299,7846.182985
21027.626563,962.267725,383.047749,6661.853478
21027.626886,-888.247130,0.000000,7031.956449
21027.627210,-1554.432478,76.609550,8882.471304
21027.627533,-1702.473667,1532.190996,9918.759623
21027.627857,-1480.411884,1225.752797,10436.903782
21027.628180,-1406.391290,-995.924147,9178.553681
21027.628503,-518.144159,-919.314598,8142.265362
21027.628827,962.267725,-842.705048,8734.430116
21027.629150,1628.453072,306.438199,8956.491898
21027.629474,1554.432478,919.314598,9178.553681
21027.629797,518.144159,-153.219100,7920.203579
21027.630120,-1258.350101,-536.266849,8364.327145
21027.630444,-1554.432478,995.924147,10584.944971
21027.630767,-740.205942,689.485948,11177.109724
21027.631091,-1628.453072,-536.266849,9474.636058
21027.631414,-1702.473667,-1532.190996,7772.162391
21027.631738,-962.267725,-1149.143247,7476.080014
21027.632061,222.061783,-612.876398,8216.285956
21027.632384,-814.226536,-536.266849,9474.636058
21027.632708,-2738.761985,-612.876398,10214.842000
21027.633031,-3034.844362,153.219100,10807.006753
21027.633355,-1258.350101,-459.657299,10807.006753
21027.633678,-962.267725,-2221.676944,10584.944971
21027.634001,-1628.453072,-2298.286494,8956.491898
21027.634325,-444.123565,-1149.143247,7105.977043
21027.634648,2072.576638,-612.876398,7476.080014
21027.634972,1998.556043,-229.828649,8882.471304
21027.635295,0.000000,306.438199,8660.409521
21027.635618,-444.123565,536.266849,9474.636058
21027.635942,-370.102971,-536.266849,10214.842000
21027.636265,-888.247130,-459.657299,11621.233289
21027.636589,0.000000,-1532.190996,9030.512492
21027.636912,888.247130,-1608.800546,7624.121203
21027.637236,1702.473667,-766.095498,8142.265362
21027.637559,814.226536,76.609550,9030.512492
21027.637882,-740.205942,-1378.971896,9844.739029
21027.638206,-1776.494261,-1991.848295,9178.553681
21027.638529,-1702.473667,-1378.971896,9622.677246
21027.638853,-1332.370696,-766.095498,11325.150913
21027.639176,-1628.453072,-1302.362347,10881.027347
21027.639499,-666.185348,-919.314598,7550.100608
21027.639823,1480.411884,-536.266849,5921.647536
21027.640146,1554.432478,0.000000,7476.080014
21027.640470,518.144159,-459.657299,9178.553681
21027.640793,222.061783,-383.047749,8882.471304
21027.641116,0.000000,-689.485948,11103.089130
21027.641440,370.102971,0.000000,12879.583391
21027.641763,-1406.391290,-153.219100,11991.336260
21027.642087,-1184.329507,-2911.162892,8660.409521
21027.642410,296.082377,-2834.553343,7254.018232
21027.642733,2442.679609,0.000000,7624.121203
21027.643057,2368.659014,1225.752797,9622.677246
21027.643380,370.102971,536.266849,8142.265362
21027.643704,74.020594,842.705048,7328.038826
21027.644027,814.226536,1455.581446,9252.574275
21027.644351,1110.308913,2298.286494,11399.171507
21027.644674,74.020594,383.047749,9918.759623
21027.644997,962.267725,76.609550,7550.100608
21027.645321,3034.844362,-1149.143247,6143.709319
21027.645644,814.226536,229.828649,8438.347739
21027.645968,-962.267725,0.000000,10066.800811
21027.646291,-1924.535449,229.828649,8808.450710
21027.646614,-1998.556043,-995.924147,9400.615463
21027.646938,-2368.659014,-1378.971896,10732.986159
21027.647261,-2886.803174,-1455.581446,11103.089130
21027.647585,-2960.823768,-1915.238745,9178.553681
21027.647908,0.000000,-1915.238745,7254.018232
21027.648231,1776.494261,0.000000,7105.977043
21027.648555,1480.411884,1455.581446,8512.368333
21027.648878,74.020594,919.314598,8364.327145
21027.649202,-2146.597232,153.219100,9474.636058
21027.649525,-2072.576638,0.000000,10362.883188
21027.649849,-1924.535449,0.000000,10881.027347
21027.650172,-2146.597232,-1149.143247,12657.521608
21027.650495,-1332.370696,-2374.896044,9030.512492
21027.650819,-962.267725,-1838.629195,6957.935855
21027.651142,-666.185348,-1302.362347,9104.533087
21027.651466,-888.247130,229.828649,9548.656652
21027.651789,-666.185348,689.485948,8882.471304
21027.652112,-592.164754,-536.266849,9400.615463
21027.652436,-962.267725,612.876398,10140.821405
21027.652759,-592.164754,919.314598,10658.965565
21027.653083,370.102971,-689.485948,7920.203579
21027.653406,370.102971,-1225.752797,7105.977043
21027.653729,1332.370696,-153.219100,7846.182985
21027.654053,0.000000,-459.657299,8068.244768
21027.654376,-2146.597232,-1225.752797,8438.347739
21027.654700,-1554.432478,-1225.752797,8660.409521
21027.655023,-1184.329507,-1072.533697,9474.636058
21027.655347,-1924.535449,-995.924147,10955.047942
21027.655670,-2146.597232,-1532.190996,10436.903782
21027.655993,962.267725,-1762.019645,8142.265362
21027.656317,2072.576638,-1225.752797,7994.224174
21027.656640,1776.494261,-612.876398,9474.636058
21027.656964,444.123565,76.609550,8734.430116
21027.657287,1110.308913,153.219100,9474.636058
21027.657610,2294.638420,0.000000,10732.986159
21027.657934,1480.411884,995.924147,11843.295072
21027.658257,1036.288319,0.000000,11399.171507
21027.658581,148.041188,-842.705048,9622.677246
21027.658904,2664.741391,-1225.752797,7846.182985
21027.659227,2738.761985,-459.657299,7624.121203
21027.659551,1184.329507,-459.657299,7920.203579
21027.659874,-444.123565,-689.485948,8438.347739
21027.660198,-296.082377,0.000000,9770.718434
21027.660521,592.164754,919.314598,10732.986159
21027.660845,296.082377,0.000000,11251.130318
21027.661168,-148.041188,-1378.971896,8142.265362
21027.661491,0.000000,-1608.800546,7179.997637
21027.661815,1998.556043,0.000000,6809.894666
21027.662138,888.247130,153.219100,8216.285956
21027.662462,-1776.494261,-919.314598,6957.935855
21027.662785,-3701.029710,-1532.190996,7476.080014
21027.663108,-2368.659014,-1685.410096,8734.430116
21027.663432,-1628.453072,-612.876398,11695.253884
21027.663755,-2368.659014,-1608.800546,11473.192101
21027.664079,-2220.617826,-1608.800546,9770.718434
21027.664402,148.041188,-2221.676944,8438.347739
21027.664725,1480.411884,-612.876398,8438.347739
21027.665049,148.041188,-306.438199,8364.327145
21027.665372,-1184.329507,-76.609550,8586.388927
21027.665696,-1924.535449,383.047749,9474.636058
21027.666019,0.000000,1302.362347,11399.171507
21027.666343,-740.205942,383.047749,11547.212695
21027.666666,-2220.617826,-1225.752797,9696.697840
21027.666989,-2294.638420,-1532.190996,9178.553681
21027.667313,-518.144159,-1378.971896,8290.306550
21027.667636,-888.247130,-919.314598,8734.430116
21027.667960,-2442.679609,-766.095498,8068.244768
21027.668283,-3256.906145,76.609550,9474.636058
21027.668606,-1258.350101,0.000000,8660.409521
21027.668930,-2294.638420,-153.219100,9474.636058
21027.669254,-2442.679609,-229.828649,10584.944971
21027.669577,-1554.432478,76.609550,9030.512492
21027.669901,444.123565,-1072.533697,6365.771101
21027.670224,740.205942,-1072.533697,6883.915261
21027.670548,-222.061783,-766.095498,8216.285956
21027.670871,-888.247130,459.657299,9104.533087
21027.671195,0.000000,536.266849,10881.027347
21027.671518,1702.473667,153.219100,10510.924376
21027.671842,296.082377,229.828649,10881.027347
21027.672165,592.164754,-995.924147,8216.285956
21027.672489,3034.844362,0.000000,7402.059420
21027.672812,4663.297435,306.438199,7550.100608
21027.673136,2072.576638,1302.362347,9400.615463
21027.673459,592.164754,842.705048,8438.347739
21027.673783,814.226536,0.000000,8438.347739
21027.674106,370.102971,0.000000,10140.821405
21027.674430,-962.267725,76.609550,11917.315666
21027.674753,-1628.453072,-1072.533697,11029.068536
21027.675077,0.000000,-2145.067394,7920.203579
21027.675400,962.267725,-1991.848295,6957.935855
21027.675724,-148.041188,-689.485948,8660.409521
21027.676047,-1924.535449,153.219100,9474.636058
21027.676371,-814.226536,-612.876398,7698.141797
21027.676694,1258.350101,-766.095498,9326.594869
21027.677018,1110.308913,383.047749,11769.274478
21027.677342,-370.102971,1149.143247,11695.253884
21027.677665,148.041188,-919.314598,8216.285956
21027.677989,2442.679609,-2374.896044,6883.915261
21027.678312,2960.823768,-76.609550,8364.327145
21027.678636,1184.329507,-76.609550,8660.409521
21027.678959,-518.144159,-766.095498,8808.450710
21027.679283,-666.185348,-1149.143247,8734.430116
21027.679606,0.000000,-1072.533697,9622.677246
21027.679930,-1702.473667,-919.314598,11251.130318
21027.680253,-2590.720797,-995.924147,9770.718434
21027.680577,-518.144159,-919.314598,8142.265362
21027.680900,1554.432478,-2298.286494,7031.956449
21027.681224,0.000000,-1072.533697,8882.471304
21027.681547,-2072.576638,-459.657299,8586.388927
21027.681871,-3775.050304,-153.219100,9178.553681
21027.682194,-3404.947333,-1072.533697,8068.244768
21027.682518,-3034.844362,-1072.533697,9696.697840
21027.682841,-3997.112087,-2298.286494,10214.842000
21027.683165,-3923.091493,-2987.772442,9104.533087
21027.683488,-1184.329507,-3370.820191,7624.121203
21027.683812,-222.061783,-2298.286494,9104.533087
21027.684135,-1702.473667,-842.705048,10436.903782
21027.684459,-2072.576638,-383.047749,10658.965565
21027.684782,0.000000,-995.924147,11103.089130
21027.685106,370.102971,153.219100,10288.862594
21027.685430,666.185348,919.314598,10362.883188
21027.685753,-148.041188,-536.266849,8882.471304
21027.686077,296.082377,-536.266849,7476.080014
21027.686400,2220.617826,76.609550,7254.018232
21027.686724,444.123565,459.657299,8882.471304
21027.687047,-1850.514855,-766.095498,7772.162391
21027.687371,-1628.453072,-459.657299,8734.430116
21027.687694,148.041188,-766.095498,9844.739029
21027.688018,-222.061783,612.876398,11621.233289
21027.688341,-1702.473667,-153.219100,9918.759623
21027.688665,370.102971,-2068.457845,6365.771101
21027.688988,2886.803174,-1685.410096,6809.894666
21027.689312,2072.576638,919.314598,9844.739029
21027.689635,1036.288319,1991.848295,9918.759623
21027.689959,888.247130,1302.362347,9474.636058
21027.690282,1332.370696,-459.657299,8364.327145
21027.690606,-444.123565,689.485948,10436.903782
21027.690929,-1036.288319,-153.219100,9992.780217
21027.691253,-1036.288319,-229.828649,9104.533087
21027.691576,740.205942,-612.876398,7920.203579
21027.691900,1332.370696,153.219100,7772.162391
21027.692223,-888.247130,76.609550,8142.265362
21027.692547,-2886.803174,0.000000,8216.285956
21027.692870,-592.164754,612.876398,10955.047942
21027.693194,962.267725,919.314598,10955.047942
21027.693518,1036.288319,-459.657299,10881.027347
21027.693841,222.061783,-1072.533697,9622.677246
21027.694165,592.164754,-612.876398,8364.327145
21027.694488,3923.091493,0.000000,8512.368333
21027.694812,4145.153275,0.000000,8290.306550
21027.695135,592.164754,-383.047749,9622.677246
21027.695459,-666.185348,-689.485948,7846.182985
21027.695782,1036.288319,-306.438199,8586.388927
21027.696106,1184.329507,76.609550,11325.150913
21027.696429,-888.247130,-306.438199,10658.965565
21027.696753,-518.144159,-1762.019645,7179.997637
21027.697076,1036.288319,-2068.457845,6513.812290
21027.697400,148.041188,-153.219100,7994.224174
21027.697723,-2368.659014,0.000000,9992.780217
21027.698047,-3997.112087,-1608.800546,8586.388927
21027.698370,-2960.823768,-2451.505594,7920.203579
21027.698694,-2146.597232,-1608.800546,9548.656652
21027.699017,-3923.091493,-766.095498,10955.047942
21027.699341,-4145.153275,-1072.533697,10955.047942
21027.699664,-1332.370696,-2221.676944,8068.244768
21027.699988,74.020594,-1915.238745,7031.956449
21027.700311,-888.247130,-1608.800546,9252.574275
21027.700635,-1184.329507,0.000000,9030.512492
21027.700958,-370.102971,306.438199,10510.924376
21027.701282,148.041188,-153.219100,11399.171507
21027.701606,-666.185348,76.609550,12287.418637
21027.701929,-740.205942,-536.266849,10658.965565
21027.702253,74.020594,-1685.410096,8808.450710
21027.702576,888.247130,-1378.971896,7846.182985
21027.702900,0.000000,-459.657299,7698.141797
21027.703223,-1850.514855,-306.438199,8512.368333
21027.703547,-1776.494261,-459.657299,7031.956449
21027.703870,-1406.391290,-689.485948,7402.059420
21027.704194,-1924.535449,0.000000,8364.327145
21027.704517,-2590.720797,0.000000,10066.800811
21027.704841,-1184.329507,-612.876398,9474.636058
21027.705164,740.205942,-229.828649,8364.327145
21027.705488,1702.473667,-306.438199,7179.997637
21027.705811,370.102971,76.609550,8512.368333
21027.706135,-740.205942,0.000000,8586.388927
21027.706458,296.082377,612.876398,9474.636058
21027.706782,2368.659014,1378.971896,9844.739029
21027.707105,1184.329507,1149.143247,11103.089130
21027.707429,0.000000,536.266849,10214.842000
21027.707752,1184.329507,-536.266849,8660.409521
21027.708076,3627.009116,-842.705048,7698.141797
21027.708399,2146.597232,842.705048,9696.697840
21027.708723,-370.102971,612.876398,9252.574275
21027.709046,-2220.617826,-459.657299,7920.203579
21027.709370,-296.082377,-1225.752797,8808.450710
21027.709694,444.123565,76.609550,11177.109724
21027.710017,-962.267725,995.924147,12435.459826
21027.710341,-518.144159,-536.266849,9474.636058
21027.710664,1480.411884,-1532.190996,7179.997637
21027.710988,2368.659014,-612.876398,6365.771101
21027.711311,518.144159,612.876398,7994.224174
21027.711635,-222.061783,153.219100,8364.327145
21027.711958,962.267725,0.000000,7846.182985
21027.712282,1406.391290,689.485948,9770.718434
21027.712605,296.082377,842.705048,12213.398043
21027.712929,148.041188,0.000000,9770.718434
21027.713252,1332.370696,-1532.190996,7402.059420
21027.713576,3108.864956,-1455.581446,7402.059420
21027.713899,1332.370696,76.609550,9326.594869
21027.714223,-1110.308913,0.000000,9474.636058
21027.714546,-1480.411884,-1378.971896,8068.244768
21027.714870,-1998.556043,-1455.581446,8956.491898
21027.715193,-3849.070898,-689.485948,10362.883188
21027.715517,-4219.173869,-766.095498,11325.150913
21027.715840,-2294.638420,-2451.505594,8216.285956
21027.716164,-1184.329507,-2145.067394,6809.894666
21027.716487,-1406.391290,-1455.581446,7624.121203
21027.716811,-1998.556043,-612.876398,9178.553681
21027.717134,-1850.514855,-1072.533697,9696.697840
21027.717458,-222.061783,-1149.143247,9548.656652
21027.717782,-592.164754,536.266849,11917.315666
21027.718105,-2146.597232,0.000000,12731.542202
21027.718429,-1480.411884,-1991.848295,10584.944971
21027.718752,0.000000,-3983.696590,7624.121203
21027.719076,-814.226536,-3524.039291,8216.285956
21027.719399,-2368.659014,-689.485948,11547.212695
21027.719723,-1998.556043,-459.657299,10362.883188
21027.720046,-1332.370696,-1685.410096,8068.244768
21027.720370,-1332.370696,-2145.067394,7550.100608
21027.720693,-2368.659014,536.266849,9474.636058
21027.721017,-1924.535449,-383.047749,9844.739029
21027.721340,1036.288319,0.000000,9400.615463
21027.721664,2368.659014,383.047749,9178.553681
21027.721987,1036.288319,76.609550,7550.100608
21027.722311,-222.061783,-612.876398,6513.812290
21027.722634,-296.082377,612.876398,8068.244768
21027.722958,1110.308913,2604.724693,10288.862594
21027.723281,1998.556043,1991.848295,9474.636058
21027.723605,814.226536,-306.438199,8364.327145
21027.723928,0.000000,-1149.143247,7105.977043
21027.724252,962.267725,0.000000,8068.244768
21027.724575,3108.864956,842.705048,8216.285956
21027.724899,1776.494261,689.485948,10066.800811
21027.725222,962.267725,-536.266849,8586.388927
21027.725546,888.247130,153.219100,9622.677246
21027.725870,518.144159,-612.876398,10288.862594
21027.726193,-370.102971,689.485948,13397.727550
21027.726517,-148.041188,-612.876398,10881.027347
21027.726840,1110.308913,-1149.143247,8808.450710
21027.727164,2886.803174,-766.095498,8068.244768
21027.727487,888.247130,842.705048,8438.347739
21027.727811,-814.226536,0.000000,7476.080014
21027.728134,-1184.329507,-995.924147,7402.059420
21027.728458,888.247130,0.000000,9770.718434
21027.728781,592.164754,919.314598,10881.027347
21027.729105,-592.164754,0.000000,9918.759623
21027.729428,0.000000,-1225.752797,7994.224174
21027.729752,1036.288319,-612.876398,8734.430116
21027.730075,2368.659014,-536.266849,8956.491898
21027.730399,962.267725,-766.095498,8068.244768
21027.730722,-148.041188,-1455.581446,7772.162391
21027.731046,-1776.494261,0.000000,9622.677246
21027.731369,-1998.556043,766.095498,10214.842000
21027.731693,-1924.535449,766.095498,10658.965565
21027.732016,-1110.308913,-1149.143247,8660.409521
21027.732340,-592.164754,-995.924147,6069.688724
21027.732663,-296.082377,-919.314598,6217.729913
21027.732987,-1036.288319,-842.705048,8438.347739
21027.733310,-2738.761985,-995.924147,8956.491898
21027.733634,-3108.864956,-1378.971896,9104.533087
21027.733958,-2886.803174,-1762.019645,10288.862594
21027.734281,-4145.153275,-1915.238745,11103.089130
21027.734605,-3849.070898,-2757.943793,12139.377449
21027.734928,-2294.638420,-4366.744339,10510.924376
21027.735252,-518.144159,-2911.162892,8290.306550
21027.735575,74.020594,-1378.971896,8882.471304
21027.735899,-888.247130,-1149.143247,9252.574275
21027.736222,-1480.411884,-689.485948,8734.430116
21027.736546,-740.205942,-229.828649,9104.533087
21027.736869,-740.205942,-766.095498,9548.656652
21027.737193,-814.226536,-536.266849,10881.027347
21027.737516,-518.144159,-306.438199,10955.047942
21027.737840,888.247130,-1455.581446,8364.327145
21027.738163,1776.494261,-1149.143247,6661.853478
21027.738487,-148.041188,-842.705048,8364.327145
21027.738810,-148.041188,-689.485948,8808.450710
21027.739134,-444.123565,459.657299,8956.491898
21027.739457,-444.123565,-383.047749,9326.594869
21027.739781,-1258.350101,0.000000,11103.089130
21027.740104,-1406.391290,383.047749,10436.903782
21027.740428,74.020594,0.000000,7920.203579
21027.740751,2442.679609,0.000000,6291.750507
21027.741075,2738.761985,1915.238745,7476.080014
21027.741398,2294.638420,2757.943793,8438.347739
21027.741722,1554.432478,1455.581446,7402.059420
21027.742046,1850.514855,1455.581446,8660.409521
21027.742369,222.061783,1685.410096,11399.171507
21027.742693,-444.123565,689.485948,11769.274478
21027.743016,1184.329507,-1378.971896,9844.739029
21027.743340,1184.329507,-2451.505594,8068.244768
21027.743663,296.082377,-1225.752797,8512.368333
21027.743987,-814.226536,-612.876398,9474.636058
21027.744310,-962.267725,-1378.971896,7624.121203
21027.744634,-962.267725,-842.705048,8882.471304
21027.744957,-444.123565,842.705048,11251.130318
21027.745281,-296.082377,2145.067394,11843.295072
21027.745604,592.164754,842.705048,10140.821405
21027.745928,1332.370696,0.000000,7254.018232
21027.746251,2072.576638,0.000000,4737.318029
21027.746575,2294.638420,1378.971896,6957.935855
21027.746898,1776.494261,1225.752797,9030.512492
21027.747222,222.061783,1838.629195,9992.780217
21027.747545,-370.102971,459.657299,10214.842000
21027.747869,-518.144159,-229.828649,10288.862594
21027.748192,-1258.350101,-1685.410096,10140.821405
21027.748516,-1258.350101,-1838.629195,9548.656652
21027.748839,-222.061783,-842.705048,7254.018232
21027.749163,444.123565,-459.657299,6809.894666
21027.749486,-1110.308913,-689.485948,7698.141797
21027.749810,-3182.885551,-995.924147,6883.915261
21027.750134,-4145.153275,-1455.581446,9030.512492
21027.750457,-3478.967927,-919.314598,11029.068536
21027.750781,-4071.132681,-995.924147,11473.192101
21027.751104,-4293.194464,-2451.505594,10510.924376
21027.751428,-4293.194464,-5056.230287,8660.409521
21027.751751,-3849.070898,-3907.087040,8438.347739
21027.752075,-2516.700203,-3140.991542,8660.409521
21027.752398,-2960.823768,-3140.991542,9622.677246
21027.752722,-3552.988522,-2911.162892,10732.986159
21027.753045,-1776.494261,-1455.581446,10658.965565
21027.753369,296.082377,-536.266849,10955.047942
21027.753692,1554.432478,-1302.362347,10288.862594
21027.754016,2072.576638,-842.705048,8956.491898
21027.754339,5477.523971,-306.438199,6957.935855
21027.754663,5403.503377,306.438199,7179.997637
21027.754986,2368.659014,306.438199,9326.594869
21027.755310,1554.432478,-689.485948,7846.182985
21027.755633,518.144159,0.000000,11103.089130
21027.755957,1628.453072,-842.705048,11843.295072
21027.756280,0.000000,-229.828649,11843.295072
21027.756604,-962.267725,-1838.629195,10955.047942
21027.756927,-814.226536,-2068.457845,8586.388927
21027.757251,666.185348,-842.705048,5699.585753
21027.757574,518.144159,-536.266849,7402.059420
21027.757898,-1110.308913,-383.047749,7031.956449
21027.758222,-962.267725,1532.190996,7550.100608
21027.758545,-370.102971,995.924147,9178.553681
21027.758869,-2738.761985,766.095498,9918.759623
21027.759192,-2812.782580,-689.485948,9474.636058
21027.759516,-1110.308913,-1608.800546,8068.244768
21027.759839,740.205942,-1455.581446,7698.141797
21027.760163,1924.535449,0.000000,9622.677246
21027.760486,296.082377,229.828649,10214.842000
21027.760810,-222.061783,766.095498,9770.718434
21027.761133,814.226536,766.095498,10510.924376
21027.761457,2072.576638,1838.629195,10807.006753
21027.761780,2590.720797,2145.067394,11177.109724
21027.762104,3404.947333,1608.800546,9474.636058
21027.762427,4071.132681,2911.162892,7402.059420
21027.762751,4737.318029,3983.696590,6365.771101
21027.763074,2812.782580,3140.991542,6217.729913
21027.763398,1110.308913,766.095498,5551.544565
21027.763721,-1480.411884,459.657299,7846.182985
21027.764045,-2442.679609,766.095498,10510.924376
21027.764368,-3775.050304,-383.047749,11547.212695
21027.764692,-4219.173869,-3064.381992,10140.821405
21027.765015,-4367.215058,-3447.429741,8438.347739
21027.765339,-3034.844362,-3217.601092,7105.977043
21027.765662,-1332.370696,-2374.896044,8216.285956
21027.765986,-1702.473667,-1149.143247,9548.656652
21027.766310,-2590.720797,0.000000,9696.697840
21027.766633,-1702.473667,612.876398,9474.636058
21027.766957,-148.041188,76.609550,9400.615463
21027.767280,-962.267725,-153.219100,9918.759623
21027.767604,-444.123565,-1302.362347,10362.883188
21027.767927,370.102971,-842.705048,9622.677246
21027.768251,740.205942,-2145.067394,9622.677246
21027.768574,-962.267725,-2681.334243,9844.739029
21027.768898,-3330.926739,-2451.505594,9770.718434
21027.769221,-3627.009116,-2221.676944,10658.965565
21027.769545,-1110.308913,-1915.238745,11991.336260
21027.769868,-1480.411884,-1302.362347,11917.315666
21027.770192,-1702.473667,-1225.752797,11917.315666
21027.770515,-222.061783,-919.314598,9030.512492
21027.770839,2146.597232,-1225.752797,4737.318029
21027.771162,2368.659014,-153.219100,5033.400406
21027.771486,888.247130,536.266849,7772.162391
21027.771809,0.000000,1685.410096,8586.388927
21027.772133,962.267725,2451.505594,9770.718434
21027.772456,1110.308913,842.705048,11325.150913
21027.772779,-740.205942,-919.314598,10881.027347
21027.773103,-1554.432478,-2374.896044,8808.450710
21027.773426,296.082377,-2451.505594,7920.203579
21027.773750,1628.453072,-1302.362347,7994.224174
21027.774073,-962.267725,229.828649,8808.450710
21027.774397,-2368.659014,-1378.971896,7179.997637
21027.774720,-2664.741391,-1455.581446,8290.306550
21027.775044,-370.102971,76.609550,9548.656652
21027.775367,-444.123565,1378.971896,12657.521608
21027.775691,-1406.391290,229.828649,10955.047942
21027.776014,-814.226536,-766.095498,6439.791695
21027.776338,1110.308913,-1149.143247,4885.359217
21027.776661,740.205942,76.609550,7772.162391
21027.776985,-370.102971,1608.800546,8956.491898
21027.777308,0.000000,2298.286494,10658.965565
21027.777632,1628.453072,919.314598,10140.821405
21027.777955,1776.494261,1378.971896,11769.274478
21027.778279,1036.288319,153.219100,11917.315666
21027.778602,1924.535449,-229.828649,9326.594869
21027.778926,4737.318029,-153.219100,7476.080014
21027.779249,5181.441594,459.657299,7772.162391
21027.779573,2368.659014,1072.533697,7476.080014
21027.779896,888.247130,842.705048,6809.894666
21027.780220,518.144159,766.095498,8142.265362
21027.780543,888.247130,1225.752797,9474.636058
21027.780867,-592.164754,383.047749,10214.842000
21027.781190,-1258.350101,-1991.848295,7994.224174
21027.781514,-1036.288319,-1991.848295,7402.059420
21027.781837,-1110.308913,-1225.752797,8438.347739
21027.782161,-2072.576638,-1991.848295,8586.388927
21027.782484,-4145.153275,-2681.334243,8586.388927
21027.782808,-2960.823768,-3294.210641,9770.718434
21027.783131,-2960.823768,-1608.800546,11769.274478
21027.783455,-2220.617826,-1915.238745,12953.603985
21027.783778,-2442.679609,-2604.724693,12213.398043
21027.784102,-1628.453072,-3140.991542,9104.533087
21027.784425,1924.535449,-2451.505594,7698.141797
21027.784749,3404.947333,-766.095498,8586.388927
21027.785072,1850.514855,-306.438199,9622.677246
21027.785395,0.000000,383.047749,9696.697840
21027.785719,814.226536,306.438199,10066.800811
21027.786042,1036.288319,76.609550,11843.295072
21027.786366,-962.267725,-766.095498,11621.233289
21027.786689,-1924.535449,-1838.629195,9992.780217
21027.787013,-296.082377,-2451.505594,8068.244768
21027.787336,-1036.288319,-842.705048,7920.203579
21027.787660,-3330.926739,0.000000,8808.450710
21027.787983,-4219.173869,-1072.533697,6439.791695
21027.788307,-4145.153275,-689.485948,5329.482782
21027.788630,-2590.720797,-229.828649,6957.935855
21027.788954,-2812.782580,459.657299,8734.430116
21027.789277,-1998.556043,-459.657299,8290.306550
21027.789601,-444.123565,-153.219100,8438.347739
21027.789924,1110.308913,459.657299,7772.162391
21027.790248,814.226536,0.000000,8660.409521
21027.790571,-888.247130,-1149.143247,9104.533087
21027.790895,-518.144159,-995.924147,9696.697840
21027.791218,444.123565,766.095498,10732.986159
21027.791542,814.226536,1532.190996,12657.521608
21027.791865,74.020594,-229.828649,11399.171507
21027.792189,-296.082377,-612.876398,8882.471304
21027.792512,1850.514855,-459.657299,8364.327145
21027.792836,3627.009116,1302.362347,9326.594869
21027.793159,2294.638420,1225.752797,9326.594869
21027.793483,296.082377,-459.657299,7994.224174
21027.793806,740.205942,153.219100,8586.388927
21027.794130,1850.514855,1072.533697,9844.739029
21027.794453,1480.411884,1225.752797,11325.150913
21027.794777,296.082377,-536.266849,10288.862594
21027.795100,1628.453072,-1302.362347,7698.141797
21027.795424,3478.967927,-842.705048,7772.162391
21027.795747,1184.329507,-153.219100,9474.636058
21027.796071,0.000000,-689.485948,7550.100608
21027.796394,-1184.329507,-1149.143247,6587.832884
21027.796718,814.226536,-612.876398,7698.141797
21027.797041,740.205942,1225.752797,10362.883188
21027.797365,-296.082377,1532.190996,11251.130318
21027.797688,518.144159,689.485948,8882.471304
21027.798011,2146.597232,76.609550,7105.977043
21027.798335,1850.514855,-459.657299,8216.285956
21027.798658,-370.102971,-459.657299,8586.388927
21027.798982,-2368.659014,-995.924147,8290.306550
21027.799305,-2072.576638,-1378.971896,9178.553681
21027.799629,-2294.638420,-1225.752797,10732.986159
21027.799952,-3478.967927,-995.924147,12657.521608
21027.800276,-2960.823768,-2834.553343,11029.068536
21027.800599,-2220.617826,-3294.210641,9474.636058
21027.800923,-962.267725,-2451.505594,9104.533087
21027.801246,-1998.556043,-1608.800546,10362.883188
21027.801570,-3330.926739,-1608.800546,9548.656652
21027.801893,-1924.535449,-1378.971896,8586.388927
21027.802217,-148.041188,-306.438199,9030.512492
21027.802540,-1036.288319,842.705048,10584.944971
21027.802864,-2146.597232,919.314598,11473.192101
21027.803187,-962.267725,0.000000,8364.327145
21027.803511,592.164754,-1072.533697,6143.709319
21027.803834,-1036.288319,-1762.019645,7105.977043
21027.804158,-3849.070898,-2145.067394,7846.182985
21027.804481,-3849.070898,-1608.800546,8956.491898
21027.804805,-1258.350101,-995.924147,9474.636058
21027.805128,-814.226536,0.000000,9548.656652
21027.805452,-2368.659014,-766.095498,9696.697840
21027.805775,-1998.556043,-2221.676944,8216.285956
21027.806099,2294.638420,-1532.190996,6439.791695
21027.806422,3108.864956,306.438199,8586.388927
21027.806746,1628.453072,76.609550,9474.636058
21027.807069,518.144159,0.000000,8586.388927
21027.807393,1628.453072,-459.657299,9104.533087
21027.807716,1258.350101,306.438199,11843.295072
21027.808040,-518.144159,919.314598,12731.542202
21027.808363,-888.247130,-1149.143247,9400.615463
21027.808687,1480.411884,-2681.334243,8216.285956
21027.809010,2368.659014,-1991.848295,7550.100608
21027.809334,592.164754,1149.143247,9178.553681
21027.809657,-518.144159,-306.438199,9992.780217
21027.809981,370.102971,-766.095498,9030.512492
21027.810304,2368.659014,229.828649,9030.512492
21027.810628,1480.411884,995.924147,12583.501014
21027.810951,370.102971,459.657299,12509.480420
21027.811274,1184.329507,-229.828649,8882.471304
21027.811598,3404.947333,-306.438199,7550.100608
21027.811921,3552.988522,153.219100,7402.059420
21027.812245,222.061783,1838.629195,7772.162391
21027.812568,444.123565,1302.362347,7920.203579
21027.812892,1406.391290,766.095498,8290.306550
21027.813215,518.144159,1608.800546,9252.574275
21027.813539,-222.061783,919.314598,9474.636058
21027.813862,-592.164754,-229.828649,8142.265362
21027.814186,-1184.329507,-459.657299,6439.791695
21027.814509,-592.164754,153.219100,7254.018232
21027.814833,-1480.411884,-612.876398,8068.244768
21027.815156,-3478.967927,-1915.238745,8438.347739
21027.815480,-3701.029710,-2451.505594,8586.388927
21027.815803,-2294.638420,-1991.848295,9844.739029
21027.816127,-3108.864956,-1991.848295,11917.315666
21027.816450,-3775.050304,-2298.286494,11695.253884
21027.816774,-1702.473667,-2681.334243,10881.027347
21027.817097,1184.329507,-2681.334243,7920.203579
21027.817421,814.226536,-2145.067394,7772.162391
21027.817744,-666.185348,-842.705048,10140.821405
21027.818068,296.082377,-612.876398,9400.615463
21027.818391,2072.576638,766.095498,9992.780217
21027.818715,2664.741391,689.485948,10288.862594
21027.819038,0.000000,76.609550,10807.006753
21027.819362,-1258.350101,-1378.971896,9400.615463
21027.819685,0.000000,-1915.238745,6883.915261
21027.820009,0.000000,-1991.848295,6883.915261
21027.820332,-1406.391290,-2528.115143,7031.956449
21027.820656,-4737.318029,-2681.334243,8956.491898
21027.820979,-2368.659014,-3217.601092,8512.368333
21027.821303,-222.061783,-2374.896044,8882.471304
21027.821626,-518.144159,-1302.362347,10362.883188
21027.821950,148.041188,-689.485948,10955.047942
21027.822273,2368.659014,459.657299,9104.533087
21027.822597,5255.462188,-153.219100,7179.997637
21027.822920,6143.709319,-153.219100,6735.874072
21027.823244,4441.235652,766.095498,7031.956449
21027.823567,3034.844362,153.219100,8216.285956
21027.823890,2590.720797,-459.657299,9770.718434
21027.824214,2812.782580,-2451.505594,10288.862594
21027.824537,592.164754,-3830.477490,11103.089130
21027.824861,-1332.370696,-5592.497135,11621.233289
21027.825184,-888.247130,-5669.106685,11325.150913
21027.825508,1480.411884,-5209.449386,9622.677246
21027.825831,2664.741391,-4519.963438,8956.491898
21027.826155,2812.782580,-3677.258390,8290.306550
21027.826478,2294.638420,-2757.943793,7031.956449
21027.826802,3997.112087,-1762.019645,9104.533087
21027.827125,4737.318029,0.000000,10436.903782
21027.827449,3478.967927,-306.438199,11103.089130
21027.827772,3182.885551,-2221.676944,9178.553681
21027.828096,3108.864956,-3064.381992,8068.244768
21027.828419,3108.864956,-3064.381992,7698.141797
21027.828743,3330.926739,-3140.991542,7476.080014
21027.829066,3552.988522,-3753.867940,6661.853478
21027.829390,1850.514855,-3983.696590,8216.285956
21027.829713,296.082377,-3064.381992,10955.047942
21027.830037,148.041188,-3600.648841,10362.883188
21027.830360,-740.205942,-5056.230287,11177.109724
21027.830684,-1480.411884,-5515.887586,11695.253884
21027.831007,-1406.391290,-4290.134789,9992.780217
21027.831331,74.020594,-3600.648841,9252.574275
21027.831654,2442.679609,-3370.820191,8364.327145
21027.831978,3404.947333,-1991.848295,7550.100608
21027.832301,4293.194464,-1762.019645,6143.709319
21027.832625,4663.297435,-1072.533697,7994.224174
21027.832948,4441.235652,-459.657299,10881.027347
21027.833272,3330.926739,-612.876398,11103.089130
21027.833595,740.205942,-2911.162892,11177.109724
21027.833919,370.102971,-4826.401637,9918.759623
21027.834242,0.000000,-4366.744339,11103.089130
21027.834566,888.247130,-3217.601092,12213.398043
21027.834889,2220.617826,-1991.848295,10807.006753
21027.835213,3108.864956,-766.095498,8364.327145
21027.835536,3404.947333,-1378.971896,6439.791695
21027.835860,3552.988522,-612.876398,4737.318029
21027.836183,3108.864956,-1685.410096,5255.462188
21027.836506,1554.432478,-1838.629195,7105.977043
21027.836830,-370.102971,-1915.238745,8216.285956
21027.837153,-2146.597232,-2298.286494,10214.842000
21027.837477,-2368.659014,-3447.429741,10955.047942
21027.837800,-2146.597232,-2987.772442,11547.212695
21027.838124,-1924.535449,-2145.067394,13249.686362
21027.838447,0.000000,-1915.238745,11917.315666
21027.838771,1924.535449,-383.047749,9030.512492
21027.839094,2590.720797,-383.047749,7105.977043
21027.839418,3404.947333,0.000000,4293.194464
21027.839741,4367.215058,0.000000,2442.679609
21027.840065,4293.194464,-1532.190996,4811.338623
21027.840388,2812.782580,-2221.676944,6809.894666
21027.840712,1628.453072,-1685.410096,8956.491898
21027.841035,-148.041188,-3983.696590,11769.274478
21027.841359,-1480.411884,-5592.497135,13619.789333
21027.841682,-1184.329507,-5439.278036,14285.974681
21027.842006,-370.102971,-4826.401637,14137.933492
21027.842329,0.000000,-3217.601092,12657.521608
21027.842653,1702.473667,-1838.629195,9918.759623
21027.842976,4219.173869,-383.047749,6883.915261
21027.843300,5033.400406,153.219100,5403.503377
21027.843623,6809.894666,995.924147,4071.132681
21027.843947,8142.265362,689.485948,2738.761985
21027.844270,6957.935855,-1149.143247,4515.256246
21027.844594,4293.194464,-2374.896044,8364.327145
21027.844917,2590.720797,-4673.182538,11621.233289
21027.845241,296.082377,-6511.811733,13767.830521
21027.845564,-1480.411884,-7890.783629,16210.510130
21027.845888,-3034.844362,-7584.345430,17172.777854
21027.846211,-2220.617826,-6435.202183,16062.468941
21027.846535,370.102971,-4903.011187,12731.542202
21027.846858,1406.391290,-1302.362347,11177.109724
21027.847182,1110.308913,1302.362347,7402.059420
21027.847505,2220.617826,2374.896044,2442.679609
21027.847829,4589.276840,2374.896044,962.267725
21027.848152,4959.379811,1532.190996,1924.535449
21027.848476,3552.988522,1378.971896,2368.659014
21027.848799,3552.988522,-1455.581446,3256.906145
21027.849123,3404.947333,-4903.011187,5995.668130
21027.849446,1850.514855,-6741.640382,9770.718434
21027.849769,-370.102971,-8197.221829,12213.398043
21027.850093,-1480.411884,-9269.755526,14804.118840
21027.850416,-1480.411884,-8886.707777,17246.798449
21027.850740,-666.185348,-6358.592633,17838.963202
21027.851063,-740.205942,-4060.306139,16728.654289
21027.851387,-296.082377,-1225.752797,14211.954086
21027.851710,1776.494261,2221.676944,10288.862594
21027.852034,2886.803174,4136.915689,6143.709319
21027.852357,2072.576638,4979.620737,3034.844362
21027.852681,2146.597232,4903.011187,-148.041188
21027.853004,1998.556043,4213.525239,-222.061783
21027.853328,1184.329507,1762.019645,2072.576638
21027.853651,-370.102971,-1455.581446,4515.256246
21027.853975,-888.247130,-5209.449386,6587.832884
21027.854298,-2368.659014,-9346.365076,8142.265362
21027.854622,-1998.556043,-10801.946522,11769.274478
21027.854945,0.000000,-11491.432470,15544.324782
21027.855269,1332.370696,-10878.556072,15914.427753
21027.855592,3923.091493,-9039.926876,15174.221811
21027.855916,7105.977043,-5745.716235,14582.057057
21027.856239,8882.471304,-459.657299,13619.789333
21027.856563,9474.636058,3064.381992,11621.233289
21027.856886,10214.842000,5209.449386,9104.533087
21027.857210,8734.430116,7737.564530,6365.771101
21027.857533,6439.791695,7354.516781,4663.297435
21027.857857,3997.112087,6281.983084,4589.276840
21027.858180,1258.350101,3064.381992,3997.112087
21027.858504,-2442.679609,306.438199,5181.441594
21027.858827,-5107.421000,-3983.696590,6661.853478
21027.859151,-6513.812290,-7814.174080,7402.059420
21027.859474,-8068.244768,-11568.042020,9474.636058
21027.859798,-8142.265362,-13023.623466,11547.212695
21027.860121,-5551.544565,-13406.671215,13101.645173
21027.860445,-2960.823768,-11951.089769,13101.645173
21027.860768,0.000000,-8886.707777,12509.480420
21027.861092,4737.318029,-4826.401637,11621.233289
21027.861415,8660.409521,-1072.533697,11325.150913
21027.861739,11251.130318,3140.991542,9474.636058
21027.862062,13841.851115,6665.030833,7846.182985
21027.862385,14211.954086,7201.297681,6069.688724
21027.862709,12583.501014,6511.811733,4737.318029
21027.863032,10288.862594,4903.011187,4811.338623
21027.863356,7402.059420,1685.410096,5107.421000
21027.863679,2590.720797,-1915.238745,6661.853478
21027.864003,-1702.473667,-5898.935335,7772.162391
21027.864326,-4589.276840,-9422.974625,8882.471304
21027.864650,-7402.059420,-12334.137518,11177.109724
21027.864973,-8808.450710,-13253.452115,12805.562797
21027.865297,-7624.121203,-12793.794817,13471.748144
21027.865620,-6069.688724,-11491.432470,13693.809927
21027.865944,-3849.070898,-7814.174080,12509.480420
21027.866267,-666.185348,-3370.820191,12139.377449
21027.866591,1480.411884,0.000000,11177.109724
21027.866914,3997.112087,2451.505594,10510.924376
21027.867238,4441.235652,4596.572988,9326.594869
21027.867561,4663.297435,4519.963438,7105.977043
21027.867885,4219.173869,4290.134789,7105.977043
21027.868208,3923.091493,2451.505594,7772.162391
21027.868532,518.144159,1149.143247,8290.306550
21027.868855,-1406.391290,-919.314598,7179.997637
21027.869179,-1850.514855,-4366.744339,7624.121203
21027.869502,-1776.494261,-5822.325785,7698.141797
21027.869825,-1702.473667,-6128.763984,8512.368333
21027.870149,-1924.535449,-5822.325785,7772.162391
21027.870472,-222.061783,-5362.668486,7105.977043
21027.870796,1924.535449,-2987.772442,7698.141797
21027.871119,3701.029710,-919.314598,8586.388927
21027.871442,3849.070898,536.266849,7994.224174
21027.871766,4811.338623,2145.067394,8290.306550
21027.872089,6217.729913,2374.896044,9252.574275
21027.872413,6809.894666,2757.943793,9474.636058
21027.872736,6291.750507,1149.143247,7994.224174
21027.873059,5033.400406,-153.219100,7254.018232
21027.873383,2442.679609,-1378.971896,8364.327145
21027.873706,1776.494261,-2987.772442,9622.677246
21027.874030,2368.659014,-4366.744339,10732.986159
21027.874353,1628.453072,-5898.935335,11399.171507
21027.874676,0.000000,-6971.469032,12213.398043
21027.875000,-592.164754,-7431.126331,12805.562797
21027.875323,0.000000,-7201.297681,11843.295072
21027.875647,1850.514855,-6128.763984,10732.986159
21027.875970,2590.720797,-4519.963438,10732.986159
21027.876293,1776.494261,-2528.115143,10066.800811
21027.876617,1776.494261,-306.438199,9474.636058
21027.876940,3182.885551,459.657299,8586.388927
21027.877264,3256.906145,1225.752797,8586.388927
21027.877587,2664.741391,1149.143247,8290.306550
21027.877910,2220.617826,919.314598,8364.327145
21027.878234,1850.514855,-153.219100,6661.853478
21027.878557,1776.494261,-1225.752797,6143.709319
21027.878881,1628.453072,-1378.971896,7698.141797
21027.879204,666.185348,-1762.019645,8512.368333
21027.879527,-666.185348,-2298.286494,7624.121203
21027.879851,-1184.329507,-3140.991542,7920.203579
21027.880174,-814.226536,-3600.648841,8142.265362
21027.880498,-1776.494261,-3140.991542,9030.512492
21027.880821,-1628.453072,-3217.601092,7920.203579
21027.881145,-1628.453072,-2911.162892,7550.100608
21027.881468,-2442.679609,-2145.067394,7772.162391
21027.881791,-2516.700203,-1225.752797,7772.162391
21027.882115,-1776.494261,-1685.410096,8364.327145
21027.882438,-1110.308913,-2451.505594,9252.574275
21027.882762,-518.144159,-2604.724693,9474.636058
21027.883085,222.061783,-3753.867940,10140.821405
21027.883408,740.205942,-4136.915689,9844.739029
21027.883732,1332.370696,-4443.353888,10732.986159
21027.884055,2590.720797,-4903.011187,11695.253884
21027.884379,4145.153275,-5439.278036,11547.212695
21027.884702,5107.421000,-4979.620737,11177.109724
21027.885025,5847.626942,-4519.963438,10807.006753
21027.885349,7698.141797,-4136.915689,10510.924376
21027.885672,7624.121203,-3830.477490,9474.636058
21027.885996,8734.430116,-3294.210641,8586.388927
21027.886319,8734.430116,-2374.896044,8216.285956
21027.886642,8364.327145,-1915.238745,7624.121203
21027.886966,7994.224174,-1915.238745,7550.100608
21027.887289,6957.935855,-2681.334243,7624.121203
21027.887613,5255.462188,-4136.915689,7254.018232
21027.887936,3923.091493,-3983.696590,7402.059420
21027.888259,3404.947333,-4903.011187,8142.265362
21027.888583,2072.576638,-5439.278036,8808.450710
21027.888906,0.000000,-6435.202183,9104.533087
21027.889230,-222.061783,-6435.202183,9844.739029
21027.889553,148.041188,-6281.983084,10288.862594
21027.889876,-370.102971,-5592.497135,11103.089130
21027.890200,-1554.432478,-5439.278036,11177.109724
21027.890523,-1554.432478,-4519.963438,11843.295072
21027.890847,-1258.350101,-3753.867940,12287.418637
21027.891170,-814.226536,-2298.286494,12065.356855
21027.891493,-962.267725,-1455.581446,11473.192101
21027.891817,-1480.411884,-766.095498,10066.800811
21027.892140,-814.226536,-1149.143247,9474.636058
21027.892464,222.061783,-842.705048,9252.574275
21027.892787,74.020594,-153.219100,8142.265362
21027.893110,-1702.473667,-229.828649,7254.018232
21027.893434,-1036.288319,-842.705048,6957.935855
21027.893757,296.082377,-1378.971896,7328.038826
21027.894081,0.000000,-995.924147,7994.224174
21027.894404,-814.226536,-689.485948,7550.100608
21027.894727,0.000000,-919.314598,8142.265362
21027.895051,0.000000,0.000000,8438.347739
21027.895374,148.041188,689.485948,8438.347739
21027.895698,666.185348,1455.581446,8142.265362
21027.896021,1332.370696,1685.410096,7179.997637
21027.896344,1702.473667,2145.067394,6069.688724
21027.896668,2442.679609,2145.067394,4959.379811
21027.896991,2886.803174,536.266849,4737.318029
21027.897315,2368.659014,306.438199,5033.400406
21027.897638,2812.782580,-1455.581446,5477.523971
21027.897961,3627.009116,-2681.334243,6957.935855
21027.898285,3627.009116,-3907.087040,9844.739029
21027.898608,2664.741391,-4673.182538,12065.356855
21027.898932,2590.720797,-5209.449386,15100.201217
21027.899255,2812.782580,-5209.449386,16802.674883
21027.899578,2812.782580,-4903.011187,15914.427753
21027.899902,3775.050304,-3447.429741,15100.201217
21027.900225,4293.194464,-2451.505594,13841.851115
21027.900549,4885.359217,-842.705048,11177.109724
21027.900872,5477.523971,689.485948,8734.430116
21027.901195,6069.688724,1302.362347,6365.771101
21027.901519,5107.421000,1762.019645,4293.194464
21027.901842,4589.276840,842.705048,4589.276840
21027.902166,3701.029710,-1149.143247,4737.318029
21027.902489,1554.432478,-3600.648841,4885.359217
21027.902812,2442.679609,-5209.449386,6069.688724
21027.903136,3182.885551,-6588.421283,7402.059420
21027.903459,3108.864956,-7660.954980,8956.491898
21027.903783,3997.112087,-8197.221829,8734.430116
21027.904106,4737.318029,-9039.926876,9696.697840
21027.904429,4737.318029,-6741.640382,11843.295072
21027.904753,3923.091493,-5132.839837,12509.480420
21027.905076,2664.741391,-4366.744339,12361.439231
21027.905400,2368.659014,-3524.039291,11843.295072
21027.905723,814.226536,-2298.286494,11843.295072
21027.906046,-888.247130,-1302.362347,11769.274478
21027.906370,-2516.700203,-766.095498,9844.739029
21027.906693,-4145.153275,-1302.362347,8364.327145
21027.907017,-4293.194464,-2221.676944,9178.553681
21027.907340,-6957.935855,-3830.477490,8216.285956
21027.907663,-7846.182985,-5362.668486,7772.162391
21027.907987,-7105.977043,-6665.030833,7994.224174
21027.908310,-5477.523971,-7737.564530,7105.977043
21027.908634,-2812.782580,-8656.879127,8142.265362
21027.908957,-370.102971,-9269.755526,8586.388927
21027.909280,1924.535449,-7737.564530,9770.718434
21027.909604,3997.112087,-5898.935335,12139.377449
21027.909927,5477.523971,-3447.429741,13323.706956
21027.910251,7254.018232,-995.924147,12953.603985
21027.910574,8734.430116,1608.800546,13027.624579
21027.910897,9400.615463,4826.401637,11695.253884
21027.911221,9326.594869,6511.811733,8364.327145
21027.911544,7105.977043,7354.516781,5921.647536
21027.911868,4663.297435,6818.249932,5181.441594
21027.912191,1406.391290,5822.325785,3256.906145
21027.912514,0.000000,3524.039291,1702.473667
21027.912838,-2072.576638,-229.828649,444.123565
21027.913161,-5033.400406,-3064.381992,1628.453072
21027.913485,-5033.400406,-6894.859482,2664.741391
21027.913808,-3552.988522,-8733.488677,5847.626942
21027.914131,-3849.070898,-10112.460574,9844.739029
21027.914455,-3627.009116,-9422.974625,14137.933492
21027.914778,-296.082377,-9039.926876,16580.613101
21027.915102,2886.803174,-7201.297681,19023.292709
21027.915425,7031.956449,-4060.306139,18949.272115
21027.915748,9770.718434,459.657299,17987.004391
21027.916072,11399.171507,4443.353888,15174.221811
21027.916395,13545.768739,7124.688131,11029.068536
21027.916719,15174.221811,8886.707777,6439.791695
21027.917042,13249.686362,8350.440928,2516.700203
21027.917366,9918.759623,6052.154434,-0.000000
21027.917689,6513.812290,2298.286494,592.164754
21027.918012,1998.556043,-1302.362347,3701.029710
21027.918336,-3256.906145,-5362.668486,7328.038826
21027.918659,-6883.915261,-8273.831378,10584.944971
21027.918983,-10140.821405,-11874.480219,11991.336260
21027.919306,-11251.130318,-14096.157163,13175.665768
21027.919629,-10288.862594,-12640.575717,14434.015869
21027.919953,-6069.688724,-9346.365076,13175.665768
21027.920276,-1258.350101,-4979.620737,10510.924376
21027.920600,3108.864956,-995.924147,8364.327145
21027.920923,6809.894666,3064.381992,6143.709319
21027.921246,8512.368333,6205.373534,5995.668130
21027.921570,8660.409521,6741.640382,5255.462188
21027.921893,7179.997637,5439.278036,4515.256246
21027.922217,4737.318029,3064.381992,5995.668130
21027.922540,962.267725,-459.657299,8512.368333
21027.922863,-2294.638420,-4443.353888,10140.821405
21027.923187,-4663.297435,-7967.393179,11399.171507
21027.923510,-6883.915261,-10189.070123,11621.233289
21027.923834,-7328.038826,-11951.089769,11325.150913
21027.924157,-5847.626942,-12410.747068,10510.924376
21027.924480,-3997.112087,-12027.699319,9992.780217
21027.924804,-2664.741391,-9269.755526,10807.006753
21027.925127,-222.061783,-5745.716235,9030.512492
21027.925451,3182.885551,-2987.772442,9400.615463
21027.925774,4589.276840,-459.657299,9474.636058
21027.926097,6291.750507,2298.286494,9548.656652
21027.926421,9622.677246,3524.039291,10510.924376
21027.926744,11991.336260,2757.943793,8586.388927
21027.927068,11177.109724,2451.505594,7772.162391
21027.927391,9992.780217,919.314598,7254.018232
21027.927714,6883.915261,-459.657299,7994.224174
21027.928038,3997.112087,-2911.162892,8660.409521
21027.928361,1110.308913,-5056.230287,9326.594869
21027.928685,-1036.288319,-7354.516781,10807.006753
21027.929008,-3552.988522,-8886.707777,11547.212695
21027.929331,-4145.153275,-8656.879127,9992.780217
21027.929655,-888.247130,-7124.688131,8734.430116
21027.929978,444.123565,-4903.011187,8882.471304
21027.930302,592.164754,-2145.067394,8290.306550
21027.930625,1406.391290,612.876398,8660.409521
21027.930948,3701.029710,2221.676944,6883.915261
21027.931272,4515.256246,3830.477490,8364.327145
21027.931595,5107.421000,4366.744339,9770.718434
21027.931919,2738.761985,4060.306139,9918.759623
21027.932242,3330.926739,76.609550,10288.862594
21027.932565,4737.318029,919.314598,11029.068536
21027.932889,4145.153275,0.000000,10732.986159
21027.933212,666.185348,-1762.019645,9400.615463
21027.933536,-962.267725,-4443.353888,7846.182985
21027.933859,-1110.308913,-4136.915689,9178.553681
21027.934182,-2072.576638,-2451.505594,9178.553681
21027.934506,-4293.194464,-2145.067394,8734.430116
21027.934829,-4219.173869,-2987.772442,6291.750507
21027.935153,-2368.659014,-995.924147,6587.832884
21027.935476,-1628.453072,842.705048,8660.409521
21027.935799,-2664.741391,2298.286494,9400.615463
21027.936123,-5181.441594,2221.676944,9548.656652
21027.936446,-6217.729913,995.924147,7402.059420
21027.936770,-5403.503377,1991.848295,8956.491898
21027.937093,-5181.441594,2145.067394,11917.315666
21027.937416,-6513.812290,1072.533697,11399.171507
21027.937740,-6957.935855,-612.876398,8808.450710
21027.938063,-2294.638420,-1455.581446,4885.359217
21027.938387,592.164754,306.438199,6069.688724
21027.938710,74.020594,229.828649,7624.121203
21027.939033,888.247130,-689.485948,6661.853478
21027.939357,1406.391290,-1838.629195,7105.977043
21027.939680,2738.761985,-1378.971896,10140.821405
21027.940004,2294.638420,0.000000,12139.377449
21027.940327,1110.308913,-1149.143247,12805.562797
21027.940650,1998.556043,-1838.629195,11769.274478
21027.940974,3182.885551,-689.485948,11103.089130
21027.941297,3552.988522,536.266849,11621.233289
21027.941621,1628.453072,612.876398,9696.697840
21027.941944,222.061783,1685.410096,7476.080014
21027.942267,1480.411884,1762.019645,7105.977043
21027.942591,1036.288319,1225.752797,7105.977043
21027.942914,0.000000,306.438199,8290.306550
21027.943238,222.061783,-306.438199,7254.018232
21027.943561,370.102971,-1302.362347,6069.688724
21027.943884,1036.288319,-2911.162892,6439.791695
21027.944208,1036.288319,-4903.011187,7994.224174
21027.944531,444.123565,-5515.887586,10658.965565
21027.944855,222.061783,-5439.278036,10955.047942
21027.945178,-222.061783,-4060.306139,12139.377449
21027.945501,1628.453072,-3064.381992,13175.665768
21027.945825,2072.576638,-1685.410096,15100.201217
21027.946148,5107.421000,-2298.286494,10955.047942
21027.946472,5625.565159,0.000000,9622.677246
21027.946795,6143.709319,2374.896044,9400.615463
21027.947118,4441.235652,4366.744339,8586.388927
21027.947442,4737.318029,3753.867940,7031.956449
21027.947765,3404.947333,2757.943793,7550.100608
21027.948089,-222.061783,2757.943793,8586.388927
21027.948412,-3775.050304,1149.143247,8512.368333
21027.948735,-3997.112087,-2221.676944,6957.935855
21027.949059,-5477.523971,-4443.353888,5847.626942
21027.949382,-7105.977043,-4979.620737,7402.059420
21027.949706,-8216.285956,-5592.497135,7846.182985
21027.950029,-9104.533087,-4979.620737,10510.924376
21027.950352,-8216.285956,-4290.134789,10436.903782
21027.950676,-6809.894666,-2987.772442,10362.883188
21027.950999,-5995.668130,-2221.676944,10214.842000
21027.951323,-2590.720797,-153.219100,10584.944971
21027.951646,1184.329507,1915.238745,8586.388927
21027.951970,2220.617826,3294.210641,7846.182985
21027.952293,1332.370696,2604.724693,6735.874072
21027.952616,-296.082377,2911.162892,7179.997637
21027.952940,814.226536,1838.629195,8290.306550
21027.953263,222.061783,1378.971896,9992.780217
21027.953587,-2442.679609,229.828649,12509.480420
21027.953910,-3256.906145,-1838.629195,13027.624579
21027.954233,-2664.741391,-1991.848295,10658.965565
21027.954557,0.000000,-2451.505594,8882.471304
21027.954880,296.082377,-2604.724693,7624.121203
21027.955204,-962.267725,-2068.457845,8808.450710
21027.955527,296.082377,-229.828649,9030.512492
21027.955850,2368.659014,2604.724693,9548.656652
21027.956174,2590.720797,3140.991542,10732.986159
21027.956497,1628.453072,2298.286494,7994.224174
21027.956821,814.226536,1072.533697,6365.771101
21027.957144,3404.947333,1302.362347,6883.915261
21027.957467,4589.276840,2221.676944,8364.327145
21027.957791,2220.617826,1915.238745,7624.121203
21027.958114,-444.123565,0.000000,8290.306550
21027.958438,-740.205942,-1378.971896,6883.915261
21027.958761,-1036.288319,-995.924147,8660.409521
21027.959084,-962.267725,-1762.019645,10732.986159
21027.959408,-888.247130,-2374.896044,10436.903782
21027.959731,888.247130,-2757.943793,8882.471304
21027.960055,2442.679609,-2451.505594,8586.388927
21027.960378,3108.864956,-1685.410096,9178.553681
21027.960701,2220.617826,153.219100,10214.842000
21027.961025,1776.494261,-306.438199,10658.965565
21027.961348,3256.906145,0.000000,10140.821405
21027.961672,2590.720797,0.000000,11103.089130
21027.961995,-222.061783,-612.876398,12139.377449
21027.962318,0.000000,-612.876398,10658.965565
21027.962642,1258.350101,0.000000,9252.574275
21027.962965,962.267725,-1072.533697,10140.821405
21027.963289,-592.164754,-766.095498,9844.739029
21027.963612,-1998.556043,-1378.971896,7698.141797
21027.963935,-1036.288319,-1838.629195,5921.647536
21027.964259,-2590.720797,-1225.752797,8586.388927
21027.964582,-3256.906145,-1072.533697,8734.430116
21027.964906,-2368.659014,-1302.362347,8808.450710
21027.965229,-296.082377,-2221.676944,7105.977043
21027.965552,-2886.803174,-459.657299,8586.388927
21027.965876,-4959.379811,-306.438199,8660.409521
21027.966199,-5033.400406,-2451.505594,8808.450710
21027.966523,-4367.215058,-2834.553343,9030.512492
21027.966846,-4515.256246,-1608.800546,9400.615463
21027.967169,-6291.750507,-612.876398,9918.759623
21027.967493,-5625.565159,-842.705048,10658.965565
21027.967816,-2368.659014,383.047749,10140.821405
21027.968140,592.164754,153.219100,8512.368333
21027.968463,1480.411884,0.000000,7254.018232
21027.968786,148.041188,-383.047749,7772.162391
21027.969110,0.000000,-306.438199,7698.141797
21027.969432,666.185348,-306.438199,7846.182985
21027.969756,-148.041188,-306.438199,10214.842000
21027.970079,0.000000,0.000000,11621.233289
21027.970403,-592.164754,-995.924147,11029.068536
21027.970726,1332.370696,-1838.629195,9326.594869
21027.971049,2368.659014,-995.924147,10732.986159
21027.971373,1776.494261,153.219100,10881.027347
21027.971696,1110.308913,919.314598,9770.718434
21027.972020,2072.576638,1455.581446,8512.368333
21027.972343,1110.308913,2604.724693,8512.368333
21027.972666,888.247130,3294.210641,9104.533087
21027.972990,0.000000,3217.601092,9770.718434
21027.973313,2146.597232,1302.362347,6217.729913
21027.973637,2664.741391,1455.581446,5033.400406
21027.973960,592.164754,459.657299,6661.853478
21027.974283,-1406.391290,0.000000,6957.935855
21027.974607,-1036.288319,-842.705048,6883.915261
21027.974930,0.000000,-1532.190996,8808.450710
21027.975254,-1036.288319,-1072.533697,10362.883188
21027.975577,-1554.432478,-1072.533697,12139.377449
21027.975900,444.123565,-2298.286494,11325.150913
21027.976224,2812.782580,-1378.971896,10362.883188
21027.976547,3627.009116,0.000000,10658.965565
21027.976870,3034.844362,76.609550,9696.697840
21027.977194,2516.700203,842.705048,7994.224174
21027.977517,2738.761985,76.609550,7105.977043
21027.977841,1036.288319,1225.752797,8882.471304
21027.978164,0.000000,1378.971896,10807.006753
21027.978487,-888.247130,689.485948,11029.068536
21027.978811,-148.041188,-1302.362347,7846.182985
21027.979134,0.000000,-2528.115143,8142.265362
21027.979458,-962.267725,-2911.162892,9400.615463
21027.979781,-2664.741391,-2221.676944,10288.862594
21027.980104,-2368.659014,-3294.210641,8882.471304
21027.980428,-2960.823768,-3064.381992,9104.533087
21027.980751,-3775.050304,-2221.676944,11769.274478
21027.981075,-3997.112087,-1149.143247,11695.253884
21027.981398,-1998.556043,-2757.943793,8956.491898
21027.981721,74.020594,-2528.115143,7402.059420
21027.982045,740.205942,153.219100,7994.224174
21027.982368,-370.102971,1072.533697,7328.038826
21027.982692,-1480.411884,229.828649,7105.977043
21027.983015,-1332.370696,0.000000,7402.059420
21027.983338,-2368.659014,383.047749,9326.594869
21027.983662,-3997.112087,-536.266849,10288.862594
21027.983985,-3627.009116,-2528.115143,9622.677246
21027.984309,-2368.659014,-2604.724693,8142.265362
21027.984632,-1998.556043,-2221.676944,10066.800811
21027.984955,-2664.741391,-2681.334243,9548.656652
21027.985279,-2516.700203,-3294.210641,8438.347739
21027.985602,-2072.576638,-2757.943793,9252.574275
21027.985926,-962.267725,-766.095498,11103.089130
21027.986249,814.226536,612.876398,10881.027347
21027.986572,1110.308913,76.609550,10214.842000
21027.986896,2590.720797,-536.266849,8290.306550
21027.987219,4071.132681,1378.971896,7624.121203
21027.987542,5181.441594,2221.676944,8586.388927
21027.987866,4367.215058,2221.676944,9918.759623
21027.988189,2368.659014,1838.629195,9992.780217
21027.988513,1776.494261,1072.533697,9104.533087
21027.988836,1406.391290,76.609550,8956.491898
21027.989159,-666.185348,-919.314598,8956.491898
21027.989483,-2664.741391,-536.266849,9474.636058
21027.989806,-666.185348,-919.314598,7105.977043
21027.990130,1628.453072,153.219100,7550.100608
21027.990453,740.205942,383.047749,7994.224174
21027.990776,-814.226536,766.095498,6069.688724
21027.991100,-222.061783,306.438199,5921.647536
21027.991423,222.061783,842.705048,8882.471304
21027.991747,592.164754,2451.505594,11177.109724
21027.992070,296.082377,1532.190996,11177.109724
21027.992393,740.205942,-689.485948,8734.430116
21027.992717,814.226536,-766.095498,9696.697840
21027.993040,962.267725,-536.266849,9918.759623
21027.993364,370.102971,-919.314598,10214.842000
21027.993687,0.000000,-2528.115143,9104.533087
21027.994010,-1406.391290,-1838.629195,7994.224174
21027.994334,-2368.659014,-1608.800546,9474.636058
21027.994657,-2072.576638,-1225.752797,11547.212695
21027.994981,-1480.411884,-1072.533697,10436.903782
21027.995304,-296.082377,-1302.362347,8438.347739
21027.995627,1332.370696,-1455.581446,8216.285956
21027.995951,444.123565,-995.924147,8586.388927
