#time,accel_x,accel_y,accel_z
16403.842873,-370.102971,919.314598,9326.594869
16403.843197,-74.020594,766.095498,9326.594869
16403.843522,1036.288319,995.924147,9252.574275
16403.843847,-148.041188,383.047749,9400.615463
16403.844172,-1036.288319,0.000000,9474.636058
16403.844496,-592.164754,76.609550,9400.615463
16403.844821,0.000000,0.000000,9104.533087
16403.845146,-222.061783,383.047749,9548.656652
16403.845471,-148.041188,766.095498,9474.636058
16403.845795,222.061783,536.266849,9104.533087
16403.846120,1406.391290,1149.143247,9696.697840
16403.846445,1332.370696,1455.581446,9252.574275
16403.846770,296.082377,1072.533697,9474.636058
16403.847094,222.061783,919.314598,9326.594869
16403.847419,814.226536,919.314598,9400.615463
16403.847744,1184.329507,536.266849,9474.636058
16403.848069,0.000000,919.314598,9548.656652
16403.848393,-296.082377,-612.876398,9178.553681
16403.848718,518.144159,612.876398,8882.471304
16403.849043,444.123565,383.047749,8882.471304
16403.849368,444.123565,842.705048,9252.574275
16403.849692,296.082377,919.314598,9474.636058
16403.850017,592.164754,842.705048,9030.512492
16403.850342,1332.370696,766.095498,9030.512492
16403.850667,2072.576638,1225.752797,10066.800811
16403.850992,888.247130,1225.752797,9474.636058
16403.851316,740.205942,1455.581446,9326.594869
16403.851641,2072.576638,1685.410096,9474.636058
16403.851966,1924.535449,1149.143247,9548.656652
16403.852291,1184.329507,1225.752797,9548.656652
16403.852615,1332.370696,1685.410096,9178.553681
16403.852940,2368.659014,2298.286494,9474.636058
16403.853265,2442.679609,2528.115143,10288.862594
16403.853590,3256.906145,2374.896044,10362.883188
16403.853914,2590.720797,3140.991542,9548.656652
16403.854239,3330.926739,3524.039291,9252.574275
16403.854564,4441.235652,4213.525239,9548.656652
16403.854889,3627.009116,4443.353888,9252.574275
16403.855213,2294.638420,3447.429741,8216.285956
16403.855538,3108.864956,4519.963438,8142.265362
16403.855863,3552.988522,4826.401637,8216.285956
16403.856188,1998.556043,3600.648841,8216.285956
16403.856512,1406.391290,3753.867940,8216.285956
16403.856837,1480.411884,3753.867940,8068.244768
16403.857162,1332.370696,3600.648841,8290.306550
16403.857487,1036.288319,2987.772442,9178.553681
16403.857811,592.164754,3217.601092,8882.471304
16403.858136,1258.350101,2834.553343,9178.553681
16403.858461,1998.556043,3140.991542,9474.636058
16403.858786,2812.782580,3447.429741,10214.842000
16403.859110,1850.514855,3140.991542,9844.739029
16403.859435,2220.617826,3907.087040,9696.697840
16403.859760,3256.906145,3447.429741,9844.739029
16403.860085,3182.885551,2911.162892,9400.615463
16403.860409,2442.679609,3370.820191,9474.636058
16403.860734,2220.617826,3217.601092,9844.739029
16403.861059,2886.803174,3370.820191,9548.656652
16403.861384,3330.926739,3370.820191,9474.636058
16403.861709,3404.947333,3677.258390,9770.718434
16403.862033,2812.782580,4136.915689,8956.491898
16403.862358,3552.988522,4443.353888,8734.430116
16403.862683,4293.194464,3677.258390,9030.512492
16403.863008,3256.906145,3370.820191,8734.430116
16403.863332,1628.453072,2681.334243,8586.388927
16403.863657,1332.370696,2374.896044,8290.306550
16403.863982,2072.576638,2145.067394,8216.285956
16403.864307,1406.391290,1762.019645,9030.512492
16403.864631,740.205942,2681.334243,8586.388927
16403.864956,1480.411884,1915.238745,8142.265362
16403.865281,2664.741391,2145.067394,8808.450710
16403.865606,2590.720797,2374.896044,9326.594869
16403.865930,2590.720797,2451.505594,9770.718434
16403.866255,2516.700203,1915.238745,10066.800811
16403.866580,3256.906145,2528.115143,10658.965565
16403.866905,4145.153275,2374.896044,11621.233289
16403.867229,1924.535449,1149.143247,11621.233289
16403.867554,222.061783,459.657299,11325.150913
16403.867879,666.185348,689.485948,10732.986159
16403.868204,1258.350101,1225.752797,10140.821405
16403.868528,370.102971,1378.971896,8734.430116
16403.868853,1036.288319,2451.505594,7402.059420
16403.869178,1998.556043,4749.792088,5995.668130
16403.869503,2812.782580,4213.525239,5921.647536
16403.869827,2664.741391,4060.306139,5699.585753
16403.870152,2442.679609,4060.306139,6291.750507
16403.870477,1480.411884,3600.648841,7550.100608
16403.870802,814.226536,1991.848295,9400.615463
16403.871126,-222.061783,229.828649,11251.130318
16403.871451,-3627.009116,-1838.629195,12435.459826
16403.871776,-4737.318029,-2757.943793,12509.480420
16403.872101,-3034.844362,-2681.334243,13027.624579
16403.872426,-1184.329507,-1378.971896,13323.706956
16403.872750,666.185348,0.000000,12879.583391
16403.873075,3552.988522,2528.115143,10658.965565
16403.873400,7402.059420,4596.572988,8586.388927
16403.873725,9474.636058,6894.859482,7031.956449
16403.874049,10510.924376,7584.345430,6217.729913
16403.874374,9474.636058,7967.393179,6513.812290
16403.874699,7550.100608,6818.249932,6587.832884
16403.875024,5773.606348,4979.620737,8142.265362
16403.875348,2738.761985,3140.991542,9104.533087
16403.875673,296.082377,2451.505594,9622.677246
16403.875998,-296.082377,1991.848295,10362.883188
16403.876323,-370.102971,995.924147,10510.924376
16403.876647,-1036.288319,1378.971896,9474.636058
16403.876972,370.102971,2451.505594,8734.430116
16403.877297,1776.494261,3983.696590,7476.080014
16403.877622,2368.659014,4596.572988,7254.018232
16403.877946,2960.823768,4826.401637,6957.935855
16403.878271,4145.153275,5362.668486,7254.018232
16403.878596,4663.297435,5132.839837,7846.182985
16403.878921,4737.318029,5286.058936,10140.821405
16403.879245,4145.153275,3677.258390,11769.274478
16403.879570,2516.700203,2145.067394,12657.521608
16403.879895,888.247130,1149.143247,12879.583391
16403.880220,814.226536,1072.533697,12953.603985
16403.880544,444.123565,1225.752797,12213.398043
16403.880869,1184.329507,1838.629195,11029.068536
16403.881194,2368.659014,3140.991542,10066.800811
16403.881519,3923.091493,4596.572988,8068.244768
16403.881843,5107.421000,6588.421283,6217.729913
16403.882168,4441.235652,7277.907231,5551.544565
16403.882493,3182.885551,7048.078582,5033.400406
16403.882818,3627.009116,5745.716235,4219.173869
16403.883143,4145.153275,5056.230287,5699.585753
16403.883467,2072.576638,3983.696590,7920.203579
16403.883792,-962.267725,2757.943793,9918.759623
16403.884117,-1924.535449,536.266849,11769.274478
16403.884442,-2812.782580,-1608.800546,13175.665768
16403.884766,-4959.379811,-3677.258390,12879.583391
16403.885091,-4663.297435,-2911.162892,11843.295072
16403.885416,-3256.906145,-1225.752797,12583.501014
16403.885741,-296.082377,153.219100,11695.253884
16403.886065,1628.453072,995.924147,9622.677246
16403.886390,4441.235652,3600.648841,6735.874072
16403.886715,6143.709319,6052.154434,4737.318029
16403.887040,8290.306550,6818.249932,4145.153275
16403.887364,8956.491898,7354.516781,4737.318029
16403.887689,6439.791695,6358.592633,6809.894666
16403.888014,4663.297435,3370.820191,8586.388927
16403.888339,2738.761985,1149.143247,10288.862594
16403.888663,-1332.370696,-1302.362347,13101.645173
16403.888988,-5107.421000,-3600.648841,14878.139434
16403.889313,-5551.544565,-4903.011187,16358.551318
16403.889638,-4515.256246,-4903.011187,16358.551318
16403.889962,-3404.947333,-3524.039291,15174.221811
16403.890287,-962.267725,-1302.362347,11621.233289
16403.890612,2590.720797,2221.676944,7920.203579
16403.890937,7698.141797,6511.811733,5181.441594
16403.891261,12065.356855,9422.974625,3108.864956
16403.891586,13101.645173,10725.336972,2368.659014
16403.891911,11917.315666,10801.946522,1776.494261
16403.892236,9992.780217,9499.584175,4071.132681
16403.892561,5847.626942,5209.449386,5551.544565
16403.892885,1110.308913,1685.410096,8586.388927
16403.893210,-3849.070898,-306.438199,12657.521608
16403.893535,-5699.585753,-2298.286494,14878.139434
16403.893860,-6735.874072,-4443.353888,15914.427753
16403.894184,-5255.462188,-3677.258390,15322.262999
16403.894509,-2220.617826,229.828649,13027.624579
16403.894834,1480.411884,3524.039291,9696.697840
16403.895159,6143.709319,7277.907231,8290.306550
16403.895483,8808.450710,8503.660028,7179.997637
16403.895807,7698.141797,10035.851024,5255.462188
16403.896132,6587.832884,8350.440928,3108.864956
16403.896456,5625.565159,7354.516781,4737.318029
16403.896780,3997.112087,7124.688131,8216.285956
16403.897105,814.226536,5056.230287,9474.636058
16403.897429,-2072.576638,229.828649,10955.047942
16403.897753,-3182.885551,-689.485948,9918.759623
16403.898078,-2812.782580,1302.362347,10584.944971
16403.898402,-1480.411884,1762.019645,11325.150913
16403.898727,-814.226536,1225.752797,11251.130318
16403.899051,1036.288319,1991.848295,9326.594869
16403.899375,3849.070898,4826.401637,8660.409521
16403.899700,3182.885551,3447.429741,8734.430116
16403.900024,1184.329507,3140.991542,7254.018232
16403.900348,2442.679609,3907.087040,8142.265362
16403.900673,4367.215058,3294.210641,8808.450710
16403.900997,4441.235652,2681.334243,10955.047942
16403.901322,3182.885551,2911.162892,11103.089130
16403.901646,2368.659014,1762.019645,9474.636058
16403.901970,814.226536,306.438199,9400.615463
16403.902295,2738.761985,842.705048,9326.594869
16403.902619,2590.720797,1225.752797,10732.986159
16403.902943,1850.514855,612.876398,9030.512492
16403.903268,1850.514855,1685.410096,8290.306550
16403.903592,2886.803174,2374.896044,8364.327145
16403.903916,3034.844362,1915.238745,8216.285956
16403.904241,3034.844362,2528.115143,9992.780217
16403.904565,3478.967927,3983.696590,10288.862594
16403.904890,4071.132681,2374.896044,10584.944971
16403.905214,3330.926739,76.609550,10955.047942
16403.905538,1480.411884,-383.047749,11695.253884
16403.905863,1332.370696,536.266849,10881.027347
16403.906187,0.000000,76.609550,11325.150913
16403.906511,1850.514855,-306.438199,10140.821405
16403.906836,2368.659014,2145.067394,9770.718434
16403.907160,-666.185348,2068.457845,7476.080014
16403.907484,2146.597232,2681.334243,3923.091493
16403.907809,3404.947333,2757.943793,6513.812290
16403.908133,814.226536,3753.867940,6735.874072
16403.908458,-1258.350101,2145.067394,9030.512492
16403.908782,-962.267725,2911.162892,8216.285956
16403.909106,1702.473667,1838.629195,6661.853478
16403.909431,-222.061783,2068.457845,10362.883188
16403.909755,-888.247130,2681.334243,10288.862594
16403.910079,0.000000,2604.724693,11251.130318
16403.910404,814.226536,229.828649,12139.377449
16403.910728,-296.082377,1072.533697,10807.006753
16403.911052,296.082377,2221.676944,11695.253884
16403.911377,3330.926739,4749.792088,8734.430116
16403.911701,6735.874072,4749.792088,8512.368333
16403.912026,6439.791695,6128.763984,9992.780217
16403.912350,4663.297435,5515.887586,8586.388927
16403.912674,4515.256246,4596.572988,5033.400406
16403.912999,3997.112087,4519.963438,6587.832884
16403.913323,-814.226536,3907.087040,9104.533087
16403.913647,-888.247130,1838.629195,8068.244768
16403.913972,0.000000,306.438199,8586.388927
16403.914296,-1924.535449,1072.533697,8438.347739
16403.914620,-5773.606348,536.266849,10732.986159
16403.914945,-4959.379811,-1149.143247,9326.594869
16403.915269,-2146.597232,-1762.019645,9474.636058
16403.915594,-1110.308913,-766.095498,10584.944971
16403.915918,-888.247130,612.876398,11177.109724
16403.916242,592.164754,0.000000,9918.759623
16403.916567,4219.173869,1378.971896,9400.615463
16403.916891,3552.988522,1455.581446,10510.924376
16403.917215,2664.741391,1149.143247,8956.491898
16403.917540,5477.523971,2145.067394,8364.327145
16403.917864,5551.544565,2451.505594,9252.574275
16403.918189,2368.659014,1225.752797,9548.656652
16403.918513,2664.741391,689.485948,7920.203579
16403.918837,5107.421000,1991.848295,9030.512492
16403.919162,2146.597232,1302.362347,10362.883188
16403.919486,148.041188,689.485948,10214.842000
16403.919810,1184.329507,0.000000,9104.533087
16403.920135,296.082377,0.000000,9696.697840
16403.920459,-2442.679609,-1608.800546,10732.986159
16403.920783,-2442.679609,-1685.410096,7624.121203
16403.921108,1036.288319,229.828649,8586.388927
16403.921432,-666.185348,919.314598,10732.986159
16403.921757,-5033.400406,-1149.143247,9474.636058
16403.922081,-4663.297435,-2757.943793,8068.244768
16403.922405,-1258.350101,-689.485948,7254.018232
16403.922730,-2146.597232,-306.438199,8438.347739
16403.923054,-3997.112087,-1225.752797,7920.203579
16403.923378,-1110.308913,76.609550,7179.997637
16403.923703,370.102971,2145.067394,9548.656652
16403.924027,-1924.535449,306.438199,9770.718434
16403.924351,-3478.967927,-1991.848295,8882.471304
16403.924676,-1184.329507,-229.828649,8364.327145
16403.925000,-740.205942,536.266849,12731.542202
16403.925325,-1480.411884,-1225.752797,12065.356855
16403.925649,222.061783,-1072.533697,9918.759623
16403.925973,592.164754,0.000000,11029.068536
16403.926298,-370.102971,306.438199,10732.986159
16403.926622,592.164754,306.438199,10288.862594
16403.926946,4145.153275,1149.143247,9548.656652
16403.927271,2812.782580,1762.019645,11029.068536
16403.927595,962.267725,1149.143247,8512.368333
16403.927919,2812.782580,2068.457845,7105.977043
16403.928244,3552.988522,2681.334243,7254.018232
16403.928568,592.164754,2681.334243,8586.388927
16403.928893,-814.226536,2221.676944,7698.141797
16403.929217,814.226536,0.000000,6809.894666
16403.929541,-962.267725,-1072.533697,8068.244768
16403.929866,-4219.173869,-229.828649,9400.615463
16403.930190,-3997.112087,-306.438199,8512.368333
16403.930514,-1850.514855,-1532.190996,10140.821405
16403.930839,-1184.329507,-1532.190996,10584.944971
16403.931163,-962.267725,536.266849,10436.903782
16403.931487,0.000000,1532.190996,9548.656652
16403.931812,2442.679609,612.876398,9252.574275
16403.932136,2516.700203,842.705048,10584.944971
16403.932461,2368.659014,1685.410096,9770.718434
16403.932785,5033.400406,3217.601092,9030.512492
16403.933109,5847.626942,3753.867940,11399.171507
16403.933434,3478.967927,3140.991542,9992.780217
16403.933758,2664.741391,2681.334243,9030.512492
16403.934082,3701.029710,2145.067394,8142.265362
16403.934407,2664.741391,2298.286494,8068.244768
16403.934731,444.123565,1762.019645,8882.471304
16403.935056,-296.082377,2451.505594,8512.368333
16403.935380,-1776.494261,1149.143247,9918.759623
16403.935704,-3034.844362,0.000000,8586.388927
16403.936029,-2738.761985,76.609550,9474.636058
16403.936353,-2368.659014,1455.581446,9030.512492
16403.936677,-4589.276840,-1455.581446,8660.409521
16403.937002,-5033.400406,-1915.238745,8290.306550
16403.937326,-1702.473667,689.485948,8586.388927
16403.937650,-2368.659014,1378.971896,9252.574275
16403.937975,-2738.761985,-766.095498,9030.512492
16403.938299,-2294.638420,-383.047749,7031.956449
16403.938624,-444.123565,1149.143247,8290.306550
16403.938948,-1554.432478,229.828649,9696.697840
16403.939272,-888.247130,-459.657299,10214.842000
16403.939597,-148.041188,229.828649,8882.471304
16403.939921,1184.329507,689.485948,10510.924376
16403.940245,148.041188,-306.438199,12139.377449
16403.940570,-888.247130,-1378.971896,10436.903782
16403.940894,-518.144159,-612.876398,10214.842000
16403.941218,0.000000,-919.314598,11177.109724
16403.941543,74.020594,-1455.581446,10955.047942
16403.941867,1332.370696,-1072.533697,10066.800811
16403.942192,1924.535449,459.657299,10066.800811
16403.942516,444.123565,689.485948,10510.924376
16403.942840,-370.102971,-766.095498,8290.306550
16403.943165,2072.576638,-536.266849,7105.977043
16403.943489,1702.473667,1378.971896,7476.080014
16403.943813,-444.123565,689.485948,7994.224174
16403.944138,1258.350101,0.000000,6439.791695
16403.944462,2664.741391,919.314598,8142.265362
16403.944786,296.082377,1225.752797,9770.718434
16403.945111,-2664.741391,-919.314598,9844.739029
16403.945435,-444.123565,-1762.019645,8068.244768
16403.945760,370.102971,0.000000,9622.677246
16403.946084,-2516.700203,0.000000,10362.883188
16403.946408,-1554.432478,-2221.676944,8956.491898
16403.946733,1776.494261,153.219100,9844.739029
16403.947057,1776.494261,1608.800546,10955.047942
16403.947381,740.205942,612.876398,10807.006753
16403.947706,1702.473667,1072.533697,10732.986159
16403.948030,2738.761985,2681.334243,9770.718434
16403.948355,5699.585753,3600.648841,9474.636058
16403.948679,4441.235652,2451.505594,8882.471304
16403.949003,3552.988522,2911.162892,7328.038826
16403.949328,2368.659014,3600.648841,9696.697840
16403.949652,592.164754,2604.724693,9252.574275
16403.949976,-1480.411884,306.438199,8142.265362
16403.950301,-2294.638420,536.266849,9992.780217
16403.950625,-1998.556043,2374.896044,8068.244768
16403.950949,-3849.070898,842.705048,8660.409521
16403.951274,-2738.761985,-612.876398,8660.409521
16403.951598,-3478.967927,1838.629195,8512.368333
16403.951923,-4811.338623,1608.800546,9474.636058
16403.952247,-3404.947333,383.047749,7105.977043
16403.952571,-1628.453072,766.095498,8438.347739
16403.952896,-3478.967927,766.095498,9770.718434
16403.953220,-4071.132681,0.000000,9696.697840
16403.953544,-814.226536,-1455.581446,8956.491898
16403.953869,370.102971,1378.971896,10288.862594
16403.954193,-740.205942,1302.362347,10584.944971
16403.954517,-1776.494261,0.000000,8808.450710
16403.954842,-148.041188,306.438199,9622.677246
16403.955166,2368.659014,2681.334243,10066.800811
16403.955491,1924.535449,919.314598,10436.903782
16403.955815,2146.597232,-919.314598,8586.388927
16403.956139,3108.864956,1685.410096,9400.615463
16403.956464,3552.988522,2298.286494,10658.965565
16403.956788,74.020594,-1302.362347,10881.027347
16403.957112,-962.267725,-2451.505594,9474.636058
16403.957437,1776.494261,1072.533697,9178.553681
16403.957761,1850.514855,-153.219100,10881.027347
16403.958085,222.061783,-2145.067394,9178.553681
16403.958410,1036.288319,-153.219100,7920.203579
16403.958734,814.226536,153.219100,8364.327145
16403.959059,-1702.473667,-1225.752797,7846.182985
16403.959383,518.144159,-995.924147,8586.388927
16403.959707,1702.473667,995.924147,8216.285956
16403.960032,-296.082377,76.609550,9918.759623
16403.960356,-814.226536,-1225.752797,8290.306550
16403.960680,1554.432478,-153.219100,7476.080014
16403.961005,740.205942,842.705048,10214.842000
16403.961329,-1628.453072,612.876398,10140.821405
16403.961653,-666.185348,0.000000,11621.233289
16403.961978,1480.411884,-76.609550,8882.471304
16403.962302,2442.679609,0.000000,10732.986159
16403.962627,814.226536,1149.143247,10658.965565
16403.962951,1554.432478,2451.505594,10362.883188
16403.963275,3108.864956,1915.238745,10881.027347
16403.963600,1702.473667,1915.238745,11029.068536
16403.963924,370.102971,1608.800546,9400.615463
16403.964248,2072.576638,2604.724693,7476.080014
16403.964573,1628.453072,2068.457845,9178.553681
16403.964897,-666.185348,1685.410096,9474.636058
16403.965222,-740.205942,1685.410096,8216.285956
16403.965546,-814.226536,2451.505594,8068.244768
16403.965870,-3108.864956,1302.362347,7846.182985
16403.966195,-5033.400406,919.314598,6809.894666
16403.966519,-4885.359217,842.705048,7179.997637
16403.966843,-5329.482782,-766.095498,8808.450710
16403.967168,-4959.379811,-1685.410096,9474.636058
16403.967492,-4367.215058,0.000000,9178.553681
16403.967816,-2516.700203,1072.533697,9474.636058
16403.968141,-1332.370696,536.266849,9548.656652
16403.968465,-740.205942,383.047749,9548.656652
16403.968790,888.247130,0.000000,9326.594869
16403.969114,2368.659014,536.266849,9400.615463
16403.969438,1998.556043,995.924147,10066.800811
16403.969763,2368.659014,1455.581446,9622.677246
16403.970087,5033.400406,2068.457845,9770.718434
16403.970411,5625.565159,2681.334243,9696.697840
16403.970736,3775.050304,459.657299,10140.821405
16403.971060,4367.215058,-229.828649,9030.512492
16403.971384,3701.029710,1072.533697,10584.944971
16403.971709,592.164754,-995.924147,12953.603985
16403.972033,-740.205942,-2604.724693,10436.903782
16403.972358,1184.329507,-1225.752797,9178.553681
16403.972682,1184.329507,1149.143247,10881.027347
16403.973006,-1850.514855,-1225.752797,9918.759623
16403.973331,-2664.741391,-2221.676944,7254.018232
16403.973655,-666.185348,-1225.752797,6439.791695
16403.973979,0.000000,1532.190996,8586.388927
16403.974304,0.000000,-612.876398,6883.915261
16403.974628,-518.144159,766.095498,7105.977043
16403.974952,74.020594,1838.629195,7624.121203
16403.975277,0.000000,1838.629195,9030.512492
16403.975601,1554.432478,-153.219100,8734.430116
16403.975926,2072.576638,1302.362347,9030.512492
16403.976250,740.205942,1762.019645,10066.800811
16403.976574,1036.288319,919.314598,10881.027347
16403.976899,3330.926739,612.876398,11991.336260
16403.977223,3775.050304,2221.676944,11917.315666
16403.977547,888.247130,3524.039291,12805.562797
16403.977872,1850.514855,2528.115143,10140.821405
16403.978196,3997.112087,2451.505594,8290.306550
16403.978520,740.205942,1991.848295,8586.388927
16403.978845,-2590.720797,2298.286494,7476.080014
16403.979169,-1924.535449,2834.553343,7105.977043
16403.979494,-814.226536,1685.410096,7031.956449
16403.979818,-3552.988522,919.314598,8512.368333
16403.980142,-6069.688724,383.047749,8290.306550
16403.980467,-4663.297435,306.438199,6957.935855
16403.980791,-3552.988522,-766.095498,9178.553681
16403.981115,-4441.235652,-536.266849,9770.718434
16403.981440,-5181.441594,-459.657299,9548.656652
16403.981764,-2220.617826,-306.438199,7920.203579
16403.982089,-1258.350101,919.314598,9548.656652
16403.982413,-2516.700203,0.000000,10214.842000
16403.982737,-2294.638420,-995.924147,8882.471304
16403.983062,0.000000,536.266849,9770.718434
16403.983386,-148.041188,995.924147,11251.130318
16403.983710,1110.308913,-383.047749,10066.800811
16403.984035,3404.947333,689.485948,10066.800811
16403.984359,2368.659014,2298.286494,9992.780217
16403.984683,1258.350101,153.219100,9400.615463
16403.985008,3034.844362,-612.876398,8956.491898
16403.985332,5181.441594,995.924147,9326.594869
16403.985657,2072.576638,1149.143247,11621.233289
16403.985981,1554.432478,-1838.629195,8660.409521
16403.986305,3182.885551,-229.828649,8808.450710
16403.986630,1702.473667,536.266849,10066.800811
16403.986954,0.000000,-383.047749,8956.491898
16403.987278,962.267725,-2068.457845,8068.244768
16403.987603,370.102971,-919.314598,8364.327145
16403.987927,-1702.473667,76.609550,9326.594869
16403.988251,-1554.432478,-2145.067394,9770.718434
16403.988576,444.123565,-1455.581446,8586.388927
16403.988900,74.020594,-153.219100,10214.842000
16403.989225,-1184.329507,-459.657299,10436.903782
16403.989549,-296.082377,-919.314598,8956.491898
16403.989873,296.082377,153.219100,9104.533087
16403.990198,296.082377,766.095498,10066.800811
16403.990522,296.082377,-383.047749,9474.636058
16403.990846,2072.576638,1302.362347,7772.162391
16403.991171,3775.050304,3140.991542,10510.924376
16403.991495,3034.844362,2834.553343,10732.986159
16403.991819,2072.576638,2374.896044,9770.718434
16403.992144,2220.617826,2298.286494,9474.636058
16403.992468,1406.391290,2451.505594,10510.924376
16403.992793,222.061783,1838.629195,9474.636058
16403.993117,1184.329507,1685.410096,9400.615463
16403.993441,370.102971,2834.553343,10288.862594
16403.993766,-2294.638420,2374.896044,10066.800811
16403.994090,-4071.132681,1072.533697,8808.450710
16403.994414,-2146.597232,76.609550,6513.812290
16403.994739,-2812.782580,1149.143247,7402.059420
16403.995063,-5255.462188,1762.019645,7624.121203
16403.995387,-3701.029710,1072.533697,6513.812290
16403.995712,-1480.411884,1532.190996,6513.812290
16403.996036,-1776.494261,3140.991542,8290.306550
16403.996361,-4219.173869,1685.410096,7328.038826
16403.996685,-3256.906145,536.266849,6587.832884
16403.997009,-1184.329507,1532.190996,9770.718434
16403.997334,-1702.473667,1608.800546,12139.377449
16403.997658,-1702.473667,-1225.752797,11843.295072
16403.997982,814.226536,-306.438199,11177.109724
16403.998307,3627.009116,842.705048,11547.212695
16403.998631,1998.556043,1532.190996,11991.336260
16403.998956,1628.453072,0.000000,11843.295072
16403.999269,2738.761985,766.095498,10362.883188
16403.999594,3849.070898,459.657299,10807.006753
16403.999918,1850.514855,0.000000,8512.368333
16404.000243,2960.823768,-229.828649,7698.141797
16404.000567,3182.885551,1608.800546,8438.347739
16404.000892,444.123565,1302.362347,9918.759623
16404.001216,-888.247130,-766.095498,8734.430116
16404.001541,814.226536,-1991.848295,7698.141797
16404.001865,-1332.370696,-1532.190996,6587.832884
16404.002190,-2442.679609,-919.314598,7994.224174
16404.002514,-222.061783,-1685.410096,8586.388927
16404.002839,518.144159,-1302.362347,9326.594869
16404.003163,-1924.535449,-1915.238745,10732.986159
16404.003488,-2220.617826,-1225.752797,8216.285956
16404.003812,-740.205942,-1762.019645,8734.430116
16404.004137,740.205942,-1455.581446,9326.594869
16404.004461,888.247130,-383.047749,10807.006753
16404.004786,2368.659014,459.657299,11177.109724
16404.005110,5255.462188,1225.752797,10066.800811
16404.005435,4663.297435,2298.286494,11621.233289
16404.005759,2590.720797,3140.991542,10955.047942
16404.006084,2368.659014,2145.067394,9992.780217
16404.006408,3701.029710,1072.533697,7920.203579
16404.006733,2516.700203,1455.581446,9548.656652
16404.007057,-444.123565,2068.457845,9622.677246
16404.007382,-148.041188,2068.457845,8882.471304
16404.007706,-1258.350101,919.314598,9548.656652
16404.008031,-3256.906145,842.705048,9548.656652
16404.008355,-3034.844362,1532.190996,9474.636058
16404.008680,-1554.432478,1455.581446,9326.594869
16404.009004,-3552.988522,0.000000,8808.450710
16404.009329,-3478.967927,459.657299,7846.182985
16404.009653,-1850.514855,2221.676944,8364.327145
16404.009978,-1924.535449,2604.724693,7920.203579
16404.010302,-3256.906145,1455.581446,9030.512492
16404.010627,-2220.617826,1685.410096,7179.997637
16404.010951,-740.205942,2681.334243,7698.141797
16404.011276,-2368.659014,1608.800546,8586.388927
16404.011600,-2220.617826,306.438199,8364.327145
16404.011925,-370.102971,1072.533697,7994.224174
16404.012249,0.000000,2604.724693,10214.842000
16404.012574,-1110.308913,612.876398,11695.253884
16404.012898,0.000000,-306.438199,10066.800811
16404.013223,1702.473667,995.924147,9918.759623
16404.013547,2368.659014,1991.848295,11843.295072
16404.013872,2220.617826,-153.219100,9844.739029
16404.014196,2738.761985,536.266849,9474.636058
16404.014521,3256.906145,1072.533697,9622.677246
16404.014845,1554.432478,1225.752797,10288.862594
16404.015170,592.164754,-995.924147,9474.636058
16404.015494,1924.535449,-306.438199,8290.306550
16404.015819,1332.370696,-1915.238745,10658.965565
16404.016143,-740.205942,-1072.533697,8956.491898
16404.016468,222.061783,-1378.971896,7846.182985
16404.016792,2442.679609,-153.219100,7698.141797
16404.017117,222.061783,229.828649,9030.512492
16404.017441,-1776.494261,-842.705048,9622.677246
16404.017766,814.226536,-766.095498,8660.409521
16404.018090,592.164754,-1532.190996,9622.677246
16404.018415,-1850.514855,-2987.772442,9474.636058
16404.018739,-518.144159,-1532.190996,9104.533087
16404.019063,2516.700203,306.438199,10140.821405
16404.019388,1406.391290,229.828649,11029.068536
16404.019712,0.000000,-536.266849,9696.697840
16404.020037,1628.453072,-612.876398,8956.491898
16404.020361,2516.700203,1532.190996,8956.491898
16404.020686,2516.700203,1685.410096,9992.780217
16404.021010,2590.720797,1455.581446,9104.533087
16404.021335,3997.112087,2987.772442,9844.739029
16404.021659,3034.844362,3447.429741,9992.780217
16404.021984,370.102971,1532.190996,8586.388927
16404.022308,-1702.473667,-842.705048,6957.935855
16404.022633,-1998.556043,1532.190996,8660.409521
16404.022957,-2664.741391,76.609550,10140.821405
16404.023282,-4959.379811,-1915.238745,8660.409521
16404.023606,-4515.256246,-842.705048,8364.327145
16404.023931,-4367.215058,1838.629195,9474.636058
16404.024255,-5477.523971,0.000000,9474.636058
16404.024580,-4737.318029,-1608.800546,8068.244768
16404.024904,-962.267725,1532.190996,9178.553681
16404.025229,-814.226536,2451.505594,10584.944971
16404.025553,592.164754,919.314598,9326.594869
16404.025878,2590.720797,2298.286494,7994.224174
16404.026202,1702.473667,2987.772442,9696.697840
16404.026527,-518.144159,3217.601092,10658.965565
16404.026851,1036.288319,1072.533697,9104.533087
16404.027176,1924.535449,1072.533697,7772.162391
16404.027500,-222.061783,536.266849,9178.553681
16404.027825,-2960.823768,919.314598,8068.244768
16404.028149,-296.082377,-459.657299,9326.594869
16404.028474,1036.288319,153.219100,9474.636058
16404.028798,-296.082377,1302.362347,10955.047942
16404.029123,-962.267725,383.047749,9252.574275
16404.029447,1332.370696,689.485948,8216.285956
16404.029772,2960.823768,229.828649,8290.306550
16404.030096,962.267725,1225.752797,8142.265362
16404.030421,296.082377,306.438199,7846.182985
16404.030745,1998.556043,766.095498,8586.388927
16404.031070,2442.679609,536.266849,10288.862594
16404.031394,444.123565,0.000000,9992.780217
16404.031719,370.102971,-1378.971896,10436.903782
16404.032043,518.144159,-1149.143247,9770.718434
16404.032368,-518.144159,-1225.752797,9918.759623
16404.032692,518.144159,-612.876398,9474.636058
16404.033017,1924.535449,229.828649,10362.883188
16404.033341,1184.329507,1685.410096,11177.109724
16404.033666,666.185348,766.095498,10362.883188
16404.033990,2368.659014,-383.047749,7994.224174
16404.034315,2516.700203,536.266849,9178.553681
16404.034639,-370.102971,1149.143247,10436.903782
16404.034964,296.082377,459.657299,8882.471304
16404.035288,3256.906145,689.485948,10510.924376
16404.035613,2072.576638,2145.067394,11547.212695
16404.035937,-444.123565,1838.629195,9770.718434
16404.036262,-148.041188,536.266849,7476.080014
16404.036586,1480.411884,1072.533697,7402.059420
16404.036911,-1850.514855,2681.334243,9104.533087
16404.037235,-2294.638420,1608.800546,7179.997637
16404.037560,592.164754,2145.067394,7105.977043
16404.037884,-518.144159,3064.381992,8512.368333
16404.038209,-3923.091493,1149.143247,9252.574275
16404.038533,-6365.771101,-919.314598,7920.203579
16404.038858,-4737.318029,-995.924147,8734.430116
16404.039182,-4071.132681,-1378.971896,9770.718434
16404.039507,-5551.544565,-1302.362347,10807.006753
16404.039831,-4885.359217,-1072.533697,10214.842000
16404.040156,-2590.720797,0.000000,10436.903782
16404.040480,-1924.535449,612.876398,10436.903782
16404.040805,-1036.288319,-229.828649,8586.388927
16404.041129,1258.350101,1915.238745,8142.265362
16404.041454,2072.576638,2374.896044,9400.615463
16404.041778,1998.556043,1532.190996,10288.862594
16404.042103,2886.803174,1149.143247,9030.512492
16404.042427,2368.659014,1072.533697,10436.903782
16404.042752,1110.308913,842.705048,10066.800811
16404.043076,962.267725,1149.143247,9548.656652
16404.043401,2220.617826,-536.266849,9326.594869
16404.043725,370.102971,-1378.971896,9178.553681
16404.044049,-1924.535449,-1915.238745,9104.533087
16404.044374,-592.164754,0.000000,7920.203579
16404.044698,2220.617826,459.657299,9770.718434
16404.045023,1924.535449,153.219100,9992.780217
16404.045347,222.061783,689.485948,8882.471304
16404.045672,1184.329507,766.095498,6957.935855
16404.045996,3404.947333,153.219100,7031.956449
16404.046321,2220.617826,306.438199,9326.594869
16404.046645,74.020594,0.000000,9622.677246
16404.046970,962.267725,-383.047749,9548.656652
16404.047294,2590.720797,-383.047749,10510.924376
16404.047619,0.000000,-1149.143247,11843.295072
16404.047943,-888.247130,153.219100,9548.656652
16404.048268,518.144159,383.047749,10510.924376
16404.048592,1036.288319,-306.438199,10214.842000
16404.048917,1110.308913,0.000000,10066.800811
16404.049241,2368.659014,2145.067394,9770.718434
16404.049566,2442.679609,2757.943793,9622.677246
16404.049890,74.020594,1838.629195,9474.636058
16404.050215,1924.535449,2068.457845,8882.471304
16404.050539,2664.741391,3217.601092,9622.677246
16404.050864,0.000000,2681.334243,9178.553681
16404.051188,-1628.453072,306.438199,8586.388927
16404.051513,0.000000,1302.362347,8216.285956
16404.051837,-444.123565,2145.067394,10732.986159
16404.052162,-2738.761985,1225.752797,10510.924376
16404.052486,-2886.803174,76.609550,7105.977043
16404.052811,-2442.679609,1225.752797,6439.791695
16404.053135,-2590.720797,1455.581446,8068.244768
16404.053460,-4515.256246,1838.629195,8216.285956
16404.053784,-4293.194464,76.609550,6809.894666
16404.054109,-1776.494261,1455.581446,7550.100608
16404.054433,-1036.288319,1991.848295,9844.739029
16404.054758,-4219.173869,689.485948,9992.780217
16404.055082,-3108.864956,-612.876398,8882.471304
16404.055407,-2368.659014,76.609550,9992.780217
16404.055731,-1776.494261,459.657299,10584.944971
16404.056056,-740.205942,0.000000,9104.533087
16404.056380,2146.597232,0.000000,9400.615463
16404.056705,2146.597232,1455.581446,9622.677246
16404.057029,1554.432478,1838.629195,10362.883188
16404.057354,2590.720797,306.438199,8808.450710
16404.057678,4071.132681,766.095498,8882.471304
16404.058003,2294.638420,1225.752797,10436.903782
16404.058327,3552.988522,1532.190996,9326.594869
16404.058652,4811.338623,383.047749,9474.636058
16404.058976,2294.638420,229.828649,10140.821405
16404.059301,-370.102971,383.047749,9252.574275
16404.059625,148.041188,-842.705048,9474.636058
16404.059950,-592.164754,-2068.457845,9918.759623
16404.060274,-2442.679609,-2374.896044,9548.656652
16404.060599,-2146.597232,-2221.676944,7698.141797
16404.060923,-296.082377,-766.095498,7698.141797
16404.061248,444.123565,536.266849,9030.512492
16404.061572,-888.247130,0.000000,9992.780217
16404.061897,-1480.411884,-1378.971896,7772.162391
16404.062221,666.185348,-919.314598,8438.347739
16404.062546,2220.617826,306.438199,10436.903782
16404.062870,-148.041188,76.609550,10436.903782
16404.063195,518.144159,-689.485948,9474.636058
16404.063519,3849.070898,1532.190996,9770.718434
16404.063844,2294.638420,1378.971896,11547.212695
16404.064168,-888.247130,459.657299,9918.759623
16404.064493,962.267725,1225.752797,9030.512492
16404.064817,2516.700203,766.095498,9770.718434
16404.065142,962.267725,1072.533697,10584.944971
16404.065466,0.000000,153.219100,9696.697840
16404.065791,-222.061783,766.095498,8808.450710
16404.066115,-518.144159,2757.943793,9474.636058
16404.066440,-518.144159,2221.676944,10288.862594
16404.066764,-1184.329507,76.609550,9030.512492
16404.067089,-370.102971,612.876398,7105.977043
16404.067413,-2146.597232,2221.676944,8512.368333
16404.067738,-1480.411884,2221.676944,7846.182985
16404.068062,-1480.411884,1378.971896,7550.100608
16404.068387,-3478.967927,995.924147,7476.080014
16404.068711,-3701.029710,1302.362347,5921.647536
16404.069036,-2664.741391,1991.848295,8364.327145
16404.069360,-2368.659014,1225.752797,10140.821405
16404.069684,-4441.235652,-536.266849,10584.944971
16404.070009,-3923.091493,-1378.971896,8808.450710
16404.070333,-518.144159,1149.143247,9474.636058
16404.070658,1036.288319,1762.019645,11695.253884
16404.070982,74.020594,153.219100,11325.150913
16404.071307,814.226536,306.438199,8586.388927
16404.071631,3849.070898,1762.019645,9104.533087
16404.071956,5033.400406,1455.581446,11029.068536
16404.072280,3923.091493,995.924147,10288.862594
16404.072605,3775.050304,2221.676944,9252.574275
16404.072929,4737.318029,2987.772442,9104.533087
16404.073254,1850.514855,1149.143247,11177.109724
16404.073578,666.185348,-536.266849,8512.368333
16404.073903,1554.432478,612.876398,8142.265362
16404.074227,-444.123565,0.000000,9696.697840
16404.074552,-1998.556043,-842.705048,9622.677246
16404.074876,-740.205942,-2068.457845,10362.883188
16404.075201,-1332.370696,-536.266849,8142.265362
16404.075525,-3923.091493,-842.705048,8956.491898
16404.075850,-2664.741391,-1149.143247,7179.997637
16404.076174,-814.226536,-995.924147,7698.141797
16404.076499,-2146.597232,0.000000,8956.491898
16404.076823,-1554.432478,0.000000,8142.265362
16404.077148,1036.288319,-306.438199,7994.224174
16404.077472,2516.700203,383.047749,10140.821405
16404.077797,2664.741391,689.485948,11251.130318
16404.078121,1850.514855,919.314598,10584.944971
16404.078446,2812.782580,-306.438199,10807.006753
16404.078770,3108.864956,0.000000,10658.965565
16404.079095,2294.638420,-383.047749,10807.006753
16404.079419,222.061783,612.876398,9844.739029
16404.079744,1406.391290,306.438199,9696.697840
16404.080068,3404.947333,1378.971896,9622.677246
16404.080393,740.205942,1991.848295,11695.253884
16404.080717,-888.247130,689.485948,9548.656652
16404.081042,-1924.535449,1149.143247,8068.244768
16404.081366,-2590.720797,0.000000,7846.182985
16404.081691,-4071.132681,766.095498,7698.141797
16404.082015,-2368.659014,919.314598,8586.388927
16404.082340,-3552.988522,1762.019645,8808.450710
16404.082664,-6439.791695,-536.266849,8512.368333
16404.082989,-3775.050304,612.876398,6291.750507
16404.083313,-2516.700203,1302.362347,7920.203579
16404.083638,-3775.050304,-306.438199,7254.018232
16404.083962,-1998.556043,842.705048,8068.244768
16404.084287,592.164754,2374.896044,9696.697840
16404.084611,-148.041188,2528.115143,9474.636058
16404.084936,-1036.288319,306.438199,9622.677246
16404.085260,888.247130,995.924147,7624.121203
16404.085585,2812.782580,2068.457845,10214.842000
16404.085909,2442.679609,995.924147,11917.315666
16404.086234,2294.638420,0.000000,11473.192101
16404.086558,3330.926739,1225.752797,10362.883188
16404.086883,4589.276840,3677.258390,9474.636058
16404.087207,3108.864956,1455.581446,10362.883188
16404.087532,1184.329507,-1378.971896,8808.450710
16404.087856,2368.659014,1302.362347,8068.244768
16404.088181,2886.803174,2068.457845,10214.842000
16404.088505,-370.102971,-229.828649,10066.800811
16404.088830,-962.267725,-919.314598,8512.368333
16404.089154,148.041188,76.609550,7402.059420
16404.089479,-2146.597232,536.266849,9252.574275
16404.089803,-2960.823768,-1378.971896,9252.574275
16404.090128,-666.185348,-536.266849,7920.203579
16404.090452,-592.164754,0.000000,9326.594869
16404.090777,-1628.453072,-459.657299,8438.347739
16404.091101,962.267725,-459.657299,8068.244768
16404.091426,1480.411884,383.047749,8734.430116
16404.091750,-1110.308913,995.924147,9918.759623
16404.092075,74.020594,153.219100,9844.739029
16404.092399,3256.906145,1838.629195,8882.471304
16404.092724,1776.494261,-229.828649,10881.027347
16404.093048,-370.102971,-153.219100,9178.553681
16404.093373,1258.350101,536.266849,9696.697840
16404.093697,2590.720797,2528.115143,10362.883188
16404.094022,2960.823768,919.314598,10807.006753
16404.094346,518.144159,153.219100,10140.821405
16404.094670,1258.350101,1455.581446,8882.471304
16404.094995,1628.453072,1608.800546,10362.883188
16404.095319,-296.082377,-689.485948,10288.862594
16404.095644,-3108.864956,153.219100,9400.615463
16404.095968,-1924.535449,1149.143247,9104.533087
16404.096293,-1850.514855,383.047749,10288.862594
16404.096617,-4441.235652,-153.219100,8734.430116
16404.096942,-5403.503377,-612.876398,7105.977043
16404.097266,-4441.235652,-383.047749,6217.729913
16404.097591,-3701.029710,0.000000,8068.244768
16404.097915,-4145.153275,842.705048,8586.388927
16404.098239,-1850.514855,1149.143247,7846.182985
16404.098564,-1776.494261,536.266849,9030.512492
16404.098888,-2146.597232,919.314598,8364.327145
16404.099213,-814.226536,1532.190996,8438.347739
16404.099537,1332.370696,459.657299,9252.574275
16404.099861,1406.391290,306.438199,9548.656652
16404.100186,1776.494261,766.095498,10732.986159
16404.100510,2664.741391,612.876398,10214.842000
16404.100834,3256.906145,612.876398,11103.089130
16404.101159,2664.741391,1225.752797,10584.944971
16404.101483,2516.700203,995.924147,10510.924376
16404.101808,2960.823768,229.828649,10807.006753
16404.102132,3108.864956,766.095498,10140.821405
16404.102456,592.164754,-306.438199,9844.739029
16404.102781,370.102971,383.047749,7328.038826
16404.103105,2368.659014,1378.971896,9252.574275
16404.103430,1332.370696,1072.533697,9548.656652
16404.103754,-1554.432478,-459.657299,9400.615463
16404.104078,-1258.350101,-229.828649,8290.306550
16404.104403,-888.247130,0.000000,7698.141797
16404.104727,-2664.741391,-1608.800546,9474.636058
16404.105052,-370.102971,-229.828649,7254.018232
16404.105376,1924.535449,1915.238745,9474.636058
16404.105700,1480.411884,1149.143247,10362.883188
16404.106025,-740.205942,-306.438199,9474.636058
16404.106349,814.226536,383.047749,8882.471304
16404.106674,2368.659014,2068.457845,9178.553681
16404.106998,1184.329507,536.266849,10510.924376
16404.107322,2812.782580,2068.457845,9770.718434
16404.107647,3404.947333,3370.820191,9770.718434
16404.107971,1850.514855,2221.676944,9178.553681
16404.108296,0.000000,536.266849,8586.388927
16404.108620,666.185348,1149.143247,7698.141797
16404.108944,814.226536,995.924147,9104.533087
16404.109269,-1332.370696,459.657299,11621.233289
16404.109593,-2072.576638,306.438199,10510.924376
16404.109917,-740.205942,229.828649,8808.450710
16404.110242,-1036.288319,1302.362347,9030.512492
16404.110566,-3256.906145,536.266849,8808.450710
16404.110891,-3034.844362,1532.190996,8660.409521
16404.111215,-1110.308913,689.485948,8956.491898
16404.111539,-1258.350101,766.095498,9400.615463
16404.111864,-3923.091493,229.828649,9030.512492
16404.112188,-2368.659014,1378.971896,7179.997637
16404.112513,0.000000,1762.019645,9400.615463
16404.112837,-1850.514855,536.266849,9622.677246
16404.113161,-2960.823768,0.000000,7550.100608
16404.113486,-1924.535449,-842.705048,7105.977043
16404.113810,-740.205942,612.876398,7846.182985
16404.114135,-2368.659014,-536.266849,10807.006753
16404.114459,-1332.370696,-612.876398,9992.780217
16404.114783,1258.350101,536.266849,9696.697840
16404.115108,1998.556043,1302.362347,11251.130318
16404.115432,1702.473667,1532.190996,10066.800811
16404.115757,1406.391290,153.219100,9030.512492
16404.116081,2442.679609,-766.095498,8142.265362
16404.116405,1480.411884,-306.438199,9696.697840
16404.116730,2960.823768,229.828649,9844.739029
16404.117054,3701.029710,76.609550,11251.130318
16404.117379,1628.453072,-153.219100,10807.006753
16404.117703,-962.267725,-766.095498,10140.821405
16404.118027,592.164754,-1149.143247,8956.491898
16404.118352,1036.288319,-766.095498,9474.636058
16404.118676,222.061783,-995.924147,9252.574275
16404.119001,-148.041188,689.485948,8068.244768
16404.119325,1554.432478,995.924147,8364.327145
16404.119649,1406.391290,0.000000,9696.697840
16404.119974,-1332.370696,-689.485948,9030.512492
16404.120298,-1924.535449,383.047749,8808.450710
16404.120622,-518.144159,-689.485948,8660.409521
16404.120947,-740.205942,-1608.800546,10955.047942
16404.121271,-962.267725,0.000000,9770.718434
16404.121596,1036.288319,766.095498,8734.430116
16404.121920,1332.370696,0.000000,9030.512492
16404.122244,518.144159,689.485948,10288.862594
16404.122569,2442.679609,3064.381992,9992.780217
16404.122893,1998.556043,1532.190996,9622.677246
16404.123218,888.247130,-842.705048,9696.697840
16404.123542,2072.576638,1991.848295,9770.718434
16404.123866,3256.906145,4366.744339,9326.594869
16404.124191,1406.391290,1225.752797,9844.739029
16404.124515,-1850.514855,612.876398,9178.553681
16404.124840,-1776.494261,1608.800546,7328.038826
16404.125164,-1998.556043,1225.752797,8956.491898
16404.125488,-2738.761985,-919.314598,9474.636058
16404.125813,-4663.297435,689.485948,9696.697840
16404.126137,-3256.906145,1455.581446,7994.224174
16404.126462,-1702.473667,919.314598,7328.038826
16404.126786,-2146.597232,995.924147,8216.285956
16404.127110,-3627.009116,2221.676944,8364.327145
16404.127435,-1924.535449,1915.238745,9104.533087
16404.127759,814.226536,1302.362347,9548.656652
16404.128084,-148.041188,306.438199,10658.965565
16404.128408,-962.267725,306.438199,9474.636058
16404.128732,888.247130,2068.457845,9548.656652
16404.129057,1406.391290,3217.601092,11177.109724
16404.129381,-962.267725,459.657299,10584.944971
16404.129705,-962.267725,-1149.143247,8364.327145
16404.130030,962.267725,766.095498,7698.141797
16404.130354,222.061783,1378.971896,9770.718434
16404.130679,-962.267725,-383.047749,9474.636058
16404.131003,370.102971,-689.485948,9474.636058
16404.131327,1110.308913,1225.752797,10362.883188
16404.131652,2220.617826,1608.800546,9178.553681
16404.131976,3923.091493,76.609550,8734.430116
16404.132301,3256.906145,153.219100,9548.656652
16404.132625,2368.659014,919.314598,9992.780217
16404.132949,2812.782580,-229.828649,9770.718434
16404.133274,4071.132681,-229.828649,9844.739029
16404.133598,2960.823768,919.314598,9770.718434
16404.133923,666.185348,919.314598,10584.944971
16404.134247,222.061783,306.438199,10066.800811
16404.134571,1258.350101,-153.219100,8882.471304
16404.134896,370.102971,-612.876398,9548.656652
16404.135220,-2590.720797,-459.657299,8142.265362
16404.135545,-1258.350101,-306.438199,6883.915261
16404.135869,-592.164754,-306.438199,9252.574275
16404.136193,-1332.370696,536.266849,10658.965565
16404.136518,-3552.988522,383.047749,9548.656652
16404.136842,-740.205942,-2145.067394,7254.018232
16404.137167,814.226536,-536.266849,8438.347739
16404.137491,0.000000,1378.971896,10807.006753
16404.137815,666.185348,1991.848295,10214.842000
16404.138140,2516.700203,612.876398,9252.574275
16404.138464,2664.741391,2757.943793,9326.594869
16404.138789,1554.432478,4443.353888,10214.842000
16404.139113,962.267725,1225.752797,9474.636058
16404.139437,740.205942,76.609550,8512.368333
16404.139762,-222.061783,1302.362347,9844.739029
16404.140086,-148.041188,1991.848295,9918.759623
16404.140410,-1110.308913,536.266849,9918.759623
16404.140735,-3256.906145,689.485948,10066.800811
16404.141059,-5995.668130,612.876398,9474.636058
16404.141384,-6069.688724,0.000000,8438.347739
16404.141708,-3701.029710,-1685.410096,7550.100608
16404.142032,-4071.132681,-995.924147,7254.018232
16404.142357,-4737.318029,153.219100,7402.059420
16404.142681,-2886.803174,1225.752797,7994.224174
16404.143006,-2072.576638,919.314598,9252.574275
16404.143330,-2368.659014,-612.876398,9252.574275
16404.143654,-296.082377,383.047749,8290.306550
16404.143979,3330.926739,2145.067394,9918.759623
16404.144303,3997.112087,1072.533697,11843.295072
16404.144628,2738.761985,-919.314598,11029.068536
16404.144952,4737.318029,1762.019645,9104.533087
16404.145276,6587.832884,3600.648841,9622.677246
16404.145601,5033.400406,2145.067394,10140.821405
16404.145925,1332.370696,76.609550,9474.636058
16404.146250,3923.091493,1072.533697,8660.409521
16404.146574,2590.720797,536.266849,10288.862594
16404.146898,-888.247130,-2757.943793,9918.759623
16404.147223,-740.205942,-689.485948,9104.533087
16404.147547,-296.082377,229.828649,10584.944971
16404.147872,-1258.350101,-306.438199,10362.883188
16404.148196,-1480.411884,-2451.505594,9030.512492
16404.148520,-1110.308913,-995.924147,7476.080014
16404.148845,-1480.411884,612.876398,7550.100608
16404.149169,-444.123565,-306.438199,9696.697840
16404.149493,814.226536,306.438199,8882.471304
16404.149818,1332.370696,459.657299,9844.739029
16404.150142,-740.205942,2145.067394,10214.842000
16404.150467,-740.205942,689.485948,8808.450710
16404.150791,1628.453072,459.657299,8364.327145
16404.151115,2886.803174,612.876398,9696.697840
16404.151440,1332.370696,1608.800546,9622.677246
16404.151764,1998.556043,2068.457845,9844.739029
16404.152089,4219.173869,2681.334243,10066.800811
16404.152413,3108.864956,3294.210641,9770.718434
16404.152737,-814.226536,1455.581446,8438.347739
16404.153062,0.000000,2298.286494,6587.832884
16404.153386,2664.741391,2451.505594,7846.182985
16404.153711,-444.123565,2145.067394,9992.780217
16404.154035,-3478.967927,689.485948,9400.615463
16404.154359,-3330.926739,1225.752797,8734.430116
16404.154684,-3627.009116,383.047749,8512.368333
16404.155008,-5329.482782,-229.828649,8734.430116
16404.155333,-6217.729913,-459.657299,8808.450710
16404.155657,-4367.215058,459.657299,9252.574275
16404.155981,-4959.379811,-1455.581446,9474.636058
16404.156306,-4441.235652,-842.705048,8808.450710
16404.156630,-2886.803174,536.266849,8660.409521
16404.156955,-2220.617826,1685.410096,8512.368333
16404.157279,-2072.576638,76.609550,9400.615463
16404.157603,-1850.514855,-766.095498,8512.368333
16404.157928,-1184.329507,76.609550,9696.697840
16404.158252,-518.144159,-995.924147,9548.656652
16404.158577,814.226536,-995.924147,9030.512492
16404.158901,3108.864956,-536.266849,10510.924376
16404.159225,5255.462188,2068.457845,11991.336260
16404.159550,5625.565159,766.095498,13101.645173
16404.159874,4737.318029,0.000000,10140.821405
16404.160198,6143.709319,612.876398,8734.430116
16404.160523,6143.709319,1302.362347,9696.697840
16404.160847,3478.967927,0.000000,9252.574275
16404.161172,2590.720797,0.000000,8808.450710
16404.161496,3256.906145,536.266849,9030.512492
16404.161820,1110.308913,459.657299,10362.883188
16404.162145,-3775.050304,-1991.848295,9548.656652
16404.162469,-4145.153275,-2221.676944,8438.347739
16404.162794,-3552.988522,-2604.724693,9030.512492
16404.163118,-5329.482782,-2528.115143,9178.553681
16404.163442,-4071.132681,-2221.676944,8882.471304
16404.163767,-2590.720797,-229.828649,8586.388927
16404.164091,-1258.350101,995.924147,9400.615463
16404.164416,-888.247130,383.047749,9474.636058
16404.164740,888.247130,0.000000,7846.182985
16404.165064,2072.576638,2221.676944,7846.182985
16404.165389,3701.029710,3753.867940,10881.027347
16404.165713,5255.462188,3983.696590,9844.739029
16404.166038,5995.668130,3140.991542,10362.883188
16404.166362,4589.276840,4213.525239,10140.821405
16404.166686,3552.988522,5209.449386,9252.574275
16404.167011,3108.864956,3294.210641,8438.347739
16404.167335,3330.926739,3294.210641,9178.553681
16404.167660,518.144159,3294.210641,10066.800811
16404.167984,-1554.432478,2911.162892,9474.636058
16404.168308,-370.102971,2451.505594,7772.162391
16404.168633,-888.247130,1685.410096,7846.182985
16404.168957,-5181.441594,842.705048,8438.347739
16404.169281,-5995.668130,2145.067394,8142.265362
16404.169606,-3849.070898,1225.752797,9104.533087
16404.169930,-4441.235652,-919.314598,8290.306550
16404.170255,-6883.915261,-766.095498,7846.182985
16404.170579,-5107.421000,1225.752797,7105.977043
16404.170903,-2960.823768,536.266849,7254.018232
16404.171228,-4293.194464,-689.485948,10807.006753
16404.171552,-3108.864956,229.828649,9474.636058
16404.171877,-518.144159,689.485948,8956.491898
16404.172201,444.123565,-1532.190996,9104.533087
16404.172525,222.061783,-1149.143247,10140.821405
16404.172850,2368.659014,459.657299,10658.965565
16404.173174,4885.359217,1378.971896,11621.233289
16404.173499,4589.276840,842.705048,13841.851115
16404.173823,4367.215058,153.219100,10436.903782
16404.174147,4737.318029,1072.533697,8956.491898
16404.174472,4145.153275,0.000000,8586.388927
16404.174796,3775.050304,-766.095498,9104.533087
16404.175121,2886.803174,0.000000,10140.821405
16404.175445,2294.638420,306.438199,9474.636058
16404.175769,0.000000,-995.924147,10955.047942
16404.176094,-1332.370696,-1225.752797,9252.574275
16404.176418,-1036.288319,-1455.581446,7772.162391
16404.176743,-1332.370696,-1991.848295,8734.430116
16404.177067,-2220.617826,-1762.019645,7920.203579
16404.177391,-2368.659014,-995.924147,7698.141797
16404.177716,-1628.453072,-842.705048,7920.203579
16404.178040,-3256.906145,-1532.190996,8808.450710
16404.178365,-4441.235652,-1378.971896,8512.368333
16404.178689,-2294.638420,-842.705048,8364.327145
16404.179013,-666.185348,-995.924147,10436.903782
16404.179338,0.000000,-1149.143247,10584.944971
16404.179662,-222.061783,-229.828649,10288.862594
16404.179986,1776.494261,919.314598,7476.080014
16404.180311,3701.029710,1915.238745,9252.574275
16404.180635,3256.906145,1915.238745,10955.047942
16404.180960,3849.070898,2987.772442,10066.800811
16404.181284,5181.441594,1838.629195,10732.986159
16404.181608,3701.029710,2451.505594,11029.068536
16404.181933,2368.659014,2451.505594,10436.903782
16404.182257,3330.926739,3217.601092,8364.327145
16404.182582,2072.576638,4136.915689,8586.388927
16404.182906,-740.205942,3370.820191,9178.553681
16404.183230,-1554.432478,2298.286494,8586.388927
16404.183555,-2368.659014,2068.457845,9030.512492
16404.183879,-3701.029710,766.095498,8586.388927
16404.184204,-6587.832884,-383.047749,7920.203579
16404.184528,-5181.441594,612.876398,7772.162391
16404.184852,-2664.741391,2221.676944,8364.327145
16404.185177,-4441.235652,1072.533697,9622.677246
16404.185501,-5847.626942,0.000000,8290.306550
16404.185826,-3478.967927,766.095498,8290.306550
16404.186150,-518.144159,689.485948,8290.306550
16404.186474,-1258.350101,0.000000,8290.306550
16404.186799,-222.061783,306.438199,8438.347739
16404.187123,1406.391290,2068.457845,9252.574275
16404.187448,2220.617826,2068.457845,9918.759623
16404.187772,1554.432478,306.438199,10510.924376
16404.188096,1480.411884,0.000000,9918.759623
16404.188421,3404.947333,842.705048,9844.739029
16404.188745,5181.441594,1378.971896,11103.089130
16404.189069,4885.359217,153.219100,10955.047942
16404.189394,3627.009116,842.705048,9548.656652
16404.189718,3404.947333,1455.581446,9326.594869
16404.190043,1776.494261,1532.190996,9770.718434
16404.190367,1924.535449,-1149.143247,9844.739029
16404.190691,740.205942,-842.705048,8512.368333
16404.191016,-1406.391290,-842.705048,8956.491898
16404.191340,-2294.638420,-1378.971896,8808.450710
16404.191665,-1036.288319,-1302.362347,9104.533087
16404.191989,-1850.514855,766.095498,9474.636058
16404.192313,-3182.885551,-1072.533697,9326.594869
16404.192638,-3552.988522,-1072.533697,7402.059420
16404.192962,-1332.370696,-919.314598,8142.265362
16404.193287,-1776.494261,-459.657299,8586.388927
16404.193611,-3182.885551,-2221.676944,9696.697840
16404.193935,-962.267725,-612.876398,9030.512492
16404.194260,2516.700203,1302.362347,10214.842000
16404.194584,592.164754,76.609550,11325.150913
16404.194909,1332.370696,0.000000,10066.800811
16404.195233,3923.091493,1532.190996,10066.800811
16404.195557,3701.029710,2374.896044,10807.006753
16404.195882,3330.926739,1532.190996,10807.006753
16404.196206,5181.441594,2374.896044,8142.265362
16404.196531,5255.462188,4749.792088,8068.244768
16404.196855,1924.535449,4290.134789,9844.739029
16404.197179,148.041188,2451.505594,8586.388927
16404.197504,-1184.329507,1302.362347,8216.285956
16404.197828,-2886.803174,842.705048,8438.347739
16404.198153,-4885.359217,-153.219100,8956.491898
16404.198477,-5995.668130,-536.266849,9030.512492
16404.198802,-5107.421000,-229.828649,7402.059420
16404.199126,-6587.832884,-612.876398,9918.759623
16404.199451,-6661.853478,-995.924147,8660.409521
16404.199775,-4515.256246,383.047749,7105.977043
16404.200099,-3478.967927,995.924147,8068.244768
16404.200424,-2072.576638,1378.971896,7994.224174
16404.200748,-740.205942,1608.800546,8216.285956
16404.201073,1702.473667,842.705048,8808.450710
16404.201397,0.000000,1532.190996,11029.068536
16404.201722,-1184.329507,-689.485948,11029.068536
16404.202046,814.226536,153.219100,9844.739029
16404.202371,2664.741391,-1685.410096,10807.006753
16404.202695,370.102971,-536.266849,11399.171507
16404.203019,1776.494261,306.438199,9770.718434
16404.203344,5477.523971,1225.752797,8586.388927
16404.203668,5477.523971,689.485948,9400.615463
16404.203993,2072.576638,1149.143247,9770.718434
16404.204317,1998.556043,1991.848295,8512.368333
16404.204642,4441.235652,842.705048,9178.553681
16404.204966,2664.741391,-229.828649,9548.656652
16404.205291,1480.411884,-689.485948,8956.491898
16404.205615,1184.329507,1991.848295,8734.430116
16404.205939,1036.288319,536.266849,10510.924376
16404.206264,-518.144159,-1455.581446,10510.924376
16404.206588,-1184.329507,-1608.800546,9548.656652
16404.206913,-1850.514855,-1225.752797,8734.430116
16404.207237,-2146.597232,-306.438199,9104.533087
16404.207562,-2146.597232,-995.924147,8882.471304
16404.207886,-666.185348,459.657299,7476.080014
16404.208211,814.226536,766.095498,9178.553681
16404.208535,-1628.453072,2145.067394,9918.759623
16404.208859,-148.041188,0.000000,7624.121203
16404.209184,2442.679609,689.485948,8586.388927
16404.209508,2960.823768,1302.362347,10288.862594
16404.209833,0.000000,1608.800546,10214.842000
16404.210157,1702.473667,842.705048,8956.491898
16404.210482,4885.359217,1685.410096,9400.615463
16404.210806,2812.782580,3753.867940,11547.212695
16404.211131,370.102971,2528.115143,9696.697840
16404.211455,2146.597232,1378.971896,9178.553681
16404.211779,2886.803174,1378.971896,10658.965565
16404.212104,296.082377,2681.334243,9474.636058
16404.212428,-1258.350101,1991.848295,8660.409521
16404.212753,-1480.411884,2068.457845,7920.203579
16404.213077,-2590.720797,2834.553343,10066.800811
16404.213402,-4071.132681,1915.238745,9104.533087
16404.213726,-4959.379811,-1532.190996,7179.997637
16404.214051,-5551.544565,-1455.581446,7550.100608
16404.214375,-5625.565159,842.705048,8882.471304
16404.214700,-6365.771101,-383.047749,9844.739029
16404.215024,-4737.318029,-2145.067394,7550.100608
16404.215348,-3849.070898,-229.828649,7994.224174
16404.215673,-3923.091493,1302.362347,7402.059420
16404.215997,-1480.411884,0.000000,7179.997637
16404.216322,1258.350101,-306.438199,9030.512492
16404.216646,2368.659014,1455.581446,9622.677246
16404.216971,1702.473667,1455.581446,10362.883188
16404.217295,4367.215058,1302.362347,9696.697840
16404.217620,6143.709319,0.000000,9474.636058
16404.217944,4367.215058,2068.457845,9770.718434
16404.218268,3627.009116,1608.800546,11103.089130
16404.218593,5403.503377,0.000000,11473.192101
16404.218917,5255.462188,0.000000,10732.986159
16404.219242,3034.844362,459.657299,9252.574275
16404.219566,1480.411884,1532.190996,8364.327145
16404.219891,1554.432478,689.485948,9474.636058
16404.220215,-148.041188,-229.828649,10288.862594
16404.220540,-2442.679609,-1378.971896,8364.327145
16404.220864,-1776.494261,-995.924147,7994.224174
16404.221188,-1924.535449,-766.095498,8882.471304
16404.221513,-3182.885551,-1762.019645,8586.388927
16404.221837,-2442.679609,-995.924147,9252.574275
16404.222162,-814.226536,0.000000,9252.574275
16404.222486,74.020594,0.000000,10584.944971
16404.222811,148.041188,-536.266849,9844.739029
16404.223135,0.000000,229.828649,9252.574275
16404.223460,962.267725,842.705048,9178.553681
16404.223784,2220.617826,306.438199,9474.636058
16404.224108,3478.967927,766.095498,8956.491898
16404.224433,5403.503377,3600.648841,8290.306550
16404.224757,3775.050304,3907.087040,9992.780217
16404.225082,2220.617826,1685.410096,11029.068536
16404.225406,2368.659014,1302.362347,8660.409521
16404.225731,3627.009116,3140.991542,9326.594869
16404.226055,1702.473667,2298.286494,10362.883188
16404.226380,-1036.288319,1915.238745,9104.533087
16404.226704,888.247130,1991.848295,8438.347739
16404.227028,-814.226536,3140.991542,9622.677246
16404.227353,-5773.606348,76.609550,10288.862594
16404.227677,-6217.729913,459.657299,6957.935855
16404.228002,-3256.906145,766.095498,7624.121203
16404.228326,-5329.482782,612.876398,9474.636058
16404.228651,-7624.121203,-919.314598,9030.512492
16404.228975,-6439.791695,-306.438199,7105.977043
16404.229300,-4441.235652,842.705048,8734.430116
16404.229624,-4441.235652,-995.924147,10955.047942
16404.229949,-4885.359217,-1302.362347,9844.739029
16404.230273,-2368.659014,-1608.800546,8142.265362
16404.230597,74.020594,536.266849,10362.883188
16404.230922,1480.411884,1378.971896,10955.047942
16404.231246,3034.844362,1378.971896,8734.430116
16404.231571,4145.153275,2068.457845,7846.182985
16404.231895,4367.215058,3217.601092,9030.512492
16404.232220,3775.050304,2298.286494,8956.491898
16404.232544,4071.132681,842.705048,8438.347739
16404.232869,4293.194464,689.485948,9178.553681
16404.233193,2294.638420,536.266849,9252.574275
16404.233517,2220.617826,-306.438199,9252.574275
16404.233842,2368.659014,-919.314598,10066.800811
16404.234166,-518.144159,-1532.190996,12139.377449
16404.234491,-1776.494261,-1532.190996,9696.697840
16404.234815,-370.102971,-2374.896044,10214.842000
16404.235140,444.123565,-2757.943793,11843.295072
16404.235464,-740.205942,-2298.286494,10214.842000
16404.235789,-814.226536,-766.095498,8438.347739
16404.236113,1332.370696,-383.047749,7846.182985
16404.236437,1258.350101,459.657299,9992.780217
16404.236762,-592.164754,0.000000,9770.718434
16404.237086,-370.102971,229.828649,7994.224174
16404.237411,518.144159,-766.095498,8364.327145
16404.237735,296.082377,-459.657299,9474.636058
16404.238060,296.082377,0.000000,8512.368333
16404.238384,1924.535449,1225.752797,7254.018232
16404.238709,1924.535449,1532.190996,9696.697840
16404.239033,1776.494261,1302.362347,10584.944971
16404.239357,2960.823768,995.924147,9844.739029
16404.239682,4293.194464,2068.457845,9622.677246
16404.240006,2960.823768,2298.286494,10288.862594
16404.240331,2072.576638,2221.676944,9992.780217
16404.240655,2590.720797,2451.505594,9992.780217
16404.240980,1924.535449,4826.401637,9030.512492
16404.241304,-1184.329507,3524.039291,9696.697840
16404.241629,-2738.761985,2298.286494,7624.121203
16404.241953,-1332.370696,1378.971896,8660.409521
16404.242277,-4367.215058,1302.362347,10955.047942
16404.242602,-8068.244768,-612.876398,9696.697840
16404.242926,-7550.100608,0.000000,7402.059420
16404.243251,-4145.153275,1685.410096,6439.791695
16404.243575,-5995.668130,1072.533697,8068.244768
16404.243900,-7031.956449,459.657299,7328.038826
16404.244224,-4737.318029,766.095498,6809.894666
16404.244549,-2812.782580,1455.581446,8512.368333
16404.244873,-2738.761985,383.047749,8660.409521
16404.245198,-592.164754,1608.800546,7328.038826
16404.245522,3182.885551,4290.134789,8438.347739
16404.245846,2146.597232,3140.991542,11695.253884
16404.246171,1628.453072,0.000000,10732.986159
16404.246495,2664.741391,842.705048,9548.656652
16404.246820,4367.215058,1149.143247,10436.903782
16404.247144,4071.132681,459.657299,10955.047942
16404.247469,3775.050304,689.485948,11177.109724
16404.247793,4367.215058,1608.800546,9400.615463
16404.248118,2072.576638,459.657299,10584.944971
16404.248442,1406.391290,-536.266849,10140.821405
16404.248766,740.205942,0.000000,8808.450710
16404.249091,1258.350101,-1072.533697,9844.739029
16404.249415,-592.164754,-1838.629195,10732.986159
16404.249740,-370.102971,-919.314598,9326.594869
16404.250064,-296.082377,-1149.143247,7920.203579
16404.250389,-1110.308913,-2374.896044,8364.327145
16404.250713,-2072.576638,-2298.286494,8808.450710
16404.251038,-370.102971,-1225.752797,8956.491898
16404.251362,1184.329507,-1915.238745,9918.759623
16404.251686,0.000000,-2604.724693,9326.594869
16404.252011,296.082377,-459.657299,8142.265362
16404.252335,1628.453072,229.828649,7402.059420
16404.252660,2294.638420,-842.705048,9992.780217
16404.252984,1554.432478,-1149.143247,11029.068536
16404.253309,1258.350101,1608.800546,9474.636058
16404.253633,2368.659014,229.828649,9992.780217
16404.253958,1776.494261,689.485948,10362.883188
16404.254282,2072.576638,306.438199,8808.450710
16404.254606,3330.926739,2451.505594,7254.018232
16404.254931,4515.256246,3524.039291,10658.965565
16404.255255,740.205942,4290.134789,12509.480420
16404.255580,-740.205942,1838.629195,10658.965565
16404.255904,-2368.659014,-766.095498,8068.244768
16404.256229,-4441.235652,-1072.533697,8142.265362
16404.256553,-5847.626942,-229.828649,9474.636058
16404.256878,-4589.276840,459.657299,9326.594869
16404.257202,-3923.091493,0.000000,10362.883188
16404.257526,-5329.482782,766.095498,10658.965565
16404.257851,-6217.729913,842.705048,8068.244768
16404.258175,-2664.741391,689.485948,6587.832884
16404.258500,-1036.288319,2451.505594,6439.791695
16404.258824,-3034.844362,3064.381992,8438.347739
16404.259149,-2368.659014,2221.676944,8142.265362
16404.259473,666.185348,2068.457845,6809.894666
16404.259798,-1036.288319,1685.410096,8142.265362
16404.260122,-3256.906145,1072.533697,7254.018232
16404.260447,-1776.494261,842.705048,8142.265362
16404.260771,2146.597232,0.000000,9474.636058
16404.261095,1258.350101,-459.657299,11621.233289
16404.261420,814.226536,612.876398,10881.027347
16404.261744,4145.153275,2834.553343,8586.388927
16404.262069,5329.482782,1762.019645,9400.615463
16404.262393,4441.235652,1762.019645,10436.903782
16404.262718,4441.235652,2145.067394,10214.842000
16404.263042,5255.462188,1455.581446,9548.656652
16404.263367,3775.050304,306.438199,10288.862594
16404.263691,2072.576638,76.609550,10436.903782
16404.264015,1110.308913,0.000000,10140.821405
16404.264340,0.000000,-1225.752797,10510.924376
16404.264664,-1850.514855,-2528.115143,10362.883188
16404.264989,-2368.659014,-1532.190996,10288.862594
16404.265313,-1258.350101,-1302.362347,9770.718434
16404.265638,-222.061783,-2604.724693,9474.636058
16404.265962,-148.041188,-3447.429741,9400.615463
16404.266287,2664.741391,919.314598,9622.677246
16404.266611,4367.215058,2145.067394,10881.027347
16404.266935,814.226536,-612.876398,9178.553681
16404.267260,-222.061783,-383.047749,7179.997637
16404.267584,2368.659014,2987.772442,7920.203579
16404.267909,3256.906145,2528.115143,8660.409521
16404.268233,592.164754,-995.924147,7846.182985
16404.268558,1406.391290,1225.752797,6217.729913
16404.268882,1924.535449,4519.963438,9474.636058
16404.269207,-740.205942,1991.848295,11029.068536
16404.269531,-1480.411884,-1225.752797,9770.718434
16404.269855,-296.082377,383.047749,7624.121203
16404.270180,962.267725,3677.258390,8438.347739
16404.270504,0.000000,1838.629195,11251.130318
16404.270829,-444.123565,459.657299,8512.368333
16404.271153,-1332.370696,1915.238745,7920.203579
16404.271478,-3330.926739,3524.039291,10140.821405
16404.271802,-3701.029710,766.095498,9844.739029
16404.272127,-3034.844362,-766.095498,8882.471304
16404.272451,-2812.782580,0.000000,8216.285956
16404.272775,-6143.709319,306.438199,9178.553681
16404.273100,-5921.647536,-1149.143247,10584.944971
16404.273424,-2886.803174,-612.876398,9474.636058
16404.273749,-3849.070898,0.000000,9844.739029
16404.274073,-5403.503377,-383.047749,8882.471304
16404.274398,-2442.679609,-612.876398,8142.265362
16404.274722,1036.288319,76.609550,8438.347739
16404.275047,0.000000,1149.143247,10584.944971
16404.275371,-222.061783,1455.581446,9474.636058
16404.275696,3775.050304,1378.971896,7772.162391
16404.276020,5255.462188,1685.410096,8660.409521
16404.276344,2516.700203,1915.238745,9474.636058
16404.276669,2590.720797,2068.457845,8586.388927
16404.276993,4811.338623,1532.190996,7920.203579
16404.277318,3627.009116,0.000000,10066.800811
16404.277642,2738.761985,1072.533697,9696.697840
16404.277967,3034.844362,1838.629195,8956.491898
16404.278291,2812.782580,1072.533697,8808.450710
16404.278616,1110.308913,306.438199,9622.677246
16404.278940,-222.061783,-153.219100,8216.285956
16404.279264,-1850.514855,-1149.143247,8734.430116
16404.279589,-1998.556043,-2604.724693,9992.780217
16404.279913,-1924.535449,-1685.410096,8512.368333
16404.280238,-2220.617826,-1455.581446,10288.862594
16404.280562,-2590.720797,-1302.362347,10807.006753
16404.280887,-1480.411884,-1532.190996,11251.130318
16404.281211,-370.102971,-383.047749,9770.718434
16404.281536,1406.391290,-306.438199,9178.553681
16404.281860,1702.473667,-306.438199,10214.842000
16404.282184,1998.556043,689.485948,9622.677246
16404.282509,3478.967927,2528.115143,9844.739029
16404.282833,5921.647536,3294.210641,9770.718434
16404.283158,4071.132681,1838.629195,10658.965565
16404.283482,1554.432478,2987.772442,9474.636058
16404.283807,3627.009116,2528.115143,9474.636058
16404.284131,2442.679609,842.705048,9252.574275
16404.284456,-740.205942,-153.219100,9326.594869
16404.284780,-1776.494261,1838.629195,8290.306550
16404.285104,-444.123565,1838.629195,7550.100608
16404.285429,-1850.514855,1072.533697,10436.903782
16404.285753,-3256.906145,1455.581446,9030.512492
16404.286078,-3034.844362,1685.410096,7846.182985
16404.286402,-3256.906145,612.876398,6957.935855
16404.286727,-3923.091493,689.485948,7105.977043
16404.287051,-3404.947333,842.705048,7254.018232
16404.287376,-4219.173869,1072.533697,8808.450710
16404.287700,-5107.421000,306.438199,10510.924376
16404.288024,-5181.441594,-536.266849,9992.780217
16404.288349,-4589.276840,-1608.800546,9770.718434
16404.288673,-3701.029710,-766.095498,8808.450710
16404.288998,-2960.823768,-995.924147,10807.006753
16404.289322,-1924.535449,612.876398,9992.780217
16404.289647,1332.370696,1378.971896,11177.109724
16404.289971,1702.473667,1762.019645,10066.800811
16404.290296,1480.411884,1302.362347,8808.450710
16404.290620,3701.029710,2604.724693,8068.244768
16404.290945,6735.874072,2987.772442,9252.574275
16404.291269,3627.009116,1762.019645,11029.068536
16404.291593,2442.679609,383.047749,8438.347739
16404.291918,4145.153275,1915.238745,7846.182985
16404.292242,4219.173869,1072.533697,8142.265362
16404.292567,-444.123565,-536.266849,10362.883188
16404.292891,-2072.576638,-1225.752797,9918.759623
16404.293216,370.102971,-383.047749,8290.306550
16404.293540,0.000000,-2451.505594,9770.718434
16404.293865,-1924.535449,-2451.505594,8438.347739
16404.294189,-2442.679609,-995.924147,8882.471304
16404.294513,148.041188,76.609550,8216.285956
16404.294838,1406.391290,-995.924147,11251.130318
16404.295162,-370.102971,-1378.971896,10732.986159
16404.295487,0.000000,-612.876398,9770.718434
16404.295811,666.185348,-153.219100,9474.636058
16404.296136,1628.453072,-842.705048,9770.718434
16404.296460,1332.370696,-689.485948,9696.697840
16404.296785,2664.741391,1149.143247,8438.347739
16404.297109,3404.947333,1532.190996,10214.842000
16404.297433,2072.576638,919.314598,9400.615463
16404.297758,2072.576638,919.314598,9178.553681
16404.298082,3404.947333,2068.457845,9992.780217
16404.298407,2368.659014,2911.162892,10288.862594
16404.298731,2368.659014,2834.553343,8734.430116
16404.299056,5107.421000,4443.353888,8586.388927
16404.299380,2812.782580,4366.744339,8882.471304
16404.299704,-1924.535449,2374.896044,9400.615463
16404.300029,-3552.988522,1455.581446,9474.636058
16404.300353,-1998.556043,1149.143247,8586.388927
16404.300678,-3923.091493,-153.219100,9918.759623
16404.301002,-6291.750507,-383.047749,8512.368333
16404.301327,-5403.503377,2221.676944,8290.306550
16404.301651,-3627.009116,842.705048,9400.615463
16404.301975,-2294.638420,766.095498,9252.574275
16404.302300,-2072.576638,919.314598,10214.842000
16404.302624,-3034.844362,1838.629195,9992.780217
16404.302949,-3849.070898,536.266849,9104.533087
16404.303273,-1924.535449,-383.047749,8142.265362
16404.303598,-2146.597232,1685.410096,8586.388927
16404.303922,-2368.659014,2145.067394,7105.977043
16404.304246,-2220.617826,995.924147,7698.141797
16404.304571,0.000000,383.047749,7179.997637
16404.304895,-222.061783,1838.629195,9992.780217
16404.305220,-518.144159,459.657299,10362.883188
16404.305544,-296.082377,-1378.971896,8586.388927
16404.305869,3404.947333,1685.410096,8660.409521
16404.306193,4441.235652,3524.039291,9474.636058
16404.306517,2516.700203,689.485948,10140.821405
16404.306842,3330.926739,-766.095498,8660.409521
16404.307166,5181.441594,2681.334243,9104.533087
16404.307491,6439.791695,1455.581446,11769.274478
16404.307815,3256.906145,-153.219100,11991.336260
16404.308140,4071.132681,-383.047749,10732.986159
16404.308464,3997.112087,1608.800546,7476.080014
16404.308788,1332.370696,-383.047749,8586.388927
16404.309113,-1924.535449,-2374.896044,9326.594869
16404.309437,-1850.514855,-383.047749,10140.821405
16404.309762,-1554.432478,-1991.848295,9252.574275
16404.310086,-2368.659014,-4136.915689,9622.677246
16404.310411,-3108.864956,-2987.772442,11325.150913
16404.310735,-2738.761985,459.657299,9992.780217
16404.311059,-740.205942,-842.705048,8438.347739
16404.311384,148.041188,-1378.971896,9770.718434
16404.311708,1036.288319,1072.533697,9326.594869
16404.312033,2886.803174,2374.896044,9252.574275
16404.312357,4515.256246,1608.800546,8882.471304
16404.312682,4589.276840,2911.162892,9474.636058
16404.313006,4367.215058,3753.867940,10066.800811
16404.313330,3923.091493,2987.772442,8586.388927
16404.313655,2220.617826,2298.286494,8956.491898
16404.313979,666.185348,2451.505594,8586.388927
16404.314304,222.061783,2451.505594,9030.512492
16404.314628,-2072.576638,612.876398,9844.739029
16404.314953,-4367.215058,76.609550,9178.553681
16404.315277,-3034.844362,1378.971896,8068.244768
16404.315601,-3256.906145,919.314598,10140.821405
16404.315926,-7328.038826,-1149.143247,9622.677246
16404.316250,-8364.327145,-1225.752797,7920.203579
16404.316575,-6069.688724,-306.438199,7550.100608
16404.316899,-6069.688724,-536.266849,8068.244768
16404.317224,-5773.606348,-536.266849,8586.388927
16404.317548,-3552.988522,-306.438199,8068.244768
16404.317872,-2516.700203,1149.143247,7550.100608
16404.318197,-2516.700203,766.095498,10807.006753
16404.318521,-1628.453072,229.828649,10214.842000
16404.318846,-296.082377,153.219100,8882.471304
16404.319170,1702.473667,153.219100,9844.739029
16404.319495,3478.967927,306.438199,9992.780217
16404.319819,2812.782580,1455.581446,10955.047942
16404.320143,4071.132681,1915.238745,9992.780217
16404.320468,4367.215058,1455.581446,9474.636058
16404.320792,3923.091493,0.000000,9252.574275
16404.321117,3182.885551,689.485948,8438.347739
16404.321441,3404.947333,1072.533697,10214.842000
16404.321766,2072.576638,306.438199,9770.718434
16404.322090,1184.329507,-842.705048,8882.471304
16404.322414,1776.494261,-306.438199,8586.388927
16404.322739,666.185348,383.047749,9918.759623
16404.323063,-1406.391290,-1378.971896,9696.697840
16404.323388,-1110.308913,-1685.410096,9622.677246
16404.323712,222.061783,-1608.800546,10066.800811
16404.324037,-1480.411884,-1149.143247,10288.862594
16404.324361,-740.205942,-1608.800546,9474.636058
16404.324685,2072.576638,-766.095498,7994.224174
16404.325010,2146.597232,2145.067394,9400.615463
16404.325334,222.061783,459.657299,11251.130318
16404.325659,1036.288319,0.000000,8068.244768
16404.325983,3775.050304,689.485948,8068.244768
16404.326308,2442.679609,2298.286494,9918.759623
16404.326632,444.123565,1608.800546,10658.965565
16404.326956,962.267725,1991.848295,10066.800811
16404.327281,4737.318029,2451.505594,7994.224174
16404.327605,3330.926739,3447.429741,10140.821405
16404.327930,1628.453072,3524.039291,9770.718434
16404.328254,1332.370696,4290.134789,8290.306550
16404.328579,1110.308913,2145.067394,7920.203579
16404.328903,-2146.597232,919.314598,8364.327145
16404.329227,-3404.947333,1991.848295,8660.409521
16404.329552,-2294.638420,2681.334243,7550.100608
16404.329876,-3701.029710,306.438199,8808.450710
16404.330201,-5921.647536,-459.657299,9400.615463
16404.330525,-5625.565159,1225.752797,10807.006753
16404.330850,-4071.132681,1072.533697,8586.388927
16404.331174,-4737.318029,-536.266849,9030.512492
16404.331498,-3997.112087,1915.238745,7179.997637
16404.331823,-1036.288319,3753.867940,7920.203579
16404.332147,-1924.535449,383.047749,9252.574275
16404.332472,-4515.256246,-1608.800546,9030.512492
16404.332796,-3627.009116,-459.657299,9326.594869
16404.333121,-1036.288319,0.000000,10140.821405
16404.333445,-1406.391290,-3064.381992,10510.924376
16404.333769,-1110.308913,-1762.019645,10510.924376
16404.334094,1628.453072,1378.971896,10807.006753
16404.334418,3627.009116,1608.800546,9474.636058
16404.334743,3701.029710,-1302.362347,9622.677246
16404.335067,3923.091493,1225.752797,8438.347739
16404.335392,5847.626942,3677.258390,8734.430116
16404.335716,5995.668130,612.876398,10066.800811
16404.336040,3997.112087,-2451.505594,9622.677246
16404.336365,3256.906145,536.266849,8586.388927
16404.336689,1998.556043,1072.533697,10436.903782
16404.337014,962.267725,-2681.334243,9622.677246
16404.337338,0.000000,-4213.525239,9548.656652
16404.337663,-148.041188,-1915.238745,10584.944971
16404.337987,-2146.597232,-1532.190996,10066.800811
16404.338311,-2072.576638,-3370.820191,9770.718434
16404.338636,222.061783,-2298.286494,8364.327145
16404.338960,-592.164754,229.828649,7994.224174
16404.339285,-1924.535449,306.438199,9992.780217
16404.339609,-296.082377,-1302.362347,9030.512492
16404.339934,1776.494261,459.657299,8068.244768
16404.340258,518.144159,1072.533697,10658.965565
16404.340582,-1258.350101,-76.609550,9622.677246
16404.340907,1406.391290,76.609550,9400.615463
16404.341231,3552.988522,1225.752797,9548.656652
16404.341556,-444.123565,2221.676944,11843.295072
16404.341880,-740.205942,1991.848295,9992.780217
16404.342205,4219.173869,3524.039291,8216.285956
16404.342529,3404.947333,2987.772442,9474.636058
16404.342854,740.205942,3140.991542,7550.100608
16404.343178,1332.370696,4136.915689,8512.368333
16404.343502,2294.638420,5286.058936,7698.141797
16404.343827,740.205942,3677.258390,10214.842000
16404.344151,-2442.679609,3217.601092,9474.636058
16404.344476,-3256.906145,2681.334243,7402.059420
16404.344800,-3627.009116,2298.286494,7994.224174
16404.345125,-4367.215058,766.095498,7772.162391
16404.345449,-6143.709319,766.095498,9104.533087
16404.345773,-4589.276840,2911.162892,9104.533087
16404.346098,-4589.276840,2068.457845,8586.388927
16404.346422,-4885.359217,-306.438199,7920.203579
16404.346747,-3923.091493,612.876398,8216.285956
16404.347071,-2072.576638,2451.505594,9770.718434
16404.347396,-1406.391290,995.924147,9992.780217
16404.347720,-296.082377,383.047749,8512.368333
16404.348044,3034.844362,1991.848295,7994.224174
16404.348369,2960.823768,3140.991542,10066.800811
16404.348693,592.164754,383.047749,10436.903782
16404.349018,814.226536,-612.876398,9622.677246
16404.349342,4737.318029,-459.657299,10732.986159
16404.349667,4071.132681,383.047749,11251.130318
16404.349991,2590.720797,-612.876398,9992.780217
16404.350315,3775.050304,0.000000,7846.182985
16404.350640,3923.091493,153.219100,8586.388927
16404.350964,2072.576638,-689.485948,9770.718434
16404.351289,1406.391290,-2145.067394,9474.636058
16404.351613,0.000000,-2374.896044,10140.821405
16404.351938,1110.308913,-1608.800546,9696.697840
16404.352262,3330.926739,-2221.676944,9400.615463
16404.352586,-1184.329507,-3677.258390,10807.006753
16404.352911,-1406.391290,-1608.800546,8438.347739
16404.353235,592.164754,-919.314598,9548.656652
16404.353560,-1184.329507,-2911.162892,11251.130318
16404.353884,-2960.823768,-4443.353888,9030.512492
16404.354209,-2072.576638,-2451.505594,9104.533087
16404.354533,-148.041188,-1915.238745,8142.265362
16404.354857,-1406.391290,-1608.800546,9400.615463
16404.355182,0.000000,-1302.362347,9696.697840
16404.355506,74.020594,306.438199,9178.553681
16404.355831,666.185348,612.876398,9548.656652
16404.356155,2886.803174,612.876398,10436.903782
16404.356480,3923.091493,1838.629195,9918.759623
16404.356804,1998.556043,1072.533697,9474.636058
16404.357128,2960.823768,2681.334243,8808.450710
16404.357453,4885.359217,3064.381992,7105.977043
16404.357777,1332.370696,2145.067394,7994.224174
16404.358102,-1036.288319,995.924147,8882.471304
16404.358426,-1184.329507,2374.896044,9326.594869
16404.358751,740.205942,1225.752797,9696.697840
16404.359075,-2368.659014,0.000000,9918.759623
16404.359399,-4219.173869,0.000000,9178.553681
16404.359724,-3478.967927,3524.039291,8660.409521
16404.360048,-3627.009116,1838.629195,8734.430116
16404.360373,-4737.318029,229.828649,9918.759623
16404.360697,-6217.729913,612.876398,10436.903782
16404.361022,-6439.791695,1915.238745,8290.306550
16404.361346,-5995.668130,153.219100,9918.759623
16404.361670,-6809.894666,-995.924147,10140.821405
16404.361995,-5181.441594,536.266849,7624.121203
16404.362319,-2368.659014,2911.162892,7179.997637
16404.362644,-2664.741391,766.095498,9252.574275
16404.362968,-2738.761985,1685.410096,9104.533087
16404.363293,1110.308913,2757.943793,9030.512492
16404.363617,1850.514855,1302.362347,9104.533087
16404.363941,2368.659014,1608.800546,8808.450710
16404.364266,6217.729913,4213.525239,9992.780217
16404.364590,9474.636058,4903.011187,9030.512492
16404.364915,7179.997637,2604.724693,9548.656652
16404.365239,4367.215058,2528.115143,10140.821405
16404.365564,5847.626942,3677.258390,8882.471304
16404.365888,5329.482782,919.314598,9770.718434
16404.366212,2368.659014,-842.705048,8734.430116
16404.366537,-1184.329507,306.438199,7846.182985
16404.366861,-296.082377,76.609550,7476.080014
16404.367186,-740.205942,-1455.581446,9992.780217
16404.367510,-4589.276840,-3830.477490,10658.965565
16404.367835,-6809.894666,-2834.553343,9400.615463
16404.368159,-5033.400406,-3677.258390,9696.697840
16404.368483,-5255.462188,-4979.620737,9104.533087
16404.368808,-6735.874072,-4826.401637,9178.553681
16404.369132,-5773.606348,-3447.429741,8512.368333
16404.369457,-4293.194464,-3983.696590,7920.203579
16404.369781,-1554.432478,-4443.353888,9400.615463
16404.370106,-1184.329507,-2451.505594,9474.636058
16404.370430,-814.226536,-2604.724693,9918.759623
16404.370754,1184.329507,-2987.772442,10288.862594
16404.371079,2590.720797,-2451.505594,11177.109724
16404.371403,1258.350101,-1072.533697,11547.212695
16404.371728,1406.391290,-2221.676944,11325.150913
16404.372052,1110.308913,-1915.238745,9474.636058
16404.372377,666.185348,-1685.410096,9400.615463
16404.372701,-2220.617826,-1685.410096,11547.212695
16404.373025,-5329.482782,-3677.258390,10436.903782
16404.373350,-5107.421000,-4060.306139,9178.553681
16404.373674,-7179.997637,-3294.210641,9474.636058
16404.373999,-10362.883188,-4060.306139,8438.347739
16404.374323,-9548.656652,-4596.572988,8068.244768
16404.374648,-8068.244768,-3600.648841,6439.791695
16404.374972,-7772.162391,-4213.525239,7402.059420
16404.375296,-7624.121203,-2987.772442,8290.306550
16404.375621,-4293.194464,-459.657299,10288.862594
16404.375945,-2664.741391,-766.095498,9548.656652
16404.376270,-4071.132681,-2911.162892,8956.491898
16404.376594,-2516.700203,-1762.019645,7476.080014
16404.376919,-222.061783,0.000000,8068.244768
16404.377243,0.000000,-1378.971896,8660.409521
16404.377567,296.082377,-612.876398,9548.656652
16404.377892,1258.350101,1225.752797,11769.274478
16404.378216,666.185348,-153.219100,10807.006753
16404.378541,-296.082377,-2374.896044,9104.533087
16404.378865,-814.226536,-1225.752797,8142.265362
16404.379190,-1110.308913,0.000000,9104.533087
16404.379514,-2368.659014,-689.485948,10807.006753
16404.379838,-2516.700203,-1915.238745,9178.553681
16404.380163,-1332.370696,-995.924147,7772.162391
16404.380487,-148.041188,1455.581446,8882.471304
16404.380812,888.247130,1532.190996,10140.821405
16404.381136,222.061783,766.095498,10732.986159
16404.381461,74.020594,-383.047749,10436.903782
16404.381785,1332.370696,0.000000,9252.574275
16404.382109,962.267725,153.219100,9474.636058
16404.382434,-2146.597232,459.657299,9918.759623
16404.382758,-444.123565,-153.219100,9104.533087
16404.383083,1480.411884,383.047749,9252.574275
16404.383407,592.164754,0.000000,10584.944971
16404.383732,0.000000,919.314598,10140.821405
16404.384056,-296.082377,1685.410096,10140.821405
16404.384380,-1184.329507,1532.190996,8438.347739
16404.384705,-2072.576638,0.000000,8512.368333
16404.385029,-2664.741391,0.000000,7624.121203
16404.385354,-3478.967927,459.657299,7031.956449
16404.385678,-4885.359217,-995.924147,7031.956449
16404.386003,-5477.523971,-2987.772442,7772.162391
16404.386327,-6365.771101,-2681.334243,9178.553681
16404.386651,-5181.441594,-2604.724693,9400.615463
16404.386976,-3849.070898,-2528.115143,9252.574275
16404.387300,-2516.700203,-842.705048,9844.739029
16404.387625,-888.247130,0.000000,10955.047942
16404.387949,-1258.350101,-766.095498,9844.739029
16404.388274,-1110.308913,-1991.848295,8734.430116
16404.388598,-814.226536,-1915.238745,8512.368333
16404.388922,-592.164754,-2604.724693,9178.553681
16404.389247,-2220.617826,-1838.629195,12953.603985
16404.389571,-3627.009116,-3600.648841,12435.459826
16404.389896,-3923.091493,-4290.134789,10436.903782
16404.390220,-2368.659014,-4826.401637,9474.636058
16404.390545,-2960.823768,-3447.429741,8438.347739
16404.390869,-3849.070898,-1532.190996,8882.471304
16404.391193,-2812.782580,-1149.143247,9326.594869
16404.391518,-3330.926739,-2451.505594,9474.636058
16404.391842,-4589.276840,-3370.820191,8364.327145
16404.392167,-5329.482782,-3983.696590,8364.327145
16404.392491,-5995.668130,-4903.011187,8438.347739
16404.392816,-5403.503377,-4903.011187,9770.718434
16404.393140,-4367.215058,-5362.668486,11103.089130
16404.393464,-4145.153275,-4903.011187,9696.697840
16404.393789,-2664.741391,-4136.915689,8068.244768
16404.394113,-592.164754,-1991.848295,7846.182985
16404.394438,1850.514855,-306.438199,8438.347739
16404.394762,3256.906145,459.657299,8882.471304
16404.395087,4367.215058,1378.971896,9622.677246
16404.395411,4219.173869,2221.676944,8734.430116
16404.395735,2886.803174,1608.800546,9178.553681
16404.396060,222.061783,-383.047749,10066.800811
16404.396384,-2664.741391,-3064.381992,10362.883188
16404.396709,-3478.967927,-3064.381992,10214.842000
16404.397033,-3108.864956,-3983.696590,11695.253884
16404.397358,-4441.235652,-4213.525239,11177.109724
16404.397682,-5699.585753,-4443.353888,9474.636058
16404.398006,-4811.338623,-2757.943793,8512.368333
16404.398331,-2738.761985,-1072.533697,9104.533087
16404.398655,-2368.659014,153.219100,8808.450710
16404.398980,-1332.370696,689.485948,7698.141797
16404.399304,-740.205942,1455.581446,6217.729913
16404.399628,-2072.576638,1532.190996,7624.121203
16404.399953,-3256.906145,1149.143247,9104.533087
16404.400277,-2442.679609,0.000000,9104.533087
16404.400602,-3330.926739,-1685.410096,8956.491898
16404.400926,-3627.009116,-2298.286494,9696.697840
16404.401250,-3256.906145,-3064.381992,10066.800811
16404.401575,-3108.864956,-4290.134789,9770.718434
16404.401899,-2664.741391,-4443.353888,9696.697840
16404.402224,-1258.350101,-1149.143247,10658.965565
16404.402548,1110.308913,459.657299,10881.027347
16404.402872,2442.679609,1072.533697,9696.697840
16404.403197,2886.803174,2221.676944,8882.471304
16404.403521,1998.556043,3370.820191,8290.306550
16404.403845,222.061783,2604.724693,8956.491898
16404.404170,-1036.288319,0.000000,8216.285956
16404.404494,-3034.844362,-1072.533697,7179.997637
16404.404819,-6513.812290,-2374.896044,7698.141797
16404.405143,-7550.100608,-3907.087040,9104.533087
16404.405467,-5773.606348,-5209.449386,10807.006753
16404.405792,-5329.482782,-5745.716235,11769.274478
16404.406116,-4293.194464,-4826.401637,12361.439231
16404.406441,-2664.741391,-4903.011187,11251.130318
16404.406765,-1702.473667,-4366.744339,10140.821405
16404.407089,-1184.329507,-2911.162892,9992.780217
16404.407414,444.123565,0.000000,9400.615463
16404.407738,2812.782580,1302.362347,9178.553681
16404.408063,3256.906145,2298.286494,9030.512492
16404.408387,3108.864956,2528.115143,8068.244768
16404.408711,1998.556043,2681.334243,6883.915261
16404.409036,-1036.288319,1608.800546,7698.141797
16404.409360,-3997.112087,-459.657299,7994.224174
16404.409685,-5995.668130,-2374.896044,7994.224174
16404.410009,-8290.306550,-4826.401637,7402.059420
16404.410333,-9474.636058,-6588.421283,8290.306550
16404.410658,-9770.718434,-6665.030833,9622.677246
16404.410982,-10288.862594,-6894.859482,9474.636058
16404.411307,-6809.894666,-6741.640382,10288.862594
16404.411631,-1924.535449,-3830.477490,11695.253884
16404.411955,1184.329507,-1225.752797,11843.295072
16404.412280,2590.720797,306.438199,11029.068536
16404.412604,6587.832884,2298.286494,9844.739029
16404.412929,9622.677246,4903.011187,10436.903782
16404.413253,9474.636058,5669.106685,10510.924376
16404.413577,7031.956449,4290.134789,9696.697840
16404.413902,3997.112087,2681.334243,9326.594869
16404.414226,296.082377,383.047749,8882.471304
16404.414550,-4071.132681,-2221.676944,9622.677246
16404.414875,-8364.327145,-4366.744339,9474.636058
16404.415199,-11325.150913,-5975.544884,8734.430116
16404.415524,-11769.274478,-6052.154434,7846.182985
16404.415848,-11177.109724,-6435.202183,7402.059420
16404.416172,-10436.903782,-5056.230287,7105.977043
16404.416497,-8364.327145,-2451.505594,7031.956449
16404.416821,-5477.523971,-383.047749,7328.038826
16404.417146,-1406.391290,-229.828649,7772.162391
16404.417470,666.185348,1072.533697,8438.347739
16404.417794,518.144159,1685.410096,8068.244768
16404.418119,666.185348,1378.971896,8586.388927
16404.418443,1554.432478,-229.828649,10214.842000
16404.418768,1406.391290,-1149.143247,10955.047942
16404.419092,370.102971,-2374.896044,11769.274478
16404.419416,-1184.329507,-2987.772442,11251.130318
16404.419741,-1332.370696,-3677.258390,11547.212695
16404.420065,-666.185348,-3140.991542,11843.295072
16404.420390,-296.082377,-2757.943793,11991.336260
16404.420714,-1332.370696,-2145.067394,10436.903782
16404.421038,0.000000,-842.705048,9252.574275
16404.421363,296.082377,0.000000,9030.512492
16404.421687,-1332.370696,-689.485948,8216.285956
16404.422012,-2664.741391,-766.095498,8068.244768
16404.422336,-3182.885551,-842.705048,7402.059420
16404.422660,-3701.029710,-1149.143247,7698.141797
16404.422985,-4663.297435,-2298.286494,8586.388927
16404.423309,-5107.421000,-2451.505594,8068.244768
16404.423633,-5255.462188,-2834.553343,7846.182985
16404.423958,-4811.338623,-2604.724693,8290.306550
16404.424282,-2516.700203,-1455.581446,8660.409521
16404.424607,-1036.288319,-1608.800546,8956.491898
16404.424931,-740.205942,-919.314598,9474.636058
16404.425255,814.226536,-459.657299,9400.615463
16404.425580,3256.906145,153.219100,10214.842000
16404.425904,3552.988522,459.657299,10510.924376
16404.426229,2886.803174,612.876398,10140.821405
16404.426553,2886.803174,689.485948,10362.883188
16404.426877,2146.597232,383.047749,10436.903782
16404.427202,148.041188,-383.047749,10140.821405
16404.427526,-666.185348,-766.095498,10066.800811
16404.427851,-2072.576638,-689.485948,9400.615463
16404.428175,-3478.967927,-995.924147,9400.615463
16404.428499,-4219.173869,-1532.190996,9326.594869
16404.428824,-5033.400406,-536.266849,9104.533087
16404.429148,-5477.523971,-919.314598,8364.327145
16404.429473,-5181.441594,0.000000,7920.203579
16404.429797,-4663.297435,-842.705048,8882.471304
16404.430121,-4737.318029,-766.095498,9474.636058
16404.430446,-4071.132681,-306.438199,9400.615463
16404.430770,-2960.823768,0.000000,9104.533087
16404.431095,-1998.556043,0.000000,9326.594869
16404.431419,-1554.432478,153.219100,9252.574275
16404.431743,-1332.370696,306.438199,8734.430116
16404.432068,-592.164754,229.828649,9178.553681
16404.432392,0.000000,306.438199,9252.574275
16404.432716,740.205942,1072.533697,9178.553681
16404.433041,1406.391290,1455.581446,9474.636058
16404.433365,1184.329507,1762.019645,9030.512492
16404.433690,1924.535449,919.314598,9400.615463
16404.434014,1998.556043,536.266849,9326.594869
16404.434338,222.061783,306.438199,9252.574275
16404.434663,-1776.494261,0.000000,9104.533087
16404.434987,-2146.597232,-1072.533697,9400.615463
16404.435312,-3775.050304,-2145.067394,9474.636058
16404.435636,-5329.482782,-2757.943793,9178.553681
16404.435960,-5773.606348,-2987.772442,8808.450710
16404.436285,-6217.729913,-2834.553343,9696.697840
16404.436609,-6883.915261,-3217.601092,9252.574275
16404.436934,-6365.771101,-2911.162892,9178.553681
16404.437258,-4737.318029,-2451.505594,8734.430116
16404.437582,-3478.967927,-2068.457845,8290.306550
16404.437907,-2368.659014,-1762.019645,8216.285956
16404.438231,-1998.556043,-1685.410096,8956.491898
16404.438556,-370.102971,-1915.238745,8956.491898
16404.438880,296.082377,-1762.019645,9622.677246
16404.439204,1036.288319,-2221.676944,9844.739029
16404.439529,0.000000,-2911.162892,9770.718434
16404.439853,-518.144159,-3600.648841,10066.800811
16404.440178,296.082377,-3677.258390,10362.883188
16404.440502,-666.185348,-3907.087040,10362.883188
16404.440826,-1480.411884,-4596.572988,9918.759623
16404.441151,-2590.720797,-4366.744339,9770.718434
16404.441475,-2886.803174,-3600.648841,9844.739029
16404.441800,-3108.864956,-4290.134789,10140.821405
16404.442124,-3997.112087,-4673.182538,9548.656652
16404.442448,-5329.482782,-4826.401637,9104.533087
16404.442773,-5699.585753,-4673.182538,8512.368333
16404.443097,-4811.338623,-4903.011187,9178.553681
16404.443421,-4737.318029,-5209.449386,9844.739029
16404.443746,-5847.626942,-4519.963438,8808.450710
16404.444070,-4737.318029,-4213.525239,9400.615463
16404.444395,-2368.659014,-4213.525239,9548.656652
16404.444719,-1110.308913,-3370.820191,10140.821405
16404.445043,-222.061783,-2681.334243,10140.821405
16404.445368,888.247130,-1149.143247,10066.800811
16404.445692,2220.617826,-612.876398,9844.739029
16404.446017,2960.823768,0.000000,9992.780217
16404.446341,2220.617826,229.828649,10066.800811
16404.446665,444.123565,459.657299,9030.512492
16404.446990,0.000000,76.609550,8882.471304
16404.447314,-370.102971,229.828649,8808.450710
16404.447639,-2738.761985,-153.219100,8808.450710
16404.447963,-4885.359217,-459.657299,7254.018232
16404.448287,-5699.585753,306.438199,6809.894666
16404.448612,-6143.709319,-612.876398,6883.915261
16404.448936,-6291.750507,-536.266849,7846.182985
16404.449261,-6957.935855,-1072.533697,7994.224174
16404.449585,-6735.874072,-1225.752797,7772.162391
16404.449909,-5329.482782,-1685.410096,9030.512492
16404.450234,-3997.112087,-1302.362347,10214.842000
16404.450558,-2812.782580,-1149.143247,11251.130318
16404.450883,-1554.432478,-383.047749,11103.089130
16404.451207,814.226536,306.438199,11991.336260
16404.451531,2664.741391,1302.362347,12361.439231
16404.451856,3478.967927,2451.505594,11325.150913
16404.452180,4441.235652,3983.696590,10288.862594
16404.452504,5329.482782,5056.230287,9474.636058
16404.452829,5033.400406,5132.839837,9474.636058
16404.453153,3775.050304,4673.182538,9178.553681
16404.453478,74.020594,3064.381992,8290.306550
16404.453802,-2812.782580,1072.533697,6661.853478
16404.454126,-4515.256246,-689.485948,6957.935855
16404.454451,-7179.997637,-3217.601092,7402.059420
16404.454775,-9622.677246,-4673.182538,7772.162391
16404.455100,-9030.512492,-4136.915689,7105.977043
16404.455424,-7402.059420,-4673.182538,7698.141797
16404.455748,-6069.688724,-3600.648841,8734.430116
16404.456073,-3701.029710,-2604.724693,9548.656652
16404.456397,-1406.391290,-1302.362347,8956.491898
16404.456722,0.000000,-1149.143247,9104.533087
16404.457046,592.164754,-1302.362347,9474.636058
16404.457370,1332.370696,-536.266849,10066.800811
16404.457695,1110.308913,-1685.410096,10214.842000
16404.458019,1406.391290,-2681.334243,10807.006753
16404.458344,1184.329507,-3294.210641,11991.336260
16404.458668,-518.144159,-4290.134789,12805.562797
16404.458992,-1480.411884,-5286.058936,12731.542202
16404.459317,-2442.679609,-5898.935335,11991.336260
16404.459641,-3034.844362,-5975.544884,10658.965565
16404.459966,-3404.947333,-5898.935335,9770.718434
16404.460290,-4367.215058,-5132.839837,8512.368333
16404.460614,-4145.153275,-3830.477490,8068.244768
16404.460939,-3923.091493,-2757.943793,7550.100608
16404.461263,-5181.441594,-2681.334243,8586.388927
16404.461588,-4515.256246,-2757.943793,7402.059420
16404.461912,-2738.761985,-2068.457845,7624.121203
16404.462236,-2738.761985,-2298.286494,7476.080014
16404.462561,-3182.885551,-2757.943793,7402.059420
16404.462885,-3256.906145,-3064.381992,7920.203579
16404.463209,-2294.638420,-2604.724693,8660.409521
16404.463534,-1554.432478,-3370.820191,10510.924376
16404.463858,-1702.473667,-4826.401637,11473.192101
16404.464183,-1924.535449,-3447.429741,10584.944971
16404.464507,0.000000,-3140.991542,12213.398043
16404.464831,222.061783,-2451.505594,11843.295072
16404.465156,222.061783,-1762.019645,11177.109724
16404.465480,74.020594,766.095498,9844.739029
16404.465805,518.144159,2451.505594,9400.615463
16404.466129,444.123565,2451.505594,8956.491898
16404.466453,-740.205942,2221.676944,7105.977043
16404.466778,-2368.659014,2681.334243,7105.977043
16404.467102,-3997.112087,1838.629195,7254.018232
16404.467427,-5921.647536,0.000000,8586.388927
16404.467751,-7179.997637,-1608.800546,8660.409521
16404.468075,-8956.491898,-3217.601092,8438.347739
16404.468400,-9326.594869,-4596.572988,7994.224174
16404.468724,-7328.038826,-5362.668486,8438.347739
16404.469049,-3627.009116,-2911.162892,10658.965565
16404.469373,-1776.494261,-1685.410096,11473.192101
16404.469697,-222.061783,-383.047749,11251.130318
16404.470022,3330.926739,1608.800546,9992.780217
16404.470346,7328.038826,3753.867940,9252.574275
16404.470671,7772.162391,4826.401637,9474.636058
16404.470995,5921.647536,6052.154434,9030.512492
16404.471319,4959.379811,4903.011187,8290.306550
16404.471644,2368.659014,2987.772442,7772.162391
16404.471968,-3108.864956,-76.609550,8660.409521
16404.472292,-8364.327145,-2987.772442,6809.894666
16404.472617,-11103.089130,-6205.373534,7031.956449
16404.472941,-11103.089130,-7048.078582,8512.368333
16404.473266,-8956.491898,-7660.954980,11177.109724
16404.473590,-8956.491898,-5975.544884,11769.274478
16404.473914,-6661.853478,-6281.983084,9548.656652
16404.474239,-1406.391290,-3064.381992,9030.512492
16404.474563,4737.318029,766.095498,9918.759623
16404.474888,6957.935855,3064.381992,12139.377449
16404.475212,5995.668130,3524.039291,11991.336260
16404.475536,5995.668130,2451.505594,8734.430116
16404.475861,6365.771101,1762.019645,8364.327145
16404.476185,2960.823768,306.438199,9696.697840
16404.476510,-1036.288319,-995.924147,8438.347739
16404.476834,-2812.782580,-2221.676944,8586.388927
16404.477158,-3849.070898,-3140.991542,9030.512492
16404.477483,-5107.421000,-4749.792088,10288.862594
16404.477807,-6587.832884,-4596.572988,8734.430116
16404.478132,-6957.935855,-3830.477490,7994.224174
16404.478456,-6439.791695,-4213.525239,8068.244768
16404.478780,-5477.523971,-4366.744339,9696.697840
16404.479105,-4885.359217,-4596.572988,8364.327145
16404.479429,-3997.112087,-2987.772442,8660.409521
16404.479754,-2886.803174,-2374.896044,9178.553681
16404.480078,-2220.617826,-1608.800546,10955.047942
16404.480402,148.041188,-1532.190996,11769.274478
16404.480727,2368.659014,-229.828649,10807.006753
16404.481051,1628.453072,0.000000,10881.027347
16404.481375,0.000000,153.219100,9844.739029
16404.481700,-222.061783,-689.485948,9474.636058
16404.482024,-1036.288319,-1838.629195,8290.306550
16404.482349,-2960.823768,-2068.457845,7105.977043
16404.482673,-4589.276840,-2298.286494,8734.430116
16404.482997,-5033.400406,-3294.210641,9548.656652
16404.483322,-5329.482782,-3830.477490,9918.759623
16404.483646,-4737.318029,-3140.991542,10066.800811
16404.483971,-4293.194464,-2757.943793,10288.862594
16404.484295,-4071.132681,-2068.457845,10214.842000
16404.484619,-2368.659014,-1378.971896,8068.244768
16404.484944,-2220.617826,-2451.505594,7105.977043
16404.485268,-3108.864956,-1685.410096,7624.121203
16404.485593,-3034.844362,0.000000,8586.388927
16404.485917,-962.267725,536.266849,8512.368333
16404.486241,-1184.329507,-689.485948,9770.718434
16404.486566,-2664.741391,-306.438199,9400.615463
16404.486890,-4071.132681,919.314598,10214.842000
16404.487215,-3256.906145,-1072.533697,9696.697840
16404.487539,-2368.659014,-2221.676944,7920.203579
16404.487863,-2220.617826,-2145.067394,7476.080014
16404.488188,-3701.029710,-536.266849,9400.615463
16404.488512,-2960.823768,-1762.019645,10510.924376
16404.488837,0.000000,-1685.410096,8882.471304
16404.489161,962.267725,-842.705048,9770.718434
16404.489485,0.000000,-919.314598,11473.192101
16404.489810,-222.061783,-229.828649,10658.965565
16404.490134,2516.700203,0.000000,8956.491898
16404.490459,1702.473667,0.000000,9178.553681
16404.490783,-444.123565,1991.848295,9178.553681
16404.491107,592.164754,1532.190996,7846.182985
16404.491432,1998.556043,1302.362347,7105.977043
16404.491756,962.267725,0.000000,9178.553681
16404.492080,-2294.638420,842.705048,11843.295072
16404.492405,-2664.741391,-1302.362347,9918.759623
16404.492729,-2960.823768,-2757.943793,8438.347739
16404.493054,-4663.297435,-3217.601092,7105.977043
16404.493378,-4959.379811,-1378.971896,8438.347739
16404.493702,-2590.720797,-842.705048,8956.491898
16404.494027,-444.123565,-612.876398,10214.842000
16404.494351,-1406.391290,-383.047749,11547.212695
16404.494676,518.144159,306.438199,9918.759623
16404.495000,4367.215058,766.095498,9992.780217
16404.495324,4885.359217,1378.971896,10584.944971
16404.495649,1406.391290,1608.800546,11547.212695
16404.495973,2738.761985,2451.505594,8808.450710
16404.496298,6365.771101,2145.067394,8512.368333
16404.496622,3034.844362,1991.848295,8142.265362
16404.496946,-1776.494261,1378.971896,8142.265362
16404.497271,-1480.411884,306.438199,7772.162391
16404.497595,-666.185348,-1072.533697,8142.265362
16404.497920,-3923.091493,-1762.019645,10066.800811
16404.498244,-6587.832884,-1378.971896,8660.409521
16404.498568,-4515.256246,-689.485948,7105.977043
16404.498893,-1480.411884,-766.095498,8438.347739
16404.499217,-3330.926739,-1149.143247,11991.336260
16404.499541,-4441.235652,-766.095498,10066.800811
16404.499866,-814.226536,229.828649,9474.636058
16404.500190,1332.370696,842.705048,9696.697840
16404.500514,814.226536,1762.019645,9622.677246
16404.500838,1924.535449,2911.162892,8586.388927
16404.501163,3478.967927,3524.039291,8660.409521
16404.501487,2146.597232,3064.381992,9622.677246
16404.501811,148.041188,1915.238745,9474.636058
16404.502136,1332.370696,1838.629195,8068.244768
16404.502460,2886.803174,1149.143247,7994.224174
16404.502784,-3034.844362,229.828649,9992.780217
16404.503109,-4441.235652,-1762.019645,8586.388927
16404.503433,-1702.473667,-536.266849,8734.430116
16404.503757,-1036.288319,-1991.848295,10584.944971
16404.504082,-4737.318029,-1302.362347,10288.862594
16404.504406,-2146.597232,-1302.362347,9844.739029
16404.504730,666.185348,0.000000,9918.759623
16404.505054,888.247130,-766.095498,9918.759623
16404.505379,-444.123565,76.609550,9474.636058
16404.505703,2886.803174,3370.820191,8438.347739
16404.506027,3701.029710,3294.210641,10510.924376
16404.506352,1554.432478,995.924147,10288.862594
16404.506676,740.205942,536.266849,7846.182985
16404.507000,1258.350101,1762.019645,8734.430116
16404.507325,1258.350101,766.095498,10214.842000
16404.507649,-1406.391290,-383.047749,9548.656652
16404.507973,-666.185348,-1149.143247,8290.306550
16404.508297,-518.144159,383.047749,10140.821405
16404.508622,-2294.638420,-689.485948,11103.089130
16404.508946,-1850.514855,-1302.362347,7994.224174
16404.509270,222.061783,-459.657299,7920.203579
16404.509595,1702.473667,689.485948,8586.388927
16404.509919,666.185348,1608.800546,9622.677246
16404.510243,2812.782580,2068.457845,7105.977043
16404.510568,4885.359217,2374.896044,8808.450710
16404.510892,4145.153275,3140.991542,10732.986159
16404.511216,3034.844362,3600.648841,10955.047942
16404.511540,4589.276840,2221.676944,9844.739029
16404.511865,4145.153275,536.266849,8660.409521
16404.512189,740.205942,766.095498,8512.368333
16404.512513,296.082377,2374.896044,8882.471304
16404.512838,592.164754,1685.410096,10066.800811
16404.513162,-2886.803174,-1225.752797,10510.924376
16404.513486,-4737.318029,-2068.457845,9474.636058
16404.513811,-4145.153275,-459.657299,9474.636058
16404.514135,-3849.070898,-1838.629195,9104.533087
16404.514459,-4663.297435,-2221.676944,8290.306550
16404.514784,-2294.638420,1455.581446,8290.306550
16404.515108,74.020594,3524.039291,9400.615463
16404.515432,666.185348,1915.238745,10955.047942
16404.515756,0.000000,459.657299,8512.368333
16404.516081,962.267725,3447.429741,6809.894666
16404.516405,2664.741391,4136.915689,9474.636058
16404.516729,2442.679609,1302.362347,9918.759623
16404.517054,1332.370696,689.485948,7624.121203
16404.517378,1110.308913,3294.210641,8586.388927
16404.517702,-1110.308913,1378.971896,9992.780217
16404.518027,-3552.988522,-2221.676944,9770.718434
16404.518351,-1776.494261,-2145.067394,8216.285956
16404.518675,-1628.453072,0.000000,8734.430116
16404.518999,-2960.823768,-1685.410096,10584.944971
16404.519324,-1776.494261,-2221.676944,8586.388927
16404.519648,518.144159,-689.485948,8438.347739
16404.519972,0.000000,1378.971896,8956.491898
16404.520297,-1850.514855,-306.438199,9918.759623
16404.520621,888.247130,-766.095498,8660.409521
16404.520945,2886.803174,536.266849,10066.800811
16404.521270,222.061783,153.219100,10955.047942
16404.521594,-740.205942,0.000000,9400.615463
16404.521918,2442.679609,842.705048,8734.430116
16404.522243,3478.967927,229.828649,10214.842000
16404.522567,814.226536,689.485948,11103.089130
16404.522891,592.164754,76.609550,10140.821405
16404.523215,1184.329507,229.828649,9770.718434
16404.523540,2738.761985,76.609550,9918.759623
16404.523864,1184.329507,612.876398,9104.533087
16404.524188,1184.329507,919.314598,7105.977043
16404.524513,1850.514855,1915.238745,9030.512492
16404.524837,1406.391290,1838.629195,10362.883188
16404.525161,-296.082377,536.266849,8882.471304
16404.525486,-370.102971,0.000000,8808.450710
16404.525810,1036.288319,766.095498,8734.430116
16404.526134,-370.102971,1608.800546,9474.636058
16404.526458,-74.020594,306.438199,7846.182985
16404.526783,2368.659014,1991.848295,8808.450710
16404.527107,1036.288319,3677.258390,10510.924376
16404.527431,-1184.329507,1685.410096,10288.862594
16404.527756,1406.391290,1378.971896,7920.203579
16404.528080,1998.556043,1685.410096,9326.594869
16404.528404,-1628.453072,2911.162892,10066.800811
16404.528729,-1480.411884,383.047749,8882.471304
16404.529053,148.041188,1302.362347,8438.347739
16404.529377,296.082377,229.828649,10658.965565
16404.529701,-4959.379811,-153.219100,11547.212695
16404.530026,-2812.782580,153.219100,9770.718434
16404.530350,-148.041188,842.705048,11251.130318
16404.530674,74.020594,1608.800546,9326.594869
16404.530999,222.061783,2068.457845,7846.182985
16404.531323,1480.411884,4443.353888,6513.812290
16404.531647,2368.659014,3753.867940,7476.080014
16404.531972,222.061783,3294.210641,8142.265362
16404.532296,0.000000,1608.800546,6809.894666
16404.532620,-962.267725,1608.800546,7105.977043
16404.532945,-962.267725,306.438199,9400.615463
16404.533269,-4441.235652,-689.485948,9992.780217
16404.533593,-4441.235652,-1838.629195,9252.574275
16404.533917,-2368.659014,-1915.238745,9770.718434
16404.534242,-2886.803174,-2451.505594,11399.171507
16404.534566,-3256.906145,-1991.848295,9474.636058
16404.534890,-1258.350101,-766.095498,9696.697840
16404.535215,962.267725,-612.876398,10066.800811
16404.535539,296.082377,-153.219100,10658.965565
16404.535863,1924.535449,612.876398,9104.533087
16404.536188,3552.988522,1149.143247,8364.327145
16404.536512,1998.556043,0.000000,9992.780217
16404.536836,148.041188,229.828649,10288.862594
16404.537160,1628.453072,383.047749,9770.718434
16404.537485,1850.514855,-1225.752797,8364.327145
16404.537809,74.020594,-2451.505594,8438.347739
16404.538133,370.102971,-459.657299,9030.512492
16404.538458,740.205942,0.000000,10510.924376
16404.538782,518.144159,-2757.943793,10436.903782
16404.539106,-370.102971,-2757.943793,10288.862594
16404.539431,1480.411884,229.828649,9548.656652
16404.539755,3108.864956,689.485948,10362.883188
16404.540079,2590.720797,-995.924147,10510.924376
16404.540404,1850.514855,842.705048,8142.265362
16404.540728,3256.906145,3217.601092,7105.977043
16404.541052,3923.091493,1915.238745,9104.533087
16404.541376,814.226536,1302.362347,10732.986159
16404.541701,222.061783,2451.505594,8808.450710
16404.542025,-148.041188,1991.848295,8586.388927
16404.542349,-2664.741391,-1838.629195,8512.368333
16404.542674,-1998.556043,842.705048,7550.100608
16404.542998,-296.082377,3524.039291,8068.244768
16404.543322,-3034.844362,995.924147,9844.739029
16404.543647,-4811.338623,-766.095498,11103.089130
16404.543971,-2146.597232,1455.581446,9326.594869
16404.544295,-518.144159,2451.505594,8882.471304
16404.544619,-1776.494261,1532.190996,8660.409521
16404.544944,-814.226536,2298.286494,7994.224174
16404.545268,1924.535449,4443.353888,8586.388927
16404.545592,1332.370696,3907.087040,10288.862594
16404.545917,-444.123565,2145.067394,10066.800811
16404.546241,518.144159,2987.772442,8142.265362
16404.546565,888.247130,3447.429741,8438.347739
16404.546890,-296.082377,1915.238745,10510.924376
16404.547214,-1776.494261,2374.896044,9696.697840
16404.547538,-1332.370696,2681.334243,8438.347739
16404.547862,-1332.370696,689.485948,8216.285956
16404.548187,-3034.844362,-842.705048,8438.347739
16404.548511,-4663.297435,-919.314598,8956.491898
16404.548835,-3775.050304,-306.438199,8956.491898
16404.549160,-2812.782580,-995.924147,10066.800811
16404.549484,-2590.720797,-1455.581446,9844.739029
16404.549808,-1924.535449,-842.705048,7105.977043
16404.550133,-1110.308913,-459.657299,8068.244768
16404.550457,-444.123565,-536.266849,9548.656652
16404.550781,-370.102971,-1608.800546,10658.965565
16404.551106,2516.700203,-689.485948,9178.553681
16404.551430,4663.297435,0.000000,10362.883188
16404.551754,1702.473667,-612.876398,9992.780217
16404.552078,4589.276840,-1608.800546,8068.244768
16404.552403,6217.729913,1225.752797,9992.780217
16404.552727,4737.318029,306.438199,11769.274478
16404.553051,814.226536,-1532.190996,11843.295072
16404.553376,3923.091493,-2068.457845,8734.430116
16404.553700,3849.070898,0.000000,9548.656652
16404.554024,-592.164754,-995.924147,10362.883188
16404.554349,-666.185348,-2604.724693,7846.182985
16404.554673,592.164754,-459.657299,7920.203579
16404.554997,1036.288319,76.609550,9918.759623
16404.555321,-4145.153275,-1762.019645,10510.924376
16404.555646,-4737.318029,-3064.381992,8882.471304
16404.555970,-3182.885551,-919.314598,8956.491898
16404.556294,-1184.329507,76.609550,8882.471304
16404.556619,-2072.576638,-459.657299,9252.574275
16404.556943,0.000000,766.095498,7698.141797
16404.557267,2664.741391,3907.087040,9622.677246
16404.557592,1184.329507,2911.162892,11251.130318
16404.557916,148.041188,766.095498,9030.512492
16404.558240,2072.576638,1991.848295,9252.574275
16404.558565,2812.782580,3677.258390,9548.656652
16404.558889,-222.061783,2451.505594,9474.636058
16404.559213,148.041188,2068.457845,7846.182985
16404.559537,1776.494261,3370.820191,7994.224174
16404.559862,-444.123565,3677.258390,10140.821405
16404.560186,-1258.350101,2221.676944,9400.615463
16404.560510,370.102971,1838.629195,9770.718434
16404.560835,-888.247130,2911.162892,9474.636058
16404.561159,-3256.906145,3064.381992,10214.842000
16404.561483,-1850.514855,1608.800546,7550.100608
16404.561808,74.020594,2987.772442,6661.853478
16404.562132,-2738.761985,2451.505594,9622.677246
16404.562456,-4367.215058,1532.190996,9326.594869
16404.562780,-1258.350101,766.095498,9030.512492
16404.563105,-1184.329507,1225.752797,9474.636058
16404.563429,-4515.256246,-919.314598,10140.821405
16404.563753,-3997.112087,-612.876398,6513.812290
16404.564078,666.185348,1378.971896,6365.771101
16404.564402,814.226536,689.485948,9918.759623
16404.564726,-2442.679609,76.609550,11325.150913
16404.565051,0.000000,76.609550,9326.594869
16404.565375,3182.885551,766.095498,9030.512492
16404.565699,3108.864956,-1149.143247,9474.636058
16404.566023,3256.906145,612.876398,8364.327145
16404.566348,5107.421000,3217.601092,8068.244768
16404.566672,5699.585753,2068.457845,11325.150913
16404.566996,3627.009116,-153.219100,11399.171507
16404.567321,4219.173869,76.609550,8660.409521
16404.567645,5033.400406,0.000000,8586.388927
16404.567969,2960.823768,0.000000,10732.986159
16404.568294,1628.453072,153.219100,12731.542202
16404.568618,3997.112087,0.000000,10214.842000
16404.568942,888.247130,-2451.505594,11399.171507
16404.569267,-3552.988522,-3217.601092,9844.739029
16404.569591,-2590.720797,-1532.190996,8586.388927
16404.569915,-1184.329507,-2068.457845,9992.780217
16404.570239,-2294.638420,-2757.943793,10807.006753
16404.570564,-3701.029710,-1608.800546,10362.883188
16404.570888,-2072.576638,153.219100,7254.018232
16404.571212,0.000000,612.876398,7920.203579
16404.571537,-1554.432478,306.438199,8068.244768
16404.571861,-2072.576638,383.047749,7920.203579
16404.572185,-962.267725,995.924147,7772.162391
16404.572510,370.102971,383.047749,8956.491898
16404.572834,-370.102971,76.609550,8956.491898
16404.573158,222.061783,842.705048,7105.977043
16404.573482,0.000000,1302.362347,8956.491898
16404.573807,-740.205942,383.047749,10881.027347
16404.574131,-666.185348,-383.047749,9992.780217
16404.574455,296.082377,842.705048,10066.800811
16404.574780,148.041188,1455.581446,10584.944971
16404.575104,-1258.350101,842.705048,9104.533087
16404.575428,666.185348,2221.676944,8438.347739
16404.575753,2294.638420,4136.915689,8956.491898
16404.576077,-148.041188,3983.696590,11325.150913
16404.576401,-1258.350101,2068.457845,9030.512492
16404.576726,-1184.329507,2451.505594,7920.203579
16404.577050,-1776.494261,1608.800546,8216.285956
16404.577374,-3701.029710,153.219100,8956.491898
16404.577698,-3552.988522,-1072.533697,8364.327145
16404.578023,-2368.659014,612.876398,8438.347739
16404.578347,-3775.050304,0.000000,11769.274478
16404.578671,-5477.523971,-1915.238745,10214.842000
16404.578996,-2442.679609,-2451.505594,7772.162391
16404.579320,74.020594,-536.266849,8290.306550
16404.579644,518.144159,1149.143247,9548.656652
16404.579969,2368.659014,1838.629195,9548.656652
16404.580293,4663.297435,2451.505594,8734.430116
16404.580617,6439.791695,2221.676944,8438.347739
16404.580941,5551.544565,2834.553343,9474.636058
16404.581266,5181.441594,2451.505594,8586.388927
16404.581590,5847.626942,1991.848295,8734.430116
16404.581914,5477.523971,383.047749,9844.739029
16404.582239,3701.029710,766.095498,9400.615463
16404.582563,3330.926739,1532.190996,8808.450710
16404.582887,2368.659014,153.219100,10658.965565
16404.583212,-1702.473667,-229.828649,11843.295072
16404.583536,-1184.329507,0.000000,9770.718434
16404.583860,-370.102971,-995.924147,9400.615463
16404.584185,-1850.514855,-2068.457845,7698.141797
16404.584509,-3775.050304,-459.657299,7772.162391
16404.584833,-962.267725,1455.581446,9030.512492
16404.585157,-1776.494261,842.705048,11177.109724
16404.585482,-5255.462188,-2451.505594,13101.645173
16404.585806,-3701.029710,-1608.800546,9548.656652
16404.586130,148.041188,919.314598,9178.553681
16404.586455,-888.247130,-153.219100,9844.739029
16404.586779,-3404.947333,0.000000,8512.368333
16404.587103,0.000000,1608.800546,7105.977043
16404.587428,2368.659014,2834.553343,8216.285956
16404.587752,1258.350101,1532.190996,9474.636058
16404.588076,-666.185348,2068.457845,8290.306550
16404.588400,1480.411884,2145.067394,7846.182985
16404.588725,2220.617826,2221.676944,9400.615463
16404.589049,1036.288319,689.485948,10584.944971
16404.589373,0.000000,1302.362347,7846.182985
16404.589698,296.082377,2757.943793,7105.977043
16404.590022,370.102971,1685.410096,8586.388927
16404.590346,-1480.411884,612.876398,10510.924376
16404.590671,-2220.617826,0.000000,9474.636058
16404.590995,-1184.329507,306.438199,8808.450710
16404.591319,-3330.926739,0.000000,9030.512492
16404.591643,-5477.523971,76.609550,7698.141797
16404.591968,-3108.864956,689.485948,8512.368333
16404.592292,-4071.132681,-383.047749,9400.615463
16404.592616,-5551.544565,-1149.143247,8734.430116
16404.592941,-2072.576638,-1608.800546,8216.285956
16404.593265,0.000000,0.000000,10732.986159
16404.593589,0.000000,-919.314598,11251.130318
16404.593914,222.061783,76.609550,11399.171507
16404.594238,3552.988522,-306.438199,11251.130318
16404.594562,3182.885551,459.657299,11769.274478
16404.594887,3256.906145,459.657299,10510.924376
16404.595211,4071.132681,383.047749,8956.491898
16404.595535,5181.441594,1072.533697,8586.388927
16404.595859,5551.544565,2068.457845,10436.903782
16404.596184,3849.070898,1608.800546,9622.677246
16404.596508,4219.173869,1532.190996,7624.121203
16404.596832,4737.318029,2987.772442,8438.347739
16404.597157,3701.029710,2757.943793,9622.677246
16404.597481,962.267725,689.485948,9992.780217
16404.597805,962.267725,0.000000,7698.141797
16404.598130,-296.082377,1225.752797,7920.203579
16404.598454,-2368.659014,76.609550,7698.141797
16404.598778,-1998.556043,-306.438199,7031.956449
16404.599102,-2072.576638,0.000000,9178.553681
16404.599427,-3701.029710,0.000000,10881.027347
16404.599751,-4441.235652,-1532.190996,10732.986159
16404.600075,-2220.617826,-689.485948,8142.265362
16404.600399,-1110.308913,383.047749,8290.306550
16404.600724,-592.164754,1072.533697,8956.491898
16404.601048,1036.288319,1991.848295,9474.636058
16404.601372,2812.782580,2068.457845,10881.027347
16404.601696,296.082377,1225.752797,11399.171507
16404.602020,-888.247130,995.924147,10658.965565
16404.602345,2072.576638,1762.019645,8734.430116
16404.602669,1554.432478,1225.752797,9474.636058
16404.602993,-740.205942,1838.629195,9918.759623
16404.603317,-666.185348,2987.772442,8512.368333
16404.603642,1480.411884,2604.724693,7476.080014
16404.603966,-962.267725,1455.581446,7772.162391
16404.604290,-3552.988522,919.314598,8364.327145
16404.604614,-2590.720797,1685.410096,8142.265362
16404.604939,-1036.288319,459.657299,9104.533087
16404.605263,-3478.967927,-1915.238745,11547.212695
16404.605587,-4367.215058,-1072.533697,9548.656652
16404.605911,-2368.659014,1302.362347,9252.574275
16404.606235,-814.226536,76.609550,10140.821405
16404.606560,-1036.288319,-459.657299,9696.697840
16404.606884,-1110.308913,536.266849,8438.347739
16404.607208,888.247130,1762.019645,7402.059420
16404.607532,592.164754,153.219100,9326.594869
16404.607857,-1036.288319,-229.828649,8216.285956
16404.608181,-296.082377,919.314598,8438.347739
16404.608505,518.144159,306.438199,9252.574275
16404.608829,-1702.473667,-2374.896044,9770.718434
16404.609153,-296.082377,-2374.896044,9178.553681
16404.609478,1850.514855,76.609550,10436.903782
16404.609802,0.000000,-1072.533697,11991.336260
16404.610126,-148.041188,-2374.896044,9400.615463
16404.610450,4441.235652,0.000000,8586.388927
16404.610775,6735.874072,2528.115143,9474.636058
16404.611099,3478.967927,1302.362347,11103.089130
16404.611423,2590.720797,536.266849,8882.471304
16404.611747,4293.194464,1685.410096,8438.347739
16404.612071,3478.967927,1302.362347,9770.718434
16404.612396,2072.576638,689.485948,9474.636058
16404.612720,2220.617826,612.876398,8290.306550
16404.613044,1554.432478,1302.362347,9030.512492
16404.613368,370.102971,919.314598,11769.274478
16404.613693,-1258.350101,0.000000,11399.171507
16404.614017,-1406.391290,-1762.019645,7402.059420
16404.614341,-1258.350101,-919.314598,8290.306550
16404.614665,-2738.761985,153.219100,9548.656652
16404.614990,-1924.535449,-536.266849,9474.636058
16404.615314,-740.205942,0.000000,8512.368333
16404.615638,-370.102971,1225.752797,9622.677246
16404.615962,-3034.844362,2451.505594,9548.656652
16404.616286,-1776.494261,689.485948,7994.224174
16404.616611,814.226536,1762.019645,7698.141797
16404.616935,0.000000,2068.457845,9326.594869
16404.617259,-444.123565,2298.286494,7846.182985
16404.617583,2442.679609,2681.334243,8142.265362
16404.617908,444.123565,2911.162892,9548.656652
16404.618232,-3330.926739,2757.943793,10362.883188
16404.618556,-2590.720797,1532.190996,8068.244768
16404.618880,0.000000,1149.143247,7920.203579
16404.619204,-1702.473667,1378.971896,9844.739029
16404.619529,-1702.473667,1838.629195,8216.285956
16404.619853,0.000000,1991.848295,9326.594869
16404.620177,-518.144159,1838.629195,10140.821405
16404.620501,-2442.679609,1225.752797,11621.233289
16404.620826,-2072.576638,229.828649,9252.574275
16404.621150,0.000000,766.095498,8512.368333
16404.621474,740.205942,76.609550,10214.842000
16404.621798,148.041188,0.000000,9178.553681
16404.622122,-888.247130,0.000000,7402.059420
16404.622447,592.164754,536.266849,8586.388927
16404.622771,0.000000,459.657299,10732.986159
16404.623095,-2220.617826,-1915.238745,9844.739029
16404.623419,-740.205942,-1762.019645,8216.285956
16404.623744,1332.370696,-383.047749,9918.759623
16404.624068,1554.432478,0.000000,9548.656652
16404.624392,1406.391290,-1225.752797,7402.059420
16404.624716,2294.638420,76.609550,7994.224174
16404.625041,1332.370696,919.314598,10066.800811
16404.625365,666.185348,-536.266849,11547.212695
16404.625689,3404.947333,-1915.238745,9252.574275
16404.626013,3182.885551,-1225.752797,9770.718434
16404.626337,1184.329507,76.609550,9918.759623
16404.626662,2294.638420,306.438199,9992.780217
16404.626986,4367.215058,689.485948,10584.944971
16404.627310,1924.535449,459.657299,9474.636058
16404.627634,-1776.494261,-1532.190996,8734.430116
16404.627959,1480.411884,-459.657299,6957.935855
16404.628283,1480.411884,0.000000,11547.212695
16404.628607,0.000000,-766.095498,11621.233289
16404.628931,-962.267725,-1762.019645,10362.883188
16404.629255,0.000000,842.705048,8068.244768
16404.629580,1332.370696,2221.676944,9992.780217
16404.629904,-370.102971,919.314598,9844.739029
16404.630228,-1332.370696,459.657299,8734.430116
16404.630552,-962.267725,1762.019645,9178.553681
16404.630877,592.164754,995.924147,9030.512492
16404.631201,-592.164754,842.705048,7920.203579
16404.631525,-1406.391290,2528.115143,7105.977043
16404.631849,-1850.514855,3370.820191,8808.450710
16404.632173,-2886.803174,1991.848295,10214.842000
16404.632498,-2516.700203,536.266849,9104.533087
16404.632822,-1480.411884,1991.848295,8586.388927
16404.633146,-1628.453072,2298.286494,7328.038826
