#time,accel_x,accel_y,accel_z
4610.536284,1110.308913,3140.991542,8956.491898
4610.536599,222.061783,2451.505594,8882.471304
4610.536913,-222.061783,2068.457845,8956.491898
4610.537227,-222.061783,1378.971896,9252.574275
4610.537542,0.000000,1149.143247,9696.697840
4610.537856,0.000000,1072.533697,9770.718434
4610.538171,148.041188,842.705048,9622.677246
4610.538485,518.144159,1072.533697,10362.883188
4610.538799,1332.370696,536.266849,10362.883188
4610.539114,1628.453072,995.924147,10066.800811
4610.539428,1776.494261,995.924147,10140.821405
4610.539742,2146.597232,1608.800546,9992.780217
4610.540057,2442.679609,1455.581446,9622.677246
4610.540371,2664.741391,1532.190996,9326.594869
4610.540686,3108.864956,1762.019645,8438.347739
4610.541000,2516.700203,1072.533697,8586.388927
4610.541314,2220.617826,1915.238745,8808.450710
4610.541629,2664.741391,2298.286494,9178.553681
4610.541943,2368.659014,1685.410096,9770.718434
4610.542258,2220.617826,1378.971896,9696.697840
4610.542572,1850.514855,1302.362347,9918.759623
4610.542886,1628.453072,919.314598,9474.636058
4610.543201,1702.473667,919.314598,9844.739029
4610.543515,1702.473667,1532.190996,9770.718434
4610.543829,2220.617826,2068.457845,9622.677246
4610.544144,2368.659014,1915.238745,9548.656652
4610.544458,2442.679609,2757.943793,9622.677246
4610.544773,2812.782580,3217.601092,9474.636058
4610.545087,3552.988522,3600.648841,9474.636058
4610.545401,3627.009116,3983.696590,9252.574275
4610.545716,3701.029710,4673.182538,9178.553681
4610.546030,3627.009116,4596.572988,8956.491898
4610.546345,3330.926739,4673.182538,8956.491898
4610.546659,3330.926739,4826.401637,8882.471304
4610.546973,3552.988522,4749.792088,9178.553681
4610.547288,3330.926739,4903.011187,9030.512492
4610.547602,3256.906145,4903.011187,9178.553681
4610.547916,3256.906145,4903.011187,9104.533087
4610.548231,3182.885551,4213.525239,8660.409521
4610.548545,3478.967927,4903.011187,9104.533087
4610.548860,3775.050304,5745.716235,9326.594869
4610.549174,3552.988522,6128.763984,9474.636058
4610.549488,3552.988522,5745.716235,9474.636058
4610.549803,3034.844362,5745.716235,9252.574275
4610.550117,3034.844362,5515.887586,8734.430116
4610.550432,2960.823768,5745.716235,8882.471304
4610.550746,2516.700203,5132.839837,9104.533087
4610.551060,2368.659014,5362.668486,9178.553681
4610.551375,2442.679609,5056.230287,9178.553681
4610.551689,1998.556043,4903.011187,8882.471304
4610.552004,1406.391290,4443.353888,8586.388927
4610.552318,1110.308913,4290.134789,8660.409521
4610.552632,962.267725,3907.087040,8216.285956
4610.552947,962.267725,4290.134789,8438.347739
4610.553261,740.205942,3217.601092,8364.327145
4610.553575,518.144159,2987.772442,8882.471304
4610.553890,1480.411884,2987.772442,8734.430116
4610.554204,2368.659014,3370.820191,9178.553681
4610.554519,3256.906145,3753.867940,9992.780217
4610.554833,4145.153275,3677.258390,9992.780217
4610.555147,4811.338623,4443.353888,10214.842000
4610.555462,4071.132681,2298.286494,10436.903782
4610.555776,4515.256246,2374.896044,11399.171507
4610.556091,3701.029710,2374.896044,11251.130318
4610.556405,3034.844362,1991.848295,11029.068536
4610.556719,2146.597232,1378.971896,11103.089130
4610.557034,1184.329507,459.657299,10436.903782
4610.557348,592.164754,459.657299,9104.533087
4610.557663,666.185348,306.438199,8586.388927
4610.557977,962.267725,1302.362347,7994.224174
4610.558291,1480.411884,1838.629195,7624.121203
4610.558606,2072.576638,2911.162892,7179.997637
4610.558920,2072.576638,3140.991542,6957.935855
4610.559235,1850.514855,2757.943793,7105.977043
4610.559549,1110.308913,2068.457845,7550.100608
4610.559864,0.000000,1149.143247,8364.327145
4610.560178,-1184.329507,153.219100,9770.718434
4610.560493,-2590.720797,-1532.190996,11325.150913
4610.560807,-3478.967927,-2987.772442,11473.192101
4610.561122,-3404.947333,-3753.867940,11103.089130
4610.561436,-2516.700203,-2757.943793,11325.150913
4610.561750,74.020594,-1225.752797,11547.212695
4610.562065,2738.761985,1302.362347,11399.171507
4610.562379,5403.503377,3064.381992,10732.986159
4610.562694,7624.121203,5209.449386,9844.739029
4610.563008,8142.265362,6511.811733,8290.306550
4610.563323,8142.265362,6818.249932,8142.265362
4610.563637,7105.977043,6971.469032,8438.347739
4610.563952,5107.421000,5362.668486,9178.553681
4610.564266,3849.070898,3217.601092,8438.347739
4610.564581,1776.494261,1762.019645,8586.388927
4610.564895,-518.144159,1072.533697,8660.409521
4610.565209,-1554.432478,459.657299,8956.491898
4610.565524,-962.267725,1532.190996,8882.471304
4610.565838,-74.020594,1915.238745,9400.615463
4610.566153,148.041188,2604.724693,9252.574275
4610.566467,740.205942,3064.381992,8364.327145
4610.566782,962.267725,3294.210641,7550.100608
4610.567096,1110.308913,3983.696590,7994.224174
4610.567411,2072.576638,4903.011187,8956.491898
4610.567725,2294.638420,4596.572988,9178.553681
4610.568040,2590.720797,4749.792088,10288.862594
4610.568354,2886.803174,4213.525239,10436.903782
4610.568668,2812.782580,4443.353888,9844.739029
4610.568983,2516.700203,3677.258390,9992.780217
4610.569297,1776.494261,2757.943793,10436.903782
4610.569612,1110.308913,3370.820191,9918.759623
4610.569926,1554.432478,2604.724693,8956.491898
4610.570241,2368.659014,3600.648841,9400.615463
4610.570555,2146.597232,3140.991542,9474.636058
4610.570870,2886.803174,3294.210641,8956.491898
4610.571184,3256.906145,2987.772442,8142.265362
4610.571499,2442.679609,3677.258390,8808.450710
4610.571813,1998.556043,3140.991542,8586.388927
4610.572127,1258.350101,2068.457845,8660.409521
4610.572442,444.123565,995.924147,7846.182985
4610.572756,-666.185348,919.314598,9474.636058
4610.573071,-2294.638420,459.657299,10955.047942
4610.573385,-2072.576638,-689.485948,10288.862594
4610.573700,-1850.514855,-919.314598,10140.821405
4610.574014,-2886.803174,-1149.143247,10807.006753
4610.574329,-3923.091493,-1762.019645,10362.883188
4610.574643,-4293.194464,-2221.676944,9104.533087
4610.574958,-3478.967927,-1532.190996,8808.450710
4610.575272,-2294.638420,-383.047749,9326.594869
4610.575586,-962.267725,-536.266849,8956.491898
4610.575901,222.061783,0.000000,8512.368333
4610.576215,1776.494261,1149.143247,8068.244768
4610.576530,2368.659014,1685.410096,7624.121203
4610.576844,1998.556043,689.485948,7476.080014
4610.577159,1776.494261,-153.219100,8512.368333
4610.577473,962.267725,-383.047749,8660.409521
4610.577788,-148.041188,-995.924147,8734.430116
4610.578102,-1480.411884,-2374.896044,9548.656652
4610.578416,-2146.597232,-2911.162892,11843.295072
4610.578731,-1406.391290,-2757.943793,12953.603985
4610.579045,-1628.453072,-5209.449386,12879.583391
4610.579360,-3108.864956,-5209.449386,11991.336260
4610.579674,-3552.988522,-4443.353888,11251.130318
4610.579989,-2072.576638,-2528.115143,9400.615463
4610.580303,-370.102971,-383.047749,8660.409521
4610.580618,814.226536,1225.752797,8438.347739
4610.580932,1850.514855,2528.115143,7772.162391
4610.581247,3108.864956,3830.477490,6069.688724
4610.581561,3182.885551,4366.744339,6069.688724
4610.581875,2368.659014,3907.087040,5921.647536
4610.582190,1184.329507,2451.505594,6513.812290
4610.582504,222.061783,1455.581446,7105.977043
4610.582819,-1184.329507,0.000000,8734.430116
4610.583133,-2664.741391,-1608.800546,11103.089130
4610.583448,-2738.761985,-2834.553343,11769.274478
4610.583762,-2368.659014,-3294.210641,12879.583391
4610.584077,-2368.659014,-3140.991542,14730.098246
4610.584391,-2368.659014,-3294.210641,14211.954086
4610.584706,-814.226536,-2451.505594,11991.336260
4610.585020,1850.514855,-306.438199,9918.759623
4610.585334,2812.782580,2911.162892,9696.697840
4610.585649,4737.318029,5592.497135,8660.409521
4610.585963,7254.018232,7660.954980,7179.997637
4610.586278,8586.388927,8580.269578,6587.832884
4610.586592,7994.224174,9193.145976,6365.771101
4610.586907,5551.544565,7890.783629,5181.441594
4610.587221,3701.029710,6358.592633,5181.441594
4610.587536,1258.350101,5056.230287,5107.421000
4610.587850,-2146.597232,3600.648841,6809.894666
4610.588165,-5477.523971,76.609550,7994.224174
4610.588479,-6661.853478,-919.314598,9252.574275
4610.588793,-7328.038826,-2451.505594,11029.068536
4610.589108,-8660.409521,-4366.744339,13397.727550
4610.589422,-8808.450710,-5592.497135,13323.706956
4610.589737,-6883.915261,-5286.058936,12213.398043
4610.590051,-3256.906145,-2528.115143,12657.521608
4610.590366,148.041188,383.047749,11177.109724
4610.590680,3182.885551,2834.553343,9622.677246
4610.590995,6587.832884,5745.716235,8068.244768
4610.591309,9326.594869,8350.440928,6735.874072
4610.591624,9844.739029,9806.022374,6217.729913
4610.591938,8586.388927,8120.612279,5625.565159
4610.592252,6957.935855,6818.249932,5625.565159
4610.592567,4367.215058,5898.935335,6365.771101
4610.592881,74.020594,2221.676944,7550.100608
4610.593196,-3923.091493,-2451.505594,8882.471304
4610.593510,-6735.874072,-4060.306139,11029.068536
4610.593825,-8882.471304,-6511.811733,13249.686362
4610.594139,-9918.759623,-8120.612279,14508.036463
4610.594454,-10362.883188,-9499.584175,14285.974681
4610.594768,-8586.388927,-9652.803275,12879.583391
4610.595083,-5477.523971,-6818.249932,12657.521608
4610.595397,-1702.473667,-2681.334243,10955.047942
4610.595711,2442.679609,306.438199,9030.512492
4610.596026,6957.935855,3907.087040,7698.141797
4610.596340,10288.862594,6435.202183,6365.771101
4610.596655,11251.130318,8120.612279,5107.421000
4610.596969,10510.924376,7890.783629,4589.276840
4610.597284,9548.656652,7124.688131,3923.091493
4610.597598,6365.771101,5439.278036,5181.441594
4610.597913,1924.535449,1991.848295,7994.224174
4610.598227,-2442.679609,-1072.533697,9326.594869
4610.598542,-5847.626942,-4903.011187,10658.965565
4610.598856,-8808.450710,-7354.516781,13027.624579
4610.599170,-10584.944971,-9116.536426,14582.057057
4610.599485,-10807.006753,-10112.460574,14508.036463
4610.599799,-9326.594869,-9729.412825,13841.851115
4610.600114,-6513.812290,-7048.078582,12583.501014
4610.600428,-3034.844362,-3140.991542,11695.253884
4610.600743,1998.556043,1149.143247,9474.636058
4610.601057,7328.038826,4749.792088,7402.059420
4610.601372,10881.027347,9269.755526,6661.853478
4610.601686,12361.439231,10648.727422,5329.482782
4610.602000,11917.315666,11184.994271,4441.235652
4610.602315,10955.047942,11031.775171,4145.153275
4610.602629,8142.265362,8350.440928,5329.482782
4610.602944,3627.009116,5286.058936,7994.224174
4610.603258,-1480.411884,459.657299,9252.574275
4610.603573,-6365.771101,-2757.943793,10436.903782
4610.603887,-10807.006753,-6052.154434,12657.521608
4610.604202,-12509.480420,-8120.612279,14434.015869
4610.604516,-12435.459826,-7890.783629,14285.974681
4610.604831,-11029.068536,-8120.612279,12657.521608
4610.605145,-8364.327145,-5439.278036,11843.295072
4610.605459,-4515.256246,-229.828649,11251.130318
4610.605774,1110.308913,2911.162892,8586.388927
4610.606088,7402.059420,7584.345430,6291.750507
4610.606403,10658.965565,11338.213370,5773.606348
4610.606717,11177.109724,12793.794817,4737.318029
4610.607032,12435.459826,13483.280765,3627.009116
4610.607346,11695.253884,12257.527968,3478.967927
4610.607661,7772.162391,10189.070123,5847.626942
4610.607975,3330.926739,5592.497135,8068.244768
4610.608290,-1332.370696,1149.143247,8586.388927
4610.608604,-6957.935855,-2298.286494,10658.965565
4610.608918,-11399.171507,-6281.983084,14582.057057
4610.609233,-13027.624579,-8350.440928,15026.180623
4610.609547,-13101.645173,-10189.070123,13915.871710
4610.609862,-11769.274478,-9422.974625,14582.057057
4610.610176,-8586.388927,-5975.544884,13471.748144
4610.610491,-3997.112087,-2834.553343,11991.336260
4610.610805,2368.659014,1378.971896,8660.409521
4610.611120,7772.162391,5745.716235,6291.750507
4610.611434,11251.130318,9576.193725,5033.400406
4610.611749,12361.439231,11031.775171,3775.050304
4610.612063,13101.645173,12257.527968,3182.885551
4610.612377,11991.336260,11721.261119,4219.173869
4610.612692,8438.347739,8350.440928,6735.874072
4610.613006,3775.050304,2528.115143,7550.100608
4610.613321,-1702.473667,-1378.971896,9104.533087
4610.613635,-7105.977043,-5209.449386,11917.315666
4610.613950,-11621.233289,-9039.926876,14359.995275
4610.614264,-12879.583391,-10495.508323,14656.077652
4610.614579,-11843.295072,-12027.699319,14508.036463
4610.614893,-10510.924376,-10035.851024,14656.077652
4610.615208,-7105.977043,-7277.907231,13397.727550
4610.615522,-1554.432478,-3370.820191,10881.027347
4610.615836,4441.235652,1302.362347,8290.306550
4610.616151,9030.512492,6511.811733,6883.915261
4610.616465,12657.521608,9346.365076,4367.215058
4610.616780,14063.912898,11031.775171,2738.761985
4610.617094,12879.583391,12257.527968,3256.906145
4610.617409,10881.027347,10801.946522,4811.338623
4610.617723,7105.977043,7124.688131,7031.956449
4610.618038,3034.844362,1991.848295,8068.244768
4610.618352,-3034.844362,-1991.848295,10362.883188
4610.618667,-9178.553681,-6128.763984,13471.748144
4610.618981,-13545.768739,-9039.926876,14285.974681
4610.619295,-14063.912898,-10418.898773,13915.871710
4610.619610,-12805.562797,-10648.727422,13989.892304
4610.619924,-11103.089130,-8810.098227,14211.954086
4610.620239,-7179.997637,-5286.058936,11547.212695
4610.620553,-2146.597232,-1072.533697,8956.491898
4610.620868,3330.926739,3753.867940,7105.977043
4610.621182,8438.347739,8886.707777,5995.668130
4610.621497,11473.192101,10725.336972,4811.338623
4610.621811,11991.336260,11568.042020,3849.070898
4610.622125,11251.130318,11951.089769,4737.318029
4610.622440,8512.368333,9499.584175,5921.647536
4610.622754,5033.400406,5745.716235,7624.121203
4610.623069,1036.288319,2145.067394,8438.347739
4610.623383,-3552.988522,-689.485948,11547.212695
4610.623698,-9252.574275,-4596.572988,14656.077652
4610.624012,-12361.439231,-8197.221829,13249.686362
4610.624327,-12435.459826,-9193.145976,12657.521608
4610.624641,-11843.295072,-8350.440928,12805.562797
4610.624956,-8808.450710,-5745.716235,13027.624579
4610.625270,-4071.132681,-2221.676944,11769.274478
4610.625584,1036.288319,842.705048,9030.512492
4610.625899,5995.668130,4443.353888,6735.874072
4610.626213,9622.677246,9346.365076,5847.626942
4610.626528,11843.295072,11031.775171,3775.050304
4610.626842,12953.603985,13023.623466,3404.947333
4610.627157,11251.130318,11721.261119,4441.235652
4610.627471,8438.347739,8810.098227,6513.812290
4610.627786,4959.379811,5056.230287,7994.224174
4610.628100,592.164754,1072.533697,9252.574275
4610.628415,-4441.235652,-1838.629195,11843.295072
4610.628729,-9104.533087,-6741.640382,13767.830521
4610.629043,-11251.130318,-9039.926876,14582.057057
4610.629358,-10214.842000,-9422.974625,13767.830521
4610.629672,-9474.636058,-9039.926876,13767.830521
4610.629987,-7254.018232,-5669.106685,13471.748144
4610.630301,-2738.761985,-2757.943793,10140.821405
4610.630616,2664.741391,1302.362347,7846.182985
4610.630930,6661.853478,5439.278036,7105.977043
4610.631245,10066.800811,7814.174080,5551.544565
4610.631559,12657.521608,10035.851024,4293.194464
4610.631874,11547.212695,10418.898773,3478.967927
4610.632188,10066.800811,9806.022374,6143.709319
4610.632502,6365.771101,6741.640382,9030.512492
4610.632817,3256.906145,1685.410096,8142.265362
4610.633131,-1036.288319,-1149.143247,10362.883188
4610.633446,-6957.935855,-5592.497135,13175.665768
4610.633760,-11843.295072,-8656.879127,14508.036463
4610.634075,-12953.603985,-9039.926876,13471.748144
4610.634389,-11991.336260,-10572.117872,11843.295072
4610.634704,-10584.944971,-8197.221829,13767.830521
4610.635018,-7031.956449,-4366.744339,12509.480420
4610.635333,-1554.432478,-612.876398,8808.450710
4610.635647,3701.029710,2604.724693,6587.832884
4610.635961,7254.018232,6894.859482,6513.812290
4610.636276,10288.862594,10572.117872,4515.256246
4610.636590,12213.398043,10801.946522,2812.782580
4610.636905,11547.212695,11491.432470,3775.050304
4610.637219,8438.347739,9269.755526,6217.729913
4610.637534,5329.482782,5515.887586,7920.203579
4610.637848,1998.556043,1991.848295,8956.491898
4610.638163,-2812.782580,-1685.410096,11251.130318
4610.638477,-8290.306550,-5362.668486,13915.871710
4610.638792,-12287.418637,-8427.050478,14804.118840
4610.639106,-12731.542202,-9576.193725,12805.562797
4610.639420,-11769.274478,-9193.145976,12805.562797
4610.639735,-10066.800811,-7354.516781,12953.603985
4610.640049,-6587.832884,-3600.648841,11029.068536
4610.640364,-1702.473667,842.705048,8142.265362
4610.640678,2812.782580,3600.648841,6735.874072
4610.640993,5921.647536,7354.516781,5921.647536
4610.641307,9178.553681,8503.660028,3997.112087
4610.641622,10510.924376,9269.755526,3849.070898
4610.641936,9178.553681,9422.974625,5255.462188
4610.642251,6513.812290,6511.811733,7550.100608
4610.642565,3404.947333,3217.601092,9696.697840
4610.642879,888.247130,0.000000,10658.965565
4610.643194,-2812.782580,-2757.943793,12583.501014
4610.643508,-7254.018232,-6511.811733,13915.871710
4610.643823,-9474.636058,-8733.488677,13915.871710
4610.644137,-8956.491898,-8273.831378,12361.439231
4610.644452,-7550.100608,-6971.469032,12879.583391
4610.644766,-4515.256246,-4443.353888,12805.562797
4610.645081,-370.102971,-842.705048,10807.006753
4610.645395,4219.173869,2451.505594,8068.244768
4610.645709,7254.018232,5822.325785,6069.688724
4610.646024,9400.615463,8120.612279,4885.359217
4610.646338,10881.027347,9499.584175,3404.947333
4610.646653,11251.130318,10342.289223,3478.967927
4610.646967,8438.347739,9346.365076,4959.379811
4610.647282,4367.215058,6281.983084,6883.915261
4610.647596,1184.329507,2451.505594,7994.224174
4610.647911,-2368.659014,-536.266849,10288.862594
4610.648225,-5625.565159,-4213.525239,12509.480420
4610.648540,-9030.512492,-8044.002729,14137.933492
4610.648854,-10807.006753,-8963.317327,13693.809927
4610.649168,-9770.718434,-8656.879127,12731.542202
4610.649483,-7476.080014,-6435.202183,12953.603985
4610.649797,-3552.988522,-3064.381992,11695.253884
4610.650112,1702.473667,995.924147,10288.862594
4610.650426,5847.626942,4749.792088,7698.141797
4610.650741,8808.450710,8580.269578,6587.832884
4610.651055,10584.944971,9806.022374,4885.359217
4610.651370,11473.192101,9806.022374,4515.256246
4610.651684,10214.842000,9806.022374,5255.462188
4610.651999,6587.832884,7124.688131,7105.977043
4610.652313,2220.617826,4290.134789,8586.388927
4610.652627,-1480.411884,-383.047749,9844.739029
4610.652942,-5551.544565,-2528.115143,11547.212695
4610.653256,-9474.636058,-6358.592633,13915.871710
4610.653571,-12139.377449,-8886.707777,13619.789333
4610.653885,-11695.253884,-9422.974625,11843.295072
4610.654200,-10288.862594,-7507.735880,12583.501014
4610.654514,-7994.224174,-4903.011187,12657.521608
4610.654829,-3330.926739,-1915.238745,10066.800811
4610.655143,1998.556043,1991.848295,7698.141797
4610.655458,5773.606348,5515.887586,6883.915261
4610.655772,8660.409521,9039.926876,6217.729913
4610.656086,10362.883188,9116.536426,4367.215058
4610.656401,10955.047942,9652.803275,4441.235652
4610.656715,8956.491898,8427.050478,5699.585753
4610.657030,4811.338623,5745.716235,7920.203579
4610.657344,962.267725,2681.334243,9104.533087
4610.657659,-2368.659014,-689.485948,10807.006753
4610.657973,-6069.688724,-3753.867940,13101.645173
4610.658288,-9326.594869,-7660.954980,13989.892304
4610.658602,-10955.047942,-9193.145976,13619.789333
4610.658917,-10214.842000,-9269.755526,11991.336260
4610.659231,-8956.491898,-6435.202183,12435.459826
4610.659545,-5995.668130,-3830.477490,11473.192101
4610.659860,-1110.308913,-229.828649,9474.636058
4610.660174,3552.988522,2604.724693,7920.203579
4610.660489,7328.038826,5439.278036,7031.956449
4610.660803,9548.656652,8503.660028,5255.462188
4610.661118,11029.068536,9116.536426,4367.215058
4610.661432,11103.089130,9806.022374,5551.544565
4610.661746,8586.388927,7737.564530,7105.977043
4610.662060,4737.318029,4673.182538,8956.491898
4610.662375,1036.288319,1225.752797,9844.739029
4610.662689,-2220.617826,-1915.238745,10881.027347
4610.663003,-5847.626942,-5286.058936,12583.501014
4610.663317,-8586.388927,-7354.516781,13397.727550
4610.663632,-9326.594869,-7737.564530,12287.418637
4610.663946,-8882.471304,-7277.907231,11769.274478
4610.664260,-7772.162391,-4903.011187,11621.233289
4610.664575,-3923.091493,-1608.800546,10362.883188
4610.664889,148.041188,1455.581446,8216.285956
4610.665203,4367.215058,3907.087040,6587.832884
4610.665517,7698.141797,7048.078582,7105.977043
4610.665832,10140.821405,8810.098227,5181.441594
4610.666146,11473.192101,9039.926876,4737.318029
4610.666460,10732.986159,9729.412825,5921.647536
4610.666775,7698.141797,8044.002729,7920.203579
4610.667089,4293.194464,4979.620737,8882.471304
4610.667403,-296.082377,1455.581446,9918.759623
4610.667717,-4071.132681,-2374.896044,11843.295072
4610.668032,-7624.121203,-5439.278036,13841.851115
4610.668346,-9844.739029,-7354.516781,13841.851115
4610.668660,-9992.780217,-7814.174080,12657.521608
4610.668974,-9400.615463,-6128.763984,12953.603985
4610.669289,-7179.997637,-4213.525239,12583.501014
4610.669603,-3552.988522,-1072.533697,10066.800811
4610.669917,0.000000,2451.505594,7550.100608
4610.670232,3552.988522,4443.353888,5699.585753
4610.670546,6809.894666,8273.831378,5033.400406
4610.670860,8956.491898,9422.974625,4293.194464
4610.671174,9696.697840,10112.460574,4441.235652
4610.671489,8438.347739,9576.193725,6143.709319
4610.671803,5033.400406,6281.983084,7105.977043
4610.672117,1332.370696,3294.210641,8364.327145
4610.672432,-2220.617826,-306.438199,9918.759623
4610.672746,-6365.771101,-3830.477490,12065.356855
4610.673060,-8660.409521,-6511.811733,13323.706956
4610.673374,-9992.780217,-7660.954980,13989.892304
4610.673689,-9770.718434,-8044.002729,13027.624579
4610.674003,-7994.224174,-6665.030833,12361.439231
4610.674317,-4515.256246,-3524.039291,11843.295072
4610.674631,-222.061783,-459.657299,10066.800811
4610.674946,3627.009116,3064.381992,8216.285956
4610.675260,6365.771101,5362.668486,6957.935855
4610.675574,8808.450710,7814.174080,5477.523971
4610.675889,10881.027347,8963.317327,4589.276840
4610.676203,10510.924376,9729.412825,4959.379811
4610.676517,8216.285956,7431.126331,6513.812290
4610.676831,4441.235652,4903.011187,7772.162391
4610.677146,1036.288319,1608.800546,8216.285956
4610.677460,-3478.967927,-2451.505594,10584.944971
4610.677774,-7105.977043,-5822.325785,13471.748144
4610.678089,-9548.656652,-8197.221829,14063.912898
4610.678403,-10214.842000,-8733.488677,13619.789333
4610.678717,-8882.471304,-8197.221829,13175.665768
4610.679031,-7105.977043,-5898.935335,12509.480420
4610.679346,-2886.803174,-3447.429741,10658.965565
4610.679660,2072.576638,76.609550,8438.347739
4610.679974,5107.421000,4290.134789,7772.162391
4610.680288,7476.080014,7354.516781,6365.771101
4610.680603,9696.697840,9346.365076,4811.338623
4610.680917,10955.047942,9729.412825,3923.091493
4610.681231,10214.842000,8963.317327,4293.194464
4610.681546,7105.977043,6818.249932,6957.935855
4610.681860,2516.700203,3907.087040,8734.430116
4610.682174,-2146.597232,383.047749,9918.759623
4610.682488,-6143.709319,-3983.696590,11251.130318
4610.682803,-9622.677246,-6588.421283,12731.542202
4610.683117,-11769.274478,-7354.516781,13471.748144
4610.683431,-10807.006753,-8503.660028,11991.336260
4610.683746,-9252.574275,-5975.544884,12879.583391
4610.684060,-6291.750507,-4290.134789,11843.295072
4610.684374,-1628.453072,-1532.190996,10140.821405
4610.684688,2072.576638,2528.115143,8290.306550
4610.685003,4589.276840,5132.839837,7624.121203
4610.685317,7624.121203,8810.098227,7328.038826
4610.685631,9696.697840,8580.269578,5551.544565
4610.685945,10510.924376,8350.440928,5773.606348
4610.686260,8734.430116,8580.269578,5847.626942
4610.686574,5255.462188,6435.202183,7476.080014
4610.686888,1776.494261,3677.258390,9030.512492
4610.687203,-1702.473667,536.266849,9918.759623
4610.687517,-5699.585753,-3294.210641,11917.315666
4610.687831,-8660.409521,-6511.811733,12731.542202
4610.688145,-10214.842000,-6511.811733,12287.418637
4610.688460,-9992.780217,-6894.859482,11843.295072
4610.688774,-7772.162391,-4979.620737,11843.295072
4610.689088,-4589.276840,-2604.724693,11251.130318
4610.689403,222.061783,-383.047749,9622.677246
4610.689717,3775.050304,2987.772442,7254.018232
4610.690031,6291.750507,6281.983084,6735.874072
4610.690345,7994.224174,8810.098227,5551.544565
4610.690660,9844.739029,8886.707777,4737.318029
4610.690974,9992.780217,8810.098227,5847.626942
4610.691288,8142.265362,7354.516781,6735.874072
4610.691602,4663.297435,4596.572988,8660.409521
4610.691917,1036.288319,1455.581446,9178.553681
4610.692231,-2664.741391,-1838.629195,10584.944971
4610.692545,-6217.729913,-4903.011187,13767.830521
4610.692860,-8290.306550,-8120.612279,14211.954086
4610.693174,-9252.574275,-7967.393179,12805.562797
4610.693488,-8512.368333,-7660.954980,11769.274478
4610.693802,-6883.915261,-5362.668486,12361.439231
4610.694117,-2294.638420,-2145.067394,11103.089130
4610.694431,2664.741391,612.876398,8882.471304
4610.694745,5699.585753,3830.477490,7846.182985
4610.695060,7328.038826,6511.811733,6883.915261
4610.695374,7846.182985,7890.783629,5255.462188
4610.695688,9178.553681,8273.831378,4441.235652
4610.696002,8660.409521,8427.050478,5181.441594
4610.696317,5773.606348,5975.544884,7550.100608
4610.696631,2590.720797,2681.334243,9104.533087
4610.696945,-962.267725,0.000000,9178.553681
4610.697259,-4589.276840,-3217.601092,10807.006753
4610.697574,-7772.162391,-6358.592633,12879.583391
4610.697888,-9178.553681,-6894.859482,13767.830521
4610.698202,-9400.615463,-7354.516781,12287.418637
4610.698517,-8216.285956,-5515.887586,11917.315666
4610.698831,-5773.606348,-3600.648841,11547.212695
4610.699145,-1850.514855,-1532.190996,8882.471304
4610.699459,2368.659014,2298.286494,6957.935855
4610.699774,4737.318029,5362.668486,6587.832884
4610.700088,6439.791695,8197.221829,7402.059420
4610.700402,7402.059420,7737.564530,6809.894666
4610.700717,7624.121203,7967.393179,5625.565159
4610.701031,5847.626942,6588.421283,7105.977043
4610.701345,2664.741391,3753.867940,8438.347739
4610.701659,0.000000,1378.971896,9696.697840
4610.701974,-2960.823768,-1225.752797,10881.027347
4610.702288,-5773.606348,-3370.820191,11917.315666
4610.702602,-8438.347739,-5822.325785,13027.624579
4610.702916,-9474.636058,-6511.811733,12879.583391
4610.703231,-8586.388927,-6281.983084,11621.233289
4610.703545,-6513.812290,-4290.134789,11991.336260
4610.703859,-3256.906145,-2757.943793,10807.006753
4610.704174,1702.473667,0.000000,8882.471304
4610.704488,5625.565159,3983.696590,7698.141797
4610.704802,7846.182985,7431.126331,6883.915261
4610.705116,8808.450710,8427.050478,5995.668130
4610.705431,9178.553681,8120.612279,5329.482782
4610.705745,8660.409521,8350.440928,6291.750507
4610.706059,5921.647536,6281.983084,7031.956449
4610.706374,2664.741391,3140.991542,8586.388927
4610.706688,-592.164754,0.000000,8956.491898
4610.707002,-3775.050304,-2451.505594,10732.986159
4610.707316,-7254.018232,-4673.182538,12583.501014
4610.707631,-8734.430116,-6971.469032,12731.542202
4610.707945,-8438.347739,-6971.469032,12287.418637
4610.708259,-7994.224174,-6435.202183,11917.315666
4610.708573,-5477.523971,-3677.258390,11991.336260
4610.708888,-1480.411884,-2221.676944,9696.697840
4610.709202,2960.823768,842.705048,8068.244768
4610.709516,6735.874072,5515.887586,7698.141797
4610.709831,8956.491898,7967.393179,6957.935855
4610.710145,10436.903782,8656.879127,5921.647536
4610.710459,10510.924376,8120.612279,5773.606348
4610.710773,8438.347739,7354.516781,7179.997637
4610.711088,4959.379811,5132.839837,9104.533087
4610.711402,1554.432478,1685.410096,9474.636058
4610.711716,-1702.473667,-383.047749,11177.109724
4610.712031,-5551.544565,-3677.258390,11695.253884
4610.712345,-8142.265362,-6894.859482,11695.253884
4610.712659,-9474.636058,-7507.735880,11251.130318
4610.712973,-9326.594869,-6588.421283,11251.130318
4610.713288,-8216.285956,-4060.306139,11843.295072
4610.713602,-5625.565159,-2834.553343,11177.109724
4610.713916,-1554.432478,-383.047749,9252.574275
4610.714230,2960.823768,2757.943793,7105.977043
4610.714545,5995.668130,5439.278036,6217.729913
4610.714859,7624.121203,7584.345430,6217.729913
4610.715173,8660.409521,8273.831378,5847.626942
4610.715488,8364.327145,8120.612279,6439.791695
4610.715802,5921.647536,6281.983084,7254.018232
4610.716116,2590.720797,3600.648841,8882.471304
4610.716430,-888.247130,1762.019645,9104.533087
4610.716745,-3404.947333,-1455.581446,10140.821405
4610.717059,-5699.585753,-4213.525239,12139.377449
4610.717373,-8364.327145,-5975.544884,13101.645173
4610.717688,-8808.450710,-7048.078582,11917.315666
4610.718002,-7994.224174,-6435.202183,11547.212695
4610.718316,-6809.894666,-3830.477490,11695.253884
4610.718630,-3404.947333,-1685.410096,11547.212695
4610.718945,888.247130,995.924147,9252.574275
4610.719259,4737.318029,3217.601092,6883.915261
4610.719573,7179.997637,6281.983084,6661.853478
4610.719887,8438.347739,8197.221829,5773.606348
4610.720202,8660.409521,7737.564530,5329.482782
4610.720516,7772.162391,8197.221829,7031.956449
4610.720830,5033.400406,5439.278036,8956.491898
4610.721145,1776.494261,2451.505594,10140.821405
4610.721459,-1332.370696,-383.047749,9696.697840
4610.721773,-4515.256246,-3064.381992,10214.842000
4610.722087,-7031.956449,-5209.449386,12139.377449
4610.722402,-8512.368333,-5975.544884,12657.521608
4610.722716,-7698.141797,-6281.983084,12139.377449
4610.723030,-6291.750507,-4979.620737,11843.295072
4610.723345,-4367.215058,-2068.457845,11843.295072
4610.723659,-370.102971,-229.828649,9992.780217
4610.723973,3775.050304,2681.334243,7624.121203
4610.724287,6439.791695,4519.963438,7105.977043
4610.724602,8808.450710,7431.126331,7105.977043
4610.724916,10436.903782,9193.145976,5773.606348
4610.725230,10510.924376,9116.536426,5255.462188
4610.725545,8438.347739,8197.221829,6661.853478
4610.725859,5107.421000,6205.373534,8364.327145
4610.726173,814.226536,3294.210641,9178.553681
4610.726487,-2664.741391,-306.438199,9696.697840
4610.726802,-6217.729913,-2987.772442,11547.212695
4610.727116,-8290.306550,-7277.907231,11621.233289
4610.727430,-9548.656652,-7277.907231,12435.459826
4610.727744,-9104.533087,-6511.811733,11991.336260
4610.728059,-6957.935855,-4519.963438,11917.315666
4610.728373,-3701.029710,-1685.410096,11547.212695
4610.728687,296.082377,536.266849,9252.574275
4610.729002,4515.256246,3907.087040,7772.162391
4610.729316,7105.977043,6894.859482,6661.853478
4610.729630,8586.388927,8733.488677,5773.606348
4610.729944,10510.924376,9346.365076,5107.421000
4610.730259,9548.656652,9269.755526,6439.791695
4610.730573,7254.018232,7660.954980,7846.182985
4610.730887,3182.885551,4213.525239,9326.594869
4610.731202,-1110.308913,1378.971896,9104.533087
4610.731516,-4811.338623,-2221.676944,10214.842000
4610.731830,-7846.182985,-4673.182538,12065.356855
4610.732144,-10288.862594,-7048.078582,13545.768739
4610.732459,-10288.862594,-7354.516781,13027.624579
4610.732773,-9474.636058,-6741.640382,11251.130318
4610.733087,-7772.162391,-4979.620737,10955.047942
4610.733401,-4663.297435,-2221.676944,9770.718434
4610.733716,444.123565,1608.800546,8808.450710
4610.734030,4441.235652,4443.353888,7105.977043
4610.734344,6957.935855,7048.078582,5773.606348
4610.734659,7846.182985,7201.297681,5699.585753
4610.734973,9326.594869,7354.516781,5255.462188
4610.735287,8660.409521,7354.516781,6291.750507
4610.735601,5921.647536,4903.011187,9252.574275
4610.735916,2220.617826,1915.238745,10584.944971
4610.736230,-740.205942,-995.924147,11029.068536
4610.736544,-3923.091493,-3677.258390,12509.480420
4610.736859,-7550.100608,-6511.811733,12805.562797
4610.737173,-9030.512492,-7737.564530,12361.439231
4610.737487,-8956.491898,-7507.735880,11843.295072
4610.737801,-7624.121203,-5975.544884,11621.233289
4610.738116,-5255.462188,-3907.087040,11251.130318
4610.738430,-1258.350101,-1225.752797,9548.656652
4610.738744,2442.679609,1762.019645,8660.409521
4610.739058,6291.750507,4826.401637,7179.997637
4610.739373,7698.141797,6971.469032,6291.750507
4610.739687,9178.553681,6818.249932,4811.338623
4610.740001,9474.636058,7507.735880,4663.297435
4610.740316,7920.203579,7354.516781,6365.771101
4610.740630,4589.276840,5056.230287,8364.327145
4610.740944,1036.288319,2374.896044,9696.697840
4610.741258,-2738.761985,-1072.533697,10584.944971
4610.741573,-6069.688724,-4519.963438,11399.171507
4610.741887,-8882.471304,-6665.030833,12139.377449
4610.742201,-10362.883188,-7814.174080,11843.295072
4610.742516,-8882.471304,-7354.516781,11103.089130
4610.742830,-7254.018232,-4673.182538,11769.274478
4610.743144,-3849.070898,-2298.286494,11547.212695
4610.743458,296.082377,766.095498,9548.656652
4610.743773,4293.194464,3677.258390,7846.182985
4610.744087,6587.832884,6358.592633,7105.977043
4610.744401,8364.327145,8273.831378,6143.709319
4610.744715,9770.718434,8197.221829,5107.421000
4610.745030,9178.553681,8350.440928,5847.626942
4610.745344,6439.791695,7354.516781,7772.162391
4610.745658,2442.679609,4826.401637,9104.533087
4610.745973,-962.267725,1532.190996,9696.697840
4610.746287,-4589.276840,-2068.457845,11251.130318
4610.746601,-7476.080014,-5362.668486,12509.480420
4610.746915,-9844.739029,-7507.735880,13175.665768
4610.747230,-9844.739029,-7354.516781,11991.336260
4610.747544,-8586.388927,-5439.278036,11473.192101
4610.747858,-5773.606348,-3064.381992,11843.295072
4610.748173,-1702.473667,-306.438199,11473.192101
4610.748487,3404.947333,2681.334243,8734.430116
4610.748801,6883.915261,5362.668486,6883.915261
4610.749115,8290.306550,8197.221829,6069.688724
4610.749430,9696.697840,9116.536426,4737.318029
4610.749744,10214.842000,9576.193725,5033.400406
4610.750058,9252.574275,8810.098227,6217.729913
4610.750372,5921.647536,6052.154434,8142.265362
4610.750687,2146.597232,2681.334243,9696.697840
4610.751001,-1924.535449,-536.266849,10214.842000
4610.751315,-6143.709319,-3447.429741,11029.068536
4610.751630,-8882.471304,-7048.078582,12287.418637
4610.751944,-10066.800811,-8120.612279,13175.665768
4610.752258,-9474.636058,-7814.174080,11917.315666
4610.752572,-7772.162391,-5822.325785,12213.398043
4610.752887,-4959.379811,-2834.553343,11621.233289
4610.753201,-370.102971,-306.438199,9696.697840
4610.753515,4811.338623,2681.334243,8142.265362
4610.753830,8512.368333,6052.154434,7031.956449
4610.754144,10140.821405,8733.488677,5033.400406
4610.754458,10881.027347,9116.536426,4737.318029
4610.754772,10362.883188,8963.317327,5181.441594
4610.755087,8882.471304,8886.707777,7031.956449
4610.755401,4737.318029,5286.058936,8586.388927
4610.755715,666.185348,0.000000,9548.656652
4610.756029,-3552.988522,-2604.724693,10807.006753
4610.756344,-6809.894666,-5975.544884,12065.356855
4610.756658,-9770.718434,-7354.516781,13915.871710
4610.756972,-10881.027347,-8044.002729,13397.727550
4610.757287,-9696.697840,-8120.612279,11843.295072
4610.757601,-7846.182985,-5592.497135,11399.171507
4610.757915,-3923.091493,-3370.820191,9770.718434
4610.758229,0.000000,612.876398,8364.327145
4610.758544,3775.050304,3830.477490,7772.162391
4610.758858,6439.791695,6894.859482,7105.977043
4610.759172,7994.224174,8120.612279,5699.585753
4610.759487,8364.327145,7277.907231,4737.318029
4610.759801,7772.162391,6894.859482,5477.523971
4610.760115,4959.379811,5439.278036,7031.956449
4610.760430,1554.432478,2757.943793,9326.594869
4610.760744,-1554.432478,-1225.752797,10436.903782
4610.761058,-5255.462188,-3830.477490,11843.295072
4610.761373,-8290.306550,-6052.154434,13397.727550
4610.761687,-10584.944971,-7124.688131,13915.871710
4610.762001,-10288.862594,-7660.954980,11991.336260
4610.762316,-9030.512492,-7354.516781,11695.253884
4610.762630,-5255.462188,-4596.572988,11843.295072
4610.762944,-2146.597232,-2451.505594,9770.718434
4610.763258,1924.535449,2068.457845,8216.285956
4610.763573,5625.565159,4903.011187,7031.956449
4610.763887,7920.203579,8427.050478,7254.018232
4610.764201,9770.718434,8044.002729,5625.565159
4610.764516,10362.883188,8886.707777,5181.441594
4610.764830,8142.265362,7507.735880,4885.359217
4610.765144,4293.194464,5592.497135,7402.059420
4610.765459,666.185348,2911.162892,8808.450710
4610.765773,-2368.659014,-766.095498,9992.780217
4610.766087,-5625.565159,-3830.477490,11473.192101
4610.766402,-8956.491898,-6205.373534,13175.665768
4610.766716,-10881.027347,-7431.126331,12731.542202
4610.767030,-9622.677246,-7354.516781,11029.068536
4610.767345,-8290.306550,-6205.373534,11547.212695
4610.767659,-3627.009116,-4673.182538,11695.253884
4610.767973,666.185348,-153.219100,10362.883188
4610.768288,4737.318029,3294.210641,8734.430116
4610.768602,8808.450710,7124.688131,7402.059420
4610.768916,10807.006753,10265.679673,6809.894666
4610.769231,12879.583391,10112.460574,5033.400406
4610.769545,12583.501014,11031.775171,4515.256246
4610.769859,9770.718434,9652.803275,5699.585753
4610.770173,5625.565159,6588.421283,8512.368333
4610.770488,1850.514855,3370.820191,9696.697840
4610.770802,-2812.782580,-459.657299,11177.109724
4610.771116,-6661.853478,-4826.401637,11991.336260
4610.771431,-9326.594869,-6741.640382,12805.562797
4610.771745,-10510.924376,-7507.735880,12731.542202
4610.772059,-9400.615463,-7124.688131,11325.150913
4610.772374,-7772.162391,-3907.087040,11547.212695
4610.772688,-3775.050304,-1915.238745,11103.089130
4610.773002,1332.370696,1991.848295,9622.677246
4610.773317,5773.606348,4366.744339,6439.791695
4610.773631,8290.306550,8427.050478,6217.729913
4610.773945,9770.718434,10648.727422,5403.503377
4610.774260,10584.944971,10495.508323,4589.276840
4610.774574,10362.883188,9806.022374,4885.359217
4610.774888,6809.894666,6741.640382,6513.812290
4610.775203,1184.329507,4290.134789,9030.512492
4610.775517,-3182.885551,459.657299,9178.553681
4610.775831,-6587.832884,-2451.505594,10658.965565
4610.776145,-9400.615463,-7507.735880,12287.418637
4610.776460,-11843.295072,-8656.879127,14211.954086
4610.776774,-11103.089130,-8350.440928,13027.624579
4610.777088,-10066.800811,-7890.783629,11621.233289
4610.777403,-7698.141797,-4673.182538,11843.295072
4610.777717,-2960.823768,-2451.505594,11029.068536
4610.778031,2220.617826,919.314598,9770.718434
4610.778346,6291.750507,3983.696590,8660.409521
4610.778660,7994.224174,5669.106685,6587.832884
4610.778974,9770.718434,7354.516781,6069.688724
4610.779289,9622.677246,7967.393179,6365.771101
4610.779603,9104.533087,7814.174080,6957.935855
4610.779917,5329.482782,4903.011187,8808.450710
4610.780232,740.205942,612.876398,9400.615463
4610.780546,-3330.926739,-1991.848295,9770.718434
4610.780860,-6883.915261,-4903.011187,10807.006753
4610.781175,-9622.677246,-7507.735880,11621.233289
4610.781489,-10807.006753,-8427.050478,12657.521608
4610.781803,-10807.006753,-9269.755526,10732.986159
4610.782117,-9104.533087,-7048.078582,10807.006753
4610.782432,-6217.729913,-4060.306139,10214.842000
4610.782746,-1702.473667,-1149.143247,9252.574275
4610.783060,3182.885551,1991.848295,8586.388927
4610.783375,6809.894666,4290.134789,7031.956449
4610.783689,9104.533087,7507.735880,6957.935855
4610.784003,10584.944971,7584.345430,5551.544565
4610.784318,10732.986159,7660.954980,5847.626942
4610.784632,9178.553681,7660.954980,6809.894666
4610.784946,5773.606348,4903.011187,8216.285956
4610.785261,1776.494261,1685.410096,9400.615463
4610.785575,-2146.597232,-842.705048,10436.903782
4610.785889,-5699.585753,-3753.867940,12213.398043
4610.786204,-8438.347739,-6894.859482,13323.706956
4610.786518,-8734.430116,-7967.393179,12731.542202
4610.786832,-7994.224174,-7354.516781,11769.274478
4610.787147,-6587.832884,-5056.230287,11843.295072
4610.787461,-3034.844362,-2145.067394,11547.212695
4610.787775,1702.473667,1991.848295,10584.944971
4610.788090,5921.647536,4290.134789,8512.368333
4610.788404,8586.388927,7354.516781,7550.100608
4610.788718,9992.780217,9806.022374,6439.791695
4610.789032,11695.253884,10342.289223,4367.215058
4610.789347,10881.027347,10955.165621,4737.318029
4610.789661,7254.018232,8963.317327,6587.832884
4610.789975,3182.885551,6128.763984,8216.285956
4610.790290,-666.185348,2374.896044,8808.450710
4610.790604,-5033.400406,-919.314598,9548.656652
4610.790918,-8808.450710,-4290.134789,11843.295072
4610.791233,-11177.109724,-5898.935335,13545.768739
4610.791547,-10807.006753,-6894.859482,12287.418637
4610.791861,-9770.718434,-6281.983084,11769.274478
4610.792176,-7624.121203,-4596.572988,11325.150913
4610.792490,-3849.070898,-1532.190996,10214.842000
4610.792804,1036.288319,2528.115143,8956.491898
4610.793119,5033.400406,5745.716235,8660.409521
4610.793433,8142.265362,8273.831378,7550.100608
4610.793747,9622.677246,9269.755526,5625.565159
4610.794062,10510.924376,10035.851024,5699.585753
4610.794376,9400.615463,9499.584175,6661.853478
4610.794690,6217.729913,6511.811733,7772.162391
4610.795004,2368.659014,3600.648841,8586.388927
4610.795319,-1184.329507,842.705048,8586.388927
4610.795633,-5477.523971,-2374.896044,10362.883188
4610.795947,-9178.553681,-6128.763984,12731.542202
4610.796262,-10584.944971,-7814.174080,12879.583391
4610.796576,-10955.047942,-7584.345430,12213.398043
4610.796890,-10436.903782,-8350.440928,11547.212695
4610.797205,-7846.182985,-6741.640382,11621.233289
4610.797519,-3404.947333,-2681.334243,11029.068536
4610.797833,1850.514855,306.438199,10066.800811
4610.798148,4737.318029,4136.915689,8438.347739
4610.798462,7476.080014,5439.278036,6587.832884
4610.798776,10214.842000,7124.688131,5033.400406
4610.799091,11177.109724,8810.098227,5107.421000
4610.799405,10066.800811,8350.440928,5329.482782
4610.799719,6809.894666,5898.935335,7031.956449
4610.800034,2738.761985,2451.505594,8438.347739
4610.800348,-1036.288319,0.000000,9474.636058
4610.800662,-4515.256246,-3830.477490,11473.192101
4610.800977,-7476.080014,-8350.440928,12879.583391
4610.801291,-9622.677246,-8963.317327,12731.542202
4610.801605,-9622.677246,-9193.145976,12213.398043
4610.801919,-7846.182985,-7737.564530,13027.624579
4610.802234,-4515.256246,-4826.401637,12657.521608
4610.802548,0.000000,-2145.067394,10658.965565
4610.802862,3997.112087,1991.848295,8290.306550
4610.803177,6883.915261,5975.544884,7179.997637
4610.803491,9178.553681,8503.660028,5847.626942
4610.803805,11325.150913,9116.536426,4219.173869
4610.804120,10881.027347,9652.803275,5107.421000
4610.804434,7550.100608,8350.440928,6661.853478
4610.804748,3478.967927,4979.620737,7920.203579
4610.805063,-592.164754,1762.019645,8882.471304
4610.805377,-4589.276840,-1608.800546,10436.903782
4610.805691,-8364.327145,-5515.887586,12287.418637
4610.806006,-11177.109724,-8197.221829,13249.686362
4610.806320,-11399.171507,-8350.440928,11917.315666
4610.806634,-10584.944971,-7431.126331,12583.501014
4610.806949,-8290.306550,-5592.497135,12953.603985
4610.807263,-3404.947333,-2221.676944,11769.274478
4610.807577,2220.617826,2681.334243,9474.636058
4610.807891,6587.832884,5669.106685,7624.121203
4610.808206,9178.553681,8503.660028,7031.956449
4610.808520,11177.109724,10112.460574,5255.462188
4610.808834,11917.315666,11338.213370,4737.318029
4610.809149,10066.800811,10878.556072,5477.523971
4610.809463,5995.668130,7814.174080,7179.997637
4610.809777,1850.514855,4749.792088,7698.141797
4610.810092,-2368.659014,1225.752797,9104.533087
4610.810406,-7031.956449,-2451.505594,10658.965565
4610.810720,-10288.862594,-7201.297681,12509.480420
4610.811035,-12583.501014,-8120.612279,13323.706956
4610.811349,-11917.315666,-8656.879127,11769.274478
4610.811663,-10362.883188,-6818.249932,11843.295072
4610.811978,-6661.853478,-4290.134789,11695.253884
4610.812292,-1702.473667,-536.266849,10288.862594
4610.812606,3404.947333,3907.087040,8808.450710
4610.812921,7254.018232,5898.935335,7550.100608
4610.813235,9548.656652,8350.440928,6143.709319
4610.813549,11621.233289,8886.707777,5329.482782
4610.813863,11251.130318,9652.803275,5255.462188
4610.814178,9178.553681,8810.098227,6587.832884
4610.814492,5403.503377,6128.763984,9178.553681
4610.814806,1628.453072,2068.457845,9326.594869
4610.815121,-2220.617826,-1532.190996,10288.862594
4610.815435,-6883.915261,-5439.278036,11621.233289
4610.815749,-9992.780217,-8197.221829,12805.562797
4610.816064,-10955.047942,-8197.221829,13101.645173
4610.816378,-9474.636058,-7967.393179,12065.356855
4610.816692,-7624.121203,-6358.592633,11843.295072
4610.817007,-3923.091493,-2834.553343,11769.274478
4610.817321,1258.350101,229.828649,9326.594869
4610.817635,5477.523971,3830.477490,7624.121203
4610.817950,8586.388927,6818.249932,7105.977043
4610.818264,10658.965565,8656.879127,5625.565159
4610.818578,11695.253884,9422.974625,4959.379811
4610.818893,10732.986159,9269.755526,4885.359217
4610.819207,7402.059420,7814.174080,6439.791695
4610.819521,2590.720797,3677.258390,8364.327145
4610.819836,-1480.411884,76.609550,8586.388927
4610.820150,-5329.482782,-2987.772442,10658.965565
4610.820464,-9326.594869,-7584.345430,12435.459826
4610.820778,-11843.295072,-8733.488677,13471.748144
4610.821093,-11843.295072,-9576.193725,11621.233289
4610.821407,-10881.027347,-7737.564530,11621.233289
4610.821721,-8216.285956,-4979.620737,11917.315666
4610.822036,-3404.947333,-2221.676944,10881.027347
4610.822350,2072.576638,1608.800546,9326.594869
4610.822664,6735.874072,3753.867940,7254.018232
4610.822979,8882.471304,7890.783629,6957.935855
4610.823293,10807.006753,9039.926876,5921.647536
4610.823607,11103.089130,9806.022374,5995.668130
4610.823922,9474.636058,8963.317327,7328.038826
4610.824236,6069.688724,6358.592633,7772.162391
4610.824550,1480.411884,2451.505594,9104.533087
4610.824865,-2738.761985,-1072.533697,9770.718434
4610.825179,-6883.915261,-4596.572988,11547.212695
4610.825493,-10436.903782,-7277.907231,13101.645173
4610.825808,-12065.356855,-8427.050478,13175.665768
4610.826122,-11103.089130,-7354.516781,11177.109724
4610.826436,-9178.553681,-5515.887586,11029.068536
4610.826750,-5773.606348,-3677.258390,10510.924376
4610.827065,-1036.288319,229.828649,10066.800811
4610.827379,4219.173869,2604.724693,7920.203579
4610.827693,7624.121203,6358.592633,6587.832884
4610.828008,10214.842000,8886.707777,5329.482782
4610.828322,11769.274478,10035.851024,5255.462188
4610.828636,11103.089130,11261.603821,6069.688724
4610.828951,9030.512492,8963.317327,6957.935855
4610.829265,4885.359217,4903.011187,8586.388927
4610.829579,1110.308913,1455.581446,8956.491898
4610.829894,-3034.844362,-1072.533697,10510.924376
4610.830208,-7105.977043,-5286.058936,11769.274478
4610.830522,-10362.883188,-7584.345430,12805.562797
4610.830837,-10955.047942,-7431.126331,13027.624579
4610.831151,-9918.759623,-7124.688131,11399.171507
4610.831465,-7402.059420,-5056.230287,11473.192101
4610.831780,-3108.864956,-2528.115143,10362.883188
4610.832094,1998.556043,1378.971896,9104.533087
4610.832408,6513.812290,4290.134789,7846.182985
4610.832723,9696.697840,8044.002729,7254.018232
4610.833037,11621.233289,9193.145976,6439.791695
4610.833351,12509.480420,9882.631924,5625.565159
4610.833665,11473.192101,10189.070123,5477.523971
4610.833980,7402.059420,8120.612279,8216.285956
4610.834294,3775.050304,3830.477490,9326.594869
4610.834608,-222.061783,306.438199,9252.574275
4610.834923,-4959.379811,-2528.115143,10732.986159
4610.835237,-9326.594869,-6894.859482,11769.274478
4610.835551,-12287.418637,-7584.345430,12583.501014
4610.835866,-12065.356855,-7660.954980,11399.171507
4610.836180,-10140.821405,-6894.859482,10955.047942
4610.836494,-7105.977043,-5209.449386,11473.192101
4610.836809,-3108.864956,-2911.162892,9622.677246
4610.837123,2220.617826,2221.676944,8660.409521
4610.837437,6365.771101,5056.230287,7254.018232
4610.837752,8660.409521,8273.831378,6291.750507
4610.838066,10881.027347,8810.098227,5107.421000
4610.838380,11251.130318,9652.803275,5255.462188
4610.838695,9400.615463,8733.488677,6439.791695
4610.839009,5329.482782,5669.106685,8142.265362
4610.839323,592.164754,1762.019645,9252.574275
4610.839637,-2738.761985,-1072.533697,10658.965565
4610.839952,-7031.956449,-4749.792088,12583.501014
4610.840266,-10066.800811,-8120.612279,13767.830521
4610.840580,-11917.315666,-8886.707777,13249.686362
4610.840895,-10955.047942,-8580.269578,11547.212695
4610.841209,-9030.512492,-6358.592633,11103.089130
4610.841523,-5255.462188,-4060.306139,11251.130318
4610.841838,-444.123565,-153.219100,10288.862594
4610.842152,4145.153275,3217.601092,8808.450710
4610.842466,7624.121203,6205.373534,7550.100608
4610.842781,9844.739029,8273.831378,6069.688724
4610.843095,11621.233289,7890.783629,4737.318029
4610.843409,11251.130318,8350.440928,6143.709319
4610.843724,8512.368333,7737.564530,6883.915261
4610.844038,3849.070898,4136.915689,7994.224174
4610.844352,370.102971,689.485948,9104.533087
4610.844667,-3775.050304,-1532.190996,10436.903782
4610.844981,-8142.265362,-5209.449386,11843.295072
4610.845295,-11177.109724,-8503.660028,12805.562797
4610.845610,-12139.377449,-7890.783629,12139.377449
4610.845924,-10955.047942,-8197.221829,10658.965565
4610.846238,-8068.244768,-5362.668486,11621.233289
4610.846552,-3627.009116,-2374.896044,10658.965565
4610.846867,1850.514855,1225.752797,9178.553681
4610.847181,7179.997637,5056.230287,7624.121203
4610.847495,10214.842000,8810.098227,6883.915261
4610.847810,11991.336260,9652.803275,6143.709319
4610.848124,13323.706956,9959.241474,5921.647536
4610.848438,11843.295072,10189.070123,6809.894666
4610.848753,8364.327145,7814.174080,7772.162391
4610.849067,3627.009116,4136.915689,8586.388927
4610.849381,-888.247130,383.047749,9178.553681
4610.849696,-5551.544565,-2374.896044,11177.109724
4610.850010,-10807.006753,-6205.373534,12287.418637
4610.850324,-13471.748144,-8273.831378,12509.480420
4610.850639,-12509.480420,-7814.174080,11103.089130
4610.850953,-10881.027347,-6128.763984,11473.192101
4610.851267,-7031.956449,-3983.696590,11991.336260
4610.851582,-2368.659014,-766.095498,9918.759623
4610.851896,2368.659014,2681.334243,8438.347739
4610.852210,6513.812290,5898.935335,6957.935855
4610.852524,9178.553681,9576.193725,6143.709319
4610.852839,11325.150913,9422.974625,5921.647536
4610.853153,11695.253884,10725.336972,6217.729913
4610.853467,10214.842000,9576.193725,7031.956449
4610.853782,5477.523971,5132.839837,8512.368333
4610.854096,1554.432478,2528.115143,8512.368333
4610.854410,-2368.659014,229.828649,9844.739029
4610.854725,-6661.853478,-3753.867940,11843.295072
4610.855039,-10510.924376,-7431.126331,12435.459826
4610.855353,-12657.521608,-8350.440928,11843.295072
4610.855668,-11843.295072,-8273.831378,11325.150913
4610.855982,-9622.677246,-5515.887586,11769.274478
4610.856296,-5403.503377,-3524.039291,11843.295072
4610.856611,-296.082377,-536.266849,9992.780217
4610.856925,4145.153275,2987.772442,8808.450710
4610.857239,7105.977043,5975.544884,7254.018232
4610.857554,10214.842000,8273.831378,5773.606348
4610.857868,11843.295072,9039.926876,5329.482782
4610.858182,10807.006753,9806.022374,5181.441594
4610.858496,7772.162391,7354.516781,6143.709319
4610.858811,3923.091493,4290.134789,8364.327145
4610.859125,148.041188,459.657299,9104.533087
4610.859439,-3330.926739,-2528.115143,11029.068536
4610.859754,-7624.121203,-6281.983084,13101.645173
4610.860068,-10510.924376,-8963.317327,13545.768739
4610.860382,-10955.047942,-9193.145976,11917.315666
4610.860697,-10066.800811,-8044.002729,11473.192101
4610.861011,-7402.059420,-5975.544884,11621.233289
4610.861325,-2812.782580,-2451.505594,10807.006753
4610.861640,2072.576638,459.657299,9622.677246
4610.861954,5847.626942,3983.696590,8882.471304
4610.862268,8660.409521,7354.516781,7476.080014
4610.862582,11399.171507,7890.783629,4885.359217
4610.862897,12287.418637,9499.584175,5329.482782
4610.863211,10658.965565,8733.488677,5921.647536
4610.863525,6587.832884,7048.078582,7698.141797
4610.863839,2442.679609,2757.943793,9030.512492
4610.864153,-1554.432478,-612.876398,9770.718434
4610.864468,-5625.565159,-3907.087040,11399.171507
4610.864782,-9474.636058,-7354.516781,12509.480420
4610.865096,-11621.233289,-8656.879127,13175.665768
4610.865410,-11103.089130,-8503.660028,11695.253884
4610.865724,-8438.347739,-6665.030833,11843.295072
4610.866039,-5329.482782,-4060.306139,11547.212695
4610.866353,-1184.329507,-383.047749,10214.842000
4610.866667,3404.947333,3753.867940,7698.141797
4610.866981,6809.894666,6741.640382,6217.729913
4610.867295,9030.512492,9422.974625,5921.647536
4610.867610,10214.842000,9576.193725,4885.359217
4610.867924,9992.780217,9729.412825,5329.482782
4610.868238,7105.977043,8580.269578,5995.668130
4610.868552,3034.844362,4979.620737,8290.306550
4610.868866,-814.226536,1455.581446,9474.636058
4610.869181,-3627.009116,-1302.362347,10584.944971
4610.869495,-6661.853478,-4060.306139,12213.398043
4610.869809,-9474.636058,-6588.421283,13841.851115
4610.870123,-10510.924376,-7431.126331,11917.315666
4610.870437,-9474.636058,-6435.202183,10881.027347
4610.870752,-7105.977043,-4136.915689,11399.171507
4610.871066,-3404.947333,-1225.752797,10881.027347
4610.871380,1702.473667,1991.848295,9474.636058
4610.871694,5551.544565,4136.915689,7920.203579
4610.872009,8512.368333,8044.002729,7698.141797
4610.872323,9622.677246,9269.755526,6809.894666
4610.872637,9918.759623,8810.098227,5255.462188
4610.872951,9104.533087,8197.221829,5699.585753
4610.873265,5921.647536,6741.640382,7846.182985
4610.873580,1998.556043,3524.039291,9104.533087
4610.873894,-1628.453072,-383.047749,9030.512492
4610.874208,-4885.359217,-2604.724693,10510.924376
4610.874522,-7624.121203,-5439.278036,12213.398043
4610.874836,-9696.697840,-6665.030833,12953.603985
4610.875151,-9696.697840,-7431.126331,11843.295072
4610.875465,-8364.327145,-7660.954980,10658.965565
4610.875779,-5699.585753,-4290.134789,11695.253884
4610.876093,-1036.288319,-1532.190996,11029.068536
4610.876407,4071.132681,2068.457845,9548.656652
4610.876722,7328.038826,5362.668486,8586.388927
4610.877036,9770.718434,7124.688131,7476.080014
4610.877350,11177.109724,9039.926876,6291.750507
4610.877664,11695.253884,8733.488677,5403.503377
4610.877978,9918.759623,8273.831378,5551.544565
4610.878293,5773.606348,5822.325785,7476.080014
4610.878607,1184.329507,2298.286494,8364.327145
4610.878921,-2368.659014,306.438199,9474.636058
4610.879235,-6291.750507,-3064.381992,10955.047942
4610.879549,-9548.656652,-7354.516781,12879.583391
4610.879864,-11399.171507,-8656.879127,12805.562797
4610.880178,-11547.212695,-9576.193725,11621.233289
4610.880492,-9770.718434,-7737.564530,10955.047942
4610.880806,-6291.750507,-4519.963438,10881.027347
4610.881120,-1258.350101,-689.485948,10214.842000
4610.881435,4145.153275,3524.039291,8734.430116
4610.881749,7254.018232,6128.763984,7179.997637
4610.882063,9104.533087,8886.707777,6735.874072
4610.882377,11251.130318,9882.631924,5625.565159
4610.882691,10881.027347,9806.022374,5699.585753
4610.883006,8660.409521,7584.345430,6661.853478
4610.883320,4219.173869,4673.182538,8586.388927
4610.883634,-370.102971,1762.019645,8956.491898
4610.883948,-4737.318029,-1762.019645,9474.636058
4610.884262,-8660.409521,-5056.230287,11251.130318
4610.884577,-11399.171507,-7431.126331,13249.686362
4610.884891,-11621.233289,-8580.269578,12583.501014
4610.885205,-11103.089130,-8120.612279,11473.192101
4610.885519,-9844.739029,-6665.030833,11473.192101
4610.885833,-5403.503377,-3907.087040,10066.800811
4610.886148,-148.041188,536.266849,9326.594869
4610.886462,4885.359217,4290.134789,8512.368333
4610.886776,7624.121203,7048.078582,8068.244768
4610.887090,9918.759623,8350.440928,6957.935855
4610.887405,11177.109724,8656.879127,5699.585753
4610.887719,10584.944971,9729.412825,6513.812290
4610.888033,8068.244768,6588.421283,7402.059420
4610.888347,3701.029710,3983.696590,8586.388927
4610.888661,-222.061783,1455.581446,8956.491898
4610.888976,-3701.029710,-1762.019645,10807.006753
4610.889290,-6809.894666,-5669.106685,12879.583391
4610.889604,-9400.615463,-7814.174080,13175.665768
4610.889918,-9622.677246,-7660.954980,11251.130318
4610.890232,-8956.491898,-6281.983084,10881.027347
4610.890547,-6809.894666,-3983.696590,11251.130318
4610.890861,-1628.453072,-919.314598,10214.842000
4610.891175,2960.823768,2451.505594,8956.491898
4610.891489,6809.894666,4213.525239,6957.935855
4610.891803,8882.471304,8427.050478,6587.832884
4610.892118,10436.903782,9729.412825,6217.729913
4610.892432,11843.295072,10342.289223,5625.565159
4610.892746,10510.924376,9806.022374,6069.688724
4610.893060,6587.832884,6435.202183,7772.162391
4610.893374,2294.638420,3370.820191,8142.265362
4610.893689,-2146.597232,1225.752797,8438.347739
4610.894003,-5847.626942,-2604.724693,10436.903782
4610.894317,-8734.430116,-6511.811733,12213.398043
4610.894631,-10362.883188,-7507.735880,12953.603985
4610.894945,-10214.842000,-7660.954980,11843.295072
4610.895260,-9030.512492,-6665.030833,11769.274478
4610.895574,-6439.791695,-4060.306139,11621.233289
4610.895888,-740.205942,-1149.143247,10510.924376
4610.896202,3923.091493,2145.067394,9030.512492
4610.896516,7624.121203,6281.983084,8660.409521
4610.896831,9696.697840,8503.660028,7105.977043
4610.897145,10955.047942,9116.536426,5847.626942
4610.897459,10955.047942,10265.679673,5625.565159
4610.897773,8290.306550,8963.317327,6291.750507
4610.898087,4293.194464,5286.058936,7254.018232
4610.898402,444.123565,1455.581446,8364.327145
4610.898716,-4515.256246,-1608.800546,9252.574275
4610.899030,-7920.203579,-4366.744339,11843.295072
4610.899344,-11029.068536,-7584.345430,13175.665768
4610.899658,-11843.295072,-8427.050478,12953.603985
4610.899973,-10732.986159,-8886.707777,10881.027347
4610.900287,-8216.285956,-5975.544884,11177.109724
4610.900601,-5107.421000,-3524.039291,10436.903782
4610.900915,-74.020594,0.000000,9474.636058
4610.901229,4145.153275,4136.915689,7920.203579
4610.901544,6735.874072,6588.421283,7624.121203
4610.901858,8882.471304,7967.393179,6217.729913
4610.902172,9918.759623,7431.126331,5699.585753
4610.902486,9030.512492,7737.564530,5847.626942
4610.902801,6513.812290,4979.620737,7624.121203
4610.903115,2812.782580,2528.115143,10510.924376
4610.903429,-814.226536,-306.438199,10436.903782
4610.903743,-4219.173869,-3524.039291,11029.068536
4610.904057,-7254.018232,-6665.030833,12213.398043
4610.904372,-9622.677246,-8427.050478,13471.748144
4610.904686,-9030.512492,-8197.221829,11769.274478
4610.905000,-7105.977043,-6435.202183,10955.047942
4610.905314,-5477.523971,-3677.258390,11621.233289
4610.905628,-2442.679609,-2145.067394,10584.944971
4610.905943,1924.535449,842.705048,8512.368333
4610.906257,5625.565159,4213.525239,7994.224174
4610.906571,7624.121203,6971.469032,7105.977043
4610.906885,9400.615463,7124.688131,5921.647536
4610.907199,9992.780217,7124.688131,5477.523971
4610.907514,8882.471304,8273.831378,6513.812290
4610.907828,5773.606348,7201.297681,7846.182985
4610.908142,962.267725,3064.381992,8364.327145
4610.908456,-1702.473667,-306.438199,8882.471304
4610.908770,-4145.153275,-2298.286494,10881.027347
4610.909085,-7105.977043,-5209.449386,12435.459826
4610.909399,-9474.636058,-7277.907231,11917.315666
4610.909713,-9622.677246,-7124.688131,10510.924376
4610.910027,-7994.224174,-4366.744339,11695.253884
4610.910341,-4737.318029,-2451.505594,11843.295072
4610.910656,-222.061783,0.000000,10807.006753
4610.910970,3627.009116,2221.676944,8808.450710
4610.911284,6587.832884,5209.449386,7994.224174
4610.911598,8882.471304,9499.584175,7031.956449
4610.911912,10881.027347,9193.145976,5551.544565
4610.912227,11177.109724,9422.974625,5773.606348
4610.912541,8956.491898,9806.022374,7254.018232
4610.912855,5181.441594,7201.297681,8068.244768
4610.913169,1998.556043,3600.648841,7920.203579
4610.913483,-2072.576638,76.609550,9622.677246
4610.913798,-5995.668130,-3140.991542,11029.068536
4610.914112,-9326.594869,-5822.325785,12139.377449
4610.914426,-11177.109724,-7048.078582,11917.315666
4610.914740,-10658.965565,-6511.811733,11251.130318
4610.915054,-8438.347739,-4979.620737,11917.315666
4610.915369,-5181.441594,-2987.772442,11547.212695
4610.915683,-740.205942,306.438199,10214.842000
4610.915997,3330.926739,3140.991542,8364.327145
4610.916311,6217.729913,6052.154434,7920.203579
4610.916625,9104.533087,8503.660028,6439.791695
4610.916940,11177.109724,8963.317327,5329.482782
4610.917254,10584.944971,10112.460574,5995.668130
4610.917568,8068.244768,8120.612279,7402.059420
4610.917882,4737.318029,5669.106685,8586.388927
4610.918197,1184.329507,1302.362347,9474.636058
4610.918511,-2516.700203,-1762.019645,10288.862594
4610.918825,-5921.647536,-4903.011187,11843.295072
4610.919139,-8956.491898,-7354.516781,13249.686362
4610.919453,-10510.924376,-6588.421283,12213.398043
4610.919768,-9474.636058,-7124.688131,11399.171507
4610.920082,-7105.977043,-5822.325785,11399.171507
4610.920396,-3182.885551,-2604.724693,10732.986159
4610.920710,1554.432478,153.219100,8586.388927
4610.921024,4441.235652,3830.477490,7698.141797
4610.921339,6735.874072,5822.325785,7105.977043
4610.921653,8882.471304,8044.002729,6069.688724
4610.921967,9770.718434,8350.440928,5773.606348
4610.922281,7920.203579,7124.688131,5847.626942
4610.922595,4663.297435,4749.792088,7698.141797
4610.922910,1406.391290,1608.800546,9400.615463
4610.923224,-1554.432478,-1302.362347,10658.965565
4610.923538,-4959.379811,-4443.353888,11991.336260
4610.923852,-8142.265362,-7584.345430,13249.686362
4610.924166,-9474.636058,-7814.174080,12879.583391
4610.924481,-9474.636058,-7507.735880,11621.233289
4610.924795,-7772.162391,-6588.421283,11251.130318
4610.925109,-4071.132681,-4213.525239,10510.924376
4610.925423,-74.020594,-1378.971896,9030.512492
4610.925737,3552.988522,3294.210641,8364.327145
4610.926052,6069.688724,6052.154434,7254.018232
4610.926366,7772.162391,8044.002729,6587.832884
4610.926680,8956.491898,7890.783629,5847.626942
4610.926994,8882.471304,7354.516781,6069.688724
4610.927308,6661.853478,6665.030833,7476.080014
4610.927623,2812.782580,3677.258390,8290.306550
4610.927937,-1258.350101,306.438199,9400.615463
4610.928251,-4515.256246,-1991.848295,10881.027347
4610.928565,-7105.977043,-4443.353888,11917.315666
4610.928879,-8956.491898,-6281.983084,12213.398043
4610.929194,-9474.636058,-7048.078582,11251.130318
4610.929508,-8512.368333,-6128.763984,10807.006753
4610.929822,-6143.709319,-3983.696590,11103.089130
4610.930136,-2738.761985,-1762.019645,9548.656652
4610.930450,1554.432478,1532.190996,8882.471304
4610.930765,4441.235652,3983.696590,7772.162391
4610.931079,6513.812290,7048.078582,7402.059420
4610.931393,7994.224174,7890.783629,6957.935855
4610.931707,8882.471304,7431.126331,6143.709319
4610.932021,7698.141797,7277.907231,7624.121203
4610.932336,4737.318029,5132.839837,8586.388927
4610.932650,1628.453072,2911.162892,9400.615463
4610.932964,-1850.514855,-153.219100,10066.800811
4610.933278,-4367.215058,-2681.334243,11177.109724
4610.933593,-6661.853478,-4673.182538,12361.439231
4610.933907,-7772.162391,-5592.497135,12213.398043
4610.934221,-7772.162391,-5515.887586,11399.171507
4610.934535,-6439.791695,-4519.963438,10807.006753
4610.934849,-3701.029710,-2604.724693,10658.965565
4610.935164,370.102971,612.876398,9770.718434
4610.935478,3775.050304,2757.943793,8290.306550
4610.935792,6439.791695,5592.497135,7920.203579
4610.936106,7550.100608,7967.393179,7402.059420
4610.936420,8660.409521,8350.440928,6365.771101
4610.936735,8660.409521,8886.707777,5255.462188
4610.937049,7105.977043,6971.469032,6143.709319
4610.937363,3552.988522,4903.011187,8216.285956
4610.937677,296.082377,2451.505594,9252.574275
4610.937991,-2442.679609,76.609550,10066.800811
4610.938306,-5773.606348,-3140.991542,11251.130318
4610.938620,-7550.100608,-5132.839837,11843.295072
4610.938934,-8142.265362,-5669.106685,11621.233289
4610.939248,-7846.182985,-5592.497135,10362.883188
4610.939562,-6513.812290,-4290.134789,10214.842000
4610.939877,-3256.906145,-1685.410096,10584.944971
4610.940191,1110.308913,1072.533697,9326.594869
4610.940505,4589.276840,3370.820191,8438.347739
4610.940819,6735.874072,4826.401637,7624.121203
4610.941133,8068.244768,7431.126331,7624.121203
4610.941448,9918.759623,7967.393179,7105.977043
4610.941762,9178.553681,7354.516781,7105.977043
4610.942076,6439.791695,5286.058936,8364.327145
4610.942390,2960.823768,2604.724693,8956.491898
4610.942704,0.000000,766.095498,9030.512492
4610.943019,-3627.009116,-1915.238745,9992.780217
4610.943333,-7031.956449,-4366.744339,11695.253884
4610.943647,-8808.450710,-6511.811733,12583.501014
4610.943961,-8808.450710,-6971.469032,11769.274478
4610.944275,-7476.080014,-6128.763984,10807.006753
4610.944590,-6439.791695,-4903.011187,10510.924376
4610.944904,-3997.112087,-2221.676944,9474.636058
4610.945218,518.144159,689.485948,8364.327145
4610.945532,3997.112087,3753.867940,7402.059420
4610.945846,5773.606348,5822.325785,7772.162391
4610.946161,6291.750507,6971.469032,7328.038826
4610.946475,7105.977043,5975.544884,6439.791695
4610.946789,6069.688724,6052.154434,7698.141797
4610.947103,3701.029710,4213.525239,8808.450710
4610.947417,1184.329507,1149.143247,9104.533087
4610.947732,-1184.329507,-612.876398,9104.533087
4610.948046,-3627.009116,-2451.505594,10140.821405
4610.948360,-6365.771101,-4136.915689,11991.336260
4610.948674,-7476.080014,-5286.058936,12435.459826
4610.948989,-7476.080014,-5515.887586,11177.109724
4610.949303,-5699.585753,-4903.011187,10881.027347
4610.949617,-3404.947333,-2757.943793,10510.924376
4610.949931,74.020594,-229.828649,9400.615463
4610.950245,3478.967927,2145.067394,7994.224174
4610.950560,5477.523971,4979.620737,7476.080014
4610.950874,6439.791695,7048.078582,7105.977043
4610.951188,7402.059420,7507.735880,6883.915261
4610.951502,7328.038826,6894.859482,6883.915261
4610.951816,5625.565159,5822.325785,7994.224174
4610.952131,2738.761985,3370.820191,8586.388927
4610.952445,74.020594,1072.533697,8660.409521
4610.952759,-2812.782580,-995.924147,9770.718434
4610.953073,-4737.318029,-3140.991542,11399.171507
4610.953387,-6809.894666,-4519.963438,12287.418637
4610.953702,-7772.162391,-5209.449386,11843.295072
4610.954016,-6735.874072,-5056.230287,11029.068536
4610.954330,-4737.318029,-3447.429741,11177.109724
4610.954644,-1776.494261,-1378.971896,10807.006753
4610.954958,2294.638420,1378.971896,9474.636058
4610.955273,5477.523971,4136.915689,7994.224174
4610.955587,7698.141797,5975.544884,7920.203579
4610.955901,8660.409521,7660.954980,7476.080014
4610.956215,9326.594869,8427.050478,6291.750507
4610.956529,7994.224174,7737.564530,6587.832884
4610.956844,4811.338623,6511.811733,7994.224174
4610.957158,1776.494261,3524.039291,8438.347739
4610.957472,-888.247130,1072.533697,8512.368333
4610.957786,-4441.235652,-1378.971896,9696.697840
4610.958100,-7920.203579,-4903.011187,10732.986159
4610.958415,-9178.553681,-5898.935335,11103.089130
4610.958729,-9622.677246,-5669.106685,10732.986159
4610.959043,-8216.285956,-4826.401637,10510.924376
4610.959357,-5773.606348,-3140.991542,10658.965565
4610.959671,-1924.535449,-1149.143247,9696.697840
4610.959986,2368.659014,1608.800546,8216.285956
4610.960300,5181.441594,4060.306139,8216.285956
4610.960614,6735.874072,5745.716235,8216.285956
4610.960928,8142.265362,6588.421283,8142.265362
4610.961242,8956.491898,6281.983084,7772.162391
4610.961557,7476.080014,6128.763984,8734.430116
4610.961871,4145.153275,4060.306139,9918.759623
4610.962185,1628.453072,1072.533697,10362.883188
4610.962499,-1628.453072,-536.266849,9474.636058
4610.962813,-4663.297435,-2911.162892,9696.697840
4610.963127,-6957.935855,-5439.278036,10362.883188
4610.963442,-8956.491898,-5975.544884,10584.944971
4610.963756,-9178.553681,-5439.278036,10732.986159
4610.964070,-7476.080014,-4749.792088,11029.068536
4610.964384,-4959.379811,-3447.429741,10584.944971
4610.964698,-1110.308913,-1455.581446,9474.636058
4610.965013,2442.679609,1225.752797,7698.141797
4610.965327,5403.503377,4596.572988,7105.977043
4610.965641,6587.832884,6358.592633,7031.956449
4610.965955,8142.265362,6741.640382,6735.874072
4610.966269,7994.224174,6665.030833,6809.894666
4610.966584,6291.750507,5898.935335,8216.285956
4610.966898,3256.906145,3983.696590,9252.574275
4610.967212,1258.350101,689.485948,9104.533087
4610.967526,-888.247130,-1455.581446,9400.615463
4610.967840,-4663.297435,-3830.477490,10807.006753
4610.968155,-7402.059420,-6511.811733,11251.130318
4610.968469,-8142.265362,-6052.154434,11103.089130
4610.968783,-8216.285956,-5592.497135,11621.233289
4610.969097,-6365.771101,-4136.915689,12361.439231
4610.969411,-2886.803174,-2604.724693,11177.109724
4610.969725,1480.411884,-1149.143247,9622.677246
4610.970040,4811.338623,2451.505594,7846.182985
4610.970354,7105.977043,5286.058936,7254.018232
4610.970668,7920.203579,7737.564530,6957.935855
4610.970982,9252.574275,8273.831378,5995.668130
4610.971296,8660.409521,8503.660028,7328.038826
4610.971611,5699.585753,6894.859482,8808.450710
4610.971925,2886.803174,3830.477490,8660.409521
4610.972239,-888.247130,1302.362347,8586.388927
4610.972553,-3997.112087,-1685.410096,9474.636058
4610.972867,-6957.935855,-4903.011187,10955.047942
4610.973182,-8956.491898,-5822.325785,11695.253884
4610.973496,-9622.677246,-6205.373534,10881.027347
4610.973810,-8660.409521,-4749.792088,11547.212695
4610.974124,-5995.668130,-2451.505594,11769.274478
4610.974438,-1998.556043,-612.876398,10881.027347
4610.974752,3034.844362,842.705048,8808.450710
4610.975067,6217.729913,4749.792088,7624.121203
4610.975381,7476.080014,7354.516781,6587.832884
4610.975695,8586.388927,9499.584175,5625.565159
4610.976009,9030.512492,9882.631924,6217.729913
4610.976323,7624.121203,8350.440928,7402.059420
4610.976638,4515.256246,5898.935335,9252.574275
4610.976952,666.185348,2451.505594,9474.636058
4610.977266,-3034.844362,-995.924147,9104.533087
4610.977580,-5995.668130,-3830.477490,10807.006753
4610.977894,-8364.327145,-6818.249932,12361.439231
4610.978209,-9548.656652,-6358.592633,13175.665768
4610.978523,-8438.347739,-5592.497135,11917.315666
4610.978837,-6957.935855,-4673.182538,11103.089130
4610.979151,-3775.050304,-2451.505594,10362.883188
4610.979465,222.061783,0.000000,9474.636058
4610.979779,4293.194464,3370.820191,7994.224174
4610.980094,6587.832884,5669.106685,7031.956449
4610.980408,7920.203579,7431.126331,6809.894666
4610.980722,8660.409521,8044.002729,6661.853478
4610.981036,8068.244768,7660.954980,6883.915261
4610.981350,5995.668130,6052.154434,8512.368333
4610.981665,2368.659014,3217.601092,10066.800811
4610.981979,-740.205942,-306.438199,9696.697840
4610.982293,-3552.988522,-2681.334243,9918.759623
4610.982607,-6587.832884,-5286.058936,11103.089130
4610.982921,-8438.347739,-6741.640382,11399.171507
4610.983236,-9326.594869,-5669.106685,11325.150913
4610.983550,-8142.265362,-4979.620737,10658.965565
4610.983864,-5477.523971,-3524.039291,10955.047942
4610.984178,-1406.391290,-1915.238745,10510.924376
4610.984492,2442.679609,536.266849,9030.512492
4610.984806,5329.482782,3600.648841,7920.203579
4610.985121,7254.018232,6128.763984,7402.059420
4610.985435,8586.388927,7584.345430,6883.915261
4610.985749,9030.512492,7048.078582,6217.729913
4610.986063,7476.080014,7124.688131,7105.977043
4610.986377,5107.421000,4979.620737,8364.327145
4610.986692,888.247130,2221.676944,9178.553681
4610.987006,-1480.411884,-1149.143247,9326.594869
4610.987320,-4367.215058,-3447.429741,10807.006753
4610.987634,-7105.977043,-5515.887586,12139.377449
4610.987948,-9104.533087,-6511.811733,11843.295072
4610.988263,-8956.491898,-6511.811733,10436.903782
4610.988577,-7105.977043,-4826.401637,11325.150913
4610.988891,-4441.235652,-2911.162892,11399.171507
4610.989205,-740.205942,-536.266849,10214.842000
4610.989519,3478.967927,1915.238745,8438.347739
4610.989834,6069.688724,4443.353888,7105.977043
4610.990148,7476.080014,7431.126331,7179.997637
4610.990462,8216.285956,8044.002729,6365.771101
4610.990776,8364.327145,7967.393179,6735.874072
4610.991090,5995.668130,6894.859482,7994.224174
4610.991404,2590.720797,4136.915689,9252.574275
4610.991719,-518.144159,995.924147,9696.697840
4610.992033,-3701.029710,-1915.238745,9696.697840
4610.992347,-7105.977043,-4366.744339,11177.109724
4610.992661,-9104.533087,-5669.106685,11695.253884
4610.992975,-9030.512492,-5132.839837,10658.965565
4610.993290,-7624.121203,-4749.792088,9918.759623
4610.993604,-6143.709319,-3294.210641,11029.068536
4610.993918,-2738.761985,-612.876398,11103.089130
4610.994232,1332.370696,1225.752797,9474.636058
4610.994546,5255.462188,3447.429741,7920.203579
4610.994861,7550.100608,6205.373534,7550.100608
4610.995175,8290.306550,7584.345430,6883.915261
4610.995489,9252.574275,8120.612279,6069.688724
4610.995803,8142.265362,8197.221829,7179.997637
4610.996117,4737.318029,6128.763984,8734.430116
4610.996431,1036.288319,2911.162892,9992.780217
4610.996746,-1776.494261,-306.438199,9400.615463
4610.997060,-4367.215058,-2987.772442,9178.553681
4610.997374,-7254.018232,-4903.011187,10881.027347
4610.997688,-9326.594869,-6052.154434,12065.356855
4610.998002,-9400.615463,-5515.887586,11325.150913
4610.998317,-6513.812290,-4903.011187,11029.068536
4610.998631,-4441.235652,-3140.991542,11177.109724
4610.998945,-962.267725,-842.705048,10732.986159
4610.999259,3034.844362,1685.410096,9400.615463
4610.999573,7105.977043,4213.525239,7772.162391
4610.999888,9178.553681,6971.469032,7698.141797
4611.000202,9844.739029,7584.345430,7328.038826
4611.000516,10288.862594,8350.440928,6513.812290
4611.000830,8956.491898,8197.221829,6291.750507
4611.001144,4885.359217,5975.544884,8512.368333
4611.001458,1406.391290,2298.286494,9844.739029
4611.001773,-1702.473667,-766.095498,9252.574275
4611.002087,-5107.421000,-3370.820191,9770.718434
4611.002401,-8438.347739,-6358.592633,11399.171507
4611.002715,-10288.862594,-6741.640382,11917.315666
4611.003029,-9844.739029,-6358.592633,10955.047942
4611.003344,-7772.162391,-4903.011187,11399.171507
4611.003658,-5107.421000,-3140.991542,11325.150913
4611.003972,-666.185348,-842.705048,10288.862594
4611.004286,3627.009116,2451.505594,8216.285956
4611.004600,6661.853478,5056.230287,6957.935855
4611.004915,8364.327145,8120.612279,7105.977043
4611.005229,9992.780217,9193.145976,6587.832884
4611.005543,9992.780217,9499.584175,6735.874072
4611.005857,8142.265362,7814.174080,7550.100608
4611.006171,3775.050304,4136.915689,8660.409521
4611.006485,148.041188,1762.019645,9326.594869
4611.006800,-3701.029710,-995.924147,9474.636058
4611.007114,-7105.977043,-4213.525239,10807.006753
4611.007428,-9918.759623,-6894.859482,11769.274478
4611.007742,-11251.130318,-7354.516781,12065.356855
4611.008056,-10732.986159,-6665.030833,11177.109724
4611.008371,-8438.347739,-5209.449386,11399.171507
4611.008685,-4663.297435,-3370.820191,11029.068536
4611.008999,0.000000,-612.876398,10066.800811
4611.009313,3997.112087,2451.505594,8586.388927
4611.009627,6809.894666,5975.544884,7105.977043
4611.009942,8364.327145,7431.126331,6365.771101
4611.010256,9770.718434,8273.831378,5847.626942
4611.010570,9844.739029,8733.488677,7031.956449
4611.010884,7031.956449,6741.640382,7920.203579
4611.011198,2886.803174,3140.991542,9178.553681
4611.011513,-740.205942,0.000000,9326.594869
4611.011827,-3923.091493,-2374.896044,10288.862594
4611.012141,-7179.997637,-5209.449386,11843.295072
4611.012455,-9474.636058,-7584.345430,13101.645173
4611.012769,-10288.862594,-7584.345430,12065.356855
4611.013083,-9252.574275,-7277.907231,10807.006753
4611.013398,-7105.977043,-4903.011187,10955.047942
4611.013712,-2812.782580,-1838.629195,11103.089130
4611.014026,1998.556043,1072.533697,9474.636058
4611.014340,6217.729913,3907.087040,7031.956449
4611.014654,8290.306550,6894.859482,6661.853478
4611.014969,9696.697840,8733.488677,6735.874072
4611.015283,10807.006753,9806.022374,5625.565159
4611.015597,10214.842000,8580.269578,5625.565159
4611.015911,6513.812290,6281.983084,8512.368333
4611.016225,2442.679609,2681.334243,9992.780217
4611.016540,-592.164754,-76.609550,9474.636058
4611.016854,-4737.318029,-2987.772442,10510.924376
4611.017168,-7105.977043,-6435.202183,12509.480420
4611.017482,-8882.471304,-6358.592633,12879.583391
4611.017796,-9474.636058,-6741.640382,12361.439231
4611.018110,-7402.059420,-5975.544884,10436.903782
4611.018425,-4441.235652,-3524.039291,9992.780217
4611.018739,-666.185348,0.000000,10436.903782
4611.019053,4219.173869,4136.915689,9104.533087
4611.019367,7624.121203,5286.058936,6365.771101
4611.019681,9030.512492,7431.126331,7994.224174
4611.019996,10436.903782,9269.755526,7402.059420
4611.020310,10510.924376,9882.631924,6809.894666
4611.020624,8438.347739,7507.735880,6883.915261
4611.020938,4441.235652,4903.011187,8660.409521
4611.021252,666.185348,2451.505594,9252.574275
4611.021567,-3108.864956,-459.657299,9178.553681
4611.021881,-7105.977043,-4213.525239,9178.553681
4611.022195,-9992.780217,-6205.373534,11399.171507
4611.022509,-11029.068536,-5515.887586,12953.603985
4611.022823,-9992.780217,-5975.544884,11251.130318
4611.023137,-8290.306550,-6052.154434,10955.047942
4611.023452,-5033.400406,-4366.744339,10288.862594
4611.023766,0.000000,383.047749,10510.924376
4611.024080,4071.132681,3524.039291,7994.224174
4611.024394,6883.915261,5975.544884,7550.100608
4611.024708,8290.306550,6665.030833,8512.368333
4611.025023,9918.759623,8656.879127,7254.018232
4611.025337,10436.903782,9346.365076,6291.750507
4611.025651,7476.080014,6128.763984,7105.977043
4611.025965,2516.700203,4136.915689,8956.491898
4611.026279,0.000000,1149.143247,9030.512492
4611.026594,-3627.009116,-2068.457845,8956.491898
4611.026908,-7846.182985,-4519.963438,11695.253884
4611.027222,-10436.903782,-7507.735880,12731.542202
4611.027536,-10807.006753,-7660.954980,12065.356855
4611.027850,-9992.780217,-8427.050478,10732.986159
4611.028164,-7994.224174,-6281.983084,11621.233289
4611.028479,-3775.050304,-2987.772442,11769.274478
4611.028793,1332.370696,0.000000,9770.718434
4611.029107,5847.626942,3447.429741,7254.018232
4611.029421,7846.182985,6588.421283,7254.018232
4611.029735,9474.636058,8350.440928,7179.997637
4611.030050,11103.089130,8503.660028,5403.503377
4611.030364,10362.883188,8580.269578,5847.626942
4611.030678,6587.832884,6894.859482,8438.347739
4611.030992,2368.659014,3753.867940,8956.491898
4611.031306,-444.123565,-306.438199,7550.100608
4611.031621,-5181.441594,-3907.087040,9252.574275
4611.031935,-8734.430116,-7507.735880,11695.253884
4611.032249,-10658.965565,-7124.688131,14063.912898
4611.032563,-10510.924376,-7660.954980,12361.439231
4611.032877,-8438.347739,-7201.297681,11325.150913
4611.033192,-5403.503377,-4903.011187,10658.965565
4611.033506,-1036.288319,-1608.800546,10362.883188
4611.033820,4589.276840,3064.381992,9030.512492
4611.034134,8216.285956,5745.716235,6587.832884
4611.034448,9400.615463,8580.269578,7105.977043
4611.034762,10288.862594,9346.365076,6513.812290
4611.035077,10362.883188,9729.412825,6439.791695
4611.035391,8216.285956,7814.174080,6661.853478
4611.035705,4219.173869,4060.306139,8660.409521
4611.036019,148.041188,1072.533697,10436.903782
4611.036333,-3627.009116,-1762.019645,10436.903782
4611.036648,-6883.915261,-4749.792088,11029.068536
4611.036962,-9474.636058,-7277.907231,12731.542202
4611.037276,-10955.047942,-6511.811733,12805.562797
4611.037590,-9992.780217,-5822.325785,11695.253884
4611.037904,-7328.038826,-4519.963438,9770.718434
4611.038219,-3701.029710,-2298.286494,9104.533087
4611.038533,1258.350101,1915.238745,9844.739029
4611.038847,5551.544565,4749.792088,7846.182985
4611.039161,7772.162391,8120.612279,7328.038826
4611.039475,9178.553681,8963.317327,7920.203579
4611.039789,10288.862594,9116.536426,6957.935855
4611.040104,9474.636058,9116.536426,7105.977043
4611.040418,6217.729913,5669.106685,7105.977043
4611.040732,2516.700203,3677.258390,8956.491898
4611.041046,0.000000,1149.143247,9400.615463
4611.041360,-3701.029710,-995.924147,9918.759623
4611.041675,-7105.977043,-4136.915689,11917.315666
4611.041989,-9548.656652,-5898.935335,13249.686362
4611.042303,-9770.718434,-5209.449386,12065.356855
4611.042617,-8660.409521,-5898.935335,9770.718434
4611.042931,-6365.771101,-4826.401637,8512.368333
4611.043246,-2590.720797,-1225.752797,9178.553681
4611.043560,1924.535449,2757.943793,9696.697840
4611.043874,5625.565159,5362.668486,8290.306550
4611.044188,7550.100608,6665.030833,7698.141797
4611.044502,8438.347739,7354.516781,7254.018232
4611.044816,8956.491898,7660.954980,6735.874072
4611.045131,7698.141797,7737.564530,5921.647536
4611.045445,4145.153275,4903.011187,7698.141797
4611.045759,1110.308913,1378.971896,9104.533087
4611.046073,-1702.473667,-459.657299,10288.862594
4611.046387,-4737.318029,-2451.505594,11547.212695
4611.046702,-7105.977043,-5898.935335,11843.295072
4611.047016,-9030.512492,-6741.640382,12287.418637
4611.047330,-8512.368333,-7277.907231,11695.253884
4611.047644,-6439.791695,-6128.763984,10288.862594
4611.047958,-3478.967927,-3753.867940,9696.697840
4611.048273,0.000000,-1072.533697,9992.780217
4611.048587,4589.276840,2757.943793,8882.471304
4611.048901,7402.059420,5822.325785,8290.306550
4611.049215,8734.430116,7507.735880,8660.409521
4611.049529,9548.656652,6971.469032,7105.977043
4611.049843,9474.636058,7201.297681,5995.668130
4611.050158,6291.750507,5669.106685,6365.771101
4611.050472,1776.494261,3140.991542,7846.182985
4611.050786,-2294.638420,383.047749,9252.574275
4611.051100,-5033.400406,-1991.848295,9918.759623
4611.051414,-7994.224174,-4903.011187,11251.130318
4611.051729,-10658.965565,-7737.564530,12953.603985
4611.052043,-11621.233289,-8120.612279,11695.253884
4611.052357,-9696.697840,-8197.221829,9844.739029
4611.052671,-7624.121203,-4979.620737,10362.883188
4611.052985,-3775.050304,-2145.067394,10214.842000
4611.053300,1036.288319,766.095498,9770.718434
4611.053614,5773.606348,3677.258390,8438.347739
4611.053928,8068.244768,6818.249932,8216.285956
4611.054242,9252.574275,8810.098227,7994.224174
4611.054556,10288.862594,7431.126331,6439.791695
4611.054871,9622.677246,8044.002729,7179.997637
4611.055185,6291.750507,6205.373534,8068.244768
4611.055499,2368.659014,3064.381992,9030.512492
4611.055813,-888.247130,-229.828649,8660.409521
4611.056127,-4959.379811,-2221.676944,9622.677246
4611.056441,-7624.121203,-4290.134789,12213.398043
4611.056756,-9696.697840,-5898.935335,13397.727550
4611.057070,-9770.718434,-6894.859482,11695.253884
4611.057384,-8216.285956,-6128.763984,9030.512492
4611.057698,-5477.523971,-3907.087040,9548.656652
4611.058012,-1480.411884,-842.705048,9918.759623
4611.058327,2442.679609,3524.039291,9696.697840
4611.058641,6069.688724,5362.668486,8068.244768
4611.058955,7846.182985,8197.221829,8142.265362
4611.059269,8734.430116,8120.612279,6513.812290
4611.059583,9992.780217,8197.221829,5995.668130
4611.059898,8216.285956,7354.516781,6365.771101
4611.060212,5107.421000,4903.011187,8956.491898
4611.060526,1406.391290,2987.772442,10510.924376
4611.060840,-1628.453072,0.000000,9770.718434
4611.061155,-4515.256246,-2298.286494,10881.027347
4611.061469,-6735.874072,-4826.401637,11843.295072
4611.061783,-8882.471304,-5669.106685,12435.459826
4611.062097,-8364.327145,-6128.763984,10881.027347
4611.062412,-6439.791695,-5362.668486,8734.430116
4611.062726,-4071.132681,-2451.505594,9622.677246
4611.063040,370.102971,1072.533697,10510.924376
4611.063354,4293.194464,5056.230287,9474.636058
4611.063669,7550.100608,5669.106685,7105.977043
4611.063983,9622.677246,7890.783629,7698.141797
4611.064297,10881.027347,8656.879127,7254.018232
4611.064611,10732.986159,8886.707777,6143.709319
4611.064926,8216.285956,7354.516781,5773.606348
4611.065240,3849.070898,5439.278036,8216.285956
4611.065554,0.000000,2681.334243,9770.718434
4611.065868,-3182.885551,-153.219100,10584.944971
4611.066183,-6143.709319,-4519.963438,11473.192101
4611.066497,-9178.553681,-7354.516781,12509.480420
4611.066811,-10658.965565,-7660.954980,11843.295072
4611.067125,-9696.697840,-7431.126331,10288.862594
4611.067440,-7254.018232,-5209.449386,10510.924376
4611.067754,-4737.318029,-2834.553343,11103.089130
4611.068068,-592.164754,153.219100,9844.739029
4611.068382,3330.926739,3140.991542,8216.285956
4611.068697,5477.523971,5669.106685,8142.265362
4611.069011,6957.935855,7124.688131,7105.977043
4611.069325,8364.327145,6435.202183,6217.729913
4611.069639,7550.100608,6435.202183,6291.750507
4611.069954,5033.400406,5056.230287,7698.141797
4611.070268,1110.308913,2681.334243,9696.697840
4611.070582,-2072.576638,-842.705048,9696.697840
4611.070897,-3997.112087,-2604.724693,10658.965565
4611.071211,-5699.585753,-5132.839837,12583.501014
4611.071525,-7624.121203,-7048.078582,13619.789333
4611.071839,-8216.285956,-7814.174080,11621.233289
4611.072154,-6735.874072,-6511.811733,10658.965565
4611.072468,-4441.235652,-3677.258390,10955.047942
4611.072782,-1184.329507,-612.876398,11103.089130
4611.073096,2960.823768,1608.800546,8734.430116
4611.073411,6291.750507,3677.258390,7624.121203
4611.073725,7031.956449,6818.249932,8142.265362
4611.074039,7772.162391,7354.516781,5995.668130
4611.074353,8142.265362,6588.421283,4959.379811
4611.074668,5921.647536,5592.497135,5625.565159
4611.074982,2590.720797,4519.963438,7920.203579
4611.075296,-1110.308913,2374.896044,9918.759623
4611.075610,-2812.782580,-1302.362347,9252.574275
4611.075925,-4293.194464,-3064.381992,9844.739029
4611.076239,-7254.018232,-4903.011187,11843.295072
4611.076553,-8068.244768,-6205.373534,12065.356855
4611.076867,-7402.059420,-5669.106685,10362.883188
4611.077182,-6735.874072,-4060.306139,10362.883188
4611.077496,-3849.070898,-3294.210641,10881.027347
4611.077810,444.123565,536.266849,10658.965565
4611.078124,4293.194464,3294.210641,9696.697840
4611.078439,7920.203579,4903.011187,8142.265362
4611.078753,9104.533087,7967.393179,8364.327145
4611.079067,9252.574275,8273.831378,7254.018232
4611.079381,9770.718434,9039.926876,5773.606348
4611.079696,7254.018232,8656.879127,6809.894666
4611.080010,3404.947333,4749.792088,7772.162391
4611.080324,74.020594,2528.115143,8512.368333
4611.080639,-3997.112087,229.828649,9770.718434
4611.080953,-7105.977043,-2604.724693,11399.171507
4611.081267,-9252.574275,-5439.278036,12361.439231
4611.081581,-10362.883188,-7814.174080,11177.109724
4611.081896,-9622.677246,-6435.202183,10881.027347
4611.082210,-8290.306550,-4749.792088,10658.965565
4611.082524,-4663.297435,-2834.553343,9918.759623
4611.082838,814.226536,1149.143247,9548.656652
4611.083153,5847.626942,3983.696590,8290.306550
4611.083467,8882.471304,8120.612279,9326.594869
4611.083781,9918.759623,9116.536426,7550.100608
4611.084095,11399.171507,9499.584175,6217.729913
4611.084410,10881.027347,9193.145976,6809.894666
4611.084724,7254.018232,6818.249932,7698.141797
4611.085038,3701.029710,4749.792088,9030.512492
4611.085352,666.185348,1302.362347,9474.636058
4611.085667,-3256.906145,-612.876398,10658.965565
4611.085981,-6513.812290,-4596.572988,12657.521608
4611.086295,-8734.430116,-6435.202183,12731.542202
4611.086609,-9844.739029,-7277.907231,10955.047942
4611.086924,-9696.697840,-7124.688131,9474.636058
4611.087238,-7624.121203,-4903.011187,9918.759623
4611.087552,-3552.988522,-1685.410096,10658.965565
4611.087866,814.226536,1378.971896,10066.800811
4611.088181,4515.256246,3677.258390,8142.265362
4611.088495,6513.812290,5439.278036,7179.997637
4611.088809,7550.100608,7584.345430,6735.874072
4611.089123,8290.306550,7354.516781,5699.585753
4611.089438,7254.018232,6511.811733,5181.441594
4611.089752,4441.235652,4519.963438,7772.162391
4611.090066,1184.329507,1532.190996,9622.677246
4611.090380,-1554.432478,-1302.362347,10140.821405
4611.090695,-5033.400406,-3600.648841,11251.130318
4611.091009,-6661.853478,-6435.202183,12657.521608
4611.091323,-7328.038826,-6511.811733,13027.624579
4611.091638,-7031.956449,-7277.907231,11621.233289
4611.091952,-5107.421000,-6358.592633,9474.636058
4611.092266,-2590.720797,-2911.162892,10140.821405
4611.092580,1258.350101,612.876398,10066.800811
4611.092895,5255.462188,3140.991542,8808.450710
4611.093209,7624.121203,5975.544884,8956.491898
4611.093523,8512.368333,7814.174080,8290.306550
4611.093837,9474.636058,7277.907231,6291.750507
4611.094152,8512.368333,6281.983084,5699.585753
4611.094466,5181.441594,4826.401637,6735.874072
4611.094780,1184.329507,3140.991542,8882.471304
4611.095094,-2072.576638,919.314598,10214.842000
4611.095409,-4959.379811,-1532.190996,10436.903782
4611.095723,-7402.059420,-4979.620737,12065.356855
4611.096037,-9178.553681,-6665.030833,12287.418637
4611.096351,-9400.615463,-7431.126331,10658.965565
4611.096666,-8586.388927,-6358.592633,9400.615463
4611.096980,-6661.853478,-3753.867940,9696.697840
4611.097294,-2516.700203,-459.657299,11103.089130
4611.097608,1998.556043,3294.210641,9474.636058
4611.097923,6365.771101,5132.839837,7624.121203
4611.098237,7402.059420,7354.516781,7698.141797
4611.098551,7624.121203,8197.221829,7179.997637
4611.098865,8882.471304,7660.954980,6069.688724
4611.099180,7846.182985,7431.126331,6513.812290
4611.099494,3997.112087,5592.497135,8216.285956
4611.099808,296.082377,3064.381992,9400.615463
4611.100122,-2590.720797,612.876398,9104.533087
4611.100437,-4885.359217,-1685.410096,10214.842000
4611.100751,-7550.100608,-4673.182538,12953.603985
4611.101065,-9030.512492,-6588.421283,12879.583391
4611.101379,-8660.409521,-6894.859482,10510.924376
4611.101694,-7254.018232,-5592.497135,9178.553681
4611.102008,-4959.379811,-2374.896044,10214.842000
4611.102322,-148.041188,1302.362347,11251.130318
4611.102637,3775.050304,3677.258390,9474.636058
4611.102951,6587.832884,5515.887586,7772.162391
4611.103265,7550.100608,6588.421283,7698.141797
4611.103579,8216.285956,6971.469032,6365.771101
4611.103894,8512.368333,7201.297681,5995.668130
4611.104208,6365.771101,6818.249932,7402.059420
4611.104522,2886.803174,4366.744339,9474.636058
4611.104836,148.041188,1378.971896,9548.656652
4611.105151,-2146.597232,-919.314598,9770.718434
4611.105465,-4441.235652,-3140.991542,11621.233289
4611.105779,-6957.935855,-5286.058936,12287.418637
4611.106093,-7402.059420,-6052.154434,12139.377449
4611.106408,-6957.935855,-5362.668486,10584.944971
4611.106722,-5255.462188,-4826.401637,9178.553681
4611.107036,-2368.659014,-1608.800546,9326.594869
4611.107350,1184.329507,1302.362347,8882.471304
4611.107665,5033.400406,4136.915689,8808.450710
4611.107979,7402.059420,6818.249932,8956.491898
4611.108293,7920.203579,6588.421283,8734.430116
4611.108607,8438.347739,6052.154434,6883.915261
4611.108922,7698.141797,6052.154434,5921.647536
4611.109236,4145.153275,4749.792088,7105.977043
4611.109550,740.205942,2681.334243,8660.409521
4611.109864,-1554.432478,1072.533697,9178.553681
4611.110179,-3404.947333,-1072.533697,10436.903782
4611.110493,-6069.688724,-3753.867940,12361.439231
4611.110807,-7994.224174,-6052.154434,12435.459826
4611.111121,-8068.244768,-6894.859482,11103.089130
4611.111436,-6661.853478,-5592.497135,9622.677246
4611.111750,-4367.215058,-3830.477490,9474.636058
4611.112064,-518.144159,-995.924147,9844.739029
4611.112378,3330.926739,2145.067394,9992.780217
4611.112693,5551.544565,4749.792088,9326.594869
4611.113007,6661.853478,6358.592633,9104.533087
4611.113321,7402.059420,6818.249932,8142.265362
4611.113636,7846.182985,5362.668486,7105.977043
4611.113950,5699.585753,5745.716235,6809.894666
4611.114264,2072.576638,3600.648841,7105.977043
4611.114578,-1628.453072,1608.800546,7846.182985
4611.114893,-4293.194464,-306.438199,8364.327145
4611.115207,-5995.668130,-2374.896044,10584.944971
4611.115521,-8068.244768,-4290.134789,12805.562797
4611.115835,-9178.553681,-6205.373534,12361.439231
4611.116150,-8216.285956,-6511.811733,10066.800811
4611.116464,-6661.853478,-5439.278036,8142.265362
4611.116778,-3775.050304,-2681.334243,9252.574275
4611.117092,0.000000,306.438199,9844.739029
4611.117407,3552.988522,3140.991542,9474.636058
4611.117721,6217.729913,4979.620737,9400.615463
4611.118035,7254.018232,6358.592633,8882.471304
4611.118349,8068.244768,5822.325785,7550.100608
4611.118664,8808.450710,5898.935335,6439.791695
4611.118978,6217.729913,5745.716235,6957.935855
4611.119292,2146.597232,2834.553343,8956.491898
4611.119606,-1184.329507,229.828649,8660.409521
4611.119921,-3034.844362,-1225.752797,9178.553681
4611.120235,-4959.379811,-3294.210641,11399.171507
4611.120549,-6513.812290,-4673.182538,12509.480420
4611.120863,-7846.182985,-5898.935335,12435.459826
4611.121178,-6735.874072,-6358.592633,10362.883188
4611.121492,-4441.235652,-4519.963438,9104.533087
4611.121806,-1628.453072,-1762.019645,9548.656652
4611.122120,2146.597232,1302.362347,10066.800811
4611.122435,5255.462188,3983.696590,8660.409521
4611.122749,7550.100608,5745.716235,8586.388927
4611.123063,8364.327145,7507.735880,9326.594869
4611.123378,9104.533087,6741.640382,7105.977043
4611.123692,8956.491898,6511.811733,5329.482782
4611.124006,5551.544565,5745.716235,5699.585753
4611.124320,1554.432478,4136.915689,8216.285956
4611.124635,-2072.576638,1149.143247,8882.471304
4611.124949,-4219.173869,-1608.800546,9474.636058
4611.125263,-6883.915261,-4519.963438,11177.109724
4611.125577,-8660.409521,-5439.278036,12435.459826
4611.125892,-9474.636058,-5822.325785,11177.109724
4611.126206,-7772.162391,-5439.278036,10214.842000
4611.126520,-4219.173869,-3370.820191,9474.636058
4611.126834,-962.267725,-1608.800546,9474.636058
4611.127149,2960.823768,2451.505594,9548.656652
4611.127463,5995.668130,5056.230287,8068.244768
4611.127777,7402.059420,7507.735880,9030.512492
4611.128091,8364.327145,8427.050478,9696.697840
4611.128406,10140.821405,7737.564530,7994.224174
4611.128720,8882.471304,6435.202183,7476.080014
4611.129034,4293.194464,3983.696590,8364.327145
4611.129348,-296.082377,1915.238745,9104.533087
4611.129663,-2738.761985,0.000000,9030.512492
4611.129977,-5477.523971,-2221.676944,10436.903782
4611.130291,-7476.080014,-4366.744339,12361.439231
4611.130605,-9474.636058,-5286.058936,12805.562797
4611.130920,-9474.636058,-5592.497135,10362.883188
4611.131234,-8364.327145,-5362.668486,10066.800811
4611.131548,-6217.729913,-3753.867940,9178.553681
4611.131862,-1998.556043,-919.314598,8512.368333
4611.132177,1184.329507,3294.210641,8808.450710
4611.132491,3923.091493,5592.497135,8142.265362
4611.132805,5403.503377,7354.516781,7550.100608
4611.133119,7105.977043,7124.688131,6809.894666
4611.133434,8364.327145,7584.345430,7179.997637
4611.133748,6883.915261,7201.297681,7772.162391
4611.134062,3701.029710,3600.648841,7698.141797
4611.134377,518.144159,1149.143247,8216.285956
4611.134691,-2516.700203,-383.047749,9252.574275
4611.135005,-5329.482782,-2604.724693,11695.253884
4611.135319,-6883.915261,-4903.011187,11917.315666
4611.135634,-7698.141797,-6511.811733,11991.336260
4611.135948,-6883.915261,-6435.202183,11991.336260
4611.136262,-4885.359217,-4290.134789,11029.068536
4611.136576,-2146.597232,-3064.381992,10288.862594
4611.136891,2442.679609,-383.047749,9992.780217
4611.137205,5551.544565,3447.429741,9400.615463
4611.137519,7328.038826,4903.011187,7772.162391
4611.137833,8438.347739,7584.345430,7772.162391
4611.138148,8956.491898,7814.174080,6957.935855
4611.138462,9622.677246,7967.393179,7772.162391
4611.138776,7624.121203,6588.421283,7254.018232
4611.139090,3701.029710,2451.505594,8882.471304
4611.139405,0.000000,76.609550,8660.409521
4611.139719,-4515.256246,-1608.800546,8882.471304
4611.140033,-7772.162391,-4366.744339,10214.842000
4611.140347,-9548.656652,-5592.497135,11325.150913
4611.140662,-9548.656652,-5209.449386,11621.233289
4611.140976,-7994.224174,-6128.763984,11621.233289
4611.141290,-5255.462188,-4749.792088,10510.924376
4611.141604,-1258.350101,-2221.676944,9918.759623
4611.141919,3478.967927,1225.752797,8882.471304
4611.142233,6735.874072,4903.011187,7698.141797
4611.142547,7994.224174,7584.345430,7846.182985
4611.142861,9030.512492,8963.317327,7772.162391
4611.143176,9400.615463,9039.926876,6809.894666
4611.143490,8290.306550,7584.345430,7624.121203
4611.143804,5255.462188,4596.572988,8438.347739
4611.144118,2146.597232,2451.505594,9030.512492
4611.144433,-1184.329507,383.047749,9252.574275
4611.144747,-5477.523971,-2757.943793,9400.615463
4611.145061,-8438.347739,-5209.449386,11695.253884
4611.145376,-10510.924376,-6281.983084,12583.501014
4611.145690,-10436.903782,-5056.230287,11399.171507
4611.146004,-9326.594869,-5056.230287,11029.068536
4611.146318,-5921.647536,-4213.525239,10807.006753
4611.146633,-1184.329507,-1302.362347,10584.944971
4611.146947,3182.885551,1991.848295,8216.285956
4611.147261,5921.647536,4903.011187,7550.100608
4611.147575,6661.853478,7584.345430,6809.894666
4611.147890,7105.977043,8427.050478,6513.812290
4611.148204,7402.059420,8656.879127,7254.018232
4611.148518,5477.523971,7048.078582,8586.388927
4611.148832,2886.803174,3447.429741,9474.636058
4611.149147,222.061783,306.438199,9770.718434
4611.149461,-2516.700203,-1685.410096,9474.636058
4611.149775,-5329.482782,-4136.915689,10288.862594
4611.150089,-7920.203579,-5515.887586,11029.068536
4611.150404,-9548.656652,-5515.887586,10955.047942
4611.150718,-8586.388927,-4826.401637,10436.903782
4611.151032,-6439.791695,-3677.258390,10288.862594
4611.151346,-3108.864956,-1915.238745,10807.006753
4611.151661,1406.391290,-306.438199,9992.780217
4611.151975,4811.338623,2374.896044,8142.265362
4611.152289,6735.874072,4443.353888,7105.977043
4611.152603,7031.956449,6741.640382,7031.956449
4611.152918,7254.018232,7201.297681,7031.956449
4611.153232,7254.018232,6894.859482,7550.100608
4611.153546,4885.359217,5669.106685,9474.636058
4611.153860,2146.597232,2374.896044,10584.944971
4611.154175,0.000000,-383.047749,9696.697840
4611.154489,-2220.617826,-1378.971896,9844.739029
4611.154803,-4589.276840,-3830.477490,11177.109724
4611.155117,-7031.956449,-5669.106685,10881.027347
4611.155432,-7772.162391,-5286.058936,10066.800811
4611.155746,-7105.977043,-4903.011187,9918.759623
4611.156060,-4737.318029,-2451.505594,10881.027347
4611.156375,-740.205942,-536.266849,11103.089130
4611.156689,3627.009116,1532.190996,9400.615463
4611.157003,6957.935855,3064.381992,7476.080014
4611.157317,8586.388927,5975.544884,7031.956449
4611.157632,8438.347739,7890.783629,6143.709319
4611.157946,8660.409521,7890.783629,5699.585753
4611.158260,7105.977043,8044.002729,7624.121203
4611.158574,3552.988522,5286.058936,10066.800811
4611.158889,444.123565,1685.410096,10288.862594
4611.159203,-1998.556043,-459.657299,9474.636058
4611.159517,-4737.318029,-3217.601092,9770.718434
4611.159831,-6957.935855,-5286.058936,11399.171507
4611.160146,-8290.306550,-5515.887586,10732.986159
4611.160460,-8734.430116,-5056.230287,9918.759623
4611.160774,-7550.100608,-3600.648841,9844.739029
4611.161088,-5107.421000,-1915.238745,10288.862594
4611.161403,-1480.411884,383.047749,10436.903782
4611.161717,3034.844362,2834.553343,8956.491898
4611.162031,5477.523971,4443.353888,8660.409521
4611.162345,6439.791695,6205.373534,8142.265362
4611.162660,7476.080014,5439.278036,6957.935855
4611.162974,7402.059420,7124.688131,7328.038826
4611.163288,4885.359217,6281.983084,8290.306550
4611.163602,1924.535449,3983.696590,10214.842000
4611.163914,-518.144159,1455.581446,9918.759623
4611.164229,-2294.638420,-1302.362347,10288.862594
4611.164543,-3775.050304,-3447.429741,10584.944971
4611.164857,-5921.647536,-4979.620737,10955.047942
4611.165171,-7179.997637,-5592.497135,9844.739029
4611.165486,-7031.956449,-4673.182538,9474.636058
4611.165800,-5477.523971,-2987.772442,9178.553681
4611.166114,-2886.803174,-842.705048,10510.924376
4611.166429,1036.288319,842.705048,10362.883188
4611.166743,4367.215058,3140.991542,8882.471304
4611.167057,5921.647536,4443.353888,7772.162391
4611.167371,6661.853478,4979.620737,7105.977043
4611.167686,7476.080014,5209.449386,6217.729913
4611.168000,6809.894666,5898.935335,6735.874072
4611.168314,3627.009116,5439.278036,9474.636058
4611.168628,296.082377,2528.115143,9918.759623
4611.168943,-1554.432478,-612.876398,9326.594869
4611.169257,-3404.947333,-2451.505594,9696.697840
4611.169571,-5995.668130,-4519.963438,11103.089130
4611.169885,-7920.203579,-6052.154434,10658.965565
4611.170200,-7328.038826,-5898.935335,9548.656652
4611.170514,-6143.709319,-4519.963438,9844.739029
4611.170828,-4441.235652,-2834.553343,10584.944971
4611.171143,-888.247130,-229.828649,10955.047942
4611.171457,1998.556043,1991.848295,9326.594869
4611.171771,5181.441594,3830.477490,8660.409521
4611.172085,7105.977043,5592.497135,8660.409521
4611.172400,8808.450710,6358.592633,8142.265362
4611.172714,9696.697840,7048.078582,7105.977043
4611.173028,7624.121203,6894.859482,7698.141797
4611.173342,3330.926739,5056.230287,9474.636058
4611.173657,518.144159,2145.067394,9474.636058
4611.173971,-2368.659014,229.828649,8956.491898
4611.174285,-4737.318029,-2451.505594,10955.047942
4611.174599,-7179.997637,-4903.011187,11251.130318
4611.174914,-8438.347739,-5439.278036,9770.718434
4611.175228,-8512.368333,-5209.449386,8586.388927
4611.175542,-7328.038826,-3217.601092,8882.471304
4611.175857,-4811.338623,-1225.752797,9474.636058
4611.176171,-1628.453072,612.876398,9474.636058
4611.176485,1850.514855,2911.162892,8956.491898
4611.176799,4145.153275,4213.525239,8956.491898
4611.177114,5847.626942,6205.373534,9030.512492
4611.177428,7994.224174,6052.154434,7698.141797
4611.177742,8882.471304,6511.811733,7402.059420
4611.178056,6809.894666,6511.811733,8660.409521
4611.178371,3404.947333,4290.134789,9622.677246
4611.178685,1110.308913,2145.067394,9326.594869
4611.178999,-1554.432478,-229.828649,9770.718434
4611.179314,-4219.173869,-2451.505594,10955.047942
4611.179628,-6439.791695,-4290.134789,11399.171507
4611.179942,-7254.018232,-5286.058936,10436.903782
4611.180256,-6735.874072,-4903.011187,9474.636058
4611.180571,-5033.400406,-3753.867940,9178.553681
4611.180885,-2442.679609,-1685.410096,10140.821405
4611.181199,592.164754,919.314598,9696.697840
4611.181513,3849.070898,2834.553343,8364.327145
4611.181828,5403.503377,4903.011187,7920.203579
4611.182142,6439.791695,6205.373534,8364.327145
4611.182456,7624.121203,6435.202183,7105.977043
4611.182770,7920.203579,6435.202183,7105.977043
4611.183085,5625.565159,5132.839837,9104.533087
4611.183399,2072.576638,3524.039291,10584.944971
4611.183713,0.000000,689.485948,9992.780217
4611.184028,-2664.741391,-2145.067394,9548.656652
4611.184342,-5551.544565,-4366.744339,10510.924376
4611.184656,-7105.977043,-5132.839837,11103.089130
4611.184970,-7402.059420,-5056.230287,10140.821405
4611.185285,-6069.688724,-4979.620737,9548.656652
4611.185599,-4367.215058,-3447.429741,9992.780217
4611.185913,-666.185348,-1302.362347,10955.047942
4611.186227,2664.741391,689.485948,9252.574275
4611.186542,4441.235652,3217.601092,8068.244768
4611.186856,4959.379811,4673.182538,8068.244768
4611.187170,6735.874072,5975.544884,7402.059420
4611.187484,8216.285956,7048.078582,7254.018232
4611.187799,7328.038826,5975.544884,7476.080014
4611.188113,4737.318029,4673.182538,9474.636058
4611.188427,1628.453072,2298.286494,9178.553681
4611.188742,-1628.453072,76.609550,9474.636058
4611.189056,-4441.235652,-2374.896044,10881.027347
4611.189370,-7105.977043,-5286.058936,11695.253884
4611.189684,-8290.306550,-6052.154434,10955.047942
4611.189999,-8290.306550,-5286.058936,9696.697840
4611.190313,-7105.977043,-4213.525239,9474.636058
4611.190627,-4219.173869,-2681.334243,9992.780217
4611.190941,-666.185348,-306.438199,9474.636058
4611.191256,2368.659014,3217.601092,8882.471304
4611.191570,4219.173869,4903.011187,7846.182985
4611.191884,5033.400406,5362.668486,7402.059420
4611.192199,6217.729913,5515.887586,6735.874072
4611.192513,6809.894666,7201.297681,7179.997637
4611.192827,5033.400406,6665.030833,9696.697840
4611.193141,2738.761985,3217.601092,10584.944971
4611.193456,518.144159,306.438199,10510.924376
4611.193770,-2220.617826,-766.095498,10732.986159
4611.194084,-4737.318029,-2911.162892,10881.027347
4611.194398,-6291.750507,-4903.011187,10436.903782
4611.194713,-7105.977043,-4903.011187,9548.656652
4611.195027,-6809.894666,-3447.429741,9252.574275
4611.195341,-4959.379811,-2911.162892,9474.636058
4611.195655,-1998.556043,-1532.190996,10140.821405
4611.195970,962.267725,766.095498,10288.862594
4611.196284,3701.029710,3140.991542,9474.636058
4611.196598,4811.338623,4213.525239,8808.450710
4611.196913,5181.441594,4060.306139,7179.997637
4611.197227,5995.668130,4903.011187,6735.874072
4611.197541,5403.503377,5975.544884,6957.935855
4611.197855,3997.112087,5209.449386,9326.594869
4611.198170,2294.638420,2911.162892,9844.739029
4611.198484,444.123565,153.219100,10362.883188
4611.198798,-1480.411884,-1532.190996,10658.965565
4611.199112,-4219.173869,-3370.820191,11177.109724
4611.199427,-5699.585753,-4443.353888,10658.965565
4611.199741,-5551.544565,-4596.572988,10436.903782
4611.200055,-5329.482782,-3064.381992,10214.842000
4611.200369,-3627.009116,-1991.848295,10066.800811
4611.200684,-518.144159,-383.047749,10066.800811
4611.200998,2368.659014,1915.238745,8734.430116
4611.201312,4811.338623,3600.648841,8216.285956
4611.201627,5625.565159,5822.325785,8512.368333
4611.201941,6587.832884,6128.763984,7402.059420
4611.202255,7105.977043,6358.592633,6069.688724
4611.202569,5477.523971,5898.935335,6957.935855
4611.202884,2738.761985,4903.011187,9030.512492
4611.203198,740.205942,2911.162892,9474.636058
4611.203512,-1110.308913,612.876398,9252.574275
4611.203826,-4219.173869,-2374.896044,9770.718434
4611.204141,-6291.750507,-4213.525239,11399.171507
4611.204455,-7624.121203,-5132.839837,10214.842000
4611.204769,-6735.874072,-5362.668486,9918.759623
4611.205084,-5255.462188,-3064.381992,10510.924376
4611.205398,-3182.885551,-1378.971896,10881.027347
4611.205712,0.000000,459.657299,10214.842000
4611.206026,3404.947333,2834.553343,9178.553681
4611.206341,4663.297435,4596.572988,8364.327145
4611.206655,4885.359217,6052.154434,7772.162391
4611.206969,6217.729913,5286.058936,6661.853478
4611.207283,6365.771101,5592.497135,7105.977043
4611.207598,3849.070898,4826.401637,9178.553681
4611.207912,1036.288319,2528.115143,10214.842000
4611.208226,-1406.391290,383.047749,10140.821405
4611.208540,-3330.926739,-1991.848295,10066.800811
4611.208855,-4885.359217,-3677.258390,10881.027347
4611.209169,-6143.709319,-4366.744339,11695.253884
4611.209483,-6291.750507,-4979.620737,10807.006753
4611.209798,-5033.400406,-3677.258390,9178.553681
4611.210112,-3182.885551,-2757.943793,9474.636058
4611.210426,-592.164754,0.000000,10066.800811
4611.210740,2368.659014,2374.896044,9252.574275
4611.211055,4663.297435,4290.134789,8660.409521
4611.211369,5625.565159,5745.716235,7920.203579
4611.211683,5551.544565,5056.230287,7105.977043
4611.211997,5255.462188,4290.134789,6809.894666
4611.212312,4441.235652,3983.696590,7105.977043
4611.212626,1850.514855,3064.381992,9104.533087
4611.212940,-962.267725,766.095498,9918.759623
4611.213254,-2368.659014,-995.924147,9918.759623
4611.213569,-3330.926739,-2757.943793,10066.800811
4611.213883,-5255.462188,-3983.696590,10955.047942
4611.214197,-6291.750507,-4213.525239,11177.109724
4611.214512,-5551.544565,-3983.696590,10066.800811
4611.214826,-3849.070898,-3140.991542,9770.718434
4611.215140,-1332.370696,-1762.019645,10362.883188
4611.215454,1628.453072,459.657299,10288.862594
4611.215769,4441.235652,2604.724693,9030.512492
4611.216083,5995.668130,4826.401637,8142.265362
4611.216397,7105.977043,6128.763984,7994.224174
4611.216711,7105.977043,5439.278036,7254.018232
4611.217026,6661.853478,5056.230287,6883.915261
4611.217340,4071.132681,4903.011187,8216.285956
4611.217654,1406.391290,3370.820191,9622.677246
4611.217969,-888.247130,766.095498,9696.697840
4611.218283,-2960.823768,-1072.533697,9918.759623
4611.218597,-5033.400406,-3217.601092,10436.903782
4611.218911,-6809.894666,-4443.353888,11177.109724
4611.219226,-7772.162391,-4443.353888,9918.759623
4611.219540,-5995.668130,-3677.258390,9400.615463
4611.219854,-4515.256246,-1378.971896,10362.883188
4611.220168,-1554.432478,-153.219100,10436.903782
4611.220483,1776.494261,2145.067394,9474.636058
4611.220797,4219.173869,3140.991542,7624.121203
4611.221111,5255.462188,4903.011187,7105.977043
4611.221425,5773.606348,6818.249932,7994.224174
4611.221740,6439.791695,6435.202183,7624.121203
4611.222054,5995.668130,6281.983084,8216.285956
4611.222368,3478.967927,4826.401637,9548.656652
4611.222683,370.102971,1685.410096,10066.800811
4611.222997,-1776.494261,0.000000,9622.677246
4611.223311,-3404.947333,-1991.848295,9844.739029
4611.223625,-5255.462188,-3140.991542,10658.965565
4611.223940,-6661.853478,-4060.306139,11547.212695
4611.224254,-6513.812290,-4443.353888,10807.006753
4611.224568,-5033.400406,-2911.162892,9548.656652
4611.224882,-3182.885551,-1302.362347,9474.636058
4611.225197,-666.185348,536.266849,10214.842000
4611.225511,2664.741391,2298.286494,9326.594869
4611.225825,4811.338623,4290.134789,8438.347739
4611.226139,5107.421000,5132.839837,8512.368333
4611.226454,5181.441594,5132.839837,7846.182985
4611.226768,5255.462188,4903.011187,6809.894666
4611.227082,4145.153275,4596.572988,7105.977043
4611.227397,1258.350101,2987.772442,8734.430116
4611.227711,-740.205942,1149.143247,10214.842000
4611.228025,-2220.617826,-1302.362347,9252.574275
4611.228339,-3627.009116,-2451.505594,9844.739029
4611.228654,-5699.585753,-4443.353888,10732.986159
4611.228968,-6735.874072,-5286.058936,10436.903782
4611.229282,-5551.544565,-4519.963438,9918.759623
4611.229596,-3404.947333,-3370.820191,9474.636058
4611.229911,-518.144159,-842.705048,10584.944971
4611.230225,2590.720797,1302.362347,10584.944971
4611.230539,5181.441594,3140.991542,9030.512492
4611.230854,6735.874072,5132.839837,8216.285956
4611.231168,7402.059420,5669.106685,7920.203579
4611.231482,7402.059420,5669.106685,7105.977043
4611.231796,7105.977043,4749.792088,7105.977043
4611.232111,4589.276840,4290.134789,8660.409521
4611.232425,1332.370696,2757.943793,9770.718434
4611.232739,-1554.432478,0.000000,9770.718434
4611.233053,-3256.906145,-1838.629195,9770.718434
4611.233368,-5625.565159,-3600.648841,10436.903782
4611.233682,-7550.100608,-4903.011187,10881.027347
4611.233996,-8142.265362,-5592.497135,9844.739029
4611.234310,-7105.977043,-4749.792088,9030.512492
4611.234625,-5033.400406,-2451.505594,9844.739029
4611.234939,-1406.391290,0.000000,11029.068536
4611.235253,2294.638420,2911.162892,10436.903782
4611.235568,4885.359217,3524.039291,8512.368333
4611.235882,6069.688724,5209.449386,7994.224174
4611.236196,6883.915261,6358.592633,7698.141797
4611.236510,7476.080014,6435.202183,6883.915261
4611.236825,6217.729913,6511.811733,7328.038826
4611.237139,3182.885551,5132.839837,9104.533087
4611.237453,0.000000,2528.115143,10510.924376
4611.237767,-2516.700203,0.000000,9844.739029
4611.238082,-4367.215058,-2834.553343,9770.718434
4611.238396,-6217.729913,-4213.525239,9918.759623
4611.238710,-8512.368333,-4979.620737,10510.924376
4611.239024,-8512.368333,-5056.230287,10066.800811
4611.239339,-6809.894666,-3907.087040,9992.780217
4611.239653,-3701.029710,-1915.238745,10732.986159
4611.239967,-296.082377,306.438199,10658.965565
4611.240282,3478.967927,2987.772442,9104.533087
4611.240596,6069.688724,4060.306139,8290.306550
4611.240910,7550.100608,6128.763984,8734.430116
4611.241224,8142.265362,6818.249932,8290.306550
4611.241539,8438.347739,6435.202183,7772.162391
4611.241853,6735.874072,5975.544884,7920.203579
4611.242167,3552.988522,5132.839837,9326.594869
4611.242481,888.247130,2834.553343,9474.636058
4611.242796,-1702.473667,-689.485948,9178.553681
4611.243110,-4145.153275,-2604.724693,9770.718434
4611.243424,-7031.956449,-4060.306139,10214.842000
4611.243739,-8956.491898,-5132.839837,10362.883188
4611.244053,-9548.656652,-5362.668486,9992.780217
4611.244367,-6883.915261,-4443.353888,9104.533087
4611.244681,-4145.153275,-1455.581446,10436.903782
4611.244996,0.000000,459.657299,10362.883188
4611.245310,4145.153275,1915.238745,8882.471304
4611.245624,6069.688724,3830.477490,7624.121203
4611.245938,7179.997637,5975.544884,8364.327145
4611.246253,8586.388927,7737.564530,7328.038826
4611.246567,8808.450710,7354.516781,7179.997637
4611.246881,7698.141797,5898.935335,7920.203579
4611.247195,4663.297435,4596.572988,9918.759623
4611.247510,1184.329507,919.314598,10066.800811
4611.247824,-2072.576638,-1455.581446,9918.759623
4611.248138,-5181.441594,-3677.258390,10288.862594
4611.248453,-7476.080014,-5745.716235,11177.109724
4611.248767,-8512.368333,-5286.058936,11029.068536
4611.249081,-8290.306550,-5669.106685,9400.615463
4611.249395,-6143.709319,-4903.011187,9326.594869
4611.249710,-3256.906145,-1915.238745,9992.780217
4611.250024,74.020594,689.485948,10066.800811
4611.250338,3552.988522,2987.772442,9104.533087
4611.250652,5329.482782,4673.182538,8364.327145
4611.250967,6217.729913,5975.544884,8438.347739
4611.251281,7994.224174,7124.688131,6513.812290
4611.251595,8142.265362,7660.954980,6291.750507
4611.251909,5107.421000,6205.373534,8068.244768
4611.252224,1776.494261,3600.648841,9326.594869
4611.252538,-1850.514855,306.438199,9252.574275
4611.252852,-4367.215058,-2681.334243,9326.594869
4611.253167,-7254.018232,-4903.011187,10288.862594
4611.253481,-8660.409521,-6281.983084,11029.068536
4611.253795,-8586.388927,-5745.716235,10510.924376
4611.254109,-7254.018232,-4903.011187,10436.903782
4611.254424,-4737.318029,-3677.258390,10584.944971
4611.254738,-1998.556043,-2145.067394,10066.800811
4611.255052,2072.576638,1149.143247,10066.800811
4611.255366,4885.359217,3753.867940,8586.388927
4611.255681,6587.832884,5669.106685,8734.430116
4611.255995,7624.121203,6818.249932,8512.368333
4611.256309,8734.430116,7354.516781,7328.038826
4611.256624,7402.059420,6971.469032,7179.997637
4611.256938,3849.070898,4673.182538,8512.368333
4611.257252,592.164754,2068.457845,9178.553681
4611.257566,-2220.617826,-229.828649,9622.677246
4611.257881,-4737.318029,-2987.772442,10066.800811
4611.258195,-7476.080014,-5132.839837,10881.027347
4611.258509,-9326.594869,-6281.983084,11325.150913
4611.258823,-8882.471304,-5898.935335,10436.903782
4611.259138,-7105.977043,-4749.792088,9548.656652
4611.259452,-3997.112087,-3677.258390,10955.047942
4611.259766,-222.061783,-459.657299,11547.212695
4611.260080,3701.029710,3140.991542,10584.944971
4611.260395,7179.997637,4596.572988,7328.038826
4611.260709,8734.430116,6971.469032,7254.018232
4611.261023,9696.697840,8656.879127,7698.141797
4611.261338,10658.965565,9652.803275,5625.565159
4611.261652,9400.615463,8427.050478,6291.750507
4611.261966,5255.462188,5515.887586,9030.512492
4611.262280,1036.288319,2681.334243,10140.821405
4611.262595,-1924.535449,0.000000,9030.512492
4611.262909,-5773.606348,-3830.477490,9104.533087
4611.263223,-8882.471304,-5515.887586,10955.047942
4611.263537,-10214.842000,-5286.058936,11695.253884
4611.263852,-8808.450710,-6435.202183,10214.842000
4611.264166,-6217.729913,-5132.839837,9918.759623
4611.264480,-3478.967927,-2681.334243,10807.006753
4611.264794,518.144159,1915.238745,10955.047942
4611.265109,4589.276840,4519.963438,8660.409521
4611.265423,7105.977043,5362.668486,6735.874072
4611.265737,8216.285956,7431.126331,7994.224174
4611.266052,8808.450710,8886.707777,7920.203579
4611.266366,8956.491898,9193.145976,6661.853478
4611.266680,5995.668130,6435.202183,7254.018232
4611.266994,1258.350101,3370.820191,10140.821405
4611.267309,-2294.638420,306.438199,10214.842000
4611.267623,-4663.297435,-2451.505594,9474.636058
4611.267937,-8216.285956,-5515.887586,9696.697840
4611.268251,-9918.759623,-6511.811733,11473.192101
4611.268566,-9474.636058,-5286.058936,11991.336260
4611.268880,-8142.265362,-4979.620737,10214.842000
4611.269194,-4515.256246,-4290.134789,9548.656652
4611.269509,-1628.453072,-1608.800546,10436.903782
4611.269823,2368.659014,2221.676944,10214.842000
4611.270137,6957.935855,4903.011187,8512.368333
4611.270451,8882.471304,6435.202183,7624.121203
4611.270766,8660.409521,6741.640382,7772.162391
4611.271080,9030.512492,7124.688131,7254.018232
4611.271394,8290.306550,7660.954980,7328.038826
4611.271708,4737.318029,4903.011187,8438.347739
4611.272023,222.061783,995.924147,10955.047942
4611.272337,-3923.091493,-1685.410096,10584.944971
4611.272651,-6661.853478,-3983.696590,9474.636058
4611.272966,-8808.450710,-6281.983084,9992.780217
4611.273280,-10066.800811,-6818.249932,11177.109724
4611.273594,-10584.944971,-6281.983084,10584.944971
4611.273908,-7772.162391,-6128.763984,9178.553681
4611.274223,-4885.359217,-3447.429741,9178.553681
4611.274537,-1184.329507,-1455.581446,9548.656652
4611.274851,2590.720797,2068.457845,9474.636058
4611.275165,6069.688724,4443.353888,8364.327145
4611.275480,7846.182985,6435.202183,8438.347739
4611.275794,9252.574275,6665.030833,7920.203579
4611.276108,9770.718434,6281.983084,7698.141797
4611.276423,8438.347739,5592.497135,7772.162391
4611.276737,5329.482782,3983.696590,9474.636058
4611.277051,1628.453072,1378.971896,9770.718434
4611.277365,-1850.514855,-1072.533697,10362.883188
4611.277680,-4737.318029,-3600.648841,10510.924376
4611.277994,-6217.729913,-4749.792088,11473.192101
4611.278308,-7920.203579,-5592.497135,11547.212695
4611.278622,-8364.327145,-6205.373534,9548.656652
4611.278937,-6957.935855,-5132.839837,9400.615463
4611.279251,-3701.029710,-2451.505594,9844.739029
4611.279565,1036.288319,1532.190996,10140.821405
4611.279880,4367.215058,3447.429741,8216.285956
4611.280194,6661.853478,4749.792088,6513.812290
4611.280508,7328.038826,7967.393179,7846.182985
4611.280822,8068.244768,9269.755526,6661.853478
4611.281137,8512.368333,9193.145976,6143.709319
4611.281451,5995.668130,6741.640382,7550.100608
4611.281765,1776.494261,3064.381992,9252.574275
4611.282079,-888.247130,1762.019645,9770.718434
4611.282394,-4071.132681,-1302.362347,9474.636058
4611.282708,-6587.832884,-4366.744339,10510.924376
4611.283022,-8586.388927,-6052.154434,11547.212695
4611.283336,-8586.388927,-4596.572988,12361.439231
4611.283651,-7254.018232,-3753.867940,10658.965565
4611.283965,-5107.421000,-3907.087040,10066.800811
4611.284279,-2146.597232,-1149.143247,11177.109724
4611.284594,2442.679609,2757.943793,10732.986159
4611.284908,5995.668130,4366.744339,7624.121203
4611.285222,7402.059420,6435.202183,7550.100608
4611.285536,7476.080014,7584.345430,9030.512492
4611.285851,8290.306550,9499.584175,7105.977043
4611.286165,7328.038826,8044.002729,6513.812290
4611.286479,3701.029710,4290.134789,7846.182985
4611.286793,-518.144159,1302.362347,9548.656652
4611.287108,-2960.823768,-459.657299,9326.594869
4611.287422,-5921.647536,-2451.505594,9252.574275
4611.287736,-7846.182985,-6052.154434,10140.821405
4611.288051,-9326.594869,-6665.030833,11473.192101
4611.288365,-8734.430116,-4979.620737,11547.212695
4611.288679,-6809.894666,-5286.058936,9400.615463
4611.288993,-4145.153275,-3677.258390,9252.574275
4611.289308,-222.061783,-1149.143247,10807.006753
4611.289622,3849.070898,2145.067394,9918.759623
4611.289936,6957.935855,4903.011187,8364.327145
4611.290250,7994.224174,6052.154434,8438.347739
4611.290565,8956.491898,6435.202183,8290.306550
4611.290879,9030.512492,7201.297681,7328.038826
4611.291193,7624.121203,6205.373534,7550.100608
4611.291508,3923.091493,3677.258390,9030.512492
4611.291822,74.020594,76.609550,9400.615463
4611.292136,-3034.844362,-1302.362347,9252.574275
4611.292450,-5995.668130,-2987.772442,10066.800811
4611.292765,-8142.265362,-6205.373534,10807.006753
4611.293079,-9030.512492,-5592.497135,11177.109724
4611.293393,-8142.265362,-6358.592633,10807.006753
4611.293707,-6217.729913,-5132.839837,10140.821405
4611.294022,-3108.864956,-2987.772442,10362.883188
4611.294336,1332.370696,76.609550,10807.006753
4611.294650,5033.400406,3447.429741,9474.636058
4611.294965,7624.121203,5056.230287,7550.100608
4611.295279,9400.615463,7660.954980,8216.285956
4611.295593,8808.450710,8120.612279,7254.018232
4611.295907,8882.471304,8273.831378,6587.832884
4611.296222,6513.812290,6665.030833,7402.059420
4611.296536,2442.679609,3064.381992,9104.533087
4611.296850,-1036.288319,612.876398,9844.739029
4611.297164,-4589.276840,-1608.800546,9548.656652
4611.297479,-6957.935855,-5439.278036,9622.677246
4611.297793,-9326.594869,-5975.544884,10881.027347
4611.298107,-9474.636058,-5209.449386,11695.253884
4611.298421,-8438.347739,-5056.230287,10955.047942
4611.298736,-5477.523971,-4213.525239,10066.800811
4611.299050,-1924.535449,-1302.362347,10288.862594
4611.299364,2220.617826,2528.115143,9992.780217
4611.299679,6439.791695,4213.525239,7105.977043
4611.299993,8142.265362,6971.469032,7698.141797
4611.300307,8438.347739,8350.440928,8808.450710
4611.300621,9104.533087,9422.974625,8068.244768
4611.300936,8068.244768,7814.174080,7476.080014
4611.301250,4219.173869,4213.525239,8364.327145
4611.301564,444.123565,1991.848295,9622.677246
4611.301878,-3330.926739,76.609550,9622.677246
