#time,accel_x,accel_y,accel_z
16527.118846,-3034.844362,842.705048,7772.162391
16527.119170,-3701.029710,536.266849,8364.327145
16527.119495,-3478.967927,766.095498,8438.347739
16527.119819,-3182.885551,459.657299,9696.697840
16527.120143,-3627.009116,536.266849,10436.903782
16527.120467,-3108.864956,919.314598,10066.800811
16527.120792,-2368.659014,1149.143247,10362.883188
16527.121116,-518.144159,1685.410096,10658.965565
16527.121440,-444.123565,995.924147,11769.274478
16527.121765,-1480.411884,1378.971896,10807.006753
16527.122089,-666.185348,1378.971896,9770.718434
16527.122413,518.144159,1072.533697,10436.903782
16527.122737,-444.123565,1225.752797,9770.718434
16527.123062,-1258.350101,842.705048,9622.677246
16527.123386,-296.082377,1838.629195,9030.512492
16527.123710,-814.226536,1378.971896,9104.533087
16527.124034,-2368.659014,1378.971896,9548.656652
16527.124359,-2590.720797,1762.019645,8808.450710
16527.124683,-3256.906145,2298.286494,8586.388927
16527.125007,-3478.967927,2068.457845,9326.594869
16527.125332,-3849.070898,2374.896044,9918.759623
16527.125656,-4589.276840,3447.429741,8882.471304
16527.125980,-3404.947333,2528.115143,9326.594869
16527.126304,-3478.967927,3140.991542,8734.430116
16527.126629,-3404.947333,3907.087040,9474.636058
16527.126953,-3997.112087,3907.087040,9474.636058
16527.127277,-3923.091493,3370.820191,9178.553681
16527.127602,-2738.761985,3753.867940,8512.368333
16527.127926,-2220.617826,4749.792088,8512.368333
16527.128250,-2960.823768,3600.648841,8808.450710
16527.128574,-1776.494261,3370.820191,9104.533087
16527.128899,-1258.350101,3600.648841,8734.430116
16527.129223,-1258.350101,4596.572988,9030.512492
16527.129547,-1406.391290,4366.744339,9622.677246
16527.129872,-1702.473667,4826.401637,9474.636058
16527.130196,-740.205942,5209.449386,9992.780217
16527.130520,-666.185348,5209.449386,9770.718434
16527.130844,-2072.576638,5209.449386,9400.615463
16527.131169,-2516.700203,5056.230287,9178.553681
16527.131493,-2590.720797,5056.230287,8734.430116
16527.131817,-2516.700203,4596.572988,8882.471304
16527.132141,-3034.844362,3907.087040,8660.409521
16527.132466,-2664.741391,3447.429741,7402.059420
16527.132790,-1480.411884,3600.648841,7254.018232
16527.133114,-1184.329507,3217.601092,7698.141797
16527.133439,-1036.288319,2374.896044,7846.182985
16527.133763,0.000000,1915.238745,8660.409521
16527.134087,740.205942,1762.019645,8586.388927
16527.134411,2368.659014,1532.190996,9252.574275
16527.134736,3256.906145,919.314598,9844.739029
16527.135060,2368.659014,1302.362347,9548.656652
16527.135384,2294.638420,995.924147,9992.780217
16527.135709,3552.988522,919.314598,9844.739029
16527.136033,3627.009116,0.000000,10140.821405
16527.136357,2146.597232,-766.095498,9548.656652
16527.136681,1850.514855,-1225.752797,9252.574275
16527.137006,1628.453072,-1991.848295,9474.636058
16527.137330,1554.432478,-2374.896044,10066.800811
16527.137654,-222.061783,-3217.601092,10436.903782
16527.137979,-740.205942,-3753.867940,10584.944971
16527.138303,-1332.370696,-3830.477490,11325.150913
16527.138627,-666.185348,-4060.306139,12213.398043
16527.138951,-1998.556043,-3983.696590,12805.562797
16527.139276,-3034.844362,-3447.429741,12213.398043
16527.139600,-2368.659014,-2145.067394,11621.233289
16527.139924,-1036.288319,-1532.190996,11177.109724
16527.140253,-1554.432478,0.000000,11103.089130
16527.140578,-1998.556043,0.000000,9252.574275
16527.140902,-1406.391290,1149.143247,8216.285956
16527.141227,-1258.350101,1302.362347,8142.265362
16527.141551,-1776.494261,1532.190996,7105.977043
16527.141876,-1850.514855,1455.581446,6735.874072
16527.142200,-2220.617826,1532.190996,5921.647536
16527.142525,-1924.535449,1455.581446,5847.626942
16527.142849,-888.247130,766.095498,6513.812290
16527.143174,-1480.411884,383.047749,6809.894666
16527.143498,-1702.473667,153.219100,6883.915261
16527.143823,-444.123565,459.657299,7031.956449
16527.144147,0.000000,383.047749,8290.306550
16527.144472,222.061783,689.485948,9474.636058
16527.144796,-296.082377,1378.971896,8882.471304
16527.145121,814.226536,1915.238745,9844.739029
16527.145445,1110.308913,1991.848295,11473.192101
16527.145770,1406.391290,2451.505594,12287.418637
16527.146094,740.205942,2757.943793,12139.377449
16527.146419,1554.432478,3294.210641,11917.315666
16527.146743,2220.617826,2911.162892,11769.274478
16527.147068,2442.679609,3447.429741,11029.068536
16527.147392,1776.494261,3064.381992,10288.862594
16527.147717,1110.308913,2451.505594,9696.697840
16527.148041,2294.638420,2221.676944,9474.636058
16527.148366,1702.473667,1685.410096,9178.553681
16527.148690,1406.391290,1762.019645,7846.182985
16527.149015,1998.556043,1302.362347,7328.038826
16527.149339,2220.617826,1149.143247,7179.997637
16527.149664,1924.535449,1762.019645,7624.121203
16527.149988,2442.679609,2221.676944,8438.347739
16527.150313,2812.782580,2451.505594,7476.080014
16527.150637,3404.947333,2451.505594,7698.141797
16527.150962,4071.132681,2987.772442,7698.141797
16527.151286,3182.885551,2374.896044,7772.162391
16527.151611,1628.453072,1762.019645,7550.100608
16527.151935,888.247130,1762.019645,8290.306550
16527.152260,0.000000,-229.828649,9474.636058
16527.152584,-2220.617826,-919.314598,10140.821405
16527.152909,-3849.070898,-2221.676944,11029.068536
16527.153233,-4515.256246,-2451.505594,11769.274478
16527.153558,-4663.297435,-2757.943793,12139.377449
16527.153882,-5329.482782,-2298.286494,12509.480420
16527.154207,-5107.421000,-1991.848295,11991.336260
16527.154531,-4071.132681,-995.924147,11325.150913
16527.154855,-2812.782580,-229.828649,11399.171507
16527.155180,-2220.617826,153.219100,11547.212695
16527.155504,-2812.782580,766.095498,10140.821405
16527.155829,-2072.576638,919.314598,9474.636058
16527.156153,-592.164754,1302.362347,9030.512492
16527.156478,-1776.494261,842.705048,7920.203579
16527.156802,-1998.556043,383.047749,7179.997637
16527.157127,-814.226536,919.314598,6069.688724
16527.157451,-148.041188,612.876398,5625.565159
16527.157776,296.082377,383.047749,5847.626942
16527.158100,814.226536,306.438199,5551.544565
16527.158425,444.123565,689.485948,5699.585753
16527.158749,1332.370696,153.219100,6217.729913
16527.159074,2220.617826,76.609550,7476.080014
16527.159398,1702.473667,0.000000,8512.368333
16527.159723,1480.411884,306.438199,9252.574275
16527.160047,1628.453072,383.047749,10140.821405
16527.160372,2368.659014,306.438199,10955.047942
16527.160696,1998.556043,0.000000,12361.439231
16527.161021,2220.617826,0.000000,11325.150913
16527.161345,2516.700203,689.485948,11325.150913
16527.161670,3404.947333,0.000000,11695.253884
16527.161994,3552.988522,-306.438199,11991.336260
16527.162319,2960.823768,-842.705048,11769.274478
16527.162643,2738.761985,-1685.410096,10658.965565
16527.162968,4145.153275,-1225.752797,10955.047942
16527.163292,4145.153275,-1838.629195,11029.068536
16527.163617,2812.782580,-1685.410096,9844.739029
16527.163941,3182.885551,-1149.143247,9770.718434
16527.164266,3627.009116,-919.314598,9474.636058
16527.164590,3330.926739,-766.095498,8734.430116
16527.164915,2590.720797,76.609550,8586.388927
16527.165239,2072.576638,842.705048,7328.038826
16527.165564,1998.556043,766.095498,7624.121203
16527.165888,1628.453072,995.924147,7402.059420
16527.166213,0.000000,1378.971896,7846.182985
16527.166537,-1998.556043,1225.752797,7698.141797
16527.166862,-2664.741391,1149.143247,8216.285956
16527.167186,-3552.988522,612.876398,9622.677246
16527.167511,-5773.606348,306.438199,9770.718434
16527.167835,-7105.977043,153.219100,10066.800811
16527.168160,-7179.997637,0.000000,9622.677246
16527.168484,-6957.935855,0.000000,9992.780217
16527.168809,-7031.956449,766.095498,10214.842000
16527.169133,-7105.977043,995.924147,9474.636058
16527.169457,-6069.688724,1225.752797,9400.615463
16527.169782,-5403.503377,2604.724693,8956.491898
16527.170106,-4293.194464,2298.286494,9474.636058
16527.170431,-3256.906145,2911.162892,8882.471304
16527.170755,-2442.679609,2757.943793,8734.430116
16527.171080,-1258.350101,3064.381992,8512.368333
16527.171404,0.000000,2757.943793,8290.306550
16527.171729,0.000000,2221.676944,7402.059420
16527.172053,962.267725,2451.505594,7105.977043
16527.172378,2368.659014,2298.286494,7550.100608
16527.172702,2812.782580,919.314598,7254.018232
16527.173027,2294.638420,1455.581446,7254.018232
16527.173351,2664.741391,1378.971896,7254.018232
16527.173676,3552.988522,995.924147,8068.244768
16527.174000,3182.885551,919.314598,9474.636058
16527.174325,3182.885551,842.705048,10288.862594
16527.174649,3182.885551,1072.533697,10436.903782
16527.174974,3997.112087,995.924147,10066.800811
16527.175298,4737.318029,766.095498,11103.089130
16527.175623,3923.091493,153.219100,11103.089130
16527.175947,3552.988522,-306.438199,10881.027347
16527.176272,3775.050304,-1072.533697,10732.986159
16527.176596,4219.173869,-1762.019645,10881.027347
16527.176921,3034.844362,-1762.019645,10362.883188
16527.177245,1850.514855,-2987.772442,9992.780217
16527.177570,2738.761985,-2911.162892,9696.697840
16527.177894,2812.782580,-3447.429741,10732.986159
16527.178219,2738.761985,-3830.477490,10732.986159
16527.178543,2368.659014,-3140.991542,10214.842000
16527.178868,2960.823768,-2451.505594,9548.656652
16527.179192,3182.885551,-2068.457845,9474.636058
16527.179517,3552.988522,-1455.581446,9992.780217
16527.179841,1702.473667,-919.314598,9696.697840
16527.180166,0.000000,-919.314598,9030.512492
16527.180490,74.020594,-459.657299,9252.574275
16527.180815,-1628.453072,-919.314598,9548.656652
16527.181139,-4367.215058,-919.314598,9474.636058
16527.181464,-6735.874072,-383.047749,9400.615463
16527.181788,-6883.915261,-153.219100,9548.656652
16527.182113,-7179.997637,-612.876398,9770.718434
16527.182437,-8956.491898,153.219100,9844.739029
16527.182762,-9696.697840,612.876398,8882.471304
16527.183086,-8956.491898,1072.533697,8660.409521
16527.183411,-7402.059420,1838.629195,8734.430116
16527.183735,-7476.080014,2068.457845,8216.285956
16527.184059,-8068.244768,2451.505594,7476.080014
16527.184384,-5995.668130,2528.115143,7624.121203
16527.184708,-3923.091493,2757.943793,7920.203579
16527.185033,-4071.132681,3217.601092,8216.285956
16527.185357,-2664.741391,3370.820191,7994.224174
16527.185682,-1110.308913,3677.258390,7254.018232
16527.186006,1110.308913,3677.258390,7179.997637
16527.186331,2516.700203,3600.648841,7624.121203
16527.186655,3256.906145,4136.915689,7328.038826
16527.186980,4293.194464,3677.258390,7550.100608
16527.187304,5477.523971,4290.134789,8216.285956
16527.187629,6365.771101,3677.258390,9474.636058
16527.187953,5329.482782,3294.210641,9992.780217
16527.188278,4737.318029,2911.162892,9844.739029
16527.188602,4959.379811,3064.381992,10881.027347
16527.188927,5033.400406,2298.286494,10658.965565
16527.189251,4959.379811,1915.238745,10955.047942
16527.189576,4293.194464,1915.238745,10510.924376
16527.189900,4293.194464,1532.190996,9992.780217
16527.190225,4293.194464,1302.362347,10214.842000
16527.190549,4367.215058,229.828649,11029.068536
16527.190874,3701.029710,0.000000,9622.677246
16527.191198,3404.947333,153.219100,9252.574275
16527.191523,4515.256246,-995.924147,9918.759623
16527.191847,3552.988522,-1991.848295,10362.883188
16527.192172,1998.556043,-2528.115143,9992.780217
16527.192496,2072.576638,-2528.115143,9548.656652
16527.192821,3034.844362,-2374.896044,9326.594869
16527.193145,2220.617826,-2221.676944,9548.656652
16527.193470,1258.350101,-2911.162892,9252.574275
16527.193794,1332.370696,-1915.238745,8956.491898
16527.194119,740.205942,-1532.190996,9178.553681
16527.194443,0.000000,-1302.362347,9548.656652
16527.194768,-1554.432478,-1302.362347,9474.636058
16527.195092,-2812.782580,-1302.362347,9474.636058
16527.195417,-3923.091493,-1072.533697,10214.842000
16527.195741,-4515.256246,-919.314598,10807.006753
16527.196066,-6587.832884,-1608.800546,11029.068536
16527.196390,-8438.347739,-1608.800546,10288.862594
16527.196715,-8586.388927,-612.876398,9844.739029
16527.197039,-8734.430116,-689.485948,9992.780217
16527.197364,-9474.636058,-459.657299,9474.636058
16527.197688,-8734.430116,153.219100,8956.491898
16527.198013,-8216.285956,612.876398,7920.203579
16527.198337,-7624.121203,1762.019645,7402.059420
16527.198662,-5921.647536,1762.019645,8068.244768
16527.198986,-5329.482782,1991.848295,7402.059420
16527.199310,-3627.009116,2528.115143,7105.977043
16527.199635,-1554.432478,2911.162892,7328.038826
16527.199959,0.000000,2681.334243,7328.038826
16527.200284,740.205942,2604.724693,7179.997637
16527.200608,2368.659014,3064.381992,6957.935855
16527.200933,4589.276840,2987.772442,7698.141797
16527.201257,4885.359217,2681.334243,8586.388927
16527.201582,4811.338623,2604.724693,8660.409521
16527.201906,5995.668130,2911.162892,8882.471304
16527.202231,6735.874072,2987.772442,9992.780217
16527.202555,6365.771101,3677.258390,10584.944971
16527.202880,6217.729913,3294.210641,11399.171507
16527.203204,6365.771101,3217.601092,10807.006753
16527.203529,6957.935855,2911.162892,11029.068536
16527.203853,7328.038826,2528.115143,11103.089130
16527.204178,6291.750507,2451.505594,10881.027347
16527.204502,5551.544565,1915.238745,10584.944971
16527.204827,5403.503377,1455.581446,10362.883188
16527.205151,5107.421000,1225.752797,9992.780217
16527.205476,3997.112087,0.000000,9918.759623
16527.205800,2812.782580,-536.266849,9474.636058
16527.206125,2812.782580,-919.314598,9326.594869
16527.206449,2368.659014,-1072.533697,9474.636058
16527.206774,2368.659014,-689.485948,9326.594869
16527.207098,1702.473667,-1225.752797,9030.512492
16527.207423,1554.432478,-766.095498,8586.388927
16527.207747,1924.535449,-153.219100,8734.430116
16527.208072,1332.370696,-229.828649,9104.533087
16527.208396,-444.123565,-536.266849,9326.594869
16527.208721,-1554.432478,-612.876398,8956.491898
16527.209045,-1850.514855,-612.876398,9252.574275
16527.209370,-3849.070898,-1302.362347,10214.842000
16527.209694,-6291.750507,-1838.629195,9844.739029
16527.210019,-7476.080014,-1685.410096,10288.862594
16527.210343,-8142.265362,-1225.752797,10214.842000
16527.210668,-8290.306550,-1302.362347,10658.965565
16527.210992,-8882.471304,-919.314598,10140.821405
16527.211317,-9178.553681,-306.438199,9548.656652
16527.211641,-7994.224174,153.219100,9400.615463
16527.211966,-7476.080014,1072.533697,9326.594869
16527.212290,-7179.997637,842.705048,8586.388927
16527.212615,-6883.915261,612.876398,7846.182985
16527.212939,-5995.668130,1455.581446,7698.141797
16527.213264,-4293.194464,1378.971896,7846.182985
16527.213588,-4367.215058,1072.533697,7994.224174
16527.213912,-3108.864956,1302.362347,7105.977043
16527.214237,-666.185348,1225.752797,7031.956449
16527.214561,518.144159,1149.143247,7254.018232
16527.214886,2294.638420,1072.533697,7476.080014
16527.215210,3256.906145,1532.190996,7402.059420
16527.215535,4737.318029,1532.190996,7698.141797
16527.215859,6439.791695,2145.067394,8956.491898
16527.216184,7402.059420,2068.457845,10066.800811
16527.216508,7031.956449,1455.581446,10658.965565
16527.216833,7105.977043,1685.410096,11399.171507
16527.217157,7624.121203,2298.286494,11769.274478
16527.217482,7994.224174,1685.410096,11473.192101
16527.217806,7254.018232,1762.019645,11177.109724
16527.218131,6883.915261,1532.190996,10584.944971
16527.218455,6809.894666,1455.581446,10288.862594
16527.218780,6143.709319,1532.190996,10658.965565
16527.219104,5847.626942,536.266849,9992.780217
16527.219429,4959.379811,383.047749,9252.574275
16527.219753,4589.276840,-306.438199,9400.615463
16527.220078,4589.276840,-842.705048,9622.677246
16527.220402,3108.864956,-1455.581446,9918.759623
16527.220727,1998.556043,-1762.019645,9474.636058
16527.221051,2294.638420,-842.705048,9252.574275
16527.221376,2146.597232,-1378.971896,8808.450710
16527.221700,518.144159,-1149.143247,9474.636058
16527.222025,222.061783,-1455.581446,8956.491898
16527.222349,-666.185348,-919.314598,8586.388927
16527.222674,-1406.391290,-766.095498,9104.533087
16527.222998,-2516.700203,-229.828649,9474.636058
16527.223323,-3701.029710,-383.047749,9696.697840
16527.223647,-5477.523971,-1532.190996,9474.636058
16527.223972,-5995.668130,-919.314598,10807.006753
16527.224296,-7254.018232,-842.705048,10955.047942
16527.224621,-8660.409521,-1072.533697,10436.903782
16527.224945,-9400.615463,-689.485948,10140.821405
16527.225270,-9252.574275,0.000000,9696.697840
16527.225594,-9326.594869,306.438199,9770.718434
16527.225919,-9252.574275,612.876398,8586.388927
16527.226243,-9252.574275,306.438199,7698.141797
16527.226568,-7846.182985,1532.190996,7476.080014
16527.226892,-6661.853478,1762.019645,8068.244768
16527.227217,-5921.647536,1838.629195,8142.265362
16527.227541,-4737.318029,2451.505594,7550.100608
16527.227866,-3256.906145,2757.943793,7179.997637
16527.228190,-1110.308913,2451.505594,7254.018232
16527.228514,74.020594,2834.553343,7179.997637
16527.228839,1036.288319,3064.381992,7105.977043
16527.229163,1998.556043,2451.505594,7105.977043
16527.229488,3775.050304,1991.848295,8142.265362
16527.229812,3849.070898,1838.629195,8586.388927
16527.230137,4071.132681,1532.190996,8882.471304
16527.230461,5329.482782,1455.581446,8882.471304
16527.230786,6143.709319,1608.800546,10140.821405
16527.231110,5921.647536,1455.581446,11103.089130
16527.231435,6365.771101,1838.629195,11325.150913
16527.231759,7105.977043,1838.629195,11177.109724
16527.232084,7476.080014,1608.800546,11103.089130
16527.232408,7698.141797,1302.362347,11325.150913
16527.232733,6809.894666,1302.362347,10881.027347
16527.233057,6809.894666,306.438199,10584.944971
16527.233382,6661.853478,-306.438199,10510.924376
16527.233706,5403.503377,-919.314598,10066.800811
16527.234031,4441.235652,-1685.410096,10066.800811
16527.234355,3404.947333,-1991.848295,9474.636058
16527.234680,3330.926739,-2298.286494,9548.656652
16527.235004,3182.885551,-2145.067394,9400.615463
16527.235329,2146.597232,-1991.848295,9178.553681
16527.235653,2072.576638,-1225.752797,8734.430116
16527.235978,1998.556043,-1378.971896,8512.368333
16527.236302,1480.411884,-1149.143247,8882.471304
16527.236627,0.000000,-1149.143247,9252.574275
16527.236951,-1924.535449,-1378.971896,9178.553681
16527.237276,-3034.844362,-1685.410096,9326.594869
16527.237600,-3701.029710,-1915.238745,9474.636058
16527.237925,-6439.791695,-1532.190996,10066.800811
16527.238249,-8660.409521,-2221.676944,10658.965565
16527.238574,-9400.615463,-1762.019645,10214.842000
16527.238898,-9178.553681,-1608.800546,10362.883188
16527.239223,-9696.697840,-995.924147,10510.924376
16527.239547,-9696.697840,0.000000,9696.697840
16527.239872,-9770.718434,0.000000,8956.491898
16527.240196,-8290.306550,766.095498,9400.615463
16527.240521,-6957.935855,1378.971896,8882.471304
16527.240845,-7254.018232,1378.971896,8438.347739
16527.241170,-6513.812290,1608.800546,7550.100608
16527.241494,-4959.379811,2374.896044,7772.162391
16527.241819,-3775.050304,2451.505594,8142.265362
16527.242143,-3330.926739,1378.971896,8290.306550
16527.242468,-2072.576638,2451.505594,6883.915261
16527.242792,296.082377,2987.772442,6809.894666
16527.243117,1924.535449,3064.381992,7105.977043
16527.243441,2590.720797,2834.553343,7402.059420
16527.243765,3404.947333,3294.210641,7328.038826
16527.244090,4885.359217,3677.258390,7328.038826
16527.244414,6513.812290,3294.210641,8290.306550
16527.244738,7402.059420,2451.505594,9326.594869
16527.245063,5699.585753,2451.505594,9918.759623
16527.245387,6069.688724,2987.772442,10288.862594
16527.245711,6735.874072,2451.505594,10881.027347
16527.246036,6735.874072,2068.457845,10732.986159
16527.246360,6365.771101,1685.410096,10510.924376
16527.246684,6957.935855,2068.457845,10362.883188
16527.247008,7031.956449,1838.629195,10955.047942
16527.247333,6735.874072,612.876398,11103.089130
16527.247657,6143.709319,0.000000,10881.027347
16527.247981,5625.565159,0.000000,10066.800811
16527.248306,5773.606348,-306.438199,9992.780217
16527.248630,5403.503377,-1149.143247,10584.944971
16527.248954,3627.009116,-1838.629195,10436.903782
16527.249279,3034.844362,-689.485948,9474.636058
16527.249603,2294.638420,-1532.190996,8956.491898
16527.249927,2294.638420,-1991.848295,9252.574275
16527.250251,592.164754,-1685.410096,9252.574275
16527.250576,-1036.288319,-1608.800546,8956.491898
16527.250900,-1850.514855,-1685.410096,8660.409521
16527.251224,-2146.597232,-1302.362347,9178.553681
16527.251549,-3108.864956,-995.924147,9178.553681
16527.251873,-5329.482782,-1378.971896,9178.553681
16527.252197,-6439.791695,-1149.143247,9548.656652
16527.252522,-6735.874072,-536.266849,10288.862594
16527.252846,-7179.997637,-995.924147,10732.986159
16527.253170,-8512.368333,-1225.752797,10214.842000
16527.253494,-9178.553681,-383.047749,9992.780217
16527.253819,-8216.285956,-459.657299,9622.677246
16527.254143,-8438.347739,-306.438199,9474.636058
16527.254467,-9326.594869,153.219100,9252.574275
16527.254792,-8290.306550,306.438199,8142.265362
16527.255116,-6957.935855,1072.533697,7920.203579
16527.255440,-5921.647536,1378.971896,8364.327145
16527.255765,-5181.441594,1608.800546,7698.141797
16527.256089,-4367.215058,2298.286494,7476.080014
16527.256413,-1924.535449,2145.067394,7105.977043
16527.256737,0.000000,2911.162892,7254.018232
16527.257062,666.185348,2528.115143,7105.977043
16527.257386,1702.473667,2451.505594,7031.956449
16527.257710,3330.926739,2987.772442,7624.121203
16527.258035,4737.318029,3140.991542,8216.285956
16527.258359,5181.441594,2528.115143,8734.430116
16527.258683,5477.523971,2374.896044,8956.491898
16527.259008,6069.688724,2221.676944,9104.533087
16527.259332,6291.750507,2757.943793,10732.986159
16527.259656,6809.894666,2451.505594,10807.006753
16527.259980,6957.935855,2604.724693,10510.924376
16527.260305,7698.141797,2604.724693,10288.862594
16527.260629,8660.409521,2987.772442,10214.842000
16527.260953,8660.409521,2604.724693,10658.965565
16527.261278,7105.977043,1225.752797,10288.862594
16527.261602,6217.729913,1225.752797,10214.842000
16527.261926,6735.874072,306.438199,10140.821405
16527.262250,5551.544565,-536.266849,10214.842000
16527.262575,4145.153275,-919.314598,9844.739029
16527.262899,3182.885551,-919.314598,9918.759623
16527.263223,2960.823768,-1149.143247,10066.800811
16527.263548,3256.906145,-2145.067394,10362.883188
16527.263872,2146.597232,-1149.143247,9770.718434
16527.264196,1184.329507,-1072.533697,9178.553681
16527.264521,1110.308913,-612.876398,9474.636058
16527.264845,1036.288319,-229.828649,9474.636058
16527.265169,-740.205942,-153.219100,9696.697840
16527.265493,-2738.761985,-995.924147,8660.409521
16527.265818,-3923.091493,-306.438199,8734.430116
16527.266142,-4737.318029,-766.095498,9918.759623
16527.266466,-7328.038826,-1378.971896,10436.903782
16527.266791,-9326.594869,-1608.800546,9918.759623
16527.267115,-9474.636058,-1225.752797,9474.636058
16527.267439,-9474.636058,-1302.362347,9844.739029
16527.267764,-9844.739029,0.000000,9474.636058
16527.268088,-9844.739029,-536.266849,8882.471304
16527.268412,-9770.718434,766.095498,8512.368333
16527.268736,-7994.224174,995.924147,7994.224174
16527.269061,-6439.791695,1378.971896,8660.409521
16527.269385,-7031.956449,1225.752797,7994.224174
16527.269709,-5847.626942,1838.629195,7476.080014
16527.270034,-3552.988522,1838.629195,7698.141797
16527.270358,-2738.761985,2145.067394,8068.244768
16527.270682,-1850.514855,1762.019645,7772.162391
16527.271007,-296.082377,1915.238745,6883.915261
16527.271331,1554.432478,2068.457845,7179.997637
16527.271655,3404.947333,2298.286494,8216.285956
16527.271979,4219.173869,2451.505594,8808.450710
16527.272304,3997.112087,2451.505594,8290.306550
16527.272628,5995.668130,2451.505594,8808.450710
16527.272952,7402.059420,2451.505594,9770.718434
16527.273277,6809.894666,2145.067394,10732.986159
16527.273601,5699.585753,1991.848295,10658.965565
16527.273925,6291.750507,1991.848295,10658.965565
16527.274250,7254.018232,1762.019645,10881.027347
16527.274574,6513.812290,1532.190996,10510.924376
16527.274898,6957.935855,2221.676944,10288.862594
16527.275222,6735.874072,1302.362347,9844.739029
16527.275547,6291.750507,995.924147,9918.759623
16527.275871,6143.709319,536.266849,9918.759623
16527.276195,5625.565159,0.000000,9770.718434
16527.276520,5107.421000,-229.828649,9252.574275
16527.276844,5403.503377,-766.095498,9548.656652
16527.277168,5329.482782,-536.266849,9622.677246
16527.277493,3256.906145,-1378.971896,10362.883188
16527.277817,2960.823768,-1378.971896,9770.718434
16527.278141,2886.803174,-1378.971896,9622.677246
16527.278465,1850.514855,-1225.752797,9770.718434
16527.278790,296.082377,-1378.971896,9548.656652
16527.279114,-1258.350101,-689.485948,9104.533087
16527.279438,-1628.453072,-842.705048,9548.656652
16527.279763,-3627.009116,-1608.800546,9696.697840
16527.280087,-5255.462188,-1225.752797,9992.780217
16527.280411,-7254.018232,-1302.362347,10066.800811
16527.280736,-8364.327145,-1149.143247,10140.821405
16527.281060,-8808.450710,-536.266849,9992.780217
16527.281384,-9474.636058,-306.438199,10288.862594
16527.281708,-10584.944971,-995.924147,9474.636058
16527.282033,-10362.883188,0.000000,9104.533087
16527.282357,-9474.636058,306.438199,8808.450710
16527.282681,-9770.718434,383.047749,8734.430116
16527.283006,-9030.512492,919.314598,8142.265362
16527.283330,-7476.080014,1532.190996,7476.080014
16527.283654,-6513.812290,1838.629195,7624.121203
16527.283978,-5847.626942,2068.457845,8068.244768
16527.284303,-3627.009116,2145.067394,7402.059420
16527.284627,-2516.700203,2528.115143,6883.915261
16527.284951,0.000000,3064.381992,7105.977043
16527.285276,1702.473667,3140.991542,7624.121203
16527.285600,2220.617826,2911.162892,7772.162391
16527.285924,3552.988522,2298.286494,7698.141797
16527.286249,4145.153275,2911.162892,8068.244768
16527.286573,4959.379811,2298.286494,8512.368333
16527.286897,5255.462188,1838.629195,9178.553681
16527.287221,5329.482782,1915.238745,9474.636058
16527.287546,5699.585753,2145.067394,9844.739029
16527.287870,6217.729913,2145.067394,11177.109724
16527.288194,6587.832884,1685.410096,11029.068536
16527.288519,7328.038826,2451.505594,10066.800811
16527.288843,8290.306550,1915.238745,9844.739029
16527.289167,8364.327145,2068.457845,10436.903782
16527.289492,8364.327145,1455.581446,10807.006753
16527.289816,6735.874072,842.705048,10288.862594
16527.290140,6513.812290,0.000000,9992.780217
16527.290464,6809.894666,-306.438199,9918.759623
16527.290789,5107.421000,-1608.800546,9844.739029
16527.291113,3552.988522,-2145.067394,9696.697840
16527.291437,3108.864956,-2451.505594,9400.615463
16527.291762,2664.741391,-2221.676944,9474.636058
16527.292086,2220.617826,-2298.286494,9844.739029
16527.292410,1110.308913,-2221.676944,9252.574275
16527.292735,370.102971,-1302.362347,8882.471304
16527.293059,592.164754,-1608.800546,8882.471304
16527.293383,-222.061783,-995.924147,9918.759623
16527.293707,-2664.741391,-1685.410096,9474.636058
16527.294032,-4071.132681,-1302.362347,9622.677246
16527.294356,-4737.318029,-1532.190996,10362.883188
16527.294680,-6069.688724,-1608.800546,10807.006753
16527.295005,-8290.306550,-1915.238745,10807.006753
16527.295329,-9178.553681,-1225.752797,10066.800811
16527.295653,-9400.615463,-1225.752797,9696.697840
16527.295978,-9104.533087,-842.705048,9992.780217
16527.296302,-9474.636058,-306.438199,9474.636058
16527.296626,-9622.677246,229.828649,8882.471304
16527.296950,-9104.533087,919.314598,7920.203579
16527.297275,-7031.956449,1072.533697,8216.285956
16527.297599,-6587.832884,1302.362347,7846.182985
16527.297923,-7031.956449,1149.143247,7254.018232
16527.298248,-5995.668130,1838.629195,7105.977043
16527.298572,-4071.132681,1915.238745,7550.100608
16527.298896,-2590.720797,1838.629195,7402.059420
16527.299221,-1850.514855,2068.457845,7105.977043
16527.299545,74.020594,2221.676944,6439.791695
16527.299869,2368.659014,2987.772442,6439.791695
16527.300193,3701.029710,2681.334243,7994.224174
16527.300518,4811.338623,2911.162892,7846.182985
16527.300842,5181.441594,2604.724693,8956.491898
16527.301166,6809.894666,2834.553343,8882.471304
16527.301491,7698.141797,2757.943793,10732.986159
16527.301815,7550.100608,2528.115143,11473.192101
16527.302139,7031.956449,2681.334243,11325.150913
16527.302464,7402.059420,2681.334243,10807.006753
16527.302788,7698.141797,2221.676944,11251.130318
16527.303112,6957.935855,1685.410096,10881.027347
16527.303436,6735.874072,1302.362347,10436.903782
16527.303761,6513.812290,1149.143247,10436.903782
16527.304085,6217.729913,612.876398,10140.821405
16527.304409,6439.791695,0.000000,10436.903782
16527.304734,5921.647536,-229.828649,9400.615463
16527.305058,5033.400406,-1072.533697,8734.430116
16527.305382,4811.338623,-995.924147,9548.656652
16527.305706,4589.276840,-1225.752797,9770.718434
16527.306031,3108.864956,-1838.629195,9548.656652
16527.306355,2664.741391,-1685.410096,9104.533087
16527.306679,2368.659014,-1532.190996,9178.553681
16527.307004,1184.329507,-2145.067394,9326.594869
16527.307328,-444.123565,-1302.362347,9696.697840
16527.307652,-1776.494261,-1685.410096,9030.512492
16527.307977,-2886.803174,-1149.143247,9474.636058
16527.308301,-4071.132681,-1455.581446,10066.800811
16527.308625,-5921.647536,-1302.362347,10288.862594
16527.308949,-7698.141797,-1608.800546,10510.924376
16527.309274,-7994.224174,-995.924147,10288.862594
16527.309598,-8216.285956,-919.314598,10955.047942
16527.309922,-9992.780217,-919.314598,10584.944971
16527.310247,-10140.821405,-536.266849,9622.677246
16527.310571,-9548.656652,0.000000,9326.594869
16527.310895,-9104.533087,229.828649,9252.574275
16527.311220,-8882.471304,0.000000,8586.388927
16527.311544,-8808.450710,995.924147,7624.121203
16527.311868,-6661.853478,1149.143247,7328.038826
16527.312192,-5403.503377,1225.752797,7698.141797
16527.312517,-4441.235652,1838.629195,7624.121203
16527.312841,-3404.947333,2451.505594,6883.915261
16527.313165,-1628.453072,2604.724693,6809.894666
16527.313490,962.267725,2528.115143,6587.832884
16527.313814,2146.597232,2987.772442,7031.956449
16527.314138,2812.782580,2604.724693,6735.874072
16527.314463,3330.926739,2604.724693,7476.080014
16527.314787,4663.297435,2221.676944,8438.347739
16527.315111,5329.482782,1991.848295,9030.512492
16527.315435,5255.462188,1991.848295,9844.739029
16527.315760,5181.441594,1991.848295,10584.944971
16527.316084,5921.647536,1455.581446,10510.924376
16527.316408,6587.832884,1762.019645,11399.171507
16527.316733,7105.977043,2298.286494,11547.212695
16527.317057,6735.874072,2221.676944,11029.068536
16527.317381,7698.141797,1915.238745,10436.903782
16527.317706,8734.430116,1915.238745,10658.965565
16527.318030,7994.224174,1225.752797,11177.109724
16527.318354,6957.935855,766.095498,10288.862594
16527.318678,6883.915261,76.609550,9770.718434
16527.319003,7105.977043,-459.657299,10658.965565
16527.319327,5181.441594,-689.485948,9918.759623
16527.319651,3997.112087,-919.314598,9548.656652
16527.319976,3849.070898,-995.924147,9178.553681
16527.320300,3478.967927,-689.485948,8956.491898
16527.320624,2294.638420,-1225.752797,8734.430116
16527.320949,1184.329507,-306.438199,8956.491898
16527.321273,666.185348,-689.485948,8290.306550
16527.321597,0.000000,-383.047749,8734.430116
16527.321921,-1776.494261,-766.095498,9326.594869
16527.322246,-4071.132681,-995.924147,9474.636058
16527.322570,-5551.544565,-1302.362347,9400.615463
16527.322894,-6513.812290,-689.485948,9844.739029
16527.323219,-8216.285956,-995.924147,10658.965565
16527.323543,-9400.615463,-1532.190996,10658.965565
16527.323867,-10436.903782,-1532.190996,10066.800811
16527.324192,-9696.697840,-612.876398,9844.739029
16527.324516,-9252.574275,153.219100,10140.821405
16527.324840,-9622.677246,612.876398,9696.697840
16527.325164,-9326.594869,1149.143247,8660.409521
16527.325489,-7772.162391,1072.533697,8364.327145
16527.325813,-5847.626942,1838.629195,8364.327145
16527.326137,-5551.544565,1915.238745,8438.347739
16527.326462,-5625.565159,1915.238745,7624.121203
16527.326786,-4293.194464,2374.896044,7476.080014
16527.327110,-2368.659014,2068.457845,7624.121203
16527.327434,-1776.494261,1455.581446,7031.956449
16527.327759,-740.205942,2451.505594,6439.791695
16527.328083,1110.308913,2681.334243,6735.874072
16527.328407,2294.638420,2298.286494,7105.977043
16527.328732,3552.988522,2221.676944,7698.141797
16527.329056,3923.091493,2374.896044,8216.285956
16527.329380,4589.276840,2145.067394,8216.285956
16527.329705,5699.585753,3064.381992,9400.615463
16527.330029,7105.977043,2451.505594,11177.109724
16527.330353,6513.812290,2221.676944,11325.150913
16527.330677,6143.709319,2221.676944,11029.068536
16527.331002,7328.038826,2221.676944,11177.109724
16527.331326,7920.203579,1991.848295,11473.192101
16527.331650,7476.080014,1455.581446,11177.109724
16527.331975,7179.997637,1608.800546,10584.944971
16527.332299,7031.956449,1378.971896,10362.883188
16527.332623,7105.977043,612.876398,9918.759623
16527.332948,6735.874072,0.000000,10066.800811
16527.333272,5329.482782,0.000000,9844.739029
16527.333596,5181.441594,-766.095498,9622.677246
16527.333920,5033.400406,-612.876398,9918.759623
16527.334245,4589.276840,-1302.362347,9474.636058
16527.334569,2960.823768,-229.828649,8882.471304
16527.334893,1998.556043,-1685.410096,8808.450710
16527.335218,2220.617826,-1149.143247,8882.471304
16527.335542,0.000000,-1378.971896,9474.636058
16527.335866,-2072.576638,-1838.629195,9326.594869
16527.336191,-3330.926739,-1149.143247,8956.491898
16527.336515,-4293.194464,-1302.362347,9030.512492
16527.336839,-5921.647536,-1302.362347,10288.862594
16527.337163,-7846.182985,-995.924147,10214.842000
16527.337488,-9326.594869,-842.705048,9770.718434
16527.337812,-9252.574275,-842.705048,9992.780217
16527.338136,-9030.512492,-766.095498,10362.883188
16527.338461,-10214.842000,-459.657299,9474.636058
16527.338785,-10140.821405,306.438199,9326.594869
16527.339109,-8956.491898,306.438199,9030.512492
16527.339434,-8364.327145,536.266849,8808.450710
16527.339758,-7920.203579,766.095498,8512.368333
16527.340082,-7179.997637,995.924147,8068.244768
16527.340406,-5551.544565,1685.410096,7846.182985
16527.340731,-4737.318029,1608.800546,8364.327145
16527.341055,-3404.947333,1762.019645,8068.244768
16527.341379,-1480.411884,2681.334243,7402.059420
16527.341704,-222.061783,2145.067394,6809.894666
16527.342028,2072.576638,2757.943793,7105.977043
16527.342352,3404.947333,2757.943793,7772.162391
16527.342677,3182.885551,2528.115143,7328.038826
16527.343001,3701.029710,2298.286494,7698.141797
16527.343325,5181.441594,2528.115143,8290.306550
16527.343649,5181.441594,1685.410096,9326.594869
16527.343974,4589.276840,1455.581446,9400.615463
16527.344298,5181.441594,1149.143247,9844.739029
16527.344622,5847.626942,1532.190996,10288.862594
16527.344946,6735.874072,1838.629195,11325.150913
16527.345271,6735.874072,1991.848295,11029.068536
16527.345595,6809.894666,2145.067394,10584.944971
16527.345919,7550.100608,2068.457845,10436.903782
16527.346243,8142.265362,2145.067394,11029.068536
16527.346567,7179.997637,1149.143247,10436.903782
16527.346892,6069.688724,306.438199,10288.862594
16527.347216,5773.606348,-306.438199,10288.862594
16527.347540,5477.523971,-1072.533697,10140.821405
16527.347864,3923.091493,-1608.800546,10362.883188
16527.348188,2886.803174,-1991.848295,9326.594869
16527.348513,3108.864956,-1455.581446,9178.553681
16527.348837,2590.720797,-1838.629195,9104.533087
16527.349161,1998.556043,-1072.533697,9474.636058
16527.349485,1036.288319,-1149.143247,8882.471304
16527.349809,0.000000,-612.876398,8364.327145
16527.350134,-370.102971,-612.876398,9030.512492
16527.350458,-1628.453072,-842.705048,9252.574275
16527.350782,-4071.132681,-1225.752797,9770.718434
16527.351106,-6143.709319,-1838.629195,9400.615463
16527.351430,-6957.935855,-1149.143247,10362.883188
16527.351755,-8364.327145,-1378.971896,10658.965565
16527.352079,-9918.759623,-1532.190996,10362.883188
16527.352403,-10362.883188,-1149.143247,9918.759623
16527.352727,-9844.739029,-689.485948,9622.677246
16527.353051,-9770.718434,-153.219100,9992.780217
16527.353376,-9548.656652,229.828649,9252.574275
16527.353700,-8808.450710,689.485948,8142.265362
16527.354024,-7402.059420,1302.362347,7772.162391
16527.354348,-6143.709319,1532.190996,8512.368333
16527.354672,-5699.585753,1762.019645,8290.306550
16527.354997,-4737.318029,1915.238745,7476.080014
16527.355321,-2664.741391,2451.505594,7402.059420
16527.355645,-1036.288319,1762.019645,6883.915261
16527.355969,222.061783,1991.848295,6883.915261
16527.356293,1258.350101,2374.896044,6957.935855
16527.356618,2886.803174,2145.067394,6957.935855
16527.356942,3923.091493,2374.896044,7772.162391
16527.357266,5181.441594,2374.896044,8142.265362
16527.357590,6513.812290,2451.505594,9104.533087
16527.357914,6143.709319,2604.724693,9400.615463
16527.358239,7550.100608,2911.162892,10362.883188
16527.358563,8142.265362,2987.772442,11251.130318
16527.358887,7328.038826,2451.505594,11103.089130
16527.359211,6957.935855,1915.238745,10732.986159
16527.359535,7624.121203,1762.019645,10955.047942
16527.359860,7105.977043,1608.800546,10955.047942
16527.360184,5773.606348,383.047749,10510.924376
16527.360508,5255.462188,1225.752797,10288.862594
16527.360832,4885.359217,0.000000,9844.739029
16527.361156,5107.421000,-842.705048,10214.842000
16527.361481,4663.297435,-919.314598,10362.883188
16527.361805,3330.926739,-1149.143247,9622.677246
16527.362129,3701.029710,-1302.362347,9622.677246
16527.362453,4737.318029,-612.876398,9844.739029
16527.362777,3701.029710,-1378.971896,9548.656652
16527.363102,2072.576638,-1532.190996,8290.306550
16527.363426,1850.514855,-919.314598,8734.430116
16527.363750,1554.432478,-689.485948,9326.594869
16527.364074,-296.082377,-1532.190996,9622.677246
16527.364398,-1998.556043,-1072.533697,9400.615463
16527.364723,-2960.823768,-1072.533697,8808.450710
16527.365047,-4441.235652,-766.095498,9622.677246
16527.365371,-6587.832884,-1378.971896,10066.800811
16527.365695,-7772.162391,-766.095498,10436.903782
16527.366019,-8512.368333,-766.095498,10066.800811
16527.366344,-8808.450710,-536.266849,10066.800811
16527.366668,-8512.368333,76.609550,9918.759623
16527.366992,-9622.677246,0.000000,9400.615463
16527.367316,-10362.883188,-229.828649,8586.388927
16527.367640,-9030.512492,995.924147,7772.162391
16527.367965,-8586.388927,919.314598,8142.265362
16527.368289,-8290.306550,612.876398,7920.203579
16527.368613,-7476.080014,689.485948,7550.100608
16527.368937,-5921.647536,1455.581446,7402.059420
16527.369262,-3997.112087,1302.362347,7772.162391
16527.369586,-2516.700203,1762.019645,7624.121203
16527.369910,-962.267725,2145.067394,7328.038826
16527.370234,592.164754,2374.896044,7105.977043
16527.370558,3478.967927,2451.505594,7772.162391
16527.370883,4737.318029,2528.115143,8364.327145
16527.371207,4737.318029,2681.334243,8438.347739
16527.371531,5551.544565,3064.381992,8586.388927
16527.371855,7179.997637,2374.896044,8882.471304
16527.372179,6809.894666,2298.286494,9918.759623
16527.372504,6069.688724,1838.629195,10362.883188
16527.372828,6587.832884,1915.238745,10510.924376
16527.373152,7105.977043,2068.457845,11029.068536
16527.373476,6957.935855,1762.019645,11251.130318
16527.373800,6587.832884,2145.067394,10362.883188
16527.374125,6439.791695,1608.800546,9770.718434
16527.374449,6735.874072,1685.410096,10510.924376
16527.374773,7254.018232,153.219100,10955.047942
16527.375097,5477.523971,229.828649,10288.862594
16527.375421,4737.318029,-306.438199,9770.718434
16527.375746,4737.318029,-153.219100,9696.697840
16527.376070,4293.194464,-306.438199,9992.780217
16527.376394,2590.720797,-995.924147,9548.656652
16527.376718,1998.556043,-1455.581446,8734.430116
16527.377042,1924.535449,-1072.533697,8734.430116
16527.377367,1332.370696,-1302.362347,9030.512492
16527.377691,222.061783,-1149.143247,9252.574275
16527.378015,-1258.350101,-1225.752797,9252.574275
16527.378339,-1258.350101,-459.657299,8808.450710
16527.378663,-1406.391290,-612.876398,9844.739029
16527.378988,-3997.112087,-1149.143247,9918.759623
16527.379312,-5847.626942,-1072.533697,9844.739029
16527.379636,-7031.956449,-995.924147,10140.821405
16527.379960,-7254.018232,-842.705048,10510.924376
16527.380284,-8734.430116,-1072.533697,10584.944971
16527.380609,-9474.636058,-612.876398,10140.821405
16527.380933,-9474.636058,0.000000,9326.594869
16527.381257,-8882.471304,383.047749,9326.594869
16527.381581,-8142.265362,689.485948,9252.574275
16527.381905,-8438.347739,459.657299,8512.368333
16527.382230,-7328.038826,1072.533697,7994.224174
16527.382554,-5773.606348,1608.800546,7698.141797
16527.382878,-4441.235652,1915.238745,8216.285956
16527.383202,-4293.194464,2298.286494,7846.182985
16527.383526,-2960.823768,1302.362347,8068.244768
16527.383851,-1258.350101,1838.629195,7105.977043
16527.384175,296.082377,2221.676944,7031.956449
16527.384499,1184.329507,2145.067394,7254.018232
16527.384823,1924.535449,2374.896044,7105.977043
16527.385147,2886.803174,2145.067394,7550.100608
16527.385472,4293.194464,2068.457845,8142.265362
16527.385796,5551.544565,2604.724693,9252.574275
16527.386120,5107.421000,2451.505594,9104.533087
16527.386444,5773.606348,2221.676944,9992.780217
16527.386768,7105.977043,2298.286494,10955.047942
16527.387093,7179.997637,1915.238745,11621.233289
16527.387417,6587.832884,2145.067394,11399.171507
16527.387741,6809.894666,2068.457845,11177.109724
16527.388065,8142.265362,2068.457845,10881.027347
16527.388389,6957.935855,1838.629195,11103.089130
16527.388714,5847.626942,689.485948,10732.986159
16527.389038,5847.626942,459.657299,9844.739029
16527.389362,5477.523971,229.828649,9918.759623
16527.389686,5181.441594,0.000000,9844.739029
16527.390010,4145.153275,-995.924147,9918.759623
16527.390335,3108.864956,-995.924147,9696.697840
16527.390659,3552.988522,-842.705048,9326.594869
16527.390983,3330.926739,-1225.752797,9326.594869
16527.391307,1776.494261,-1225.752797,9104.533087
16527.391631,370.102971,-1532.190996,8734.430116
16527.391956,0.000000,-1302.362347,8512.368333
16527.392280,-888.247130,-766.095498,8956.491898
16527.392604,-2516.700203,-1762.019645,9030.512492
16527.392928,-4071.132681,-1532.190996,9030.512492
16527.393252,-5255.462188,-1149.143247,9178.553681
16527.393577,-6587.832884,-1149.143247,10066.800811
16527.393901,-7402.059420,-1225.752797,11177.109724
16527.394225,-8438.347739,-612.876398,10510.924376
16527.394549,-8586.388927,-153.219100,9918.759623
16527.394873,-7772.162391,0.000000,10584.944971
16527.395198,-7698.141797,306.438199,10140.821405
16527.395522,-8586.388927,536.266849,9400.615463
16527.395846,-8586.388927,536.266849,9030.512492
16527.396170,-7105.977043,919.314598,8512.368333
16527.396494,-6661.853478,766.095498,8364.327145
16527.396819,-6291.750507,1378.971896,8364.327145
16527.397143,-5847.626942,1608.800546,7105.977043
16527.397467,-4145.153275,2068.457845,7550.100608
16527.397791,-2664.741391,2068.457845,7698.141797
16527.398115,-1628.453072,2451.505594,7031.956449
16527.398440,0.000000,2834.553343,6513.812290
16527.398764,2072.576638,2987.772442,6439.791695
16527.399088,3923.091493,3294.210641,6661.853478
16527.399412,4145.153275,3064.381992,7624.121203
16527.399736,4663.297435,2757.943793,7328.038826
16527.400061,6069.688724,2681.334243,8512.368333
16527.400385,6735.874072,2298.286494,9548.656652
16527.400709,6069.688724,1915.238745,10732.986159
16527.401033,6291.750507,1915.238745,10955.047942
16527.401357,7105.977043,1762.019645,11029.068536
16527.401682,7624.121203,1685.410096,11621.233289
16527.402006,8290.306550,2298.286494,11251.130318
16527.402330,7994.224174,1838.629195,11029.068536
16527.402654,7550.100608,1762.019645,10510.924376
16527.402978,7920.203579,1302.362347,10881.027347
16527.403303,7550.100608,689.485948,10881.027347
16527.403627,5551.544565,-306.438199,9992.780217
16527.403951,4737.318029,-995.924147,9696.697840
16527.404275,4219.173869,-995.924147,9474.636058
16527.404599,2960.823768,-2298.286494,9844.739029
16527.404924,1332.370696,-2451.505594,9326.594869
16527.405248,444.123565,-2145.067394,8882.471304
16527.405572,0.000000,-2068.457845,8956.491898
16527.405896,0.000000,-1991.848295,9400.615463
16527.406220,-1332.370696,-1302.362347,8956.491898
16527.406545,-2368.659014,-229.828649,8882.471304
16527.406869,-2072.576638,-842.705048,8808.450710
16527.407193,-2442.679609,-229.828649,9474.636058
16527.407517,-4737.318029,-383.047749,9918.759623
16527.407841,-6661.853478,-689.485948,9770.718434
16527.408166,-7031.956449,-689.485948,10140.821405
16527.408490,-7476.080014,-612.876398,10436.903782
16527.408814,-9400.615463,-766.095498,10732.986159
16527.409138,-9326.594869,-766.095498,9474.636058
16527.409462,-9252.574275,-612.876398,9252.574275
16527.409787,-9252.574275,0.000000,9400.615463
16527.410111,-8660.409521,0.000000,9400.615463
16527.410435,-8512.368333,306.438199,8216.285956
16527.410759,-7105.977043,842.705048,8290.306550
16527.411083,-5477.523971,1225.752797,8290.306550
16527.411408,-4071.132681,1378.971896,8290.306550
16527.411732,-3849.070898,1225.752797,7920.203579
16527.412056,-2516.700203,2145.067394,7179.997637
16527.412380,74.020594,1991.848295,7105.977043
16527.412704,1554.432478,2221.676944,7179.997637
16527.413029,2368.659014,2681.334243,7179.997637
16527.413353,3552.988522,2604.724693,7254.018232
16527.413677,4441.235652,2451.505594,7624.121203
16527.414001,5551.544565,2451.505594,8438.347739
16527.414325,6365.771101,2451.505594,9252.574275
16527.414650,5921.647536,2604.724693,9696.697840
16527.414974,6587.832884,2604.724693,10510.924376
16527.415298,8068.244768,2757.943793,11029.068536
16527.415622,7772.162391,2834.553343,11399.171507
16527.415946,7031.956449,2068.457845,10732.986159
16527.416271,7476.080014,1608.800546,10288.862594
16527.416595,7994.224174,1608.800546,10658.965565
16527.416919,6587.832884,1072.533697,10658.965565
16527.417243,5551.544565,306.438199,10436.903782
16527.417567,5403.503377,0.000000,9622.677246
16527.417892,4885.359217,-153.219100,9400.615463
16527.418216,4589.276840,-459.657299,10436.903782
16527.418540,3552.988522,-1378.971896,9992.780217
16527.418864,2738.761985,-1915.238745,9622.677246
16527.419188,2960.823768,-1378.971896,9548.656652
16527.419513,3330.926739,-1302.362347,9474.636058
16527.419837,1554.432478,-1532.190996,9178.553681
16527.420161,370.102971,-919.314598,9030.512492
16527.420485,518.144159,-612.876398,9474.636058
16527.420809,-962.267725,-383.047749,9770.718434
16527.421134,-3330.926739,-1225.752797,9326.594869
16527.421458,-5033.400406,-995.924147,9474.636058
16527.421782,-6143.709319,-842.705048,9474.636058
16527.422106,-7698.141797,-1072.533697,10140.821405
16527.422431,-8660.409521,-995.924147,10214.842000
16527.422755,-9548.656652,-612.876398,9696.697840
16527.423079,-10066.800811,-612.876398,9252.574275
16527.423403,-8808.450710,229.828649,9474.636058
16527.423727,-9178.553681,612.876398,9622.677246
16527.424052,-9918.759623,536.266849,8660.409521
16527.424376,-8808.450710,1149.143247,7994.224174
16527.424700,-7179.997637,1378.971896,7624.121203
16527.425024,-6513.812290,1072.533697,7846.182985
16527.425348,-5699.585753,383.047749,7476.080014
16527.425673,-4737.318029,1608.800546,7328.038826
16527.425997,-2960.823768,1915.238745,7698.141797
16527.426321,-1258.350101,2068.457845,8068.244768
16527.426645,666.185348,2528.115143,7328.038826
16527.426969,1702.473667,2757.943793,6809.894666
16527.427294,3552.988522,2528.115143,7105.977043
16527.427618,4811.338623,3217.601092,7994.224174
16527.427942,5847.626942,2374.896044,8734.430116
16527.428266,5995.668130,2374.896044,8808.450710
16527.428590,6365.771101,2068.457845,9474.636058
16527.428915,7105.977043,1915.238745,10436.903782
16527.429239,6883.915261,2145.067394,11029.068536
16527.429563,6439.791695,2451.505594,10066.800811
16527.429887,7254.018232,1838.629195,10732.986159
16527.430211,7105.977043,1532.190996,10362.883188
16527.430536,7624.121203,1915.238745,10584.944971
16527.430860,7254.018232,995.924147,10881.027347
16527.431184,6587.832884,612.876398,9918.759623
16527.431508,7254.018232,153.219100,10436.903782
16527.431832,7476.080014,229.828649,10214.842000
16527.432157,5403.503377,-1149.143247,10288.862594
16527.432481,4219.173869,-1762.019645,10066.800811
16527.432805,4367.215058,-1378.971896,10066.800811
16527.433129,2886.803174,-2145.067394,9918.759623
16527.433453,1332.370696,-2604.724693,9474.636058
16527.433778,1258.350101,-2298.286494,8956.491898
16527.434102,592.164754,-1838.629195,8660.409521
16527.434426,-296.082377,-1762.019645,9474.636058
16527.434750,-1110.308913,-842.705048,9548.656652
16527.435074,-2812.782580,-1072.533697,9400.615463
16527.435399,-3478.967927,-612.876398,9252.574275
16527.435723,-4293.194464,-536.266849,10140.821405
16527.436047,-6957.935855,-842.705048,10436.903782
16527.436371,-8734.430116,-1225.752797,9992.780217
16527.436695,-8882.471304,-306.438199,9992.780217
16527.437020,-9178.553681,-229.828649,9844.739029
16527.437344,-10955.047942,-536.266849,9474.636058
16527.437668,-10807.006753,0.000000,9030.512492
16527.437992,-10362.883188,383.047749,8290.306550
16527.438316,-9918.759623,612.876398,8364.327145
16527.438641,-8512.368333,1225.752797,8586.388927
16527.438965,-7698.141797,1608.800546,7402.059420
16527.439289,-6735.874072,2451.505594,7179.997637
16527.439613,-4737.318029,2681.334243,7920.203579
16527.439937,-2812.782580,2987.772442,7772.162391
16527.440262,-2220.617826,2834.553343,7624.121203
16527.440586,-740.205942,2834.553343,7105.977043
16527.440910,1702.473667,3677.258390,7179.997637
16527.441234,3034.844362,2757.943793,7105.977043
16527.441558,3552.988522,2604.724693,7624.121203
16527.441883,4515.256246,2604.724693,7624.121203
16527.442207,5773.606348,2528.115143,8364.327145
16527.442531,6883.915261,2757.943793,9252.574275
16527.442855,7254.018232,2834.553343,10362.883188
16527.443179,6735.874072,2681.334243,10214.842000
16527.443504,7772.162391,2528.115143,10288.862594
16527.443828,8956.491898,2528.115143,11473.192101
16527.444152,8216.285956,2298.286494,11251.130318
16527.444476,7105.977043,1685.410096,10732.986159
16527.444800,7402.059420,1455.581446,10658.965565
16527.445125,7550.100608,766.095498,10584.944971
16527.445449,6513.812290,383.047749,10436.903782
16527.445773,6069.688724,-306.438199,10362.883188
16527.446098,5921.647536,-1378.971896,9400.615463
16527.446422,4663.297435,-1302.362347,9326.594869
16527.446746,4737.318029,-1685.410096,10066.800811
16527.447071,3552.988522,-1915.238745,9696.697840
16527.447395,2812.782580,-2528.115143,9326.594869
16527.447719,3108.864956,-1991.848295,9400.615463
16527.448043,2886.803174,-1838.629195,9622.677246
16527.448368,740.205942,-2451.505594,9844.739029
16527.448692,-962.267725,-2604.724693,9474.636058
16527.449016,-1332.370696,-1991.848295,9548.656652
16527.449341,-3182.885551,-2298.286494,9918.759623
16527.449665,-5403.503377,-2221.676944,10140.821405
16527.449989,-6883.915261,-1762.019645,9918.759623
16527.450314,-8142.265362,-1532.190996,9992.780217
16527.450638,-8882.471304,-689.485948,10881.027347
16527.450962,-9696.697840,-1149.143247,10807.006753
16527.451287,-10214.842000,-459.657299,9770.718434
16527.451611,-9992.780217,153.219100,9252.574275
16527.451935,-9178.553681,536.266849,9400.615463
16527.452259,-9400.615463,459.657299,8956.491898
16527.452584,-9474.636058,1455.581446,8586.388927
16527.452908,-8216.285956,1685.410096,7179.997637
16527.453232,-7031.956449,1532.190996,7328.038826
16527.453557,-6883.915261,1838.629195,7624.121203
16527.453881,-5699.585753,2298.286494,7402.059420
16527.454205,-3997.112087,2604.724693,6883.915261
16527.454530,-1850.514855,3064.381992,7031.956449
16527.454854,296.082377,2834.553343,7105.977043
16527.455178,1036.288319,3830.477490,6661.853478
16527.455503,3034.844362,3907.087040,6809.894666
16527.455827,4589.276840,3907.087040,7105.977043
16527.456151,6439.791695,3907.087040,8512.368333
16527.456475,6439.791695,3294.210641,9252.574275
16527.456800,6291.750507,2757.943793,9400.615463
16527.457124,7402.059420,2221.676944,10066.800811
16527.457448,7846.182985,2451.505594,11399.171507
16527.457773,7179.997637,1762.019645,11695.253884
16527.458097,7550.100608,1685.410096,11177.109724
16527.458421,7698.141797,1915.238745,11177.109724
16527.458746,8216.285956,2068.457845,11103.089130
16527.459070,8364.327145,1991.848295,11695.253884
16527.459394,7920.203579,1378.971896,10807.006753
16527.459718,7031.956449,1762.019645,9252.574275
16527.460043,7846.182985,842.705048,10362.883188
16527.460367,6735.874072,0.000000,9992.780217
16527.460691,4367.215058,-1378.971896,9770.718434
16527.461016,4145.153275,-1838.629195,9400.615463
16527.461340,3552.988522,-2068.457845,9474.636058
16527.461664,2368.659014,-2528.115143,9326.594869
16527.461989,888.247130,-2757.943793,8956.491898
16527.462313,222.061783,-2681.334243,8660.409521
16527.462637,-518.144159,-2528.115143,8734.430116
16527.462962,-1924.535449,-2604.724693,9770.718434
16527.463286,-2960.823768,-2221.676944,9548.656652
16527.463610,-4293.194464,-1838.629195,9474.636058
16527.463934,-4811.338623,-1608.800546,10066.800811
16527.464259,-6291.750507,-1455.581446,10510.924376
16527.464583,-7846.182985,-1685.410096,10881.027347
16527.464907,-9474.636058,-1608.800546,10510.924376
16527.465232,-9770.718434,-1225.752797,10140.821405
16527.465556,-9992.780217,-1225.752797,10066.800811
16527.465880,-10807.006753,-766.095498,9770.718434
16527.466205,-10732.986159,0.000000,9326.594869
16527.466529,-10140.821405,76.609550,8956.491898
16527.466853,-8882.471304,229.828649,8216.285956
16527.467178,-8142.265362,1378.971896,7920.203579
16527.467502,-7328.038826,1685.410096,7772.162391
16527.467826,-5699.585753,2145.067394,7402.059420
16527.468150,-3775.050304,2681.334243,7550.100608
16527.468475,-2294.638420,2911.162892,7105.977043
16527.468799,-962.267725,2834.553343,6365.771101
16527.469123,296.082377,3140.991542,6217.729913
16527.469448,3182.885551,3140.991542,6587.832884
16527.469772,3404.947333,3140.991542,7328.038826
16527.470096,3775.050304,2757.943793,7920.203579
16527.470421,5107.421000,2834.553343,7772.162391
16527.470745,6217.729913,2451.505594,9030.512492
16527.471069,6957.935855,2757.943793,10140.821405
16527.471394,7179.997637,2681.334243,11103.089130
16527.471718,7179.997637,2298.286494,10658.965565
16527.472042,8290.306550,2604.724693,11029.068536
16527.472366,9252.574275,2528.115143,11695.253884
16527.472691,8438.347739,2374.896044,11399.171507
16527.473015,8216.285956,1915.238745,11029.068536
16527.473339,8586.388927,2145.067394,10584.944971
16527.473664,8808.450710,1762.019645,11325.150913
16527.473988,7698.141797,536.266849,10658.965565
16527.474312,6217.729913,0.000000,9696.697840
16527.474637,5625.565159,-383.047749,9548.656652
16527.474961,4959.379811,-1225.752797,10066.800811
16527.475285,3997.112087,-1532.190996,9992.780217
16527.475610,2886.803174,-1838.629195,9326.594869
16527.475934,2368.659014,-2221.676944,9030.512492
16527.476258,1924.535449,-1532.190996,9326.594869
16527.476582,814.226536,-1532.190996,9400.615463
16527.476907,-1258.350101,-2145.067394,9104.533087
16527.477231,-2368.659014,-2221.676944,9178.553681
16527.477555,-3256.906145,-1762.019645,9400.615463
16527.477880,-5181.441594,-1532.190996,9844.739029
16527.478204,-7254.018232,-2145.067394,9770.718434
16527.478528,-8734.430116,-2221.676944,9770.718434
16527.478853,-9770.718434,-1762.019645,9696.697840
16527.479177,-10140.821405,-1608.800546,10658.965565
16527.479501,-10510.924376,-1532.190996,10362.883188
16527.479826,-10732.986159,-919.314598,9696.697840
16527.480150,-10140.821405,-306.438199,9622.677246
16527.480474,-9030.512492,76.609550,9400.615463
16527.480798,-8956.491898,76.609550,9178.553681
16527.481123,-8808.450710,766.095498,8142.265362
16527.481447,-7105.977043,1072.533697,8142.265362
16527.481771,-5551.544565,1455.581446,8364.327145
16527.482096,-5181.441594,1685.410096,7994.224174
16527.482420,-3923.091493,1685.410096,7105.977043
16527.482744,-2072.576638,2987.772442,6143.709319
16527.483069,0.000000,2681.334243,6513.812290
16527.483393,1184.329507,2834.553343,6365.771101
16527.483717,2590.720797,3064.381992,6587.832884
16527.484042,3923.091493,2757.943793,6809.894666
16527.484366,5033.400406,2604.724693,7920.203579
16527.484690,6217.729913,2221.676944,8438.347739
16527.485014,6291.750507,3064.381992,8956.491898
16527.485339,6291.750507,2298.286494,10140.821405
16527.485663,7254.018232,2298.286494,11103.089130
16527.485987,7328.038826,1685.410096,11621.233289
16527.486312,7254.018232,1685.410096,11325.150913
16527.486636,7402.059420,1685.410096,10807.006753
16527.486960,8364.327145,2298.286494,11251.130318
16527.487285,9104.533087,1991.848295,11029.068536
16527.487609,8586.388927,1762.019645,11251.130318
16527.487933,8364.327145,1378.971896,10658.965565
16527.488257,7994.224174,1072.533697,10436.903782
16527.488582,7772.162391,766.095498,10510.924376
16527.488906,6365.771101,-612.876398,10732.986159
16527.489230,4589.276840,-1149.143247,9622.677246
16527.489555,3849.070898,-919.314598,9326.594869
16527.489879,3701.029710,-2145.067394,9992.780217
16527.490203,1554.432478,-2604.724693,8586.388927
16527.490528,222.061783,-1685.410096,8734.430116
16527.490852,-962.267725,-1685.410096,8512.368333
16527.491176,-2072.576638,-1685.410096,8956.491898
16527.491501,-3182.885551,-1302.362347,8956.491898
16527.491825,-4589.276840,-995.924147,8586.388927
16527.492149,-5847.626942,-842.705048,8956.491898
16527.492473,-7254.018232,-459.657299,9622.677246
16527.492798,-7698.141797,-612.876398,10436.903782
16527.493122,-9844.739029,-919.314598,10584.944971
16527.493446,-10362.883188,-919.314598,10066.800811
16527.493771,-10214.842000,-766.095498,10066.800811
16527.494095,-10510.924376,-1302.362347,9844.739029
16527.494419,-10807.006753,-995.924147,9844.739029
16527.494744,-10436.903782,-229.828649,9252.574275
16527.495068,-9030.512492,153.219100,8734.430116
16527.495392,-8364.327145,612.876398,8956.491898
16527.495717,-7254.018232,1225.752797,8586.388927
16527.496041,-6143.709319,1915.238745,8068.244768
16527.496365,-4145.153275,2221.676944,7254.018232
16527.496689,-1850.514855,2911.162892,7550.100608
16527.497014,-1110.308913,2834.553343,7254.018232
16527.497338,370.102971,2604.724693,6365.771101
16527.497662,1998.556043,2834.553343,6069.688724
16527.497987,3701.029710,2681.334243,7105.977043
16527.498311,3775.050304,2221.676944,7550.100608
16527.498635,4737.318029,1838.629195,7476.080014
16527.498960,6217.729913,1838.629195,7994.224174
16527.499284,6365.771101,1762.019645,9252.574275
16527.499608,6365.771101,2374.896044,10510.924376
16527.499933,7105.977043,1991.848295,11325.150913
16527.500257,7698.141797,2068.457845,10955.047942
16527.500581,8808.450710,2451.505594,11325.150913
16527.500905,9770.718434,2911.162892,11251.130318
16527.501230,8882.471304,2374.896044,10955.047942
16527.501554,8290.306550,2145.067394,10732.986159
16527.501878,8216.285956,1455.581446,10658.965565
16527.502203,7698.141797,459.657299,11251.130318
16527.502527,6439.791695,-306.438199,10362.883188
16527.502851,5551.544565,-995.924147,9918.759623
16527.503176,4293.194464,-1149.143247,10066.800811
16527.503500,3775.050304,-1302.362347,10288.862594
16527.503824,3478.967927,-2374.896044,9474.636058
16527.504149,1924.535449,-1838.629195,9104.533087
16527.504473,1628.453072,-1532.190996,8660.409521
16527.504797,1628.453072,-1455.581446,9252.574275
16527.505121,370.102971,-1225.752797,9252.574275
16527.505446,-1554.432478,-1455.581446,9104.533087
16527.505770,-2516.700203,-1302.362347,8512.368333
16527.506094,-3701.029710,-612.876398,8512.368333
16527.506419,-5773.606348,-766.095498,9474.636058
16527.506743,-7846.182985,-919.314598,10140.821405
16527.507067,-9326.594869,-1149.143247,9844.739029
16527.507392,-9770.718434,-919.314598,10140.821405
16527.507716,-10436.903782,-612.876398,10140.821405
16527.508040,-10732.986159,-612.876398,9548.656652
16527.508365,-11325.150913,-153.219100,9252.574275
16527.508689,-9844.739029,689.485948,8882.471304
16527.509013,-9474.636058,306.438199,9104.533087
16527.509337,-9474.636058,842.705048,8512.368333
16527.509662,-8586.388927,1455.581446,8068.244768
16527.509986,-7179.997637,1608.800546,8364.327145
16527.510310,-5699.585753,1838.629195,7772.162391
16527.510635,-5255.462188,2298.286494,7476.080014
16527.510959,-3330.926739,2451.505594,7105.977043
16527.511283,-1184.329507,2757.943793,7105.977043
16527.511608,592.164754,2681.334243,6809.894666
16527.511932,2442.679609,3600.648841,7105.977043
16527.512256,4145.153275,3447.429741,7402.059420
16527.512580,5329.482782,3064.381992,6735.874072
16527.512905,7698.141797,3370.820191,8512.368333
16527.513229,7994.224174,3370.820191,8808.450710
16527.513553,7550.100608,2911.162892,9696.697840
16527.513878,7772.162391,2298.286494,10214.842000
16527.514202,8586.388927,2068.457845,10732.986159
16527.514526,8438.347739,1762.019645,11399.171507
16527.514851,8512.368333,1762.019645,10732.986159
16527.515175,8882.471304,1455.581446,10362.883188
16527.515499,8364.327145,1072.533697,10288.862594
16527.515824,7920.203579,1532.190996,10807.006753
16527.516148,7179.997637,766.095498,10881.027347
16527.516472,6661.853478,76.609550,10288.862594
16527.516796,6439.791695,-383.047749,9918.759623
16527.517121,6069.688724,-919.314598,10288.862594
16527.517445,4663.297435,-1608.800546,10140.821405
16527.517769,3478.967927,-2374.896044,10140.821405
16527.518094,3256.906145,-1838.629195,9622.677246
16527.518418,2294.638420,-2604.724693,9770.718434
16527.518742,1258.350101,-2528.115143,9474.636058
16527.519067,222.061783,-2451.505594,9326.594869
16527.519391,-666.185348,-2298.286494,9474.636058
16527.519715,-1480.411884,-1685.410096,9326.594869
16527.520040,-2738.761985,-919.314598,9548.656652
16527.520364,-4293.194464,-1149.143247,9548.656652
16527.520688,-6291.750507,-1149.143247,9844.739029
16527.521012,-7624.121203,-766.095498,9992.780217
16527.521337,-8512.368333,-229.828649,10140.821405
16527.521661,-10362.883188,-612.876398,9844.739029
16527.521985,-11399.171507,-383.047749,9474.636058
16527.522310,-10732.986159,612.876398,8808.450710
16527.522634,-11621.233289,229.828649,8586.388927
16527.522958,-12065.356855,-459.657299,8512.368333
16527.523283,-11103.089130,306.438199,7698.141797
16527.523607,-9474.636058,1072.533697,7550.100608
16527.523931,-8364.327145,1685.410096,7698.141797
16527.524256,-7254.018232,2221.676944,7031.956449
16527.524580,-5551.544565,2757.943793,6957.935855
16527.524904,-3182.885551,2834.553343,7105.977043
16527.525228,-1110.308913,3064.381992,7698.141797
16527.525553,370.102971,3370.820191,7550.100608
16527.525877,1998.556043,3294.210641,6883.915261
16527.526201,3775.050304,3370.820191,7476.080014
16527.526526,5107.421000,3677.258390,7624.121203
16527.526850,5699.585753,2604.724693,8438.347739
16527.527174,5921.647536,2298.286494,8882.471304
16527.527499,7328.038826,2298.286494,9326.594869
16527.527823,7476.080014,2528.115143,10362.883188
16527.528147,7846.182985,2221.676944,11251.130318
16527.528472,7994.224174,2374.896044,11251.130318
16527.528796,8586.388927,2221.676944,11325.150913
16527.529120,9844.739029,2911.162892,11029.068536
16527.529444,9548.656652,2834.553343,10732.986159
16527.529769,8290.306550,2145.067394,10732.986159
16527.530093,7476.080014,1838.629195,10140.821405
16527.530417,7772.162391,995.924147,10214.842000
16527.530742,6809.894666,0.000000,9918.759623
16527.531066,5033.400406,-612.876398,9104.533087
16527.531390,4589.276840,-995.924147,9252.574275
16527.531715,3775.050304,-1991.848295,9548.656652
16527.532039,3108.864956,-2298.286494,9548.656652
16527.532363,2368.659014,-2221.676944,9696.697840
16527.532688,1554.432478,-1991.848295,9030.512492
16527.533012,1332.370696,-1991.848295,9326.594869
16527.533336,666.185348,-1685.410096,9622.677246
16527.533660,-666.185348,-1685.410096,10066.800811
16527.533985,-2664.741391,-2451.505594,9770.718434
16527.534309,-4219.173869,-1685.410096,9474.636058
16527.534633,-5107.421000,-1532.190996,10288.862594
16527.534958,-7550.100608,-2068.457845,10658.965565
16527.535282,-9548.656652,-1915.238745,10510.924376
16527.535606,-10140.821405,-1608.800546,9770.718434
16527.535931,-10584.944971,-1455.581446,9844.739029
16527.536255,-10807.006753,-1685.410096,9696.697840
16527.536579,-11473.192101,-459.657299,8956.491898
16527.536904,-10807.006753,0.000000,9104.533087
16527.537228,-9918.759623,76.609550,8586.388927
16527.537552,-8660.409521,612.876398,8438.347739
16527.537876,-8142.265362,842.705048,7846.182985
16527.538201,-7624.121203,1838.629195,7328.038826
16527.538525,-5921.647536,1608.800546,7105.977043
16527.538849,-4367.215058,2298.286494,7994.224174
16527.539174,-3552.988522,2374.896044,7254.018232
16527.539498,-1924.535449,2451.505594,6365.771101
16527.539822,444.123565,2834.553343,6291.750507
16527.540147,2590.720797,3907.087040,6587.832884
16527.540471,3478.967927,3217.601092,6957.935855
16527.540795,4293.194464,3600.648841,7328.038826
16527.541119,6957.935855,2681.334243,7994.224174
16527.541444,7698.141797,2834.553343,8956.491898
16527.541768,7920.203579,2681.334243,10140.821405
16527.542092,7550.100608,2604.724693,11029.068536
16527.542417,7772.162391,2604.724693,11325.150913
16527.542741,8808.450710,2298.286494,11399.171507
16527.543065,8512.368333,1991.848295,11843.295072
16527.543390,8290.306550,2451.505594,11547.212695
16527.543714,8882.471304,2451.505594,10955.047942
16527.544038,8586.388927,2068.457845,11177.109724
16527.544363,7846.182985,1685.410096,10807.006753
16527.544687,7328.038826,689.485948,10288.862594
16527.545011,6809.894666,842.705048,9030.512492
16527.545335,6883.915261,229.828649,9548.656652
16527.545660,5477.523971,-842.705048,9400.615463
16527.545984,3997.112087,-1685.410096,9696.697840
16527.546309,2664.741391,-2374.896044,9474.636058
16527.546633,2368.659014,-2145.067394,9474.636058
16527.546957,1184.329507,-2451.505594,9252.574275
16527.547282,0.000000,-2298.286494,9548.656652
16527.547606,-1628.453072,-2068.457845,9252.574275
16527.547930,-2072.576638,-1838.629195,9474.636058
16527.548255,-2960.823768,-1685.410096,9696.697840
16527.548579,-4737.318029,-1532.190996,9844.739029
16527.548903,-6439.791695,-1302.362347,10066.800811
16527.549228,-7550.100608,-1378.971896,9918.759623
16527.549552,-8216.285956,-995.924147,10732.986159
16527.549877,-9104.533087,-1532.190996,10955.047942
16527.550201,-10362.883188,-1225.752797,9696.697840
16527.550525,-10732.986159,-995.924147,9622.677246
16527.550850,-10288.862594,-919.314598,9844.739029
16527.551174,-10881.027347,-1072.533697,9770.718434
16527.551498,-10955.047942,-995.924147,9030.512492
16527.551823,-9474.636058,-306.438199,7920.203579
16527.552147,-8808.450710,383.047749,7772.162391
16527.552471,-7624.121203,536.266849,8290.306550
16527.552796,-6291.750507,1532.190996,7846.182985
16527.553120,-4811.338623,1915.238745,7328.038826
16527.553445,-2368.659014,2681.334243,7254.018232
16527.553769,-296.082377,3294.210641,6735.874072
16527.554093,666.185348,3294.210641,6217.729913
16527.554418,2146.597232,3524.039291,7254.018232
16527.554742,4219.173869,3370.820191,7254.018232
16527.555066,4737.318029,3447.429741,7328.038826
16527.555391,6217.729913,2681.334243,8068.244768
16527.555715,5699.585753,2604.724693,8734.430116
16527.556039,6587.832884,2221.676944,9548.656652
16527.556364,7476.080014,2604.724693,11177.109724
16527.556688,7994.224174,2757.943793,11325.150913
16527.557013,8808.450710,2451.505594,11029.068536
16527.557337,9918.759623,2528.115143,11251.130318
16527.557661,10732.986159,3294.210641,11103.089130
16527.557986,10436.903782,2681.334243,11325.150913
16527.558310,8882.471304,1762.019645,11029.068536
16527.558634,8586.388927,1455.581446,10214.842000
16527.558959,9104.533087,842.705048,10066.800811
16527.559283,7328.038826,-459.657299,9844.739029
16527.559607,5181.441594,-536.266849,9474.636058
16527.559932,5181.441594,-919.314598,9474.636058
16527.560256,4071.132681,-1685.410096,9770.718434
16527.560581,2812.782580,-2221.676944,9548.656652
16527.560905,1628.453072,-2145.067394,9252.574275
16527.561229,592.164754,-2068.457845,9030.512492
16527.561554,296.082377,-1532.190996,9252.574275
16527.561878,74.020594,-1072.533697,9400.615463
16527.562202,-2220.617826,-1608.800546,10066.800811
16527.562527,-4219.173869,-1685.410096,9400.615463
16527.562851,-4811.338623,-1149.143247,10066.800811
16527.563176,-6587.832884,-995.924147,10288.862594
16527.563500,-8586.388927,-1608.800546,10732.986159
16527.563824,-10140.821405,-2145.067394,10362.883188
16527.564149,-10658.965565,-1455.581446,9696.697840
16527.564473,-10807.006753,-1149.143247,9844.739029
16527.564797,-11251.130318,-1072.533697,9548.656652
16527.565122,-10955.047942,-536.266849,9474.636058
16527.565446,-10955.047942,-306.438199,8734.430116
16527.565770,-9178.553681,459.657299,8882.471304
16527.566095,-7920.203579,612.876398,7550.100608
16527.566419,-7846.182985,1225.752797,7772.162391
16527.566744,-7179.997637,1455.581446,7254.018232
16527.567068,-5033.400406,2145.067394,7550.100608
16527.567392,-3256.906145,2145.067394,7698.141797
16527.567717,-2516.700203,2451.505594,7105.977043
16527.568041,-814.226536,2911.162892,6069.688724
16527.568365,1332.370696,2911.162892,6291.750507
16527.568690,3256.906145,3064.381992,7550.100608
16527.569014,4071.132681,3140.991542,7105.977043
16527.569338,4515.256246,2604.724693,7846.182985
16527.569663,5921.647536,2681.334243,7920.203579
16527.569987,7402.059420,2528.115143,9326.594869
16527.570312,7328.038826,2451.505594,10658.965565
16527.570636,7476.080014,1685.410096,11177.109724
16527.570960,8290.306550,2374.896044,11251.130318
16527.571285,8808.450710,2145.067394,11029.068536
16527.571609,8808.450710,2221.676944,11547.212695
16527.571933,9178.553681,2068.457845,10807.006753
16527.572258,9104.533087,1762.019645,11029.068536
16527.572582,8734.430116,1302.362347,10732.986159
16527.572906,8586.388927,1149.143247,10732.986159
16527.573231,7920.203579,689.485948,10288.862594
16527.573555,7105.977043,-459.657299,9400.615463
16527.573880,6365.771101,-689.485948,10066.800811
16527.574204,5625.565159,-1532.190996,10140.821405
16527.574528,3478.967927,-2221.676944,10214.842000
16527.574853,2738.761985,-2451.505594,9696.697840
16527.575177,2368.659014,-1838.629195,8956.491898
16527.575501,592.164754,-2068.457845,9400.615463
16527.575826,-1036.288319,-1915.238745,9474.636058
16527.576150,-2220.617826,-1838.629195,9400.615463
16527.576474,-3256.906145,-1302.362347,8808.450710
16527.576799,-4367.215058,-1149.143247,9770.718434
16527.577123,-5847.626942,-536.266849,9696.697840
16527.577448,-7994.224174,-689.485948,9770.718434
16527.577772,-8586.388927,-995.924147,9474.636058
16527.578096,-9474.636058,-383.047749,9992.780217
16527.578421,-10436.903782,-383.047749,10140.821405
16527.578745,-11769.274478,-919.314598,9400.615463
16527.579069,-11547.212695,-536.266849,9400.615463
16527.579394,-10955.047942,76.609550,9178.553681
16527.579718,-11029.068536,0.000000,8956.491898
16527.580042,-10362.883188,-459.657299,8142.265362
16527.580367,-9104.533087,612.876398,7476.080014
16527.580691,-7698.141797,1532.190996,7846.182985
16527.581016,-6439.791695,1685.410096,7698.141797
16527.581340,-4663.297435,2298.286494,7698.141797
16527.581664,-2960.823768,2757.943793,7254.018232
16527.581989,-666.185348,3140.991542,6809.894666
16527.582313,1628.453072,3064.381992,7328.038826
16527.582637,2294.638420,2987.772442,6735.874072
16527.582962,3478.967927,3447.429741,7328.038826
16527.583286,4663.297435,3064.381992,7846.182985
16527.583610,5847.626942,2528.115143,8364.327145
16527.583935,5773.606348,2221.676944,9030.512492
16527.584259,5921.647536,1915.238745,9696.697840
16527.584584,6513.812290,2298.286494,10066.800811
16527.584908,7846.182985,2834.553343,10955.047942
16527.585232,8216.285956,2298.286494,11473.192101
16527.585557,8290.306550,2145.067394,10881.027347
16527.585881,9548.656652,2604.724693,10510.924376
16527.586205,10510.924376,2834.553343,11177.109724
16527.586530,9622.677246,1991.848295,10881.027347
16527.586854,8586.388927,1302.362347,10362.883188
16527.587178,8068.244768,459.657299,9622.677246
16527.587503,7772.162391,-306.438199,10214.842000
16527.587827,6143.709319,-1532.190996,10214.842000
16527.588152,4737.318029,-1991.848295,9992.780217
16527.588476,3701.029710,-2374.896044,9696.697840
16527.588800,3775.050304,-2528.115143,9918.759623
16527.589125,2442.679609,-2604.724693,9696.697840
16527.589449,1998.556043,-2451.505594,9844.739029
16527.589773,518.144159,-1302.362347,9178.553681
16527.590098,444.123565,-1225.752797,9844.739029
16527.590422,-592.164754,-1149.143247,10140.821405
16527.590746,-3478.967927,-1378.971896,9696.697840
16527.591071,-4737.318029,-1225.752797,9400.615463
16527.591395,-6069.688724,-1225.752797,9918.759623
16527.591720,-7920.203579,-1302.362347,10362.883188
16527.592044,-10362.883188,-1072.533697,10140.821405
16527.592368,-11621.233289,-1225.752797,9696.697840
16527.592693,-11917.315666,-1149.143247,9326.594869
16527.593017,-11769.274478,-995.924147,9326.594869
16527.593341,-11843.295072,-536.266849,9252.574275
16527.593666,-11917.315666,76.609550,8216.285956
16527.593990,-10436.903782,1378.971896,7846.182985
16527.594314,-8808.450710,1225.752797,8142.265362
16527.594639,-8512.368333,1378.971896,7772.162391
16527.594963,-7994.224174,1532.190996,7550.100608
16527.595288,-6069.688724,1915.238745,7476.080014
16527.595612,-3923.091493,2451.505594,7550.100608
16527.595936,-2072.576638,2528.115143,7772.162391
16527.596261,-1628.453072,3294.210641,6661.853478
16527.596585,592.164754,3753.867940,5625.565159
16527.596909,2886.803174,3370.820191,6883.915261
16527.597234,3849.070898,3447.429741,8216.285956
16527.597558,4811.338623,2911.162892,7994.224174
16527.597882,5995.668130,3217.601092,8364.327145
16527.598207,7254.018232,2987.772442,9252.574275
16527.598531,7624.121203,2987.772442,10436.903782
16527.598856,8068.244768,2911.162892,11251.130318
16527.599180,7920.203579,2145.067394,10510.924376
16527.599504,8882.471304,2987.772442,11251.130318
16527.599829,9252.574275,2604.724693,11473.192101
16527.600153,9030.512492,2451.505594,10807.006753
16527.600477,8512.368333,1991.848295,10510.924376
16527.600802,7920.203579,1455.581446,9992.780217
16527.601126,8142.265362,919.314598,9400.615463
16527.601450,8068.244768,536.266849,9844.739029
16527.601775,7105.977043,-842.705048,9400.615463
16527.602099,5847.626942,-766.095498,9400.615463
16527.602424,5995.668130,-1532.190996,9622.677246
16527.602748,5551.544565,-2145.067394,9844.739029
16527.603072,3404.947333,-2451.505594,9844.739029
16527.603397,2812.782580,-2145.067394,9178.553681
16527.603721,2368.659014,-1915.238745,9770.718434
16527.604045,1258.350101,-2145.067394,10066.800811
16527.604370,-1258.350101,-2374.896044,9992.780217
16527.604694,-1924.535449,-2145.067394,9474.636058
16527.605018,-3034.844362,-1838.629195,9918.759623
16527.605343,-4737.318029,-1532.190996,10066.800811
16527.605667,-6439.791695,-995.924147,10658.965565
16527.605992,-8512.368333,-1378.971896,10288.862594
16527.606316,-9178.553681,-1685.410096,9918.759623
16527.606640,-9622.677246,-919.314598,10288.862594
16527.606965,-11029.068536,-1302.362347,9992.780217
16527.607289,-11843.295072,-1378.971896,9474.636058
16527.607613,-11769.274478,-689.485948,9030.512492
16527.607938,-11325.150913,-229.828649,8586.388927
16527.608262,-11029.068536,0.000000,8512.368333
16527.608586,-10658.965565,536.266849,7254.018232
16527.608911,-8956.491898,1149.143247,7476.080014
16527.609235,-7254.018232,1302.362347,8068.244768
16527.609560,-6365.771101,1762.019645,7476.080014
16527.609884,-4441.235652,2911.162892,7105.977043
16527.610208,-2220.617826,3370.820191,6735.874072
16527.610533,592.164754,3753.867940,6735.874072
16527.610857,2738.761985,3217.601092,6883.915261
16527.611181,2738.761985,3524.039291,7031.956449
16527.611506,3478.967927,3370.820191,7402.059420
16527.611830,5403.503377,3064.381992,7920.203579
16527.612154,6439.791695,2528.115143,9030.512492
16527.612479,6069.688724,2681.334243,9696.697840
16527.612803,6883.915261,2451.505594,10362.883188
16527.613128,8290.306550,2451.505594,10732.986159
16527.613452,8734.430116,2451.505594,11547.212695
16527.613776,8808.450710,2451.505594,11843.295072
16527.614101,9548.656652,3140.991542,10732.986159
16527.614425,10658.965565,3294.210641,10955.047942
16527.614749,10955.047942,2298.286494,11029.068536
16527.615074,9622.677246,2451.505594,10510.924376
16527.615398,8438.347739,1685.410096,9696.697840
16527.615723,7920.203579,536.266849,9326.594869
16527.616047,7031.956449,-689.485948,9622.677246
16527.616371,4737.318029,-1302.362347,9770.718434
16527.616696,2886.803174,-2298.286494,9326.594869
16527.617020,2664.741391,-2528.115143,9548.656652
16527.617344,2590.720797,-4213.525239,9474.636058
16527.617669,1184.329507,-2834.553343,9474.636058
16527.617993,148.041188,-2911.162892,9252.574275
16527.618317,-444.123565,-2221.676944,8808.450710
16527.618642,-666.185348,-1685.410096,9844.739029
16527.618966,-1406.391290,-1302.362347,9918.759623
16527.619291,-3330.926739,-1149.143247,10066.800811
16527.619615,-5477.523971,-842.705048,9696.697840
16527.619939,-6291.750507,-1149.143247,10584.944971
16527.620264,-7550.100608,-1225.752797,11103.089130
16527.620588,-9770.718434,-1838.629195,10510.924376
16527.620912,-11251.130318,-1455.581446,9770.718434
16527.621237,-10955.047942,-1302.362347,9696.697840
16527.621561,-10807.006753,-1225.752797,9548.656652
16527.621885,-11251.130318,-306.438199,9326.594869
16527.622210,-11547.212695,153.219100,8142.265362
16527.622534,-10066.800811,306.438199,7698.141797
16527.622859,-8216.285956,842.705048,7920.203579
16527.623183,-7772.162391,1455.581446,7994.224174
16527.623507,-7328.038826,2068.457845,7328.038826
16527.623832,-5699.585753,2374.896044,7105.977043
16527.624156,-3404.947333,2681.334243,6587.832884
16527.624480,-1702.473667,2145.067394,6587.832884
16527.624805,-1036.288319,3064.381992,6291.750507
16527.625129,1480.411884,3140.991542,6069.688724
16527.625453,2664.741391,2987.772442,7254.018232
16527.625778,4589.276840,2757.943793,8068.244768
16527.626102,5403.503377,2528.115143,8882.471304
16527.626427,6439.791695,3140.991542,9252.574275
16527.626751,7254.018232,2221.676944,10214.842000
16527.627075,8660.409521,2145.067394,11473.192101
16527.627400,8660.409521,2911.162892,11769.274478
16527.627724,9104.533087,2757.943793,11547.212695
16527.628048,9918.759623,3140.991542,10955.047942
16527.628373,10510.924376,3370.820191,11029.068536
16527.628697,9622.677246,2528.115143,10214.842000
16527.629021,9326.594869,2604.724693,9918.759623
16527.629346,8438.347739,1685.410096,9474.636058
16527.629670,7994.224174,1302.362347,9844.739029
16527.629995,7105.977043,229.828649,9770.718434
16527.630319,6069.688724,-306.438199,9622.677246
16527.630643,4811.338623,-995.924147,9326.594869
16527.630968,4663.297435,-1072.533697,9918.759623
16527.631292,2886.803174,-1762.019645,9474.636058
16527.631616,1776.494261,-2221.676944,9474.636058
16527.631941,1110.308913,-2451.505594,9400.615463
16527.632265,370.102971,-2145.067394,9326.594869
16527.632589,-1332.370696,-2221.676944,9770.718434
16527.632914,-2960.823768,-1991.848295,9326.594869
16527.633238,-3627.009116,-1608.800546,9696.697840
16527.633563,-4811.338623,-1378.971896,9770.718434
16527.633887,-6587.832884,-1838.629195,10510.924376
16527.634211,-8068.244768,-1838.629195,10881.027347
16527.634536,-9252.574275,-1378.971896,10658.965565
16527.634860,-9548.656652,-1455.581446,10436.903782
16527.635184,-9918.759623,-1302.362347,10732.986159
16527.635509,-10955.047942,-1532.190996,10140.821405
16527.635833,-10807.006753,-1149.143247,9844.739029
16527.636157,-10140.821405,-383.047749,9326.594869
16527.636482,-9696.697840,0.000000,8734.430116
16527.636806,-9252.574275,76.609550,7994.224174
16527.637131,-8660.409521,995.924147,7402.059420
16527.637455,-7105.977043,1762.019645,7550.100608
16527.637779,-5921.647536,1685.410096,7402.059420
16527.638104,-3997.112087,2604.724693,6957.935855
16527.638428,-2442.679609,2987.772442,7031.956449
16527.638752,-666.185348,2911.162892,5403.503377
16527.639077,1628.453072,3370.820191,6513.812290
16527.639401,3034.844362,3140.991542,7254.018232
16527.639725,3108.864956,2528.115143,7254.018232
16527.640050,4071.132681,2451.505594,7846.182985
16527.640374,5995.668130,2374.896044,8216.285956
16527.640699,6217.729913,1762.019645,9696.697840
16527.641023,6217.729913,1685.410096,10732.986159
16527.641347,6883.915261,2298.286494,10807.006753
16527.641672,8068.244768,2451.505594,11473.192101
16527.641996,8956.491898,2451.505594,11769.274478
16527.642320,9474.636058,2911.162892,11103.089130
16527.642645,9770.718434,3753.867940,10881.027347
16527.642969,10658.965565,2451.505594,10955.047942
16527.643293,10140.821405,2298.286494,11103.089130
16527.643618,8660.409521,1685.410096,10807.006753
16527.643942,7328.038826,689.485948,10362.883188
16527.644267,6587.832884,0.000000,9992.780217
16527.644591,5699.585753,-383.047749,9992.780217
16527.644915,3997.112087,-1608.800546,9918.759623
16527.645240,3256.906145,-1762.019645,8956.491898
16527.645564,2072.576638,-1149.143247,8290.306550
16527.645888,2590.720797,-1072.533697,8438.347739
16527.646213,666.185348,-1225.752797,8660.409521
16527.646537,-814.226536,-995.924147,8290.306550
16527.646861,-1036.288319,-766.095498,8586.388927
16527.647186,-1258.350101,-229.828649,9474.636058
16527.647510,-3330.926739,-689.485948,9400.615463
16527.647834,-5995.668130,-1838.629195,9474.636058
16527.648159,-7179.997637,-1149.143247,9548.656652
16527.648483,-8586.388927,-1378.971896,10362.883188
16527.648808,-10066.800811,-1685.410096,10881.027347
16527.649132,-10955.047942,-1225.752797,10436.903782
16527.649456,-11621.233289,-1455.581446,9548.656652
16527.649781,-10955.047942,-1072.533697,9400.615463
16527.650105,-10436.903782,-229.828649,9992.780217
16527.650429,-10362.883188,0.000000,9622.677246
16527.650754,-9548.656652,0.000000,8882.471304
16527.651078,-7624.121203,919.314598,8364.327145
16527.651402,-6143.709319,1455.581446,8956.491898
16527.651727,-5847.626942,1532.190996,8364.327145
16527.652051,-4959.379811,1991.848295,7254.018232
16527.652375,-2590.720797,2681.334243,7254.018232
16527.652700,-1184.329507,2221.676944,7105.977043
16527.653024,-444.123565,2298.286494,6957.935855
16527.653348,1036.288319,2451.505594,6217.729913
16527.653673,2072.576638,2221.676944,6217.729913
16527.653997,3552.988522,2068.457845,7031.956449
16527.654322,4811.338623,2681.334243,7846.182985
16527.654646,5625.565159,2221.676944,9178.553681
16527.654970,6291.750507,1838.629195,8660.409521
16527.655295,7624.121203,2451.505594,10214.842000
16527.655619,8438.347739,2451.505594,11029.068536
16527.655943,8438.347739,2374.896044,11399.171507
16527.656268,8882.471304,2451.505594,11103.089130
16527.656592,9992.780217,1532.190996,10807.006753
16527.656916,9474.636058,1838.629195,11103.089130
16527.657241,8660.409521,1225.752797,11547.212695
16527.657565,8216.285956,689.485948,10658.965565
16527.657889,7402.059420,229.828649,10584.944971
16527.658214,7105.977043,0.000000,10658.965565
16527.658538,5921.647536,-995.924147,10658.965565
16527.658862,4441.235652,-1149.143247,9548.656652
16527.659187,4515.256246,-1225.752797,9548.656652
16527.659511,4441.235652,-1455.581446,9992.780217
16527.659835,3034.844362,-1532.190996,9474.636058
16527.660160,1480.411884,-1608.800546,9178.553681
16527.660484,1110.308913,-995.924147,8956.491898
16527.660809,222.061783,-1225.752797,9178.553681
16527.661133,-1850.514855,-919.314598,9030.512492
16527.661457,-3182.885551,-1685.410096,9178.553681
16527.661782,-4515.256246,-766.095498,9400.615463
16527.662106,-6217.729913,-995.924147,9474.636058
16527.662430,-7994.224174,-919.314598,10140.821405
16527.662755,-9104.533087,-919.314598,9992.780217
16527.663079,-9992.780217,-919.314598,9918.759623
16527.663403,-9918.759623,-229.828649,9622.677246
16527.663728,-9918.759623,-306.438199,9696.697840
16527.664052,-11029.068536,-76.609550,9252.574275
16527.664376,-10584.944971,76.609550,9252.574275
16527.664701,-10066.800811,153.219100,8808.450710
16527.665025,-9104.533087,383.047749,8586.388927
16527.665349,-8882.471304,536.266849,8438.347739
16527.665674,-7698.141797,1378.971896,8290.306550
16527.665998,-6143.709319,1532.190996,8142.265362
16527.666323,-4441.235652,2221.676944,7994.224174
16527.666647,-1924.535449,1838.629195,7846.182985
16527.666971,-740.205942,2987.772442,7179.997637
16527.667296,1332.370696,3294.210641,6883.915261
16527.667620,3330.926739,3524.039291,7328.038826
16527.667944,4589.276840,3677.258390,7476.080014
16527.668269,4737.318029,2834.553343,7920.203579
16527.668593,5329.482782,2528.115143,8290.306550
16527.668917,6513.812290,2834.553343,8808.450710
16527.669242,6513.812290,2068.457845,10288.862594
16527.669566,6143.709319,1991.848295,10584.944971
16527.669890,7105.977043,2145.067394,10584.944971
16527.670215,7994.224174,2374.896044,10362.883188
16527.670539,8216.285956,1838.629195,10510.924376
16527.670863,8364.327145,2604.724693,10362.883188
16527.671188,9178.553681,1838.629195,9844.739029
16527.671512,8882.471304,1608.800546,9992.780217
16527.671836,9252.574275,1149.143247,10510.924376
16527.672161,7920.203579,459.657299,9992.780217
16527.672485,6513.812290,0.000000,9918.759623
16527.672810,6217.729913,-1225.752797,10732.986159
16527.673134,5625.565159,-2374.896044,10436.903782
16527.673458,3775.050304,-2451.505594,10214.842000
16527.673783,2812.782580,-2911.162892,9992.780217
16527.674107,2516.700203,-2757.943793,9770.718434
16527.674431,1406.391290,-2451.505594,9770.718434
16527.674756,518.144159,-2451.505594,10140.821405
16527.675080,-444.123565,-1532.190996,9844.739029
16527.675404,-1036.288319,-1302.362347,9918.759623
16527.675729,-2516.700203,-995.924147,9844.739029
16527.676053,-4441.235652,-995.924147,9992.780217
16527.676377,-7254.018232,-1225.752797,9918.759623
16527.676702,-8512.368333,-995.924147,9770.718434
16527.677026,-8956.491898,-1532.190996,9696.697840
16527.677350,-10584.944971,-1302.362347,9770.718434
16527.677675,-11843.295072,-1838.629195,8956.491898
16527.677999,-11547.212695,-995.924147,8956.491898
16527.678324,-10881.027347,-536.266849,8734.430116
16527.678648,-10658.965565,-229.828649,8734.430116
16527.678972,-9992.780217,459.657299,8216.285956
16527.679297,-8956.491898,995.924147,7698.141797
16527.679621,-7105.977043,1762.019645,8068.244768
16527.679945,-5699.585753,2451.505594,8512.368333
16527.680270,-5033.400406,2911.162892,7772.162391
16527.680594,-3849.070898,2757.943793,7254.018232
16527.680918,-1406.391290,3370.820191,7179.997637
16527.681243,296.082377,3294.210641,7476.080014
16527.681567,1258.350101,3064.381992,7179.997637
16527.681891,2516.700203,3217.601092,7254.018232
16527.682216,4071.132681,2911.162892,7550.100608
16527.682540,4589.276840,2911.162892,8660.409521
16527.682864,5255.462188,2757.943793,8808.450710
16527.683189,5995.668130,2834.553343,9696.697840
16527.683513,6291.750507,2681.334243,10288.862594
16527.683838,7772.162391,2757.943793,11103.089130
16527.684162,8882.471304,2757.943793,11251.130318
16527.684486,8734.430116,2757.943793,10658.965565
16527.684811,8290.306550,2987.772442,10066.800811
16527.685135,9844.739029,2757.943793,10362.883188
16527.685459,8660.409521,1991.848295,10140.821405
16527.685784,7698.141797,1532.190996,9622.677246
16527.686108,7328.038826,842.705048,9326.594869
16527.686432,6883.915261,229.828649,9252.574275
16527.686757,6217.729913,-306.438199,10362.883188
16527.687081,5255.462188,-1532.190996,9696.697840
16527.687405,4071.132681,-2068.457845,9474.636058
16527.687730,3923.091493,-1915.238745,9844.739029
16527.688054,4145.153275,-2221.676944,10140.821405
16527.688378,2590.720797,-2068.457845,10288.862594
16527.688703,1036.288319,-2604.724693,9474.636058
16527.689027,666.185348,-1302.362347,9474.636058
16527.689351,-592.164754,-1532.190996,10362.883188
16527.689676,-2368.659014,-1838.629195,9622.677246
16527.690000,-4219.173869,-1762.019645,9918.759623
16527.690325,-5921.647536,-1838.629195,9844.739029
16527.690649,-7698.141797,-1762.019645,10584.944971
16527.690973,-8882.471304,-1455.581446,10584.944971
16527.691298,-9918.759623,-1378.971896,9992.780217
16527.691622,-10066.800811,-1149.143247,9622.677246
16527.691946,-10510.924376,-1149.143247,9252.574275
16527.692271,-10066.800811,-689.485948,9474.636058
16527.692595,-10881.027347,-306.438199,9030.512492
16527.692919,-10214.842000,0.000000,8512.368333
16527.693244,-9030.512492,459.657299,7772.162391
16527.693568,-8216.285956,766.095498,7994.224174
16527.693892,-7476.080014,1072.533697,7328.038826
16527.694217,-5773.606348,1762.019645,7254.018232
16527.694541,-4293.194464,2221.676944,7105.977043
16527.694865,-2590.720797,2757.943793,7328.038826
16527.695190,-518.144159,3140.991542,7179.997637
16527.695514,592.164754,3140.991542,6587.832884
16527.695839,2368.659014,3677.258390,6365.771101
16527.696163,3627.009116,3217.601092,7476.080014
16527.696487,4885.359217,3447.429741,7920.203579
16527.696812,4811.338623,2528.115143,8586.388927
16527.697136,5773.606348,2451.505594,9474.636058
16527.697460,6217.729913,2145.067394,10288.862594
16527.697785,5921.647536,2145.067394,11621.233289
16527.698109,6587.832884,1838.629195,11695.253884
16527.698433,7179.997637,2068.457845,11103.089130
16527.698758,7698.141797,2987.772442,10955.047942
16527.699082,8586.388927,2374.896044,10658.965565
16527.699406,8882.471304,2528.115143,10510.924376
16527.699731,8734.430116,2298.286494,10066.800811
16527.700055,8660.409521,2145.067394,10214.842000
16527.700379,8438.347739,1455.581446,10288.862594
16527.700704,7328.038826,0.000000,9696.697840
16527.701028,6069.688724,-383.047749,9326.594869
16527.701352,5699.585753,-995.924147,9622.677246
16527.701677,3849.070898,-2221.676944,9992.780217
16527.702001,2442.679609,-2145.067394,9326.594869
16527.702326,2294.638420,-2145.067394,9030.512492
16527.702650,1628.453072,-2145.067394,9104.533087
16527.702974,444.123565,-1608.800546,9252.574275
16527.703299,-592.164754,-1302.362347,9474.636058
16527.703623,-1924.535449,-1225.752797,9252.574275
16527.703947,-2812.782580,-995.924147,9326.594869
16527.704272,-4071.132681,-766.095498,9918.759623
16527.704596,-6439.791695,-995.924147,10140.821405
16527.704920,-8734.430116,-1532.190996,10362.883188
16527.705245,-9030.512492,-1762.019645,10658.965565
16527.705569,-9252.574275,-1915.238745,10658.965565
16527.705893,-11473.192101,-1532.190996,10288.862594
16527.706218,-11621.233289,-1378.971896,9696.697840
16527.706542,-10214.842000,-612.876398,9474.636058
16527.706866,-9918.759623,-229.828649,9252.574275
16527.707191,-9622.677246,153.219100,8216.285956
16527.707515,-8290.306550,536.266849,8364.327145
16527.707840,-6809.894666,1838.629195,7624.121203
16527.708164,-5033.400406,2451.505594,7698.141797
16527.708488,-4071.132681,2374.896044,7772.162391
16527.708813,-3701.029710,2451.505594,7328.038826
16527.709137,-1924.535449,2604.724693,6587.832884
16527.709461,0.000000,2757.943793,6883.915261
16527.709786,1110.308913,2834.553343,6809.894666
16527.710110,1480.411884,2528.115143,6883.915261
16527.710434,2294.638420,1991.848295,7105.977043
16527.710759,3182.885551,1685.410096,8068.244768
16527.711083,4737.318029,1915.238745,8956.491898
16527.711407,5403.503377,2068.457845,10140.821405
16527.711732,5477.523971,2681.334243,10510.924376
16527.712056,7105.977043,2298.286494,11029.068536
16527.712380,8660.409521,2757.943793,11621.233289
16527.712705,8882.471304,2681.334243,11473.192101
16527.713029,8734.430116,2834.553343,11029.068536
16527.713354,9326.594869,2681.334243,10436.903782
16527.713678,9770.718434,2298.286494,10807.006753
16527.714002,8660.409521,1762.019645,10955.047942
16527.714327,7994.224174,1302.362347,10362.883188
16527.714651,6439.791695,536.266849,9770.718434
16527.714975,6291.750507,-459.657299,9696.697840
16527.715300,6143.709319,-536.266849,10288.862594
16527.715624,4589.276840,-1302.362347,9992.780217
16527.715948,3478.967927,-2068.457845,9030.512492
16527.716273,3404.947333,-1149.143247,9104.533087
16527.716597,3330.926739,-1378.971896,9178.553681
16527.716921,1332.370696,-1685.410096,9030.512492
16527.717246,-666.185348,-1302.362347,8956.491898
16527.717570,-1406.391290,-842.705048,9252.574275
16527.717894,-2516.700203,-1225.752797,9474.636058
16527.718219,-4737.318029,-1838.629195,9474.636058
16527.718543,-6809.894666,-1762.019645,9622.677246
16527.718867,-7994.224174,-1532.190996,9918.759623
16527.719192,-9030.512492,-2298.286494,10881.027347
16527.719516,-9622.677246,-1378.971896,10658.965565
16527.719841,-9844.739029,-1455.581446,10214.842000
16527.720165,-9844.739029,-612.876398,9696.697840
16527.720489,-9252.574275,0.000000,9992.780217
16527.720814,-8734.430116,0.000000,9770.718434
16527.721138,-9400.615463,612.876398,8882.471304
16527.721462,-7920.203579,995.924147,8364.327145
16527.721787,-7254.018232,995.924147,7846.182985
16527.722111,-6661.853478,919.314598,8142.265362
16527.722435,-6217.729913,1378.971896,7698.141797
16527.722760,-4737.318029,2068.457845,7254.018232
16527.723084,-3034.844362,1838.629195,7105.977043
16527.723408,-1924.535449,2221.676944,6809.894666
16527.723733,370.102971,2451.505594,6883.915261
16527.724057,1332.370696,2834.553343,6217.729913
16527.724381,2664.741391,2834.553343,6809.894666
16527.724706,4811.338623,2451.505594,8068.244768
16527.725030,4885.359217,2528.115143,8734.430116
16527.725355,5181.441594,2374.896044,9178.553681
16527.725679,5847.626942,2374.896044,9992.780217
16527.726003,7476.080014,2221.676944,10807.006753
16527.726328,7105.977043,2298.286494,11769.274478
16527.726652,7254.018232,2451.505594,11177.109724
16527.726976,8364.327145,2681.334243,10807.006753
16527.727301,8734.430116,2451.505594,10807.006753
16527.727625,8586.388927,2298.286494,10807.006753
16527.727949,8364.327145,2298.286494,10807.006753
16527.728274,7846.182985,1685.410096,10214.842000
16527.728598,7698.141797,459.657299,10140.821405
16527.728922,7624.121203,229.828649,10066.800811
16527.729247,5477.523971,-612.876398,9844.739029
16527.729571,4589.276840,-1225.752797,9548.656652
16527.729895,4515.256246,-1991.848295,9844.739029
16527.730220,3108.864956,-1685.410096,9622.677246
16527.730544,1850.514855,-2374.896044,9104.533087
16527.730868,1406.391290,-1991.848295,9030.512492
16527.731193,1406.391290,-1915.238745,8956.491898
16527.731517,-888.247130,-1608.800546,9400.615463
16527.731842,-1628.453072,-995.924147,9548.656652
16527.732166,-2886.803174,-919.314598,9474.636058
16527.732490,-4145.153275,-1072.533697,9474.636058
16527.732815,-5403.503377,-995.924147,10288.862594
16527.733139,-7402.059420,-1378.971896,10288.862594
16527.733463,-9474.636058,-1838.629195,10288.862594
16527.733788,-10214.842000,-1302.362347,10214.842000
16527.734112,-10658.965565,-1455.581446,10214.842000
16527.734436,-11399.171507,-1685.410096,10066.800811
16527.734761,-11251.130318,-1072.533697,9400.615463
16527.735085,-10140.821405,153.219100,9030.512492
16527.735409,-9474.636058,-153.219100,8882.471304
16527.735734,-8290.306550,919.314598,8586.388927
16527.736058,-7105.977043,1685.410096,7772.162391
16527.736382,-5551.544565,1991.848295,7846.182985
16527.736707,-3775.050304,2374.896044,8142.265362
16527.737031,-2220.617826,2681.334243,7772.162391
16527.737356,-1332.370696,2911.162892,7105.977043
16527.737680,74.020594,2834.553343,6365.771101
16527.738004,2146.597232,2451.505594,6957.935855
16527.738329,2738.761985,2604.724693,6957.935855
16527.738653,3034.844362,2681.334243,7031.956449
16527.738977,3923.091493,2374.896044,7476.080014
16527.739302,5033.400406,2221.676944,8364.327145
16527.739626,5625.565159,2298.286494,9252.574275
16527.739950,6217.729913,1685.410096,9918.759623
16527.740275,5773.606348,2298.286494,10288.862594
16527.740599,6809.894666,2987.772442,10881.027347
16527.740923,7846.182985,2604.724693,11399.171507
16527.741248,8142.265362,2604.724693,11251.130318
16527.741572,7624.121203,1915.238745,10436.903782
16527.741896,7846.182985,2068.457845,10584.944971
16527.742221,7920.203579,1838.629195,10881.027347
16527.742545,7031.956449,919.314598,10955.047942
16527.742870,5477.523971,0.000000,10436.903782
16527.743194,5255.462188,-1302.362347,9918.759623
16527.743518,4885.359217,-1378.971896,10066.800811
16527.743843,4367.215058,-1915.238745,10288.862594
16527.744167,3552.988522,-1838.629195,9622.677246
16527.744491,2812.782580,-1378.971896,9252.574275
16527.744816,3478.967927,-1378.971896,9474.636058
16527.745140,3256.906145,-842.705048,9474.636058
16527.745464,1258.350101,-842.705048,9252.574275
16527.745789,-666.185348,-842.705048,8956.491898
16527.746113,-1036.288319,-612.876398,9104.533087
16527.746437,-2442.679609,-995.924147,9474.636058
16527.746762,-5403.503377,-1302.362347,9326.594869
16527.747086,-7254.018232,-1455.581446,9252.574275
16527.747410,-8142.265362,-1455.581446,9918.759623
16527.747735,-9548.656652,-1532.190996,10140.821405
16527.748059,-10436.903782,-1685.410096,10732.986159
16527.748383,-11177.109724,-1072.533697,9918.759623
16527.748708,-10584.944971,-612.876398,9400.615463
16527.749032,-9696.697840,-153.219100,9622.677246
16527.749357,-9622.677246,153.219100,9622.677246
16527.749681,-9178.553681,0.000000,8586.388927
16527.750005,-7698.141797,306.438199,8438.347739
16527.750330,-6587.832884,1149.143247,8290.306550
16527.750654,-6143.709319,1302.362347,8512.368333
16527.750978,-5107.421000,1762.019645,7624.121203
16527.751303,-2960.823768,2221.676944,6957.935855
16527.751627,-1332.370696,2604.724693,6883.915261
16527.751951,296.082377,3064.381992,6069.688724
16527.752276,1924.535449,3447.429741,6439.791695
16527.752600,3182.885551,2987.772442,6883.915261
16527.752924,4589.276840,2757.943793,7476.080014
16527.753249,5921.647536,2681.334243,8068.244768
16527.753573,6365.771101,2604.724693,9030.512492
16527.753897,6217.729913,2604.724693,9622.677246
16527.754222,6217.729913,2681.334243,10436.903782
16527.754546,6957.935855,2604.724693,11177.109724
16527.754871,6809.894666,2451.505594,11029.068536
16527.755195,7105.977043,2451.505594,10658.965565
16527.755519,7031.956449,2451.505594,10288.862594
16527.755844,7476.080014,2451.505594,10732.986159
16527.756168,7402.059420,1991.848295,11103.089130
16527.756492,6661.853478,1685.410096,9918.759623
16527.756816,6143.709319,612.876398,9696.697840
16527.757141,6365.771101,306.438199,10066.800811
16527.757465,5551.544565,-1072.533697,10288.862594
16527.757789,3923.091493,-1685.410096,10288.862594
16527.758113,3404.947333,-2145.067394,10066.800811
16527.758438,3330.926739,-1532.190996,9992.780217
16527.758762,2516.700203,-1915.238745,9474.636058
16527.759086,1702.473667,-1608.800546,9400.615463
16527.759410,1850.514855,-1302.362347,9104.533087
16527.759735,1036.288319,-1072.533697,9326.594869
16527.760059,0.000000,-995.924147,9474.636058
16527.760383,-1036.288319,-459.657299,9474.636058
16527.760707,-2442.679609,-536.266849,8660.409521
16527.761031,-3997.112087,0.000000,9474.636058
16527.761356,-5477.523971,-766.095498,10288.862594
16527.761680,-7698.141797,-1072.533697,10436.903782
16527.762004,-9252.574275,-1149.143247,9918.759623
16527.762328,-9844.739029,-1149.143247,9696.697840
16527.762653,-10584.944971,-1149.143247,9474.636058
16527.762977,-10955.047942,-995.924147,9178.553681
16527.763301,-10584.944971,-689.485948,8512.368333
16527.763625,-9622.677246,-459.657299,8808.450710
16527.763950,-9104.533087,306.438199,8142.265362
16527.764274,-8068.244768,766.095498,8216.285956
16527.764598,-6883.915261,1685.410096,7846.182985
16527.764922,-4959.379811,1532.190996,7846.182985
16527.765247,-3182.885551,2298.286494,7698.141797
16527.765571,-1702.473667,2451.505594,7772.162391
16527.765895,-222.061783,2528.115143,7402.059420
16527.766219,1332.370696,2145.067394,6809.894666
16527.766543,2886.803174,2451.505594,7179.997637
16527.766868,3034.844362,2298.286494,8068.244768
16527.767192,3256.906145,1762.019645,7994.224174
16527.767516,4663.297435,2451.505594,8956.491898
16527.767840,5773.606348,1838.629195,9400.615463
16527.768165,5625.565159,2374.896044,10584.944971
16527.768489,5625.565159,1991.848295,10955.047942
16527.768813,6587.832884,2451.505594,10807.006753
16527.769137,7698.141797,2681.334243,10584.944971
16527.769462,8660.409521,2451.505594,10955.047942
16527.769786,7402.059420,2681.334243,10362.883188
16527.770110,7031.956449,2681.334243,9770.718434
16527.770434,7698.141797,2374.896044,10066.800811
16527.770759,7254.018232,1072.533697,9844.739029
16527.771083,5625.565159,306.438199,9474.636058
16527.771407,4959.379811,-842.705048,9474.636058
16527.771731,4737.318029,-1225.752797,9770.718434
16527.772055,4145.153275,-1838.629195,10066.800811
16527.772380,3552.988522,-1762.019645,10066.800811
16527.772704,2886.803174,-1378.971896,9622.677246
16527.773028,2886.803174,-1685.410096,9326.594869
16527.773352,3182.885551,-842.705048,9622.677246
16527.773677,2442.679609,-919.314598,9844.739029
16527.774001,518.144159,-689.485948,9474.636058
16527.774325,-444.123565,-306.438199,9104.533087
16527.774649,-962.267725,-459.657299,9252.574275
16527.774974,-3627.009116,-842.705048,9548.656652
16527.775298,-5847.626942,-919.314598,10140.821405
16527.775622,-7624.121203,-1455.581446,10066.800811
16527.775946,-8586.388927,-1378.971896,10510.924376
16527.776270,-9474.636058,-1302.362347,10658.965565
16527.776595,-10140.821405,-1149.143247,9992.780217
16527.776919,-10881.027347,-459.657299,9400.615463
16527.777243,-10140.821405,229.828649,9326.594869
16527.777567,-8734.430116,612.876398,9252.574275
16527.777892,-9252.574275,612.876398,8364.327145
16527.778216,-8438.347739,1302.362347,7402.059420
16527.778540,-7402.059420,1685.410096,7920.203579
16527.778864,-5773.606348,1838.629195,7920.203579
16527.779189,-5107.421000,1991.848295,7920.203579
16527.779513,-3701.029710,2451.505594,7105.977043
16527.779837,-2146.597232,2145.067394,6883.915261
16527.780161,-518.144159,2298.286494,6883.915261
16527.780486,1036.288319,2528.115143,7254.018232
16527.780810,2368.659014,2451.505594,7624.121203
16527.781134,3627.009116,2451.505594,7698.141797
16527.781458,5255.462188,2451.505594,8364.327145
16527.781782,6439.791695,2451.505594,8808.450710
16527.782107,5847.626942,1915.238745,9622.677246
16527.782431,6069.688724,2145.067394,10140.821405
16527.782755,6883.915261,2145.067394,10510.924376
16527.783079,7254.018232,2145.067394,11399.171507
16527.783404,6957.935855,2068.457845,10955.047942
16527.783728,7328.038826,2068.457845,10436.903782
16527.784052,7328.038826,1915.238745,10140.821405
16527.784376,7698.141797,1838.629195,10436.903782
16527.784701,7550.100608,1532.190996,10436.903782
16527.785025,6661.853478,612.876398,10140.821405
16527.785349,6883.915261,0.000000,9770.718434
16527.785673,6513.812290,-76.609550,9918.759623
16527.785998,5181.441594,-1455.581446,10288.862594
16527.786322,3997.112087,-1838.629195,9474.636058
16527.786646,3701.029710,-2221.676944,9770.718434
16527.786970,3775.050304,-1455.581446,9548.656652
16527.787294,2590.720797,-1915.238745,9770.718434
16527.787619,1184.329507,-1915.238745,9252.574275
16527.787943,888.247130,-1532.190996,9252.574275
16527.788267,-370.102971,-1608.800546,9252.574275
16527.788591,-1554.432478,-1072.533697,9252.574275
16527.788916,-2738.761985,-766.095498,9326.594869
16527.789240,-4219.173869,-995.924147,9474.636058
16527.789564,-5995.668130,-919.314598,9622.677246
16527.789888,-7476.080014,-1149.143247,10807.006753
16527.790213,-9178.553681,-1378.971896,10436.903782
16527.790537,-9844.739029,-1225.752797,9844.739029
16527.790861,-10288.862594,-995.924147,10140.821405
16527.791185,-10436.903782,-766.095498,9622.677246
16527.791510,-10807.006753,76.609550,9030.512492
16527.791834,-10140.821405,0.000000,8438.347739
16527.792158,-8660.409521,919.314598,8364.327145
16527.792482,-7476.080014,1378.971896,8068.244768
16527.792806,-6809.894666,1915.238745,7920.203579
16527.793131,-5773.606348,2145.067394,7550.100608
16527.793455,-3997.112087,2987.772442,7254.018232
16527.793779,-2072.576638,3830.477490,7328.038826
16527.794103,-740.205942,2298.286494,6735.874072
16527.794428,222.061783,2528.115143,7105.977043
16527.794752,1554.432478,2528.115143,7031.956449
16527.795076,2738.761985,2604.724693,7698.141797
16527.795400,3108.864956,2068.457845,8216.285956
16527.795725,3849.070898,2145.067394,8438.347739
16527.796049,5403.503377,2298.286494,8734.430116
16527.796373,5699.585753,2451.505594,10362.883188
16527.796697,6439.791695,2068.457845,10881.027347
16527.797022,6587.832884,2528.115143,11177.109724
16527.797346,7624.121203,2298.286494,10732.986159
16527.797670,9030.512492,3217.601092,10955.047942
16527.797994,9696.697840,2451.505594,11251.130318
16527.798318,9030.512492,2068.457845,10436.903782
16527.798643,8142.265362,1608.800546,10510.924376
16527.798967,8438.347739,1302.362347,10362.883188
16527.799291,7476.080014,306.438199,10584.944971
16527.799615,5477.523971,-842.705048,9844.739029
16527.799940,4663.297435,-995.924147,9400.615463
16527.800264,4515.256246,-995.924147,9474.636058
16527.800588,3701.029710,-1455.581446,9548.656652
16527.800912,2886.803174,-1762.019645,9918.759623
16527.801237,1924.535449,-1072.533697,9030.512492
16527.801561,2368.659014,-919.314598,8956.491898
16527.801885,2294.638420,-919.314598,9104.533087
16527.802209,148.041188,-919.314598,9474.636058
16527.802534,-1998.556043,-842.705048,8956.491898
16527.802858,-2516.700203,-689.485948,8808.450710
16527.803182,-3627.009116,-842.705048,9696.697840
16527.803506,-6513.812290,-2068.457845,10214.842000
16527.803830,-8660.409521,-1991.848295,10510.924376
16527.804155,-9474.636058,-1915.238745,10214.842000
16527.804479,-10066.800811,-1685.410096,10732.986159
16527.804803,-10140.821405,-1532.190996,10436.903782
16527.805127,-10436.903782,-612.876398,9548.656652
16527.805452,-10658.965565,-459.657299,9178.553681
16527.805776,-9474.636058,306.438199,9252.574275
16527.806100,-7772.162391,612.876398,9178.553681
16527.806424,-7846.182985,1225.752797,8586.388927
16527.806749,-7179.997637,1378.971896,7846.182985
16527.807073,-5625.565159,2374.896044,7698.141797
16527.807397,-4219.173869,1991.848295,7698.141797
16527.807721,-3256.906145,1915.238745,7105.977043
16527.808046,-2590.720797,1915.238745,6735.874072
16527.808370,-592.164754,2221.676944,6735.874072
16527.808694,962.267725,2451.505594,7105.977043
16527.809018,2368.659014,2374.896044,7624.121203
16527.809342,3034.844362,2451.505594,7402.059420
16527.809667,4441.235652,2374.896044,7920.203579
16527.809991,5995.668130,1762.019645,8956.491898
16527.810315,6661.853478,2757.943793,9844.739029
16527.810639,5847.626942,2298.286494,10288.862594
16527.810964,6143.709319,2221.676944,10732.986159
16527.811288,7328.038826,2221.676944,11177.109724
16527.811612,7179.997637,2221.676944,11325.150913
16527.811936,7328.038826,2221.676944,10214.842000
16527.812261,7254.018232,2068.457845,9844.739029
16527.812585,7254.018232,1762.019645,9844.739029
16527.812909,7254.018232,1685.410096,10214.842000
16527.813233,6957.935855,995.924147,10140.821405
16527.813558,6143.709319,383.047749,9178.553681
16527.813882,6291.750507,0.000000,9770.718434
16527.814206,5995.668130,-229.828649,10214.842000
16527.814530,4959.379811,-1532.190996,10510.924376
16527.814854,3775.050304,-1225.752797,9474.636058
16527.815179,3552.988522,-1072.533697,9252.574275
16527.815503,3034.844362,-995.924147,9400.615463
16527.815827,1776.494261,-995.924147,9326.594869
16527.816151,444.123565,-766.095498,8808.450710
16527.816476,-666.185348,-536.266849,8438.347739
16527.816800,-1110.308913,-612.876398,9474.636058
16527.817124,-2960.823768,-1149.143247,9400.615463
16527.817448,-5181.441594,-536.266849,9548.656652
16527.817773,-6809.894666,-1225.752797,10140.821405
16527.818097,-7476.080014,-1225.752797,10362.883188
16527.818421,-8956.491898,-1378.971896,11029.068536
16527.818745,-10214.842000,-1608.800546,10362.883188
16527.819070,-10510.924376,-1302.362347,9770.718434
16527.819394,-10510.924376,-995.924147,9622.677246
16527.819718,-10066.800811,-1072.533697,9474.636058
16527.820042,-9918.759623,-306.438199,9178.553681
16527.820366,-9252.574275,0.000000,8142.265362
16527.820691,-7920.203579,383.047749,8364.327145
16527.821015,-6217.729913,919.314598,8438.347739
16527.821339,-5107.421000,1378.971896,8438.347739
16527.821663,-3849.070898,1608.800546,7624.121203
16527.821988,-1850.514855,2528.115143,7402.059420
16527.822312,296.082377,1991.848295,7550.100608
16527.822636,962.267725,2451.505594,7105.977043
16527.822960,1998.556043,2528.115143,6809.894666
16527.823285,3108.864956,2451.505594,7328.038826
16527.823609,4071.132681,3064.381992,7772.162391
16527.823933,4663.297435,2298.286494,8512.368333
16527.824257,4811.338623,1532.190996,8290.306550
16527.824582,5329.482782,2068.457845,9104.533087
16527.824906,5995.668130,2298.286494,10214.842000
16527.825230,6291.750507,2145.067394,10732.986159
16527.825554,6587.832884,2298.286494,10955.047942
16527.825878,7402.059420,2451.505594,10288.862594
16527.826203,8438.347739,2374.896044,10584.944971
16527.826527,8586.388927,1991.848295,10881.027347
16527.826851,7772.162391,1072.533697,10584.944971
16527.827175,6809.894666,1072.533697,10584.944971
16527.827500,7179.997637,229.828649,10436.903782
16527.827824,5995.668130,-766.095498,10436.903782
16527.828148,4367.215058,-612.876398,10066.800811
16527.828472,4145.153275,-2068.457845,9992.780217
16527.828797,3627.009116,-2145.067394,9770.718434
16527.829121,3330.926739,-1762.019645,10214.842000
16527.829445,2516.700203,-1225.752797,9992.780217
16527.829769,1702.473667,-842.705048,9104.533087
16527.830094,1776.494261,-306.438199,8956.491898
16527.830418,1850.514855,153.219100,9252.574275
16527.830742,-666.185348,76.609550,8956.491898
16527.831066,-3034.844362,-153.219100,8216.285956
16527.831390,-3330.926739,-383.047749,8290.306550
16527.831715,-4885.359217,-459.657299,9400.615463
16527.832039,-7698.141797,-919.314598,9844.739029
16527.832363,-9474.636058,-1225.752797,10140.821405
16527.832687,-9992.780217,-842.705048,9696.697840
16527.833012,-10436.903782,-1225.752797,10288.862594
16527.833336,-10288.862594,-459.657299,9696.697840
16527.833660,-10288.862594,76.609550,9400.615463
16527.833984,-10066.800811,459.657299,8808.450710
16527.834309,-8734.430116,995.924147,8808.450710
16527.834633,-6957.935855,1072.533697,9252.574275
16527.834957,-7031.956449,1149.143247,8438.347739
16527.835281,-5995.668130,1991.848295,7772.162391
16527.835606,-4441.235652,1915.238745,8068.244768
16527.835930,-3108.864956,1915.238745,8216.285956
16527.836254,-2368.659014,1838.629195,7476.080014
16527.836578,-962.267725,2221.676944,7031.956449
16527.836902,814.226536,1991.848295,7031.956449
16527.837227,2516.700203,2298.286494,7846.182985
16527.837551,3997.112087,1685.410096,8068.244768
16527.837875,4515.256246,2298.286494,8364.327145
16527.838199,6069.688724,2451.505594,8438.347739
16527.838524,6957.935855,2451.505594,9326.594869
16527.838848,7105.977043,2681.334243,10214.842000
16527.839172,6365.771101,2145.067394,10510.924376
16527.839496,6439.791695,2298.286494,10140.821405
16527.839821,7328.038826,2374.896044,10436.903782
16527.840145,7105.977043,1608.800546,10732.986159
16527.840469,6587.832884,1608.800546,9326.594869
16527.840793,6291.750507,1378.971896,9622.677246
16527.841118,6513.812290,1072.533697,9622.677246
16527.841442,6069.688724,-229.828649,10362.883188
16527.841766,5477.523971,-612.876398,9844.739029
16527.842090,5403.503377,-995.924147,9400.615463
16527.842414,4811.338623,-1225.752797,9918.759623
16527.842739,4959.379811,-1838.629195,10288.862594
16527.843063,3627.009116,-1915.238745,10510.924376
16527.843387,3330.926739,-1608.800546,10066.800811
16527.843711,3404.947333,-1455.581446,9918.759623
16527.844036,2664.741391,-1532.190996,9918.759623
16527.844360,1258.350101,-612.876398,9770.718434
16527.844684,-370.102971,-1302.362347,9474.636058
16527.845008,-1332.370696,-612.876398,9030.512492
16527.845333,-2886.803174,-995.924147,8882.471304
16527.845657,-4219.173869,-689.485948,9696.697840
16527.845981,-6513.812290,-766.095498,10066.800811
16527.846305,-8142.265362,-1149.143247,9622.677246
16527.846630,-8734.430116,-536.266849,10140.821405
16527.846954,-9474.636058,-842.705048,10214.842000
16527.847278,-10510.924376,-1302.362347,9622.677246
16527.847602,-10955.047942,-536.266849,8956.491898
16527.847926,-9992.780217,153.219100,8882.471304
16527.848251,-10214.842000,306.438199,8882.471304
16527.848575,-9474.636058,383.047749,8142.265362
16527.848899,-7846.182985,995.924147,7846.182985
16527.849223,-6661.853478,1608.800546,7624.121203
16527.849548,-5329.482782,2451.505594,7846.182985
16527.849872,-3849.070898,2681.334243,7994.224174
16527.850196,-2294.638420,2757.943793,7328.038826
16527.850520,-296.082377,2757.943793,7328.038826
16527.850845,1406.391290,2451.505594,7402.059420
16527.851169,2368.659014,2451.505594,7698.141797
16527.851493,2516.700203,2757.943793,7846.182985
16527.851817,4219.173869,2374.896044,8142.265362
16527.852142,5107.421000,2145.067394,9178.553681
16527.852466,4885.359217,1838.629195,9474.636058
16527.852790,5255.462188,1915.238745,9992.780217
16527.853114,5625.565159,2068.457845,10362.883188
16527.853438,6069.688724,2145.067394,11177.109724
16527.853763,5921.647536,2145.067394,11029.068536
16527.854087,6957.935855,2911.162892,10881.027347
16527.854411,7402.059420,2298.286494,10066.800811
16527.854736,7920.203579,2374.896044,10066.800811
16527.855060,7624.121203,2145.067394,10066.800811
16527.855384,6291.750507,842.705048,9622.677246
16527.855709,6217.729913,536.266849,9622.677246
16527.856033,6735.874072,0.000000,9548.656652
16527.856357,4071.132681,-1302.362347,9918.759623
16527.856681,4071.132681,-1378.971896,9474.636058
16527.857006,3997.112087,-1915.238745,9474.636058
16527.857330,3404.947333,-1915.238745,9770.718434
16527.857654,2960.823768,-1685.410096,9844.739029
16527.857979,2368.659014,-1455.581446,9548.656652
16527.858303,1998.556043,-1149.143247,9104.533087
16527.858627,1554.432478,-1072.533697,9252.574275
16527.858952,296.082377,-306.438199,9548.656652
16527.859276,-1332.370696,-689.485948,9548.656652
16527.859600,-3108.864956,-689.485948,9622.677246
16527.859925,-4293.194464,-995.924147,10214.842000
16527.860249,-6513.812290,-1455.581446,10732.986159
16527.860573,-9030.512492,-2298.286494,10732.986159
16527.860897,-10140.821405,-1915.238745,10732.986159
16527.861222,-10436.903782,-1838.629195,10140.821405
16527.861546,-10214.842000,-1378.971896,10140.821405
16527.861870,-10362.883188,-689.485948,9844.739029
16527.862195,-9918.759623,0.000000,8882.471304
16527.862519,-9178.553681,536.266849,8438.347739
16527.862843,-7402.059420,1302.362347,7772.162391
16527.863168,-6291.750507,2221.676944,8068.244768
16527.863492,-6439.791695,1838.629195,7772.162391
16527.863816,-4737.318029,1762.019645,7476.080014
16527.864141,-3108.864956,2068.457845,7254.018232
16527.864465,-2368.659014,1915.238745,7402.059420
16527.864789,-1702.473667,1915.238745,7105.977043
16527.865113,0.000000,2374.896044,6513.812290
16527.865438,1850.514855,1762.019645,6735.874072
16527.865762,3256.906145,2604.724693,8142.265362
16527.866086,3775.050304,2604.724693,9104.533087
16527.866411,4811.338623,2757.943793,8512.368333
16527.866735,6069.688724,2604.724693,9474.636058
16527.867059,6809.894666,2604.724693,10436.903782
16527.867384,6587.832884,3600.648841,11177.109724
16527.867708,6587.832884,2757.943793,11251.130318
16527.868032,7105.977043,2374.896044,10362.883188
16527.868356,7105.977043,2681.334243,11251.130318
16527.868681,7031.956449,2757.943793,10214.842000
16527.869005,6587.832884,1991.848295,9992.780217
16527.869329,6513.812290,1532.190996,9326.594869
16527.869654,6069.688724,1302.362347,9474.636058
16527.869978,6217.729913,919.314598,9770.718434
16527.870302,5625.565159,536.266849,9548.656652
16527.870627,5107.421000,153.219100,9474.636058
16527.870951,5107.421000,-689.485948,9548.656652
16527.871275,4737.318029,-919.314598,9622.677246
16527.871600,3404.947333,-1302.362347,9548.656652
16527.871924,3256.906145,-995.924147,9252.574275
16527.872248,2960.823768,-995.924147,8956.491898
16527.872572,1776.494261,-689.485948,9178.553681
16527.872897,444.123565,-2298.286494,9400.615463
16527.873221,-962.267725,-1455.581446,9252.574275
16527.873545,-1850.514855,-1455.581446,9474.636058
16527.873870,-3478.967927,-1455.581446,10066.800811
16527.874194,-5329.482782,-1225.752797,10584.944971
16527.874518,-7328.038826,-1685.410096,10436.903782
16527.874843,-7846.182985,-1302.362347,10140.821405
16527.875167,-8734.430116,-919.314598,10955.047942
16527.875491,-9696.697840,-1302.362347,10584.944971
16527.875815,-10288.862594,-1225.752797,9844.739029
16527.876140,-9770.718434,-766.095498,9548.656652
16527.876464,-9622.677246,-229.828649,9326.594869
16527.876788,-9696.697840,-536.266849,8438.347739
16527.877113,-8438.347739,229.828649,8290.306550
16527.877437,-7179.997637,1302.362347,7772.162391
16527.877761,-5699.585753,1302.362347,8068.244768
16527.878086,-4515.256246,1685.410096,7550.100608
16527.878410,-3627.009116,2145.067394,7105.977043
16527.878734,-1776.494261,2374.896044,6809.894666
16527.879059,592.164754,2911.162892,6809.894666
16527.879383,1702.473667,2681.334243,7105.977043
16527.879707,2368.659014,2298.286494,6957.935855
16527.880031,3182.885551,2374.896044,7402.059420
16527.880356,4737.318029,2298.286494,8290.306550
16527.880680,4737.318029,1685.410096,9178.553681
16527.881004,4589.276840,1838.629195,9474.636058
16527.881329,5255.462188,2068.457845,10288.862594
16527.881653,5847.626942,2374.896044,10807.006753
16527.881977,5773.606348,2374.896044,11473.192101
16527.882302,6883.915261,2757.943793,11991.336260
16527.882626,7328.038826,2987.772442,10881.027347
16527.882950,8216.285956,3140.991542,10436.903782
16527.883275,8512.368333,2528.115143,10362.883188
16527.883599,7328.038826,2528.115143,10510.924376
16527.883923,6735.874072,1455.581446,10140.821405
16527.884247,6735.874072,612.876398,9548.656652
16527.884572,5773.606348,-536.266849,9844.739029
16527.884896,3923.091493,-1072.533697,9622.677246
16527.885220,2812.782580,-1225.752797,9696.697840
16527.885545,2886.803174,-1302.362347,9326.594869
16527.885869,2590.720797,-1838.629195,8808.450710
16527.886193,1998.556043,-1608.800546,8660.409521
16527.886518,1850.514855,-689.485948,8438.347739
16527.886842,962.267725,-766.095498,8364.327145
16527.887166,518.144159,-459.657299,9104.533087
16527.887490,-222.061783,-306.438199,9474.636058
16527.887815,-2590.720797,-766.095498,9474.636058
16527.888139,-3923.091493,-229.828649,9474.636058
16527.888463,-5107.421000,-1072.533697,9844.739029
16527.888788,-7402.059420,-995.924147,10658.965565
16527.889112,-8882.471304,-1302.362347,11029.068536
16527.889436,-10066.800811,-1762.019645,10732.986159
16527.889761,-9992.780217,-1149.143247,10288.862594
16527.890085,-9696.697840,-766.095498,10658.965565
16527.890409,-9474.636058,0.000000,10288.862594
16527.890734,-9918.759623,-459.657299,9326.594869
16527.891058,-8216.285956,536.266849,8364.327145
16527.891382,-6809.894666,1225.752797,8660.409521
16527.891706,-6439.791695,1149.143247,8364.327145
16527.892031,-6217.729913,1455.581446,7550.100608
16527.892355,-4441.235652,2068.457845,7550.100608
16527.892679,-2294.638420,2145.067394,7179.997637
16527.893004,-1110.308913,2068.457845,7179.997637
16527.893328,148.041188,2145.067394,7402.059420
16527.893652,1628.453072,2451.505594,6291.750507
16527.893977,2664.741391,2145.067394,7105.977043
16527.894301,3997.112087,2068.457845,7994.224174
16527.894625,4515.256246,2221.676944,8290.306550
16527.894949,5255.462188,2068.457845,8586.388927
16527.895274,6365.771101,2681.334243,9548.656652
16527.895598,7105.977043,1915.238745,10510.924376
16527.895922,6365.771101,2145.067394,11251.130318
16527.896247,5995.668130,2298.286494,11177.109724
16527.896571,7105.977043,2145.067394,10732.986159
16527.896895,7105.977043,1915.238745,10732.986159
16527.897220,6217.729913,1685.410096,10362.883188
16527.897544,6217.729913,1378.971896,10140.821405
16527.897868,6217.729913,995.924147,10436.903782
16527.898193,6143.709319,0.000000,9992.780217
16527.898517,5255.462188,0.000000,9992.780217
16527.898841,4737.318029,-536.266849,10140.821405
16527.899165,4737.318029,-1149.143247,9548.656652
16527.899490,5181.441594,-1302.362347,9992.780217
16527.899814,4367.215058,-1378.971896,9548.656652
16527.900138,2960.823768,-459.657299,8956.491898
