#time,accel_x,accel_y,accel_z
21037.784602,-148.041188,-689.485948,8586.388927
21037.784925,-370.102971,-383.047749,8956.491898
21037.785249,-888.247130,-919.314598,9104.533087
21037.785572,-1184.329507,-612.876398,9104.533087
21037.785896,-1036.288319,-612.876398,9252.574275
21037.786220,-888.247130,-919.314598,9178.553681
21037.786543,-814.226536,0.000000,9030.512492
21037.786867,-222.061783,-459.657299,9252.574275
21037.787191,-444.123565,-536.266849,8808.450710
21037.787514,-814.226536,-612.876398,8956.491898
21037.787838,-296.082377,-612.876398,9252.574275
21037.788161,-444.123565,-919.314598,9326.594869
21037.788485,-592.164754,-842.705048,9252.574275
21037.788809,-592.164754,-919.314598,9326.594869
21037.789132,-444.123565,-842.705048,9474.636058
21037.789456,0.000000,-842.705048,9326.594869
21037.789779,296.082377,0.000000,9326.594869
21037.790103,666.185348,-229.828649,9474.636058
21037.790427,370.102971,459.657299,8956.491898
21037.790750,888.247130,383.047749,9474.636058
21037.791074,814.226536,383.047749,9474.636058
21037.791398,222.061783,306.438199,9474.636058
21037.791721,0.000000,0.000000,9178.553681
21037.792045,-370.102971,76.609550,8956.491898
21037.792368,-666.185348,76.609550,9178.553681
21037.792692,-1776.494261,153.219100,9030.512492
21037.793016,-1554.432478,-229.828649,9030.512492
21037.793339,-1702.473667,-383.047749,9252.574275
21037.793663,-2294.638420,0.000000,8956.491898
21037.793986,-2368.659014,-383.047749,9400.615463
21037.794310,-2220.617826,383.047749,9252.574275
21037.794634,-1998.556043,919.314598,9474.636058
21037.794957,-1850.514855,766.095498,9474.636058
21037.795281,-2368.659014,1072.533697,9400.615463
21037.795605,-3034.844362,1149.143247,9474.636058
21037.795928,-3182.885551,1302.362347,9252.574275
21037.796252,-2664.741391,1225.752797,9474.636058
21037.796575,-3775.050304,1532.190996,9474.636058
21037.796899,-4071.132681,1838.629195,8512.368333
21037.797223,-3404.947333,1685.410096,8808.450710
21037.797546,-3627.009116,2145.067394,8956.491898
21037.797870,-3849.070898,2528.115143,8882.471304
21037.798194,-3552.988522,2451.505594,8882.471304
21037.798517,-3256.906145,2451.505594,8438.347739
21037.798841,-3182.885551,2834.553343,8216.285956
21037.799164,-2590.720797,2451.505594,8512.368333
21037.799488,-2886.803174,3294.210641,8142.265362
21037.799812,-2590.720797,2681.334243,8216.285956
21037.800135,-2146.597232,2911.162892,8216.285956
21037.800459,-2220.617826,2528.115143,8290.306550
21037.800782,-2368.659014,2374.896044,8290.306550
21037.801106,-1776.494261,2374.896044,8068.244768
21037.801430,-1184.329507,1685.410096,8586.388927
21037.801753,-1554.432478,1991.848295,8438.347739
21037.802077,-1702.473667,1838.629195,8882.471304
21037.802401,-1850.514855,1608.800546,9400.615463
21037.802724,-1480.411884,1455.581446,9622.677246
21037.803048,-1184.329507,1762.019645,10362.883188
21037.803371,-1554.432478,1378.971896,10436.903782
21037.803695,-2590.720797,1838.629195,10955.047942
21037.804019,-2960.823768,1378.971896,10881.027347
21037.804342,-2368.659014,2374.896044,11103.089130
21037.804666,-3478.967927,1762.019645,10584.944971
21037.804989,-3849.070898,2221.676944,10658.965565
21037.805313,-3997.112087,2298.286494,10140.821405
21037.805637,-3701.029710,2451.505594,9918.759623
21037.805960,-2960.823768,3294.210641,9770.718434
21037.806284,-3478.967927,3217.601092,8882.471304
21037.806608,-3775.050304,3370.820191,7994.224174
21037.806931,-2516.700203,2604.724693,7328.038826
21037.807255,-1924.535449,2528.115143,6883.915261
21037.807578,-1998.556043,2298.286494,6513.812290
21037.807902,-1924.535449,1915.238745,5921.647536
21037.808226,-1110.308913,995.924147,5329.482782
21037.808549,-1554.432478,1149.143247,6365.771101
21037.808873,-2812.782580,153.219100,7624.121203
21037.809196,-2812.782580,0.000000,8734.430116
21037.809520,-3182.885551,-153.219100,9326.594869
21037.809844,-2960.823768,-306.438199,9696.697840
21037.810167,-2220.617826,76.609550,10214.842000
21037.810491,-1258.350101,1302.362347,10436.903782
21037.810815,-370.102971,2145.067394,10658.965565
21037.811138,962.267725,2298.286494,9696.697840
21037.811462,1332.370696,1838.629195,10214.842000
21037.811785,1406.391290,1378.971896,9696.697840
21037.812109,2442.679609,536.266849,9474.636058
21037.812433,1776.494261,-842.705048,9474.636058
21037.812756,0.000000,-1991.848295,9696.697840
21037.813080,-1332.370696,-2681.334243,10732.986159
21037.813403,-2368.659014,-3600.648841,12509.480420
21037.813727,-4441.235652,-4060.306139,13101.645173
21037.814051,-5699.585753,-2911.162892,13767.830521
21037.814374,-6143.709319,-2221.676944,13767.830521
21037.814698,-5625.565159,-612.876398,13767.830521
21037.815022,-5181.441594,2068.457845,12953.603985
21037.815345,-4737.318029,3830.477490,10881.027347
21037.815669,-3627.009116,5669.106685,7994.224174
21037.815992,-1850.514855,7048.078582,5403.503377
21037.816316,-518.144159,7814.174080,3923.091493
21037.816640,-1776.494261,7201.297681,2886.803174
21037.816963,-2516.700203,5822.325785,2590.720797
21037.817287,-3182.885551,3830.477490,2516.700203
21037.817611,-3256.906145,1149.143247,3330.926739
21037.817934,-4589.276840,-383.047749,5181.441594
21037.818258,-5181.441594,-1225.752797,6291.750507
21037.818581,-4811.338623,-2298.286494,7846.182985
21037.818905,-2960.823768,-2374.896044,9474.636058
21037.819229,-1850.514855,-1072.533697,10510.924376
21037.819552,-1184.329507,1072.533697,12287.418637
21037.819876,-518.144159,2374.896044,12657.521608
21037.820199,-518.144159,3907.087040,12509.480420
21037.820523,-1110.308913,5132.839837,13989.892304
21037.820847,-2516.700203,6205.373534,13841.851115
21037.821170,-3256.906145,6511.811733,13323.706956
21037.821494,-2886.803174,6435.202183,11769.274478
21037.821818,-2072.576638,5669.106685,10288.862594
21037.822141,-2738.761985,5975.544884,10510.924376
21037.822465,-3404.947333,3907.087040,8364.327145
21037.822788,-2294.638420,2068.457845,6587.832884
21037.823112,-1998.556043,229.828649,7105.977043
21037.823436,-3330.926739,-919.314598,6069.688724
21037.823759,-2590.720797,-2068.457845,5847.626942
21037.824083,-1332.370696,-3294.210641,4885.359217
21037.824406,-1036.288319,-2987.772442,5699.585753
21037.824730,-1628.453072,-1608.800546,7846.182985
21037.825054,-2220.617826,0.000000,9844.739029
21037.825377,-2442.679609,1072.533697,11621.233289
21037.825701,-2368.659014,2757.943793,12879.583391
21037.826025,-3256.906145,4749.792088,12139.377449
21037.826348,-2368.659014,5745.716235,11103.089130
21037.826672,-592.164754,7124.688131,9548.656652
21037.826995,-370.102971,9346.365076,8734.430116
21037.827319,-444.123565,8580.269578,7254.018232
21037.827643,518.144159,7277.907231,3849.070898
21037.827966,888.247130,4136.915689,3108.864956
21037.828290,-148.041188,689.485948,3552.988522
21037.828613,-814.226536,-2451.505594,3552.988522
21037.828937,-2516.700203,-5822.325785,5995.668130
21037.829261,-5033.400406,-7584.345430,10362.883188
21037.829584,-7476.080014,-9039.926876,12657.521608
21037.829908,-8882.471304,-9346.365076,15766.386565
21037.830232,-9770.718434,-9346.365076,17838.963202
21037.830555,-8142.265362,-5362.668486,19615.457463
21037.830879,-4515.256246,-995.924147,19245.354492
21037.831202,-2812.782580,4060.306139,17172.777854
21037.831526,-888.247130,7507.735880,13989.892304
21037.831850,1850.514855,10495.508323,8438.347739
21037.832173,4737.318029,11414.822920,5033.400406
21037.832497,6661.853478,10955.165621,2368.659014
21037.832820,5403.503377,8427.050478,-0.000000
21037.833144,148.041188,4979.620737,296.082377
21037.833468,-3701.029710,229.828649,1702.473667
21037.833791,-6143.709319,-3370.820191,4293.194464
21037.834115,-9400.615463,-6741.640382,8586.388927
21037.834439,-11843.295072,-8197.221829,11177.109724
21037.834762,-10658.965565,-7584.345430,11843.295072
21037.835086,-9474.636058,-6818.249932,14508.036463
21037.835409,-7179.997637,-1991.848295,14730.098246
21037.835733,-2072.576638,3064.381992,11621.233289
21037.836057,1258.350101,6358.592633,9844.739029
21037.836380,3256.906145,9193.145976,7476.080014
21037.836704,5551.544565,11644.651570,4293.194464
21037.837028,5773.606348,11874.480219,5329.482782
21037.837351,2738.761985,10265.679673,6513.812290
21037.837675,518.144159,8273.831378,7550.100608
21037.837998,-1332.370696,4979.620737,8956.491898
21037.838322,-3108.864956,306.438199,11473.192101
21037.838646,-5033.400406,-1685.410096,11177.109724
21037.838969,-5181.441594,-3830.477490,10510.924376
21037.839293,-5551.544565,-5132.839837,11547.212695
21037.839616,-3775.050304,-3447.429741,10584.944971
21037.839940,-2146.597232,-2911.162892,8956.491898
21037.840264,-1628.453072,-2528.115143,9400.615463
21037.840587,-2886.803174,612.876398,10362.883188
21037.840911,-3478.967927,3064.381992,10362.883188
21037.841235,-1184.329507,3830.477490,9474.636058
21037.841558,222.061783,4903.011187,9326.594869
21037.841882,1258.350101,5975.544884,8512.368333
21037.842206,1480.411884,7967.393179,11399.171507
21037.842529,2590.720797,7660.954980,11251.130318
21037.842853,4293.194464,6205.373534,7698.141797
21037.843176,2812.782580,4136.915689,8068.244768
21037.843500,222.061783,1838.629195,7031.956449
21037.843824,-2812.782580,1072.533697,7402.059420
21037.844147,-4293.194464,-1378.971896,6883.915261
21037.844471,-4589.276840,-3753.867940,5847.626942
21037.844795,-6217.729913,-4136.915689,5847.626942
21037.845118,-6217.729913,-3600.648841,6883.915261
21037.845442,-4811.338623,-1608.800546,8216.285956
21037.845766,-4811.338623,229.828649,9474.636058
21037.846089,-4071.132681,0.000000,9992.780217
21037.846413,-4663.297435,1378.971896,11251.130318
21037.846737,-3478.967927,1225.752797,9770.718434
21037.847060,-2220.617826,1991.848295,10288.862594
21037.847384,-3256.906145,3140.991542,10732.986159
21037.847708,-3997.112087,2757.943793,11843.295072
21037.848031,-1776.494261,2374.896044,9992.780217
21037.848355,666.185348,0.000000,8290.306550
21037.848679,296.082377,306.438199,11029.068536
21037.849002,-3849.070898,-1378.971896,12361.439231
21037.849326,-4367.215058,-2451.505594,12213.398043
21037.849650,-2220.617826,-3677.258390,11029.068536
21037.849973,-2368.659014,-3983.696590,9104.533087
21037.850297,-4737.318029,-2757.943793,8216.285956
21037.850620,-3552.988522,-2221.676944,5995.668130
21037.850944,0.000000,-153.219100,6957.935855
21037.851268,2294.638420,1225.752797,8068.244768
21037.851591,296.082377,2451.505594,7254.018232
21037.851915,-2220.617826,2298.286494,8438.347739
21037.852239,-2368.659014,2145.067394,9252.574275
21037.852562,-666.185348,1302.362347,9474.636058
21037.852886,-518.144159,306.438199,9178.553681
21037.853210,-1036.288319,-76.609550,7476.080014
21037.853533,444.123565,1072.533697,7254.018232
21037.853857,4145.153275,612.876398,6439.791695
21037.854181,3997.112087,612.876398,8216.285956
21037.854504,1406.391290,612.876398,9622.677246
21037.854828,1110.308913,383.047749,8512.368333
21037.855152,2368.659014,-842.705048,9918.759623
21037.855475,2072.576638,-1072.533697,10288.862594
21037.855799,296.082377,-1532.190996,11251.130318
21037.856123,-444.123565,-1455.581446,10066.800811
21037.856446,814.226536,-1302.362347,10510.924376
21037.856770,1850.514855,-1225.752797,10510.924376
21037.857094,-740.205942,-995.924147,11991.336260
21037.857417,-3330.926739,-306.438199,12361.439231
21037.857741,-1480.411884,842.705048,12879.583391
21037.858065,518.144159,153.219100,11473.192101
21037.858388,-370.102971,612.876398,9400.615463
21037.858712,370.102971,689.485948,6883.915261
21037.859035,4145.153275,2145.067394,5921.647536
21037.859359,5255.462188,2221.676944,6365.771101
21037.859683,2886.803174,1608.800546,7846.182985
21037.860006,518.144159,1072.533697,7402.059420
21037.860330,-1184.329507,-229.828649,6957.935855
21037.860654,-740.205942,-2451.505594,7698.141797
21037.860977,-2220.617826,-2987.772442,8808.450710
21037.861301,-3775.050304,-2757.943793,9770.718434
21037.861625,-2442.679609,-2145.067394,8882.471304
21037.861948,-962.267725,-1225.752797,7476.080014
21037.862272,-2072.576638,-459.657299,8660.409521
21037.862596,-3478.967927,766.095498,9030.512492
21037.862919,-2146.597232,1762.019645,9104.533087
21037.863243,-148.041188,995.924147,9622.677246
21037.863567,-1924.535449,995.924147,10881.027347
21037.863890,-1110.308913,153.219100,8808.450710
21037.864214,444.123565,-842.705048,6587.832884
21037.864538,814.226536,-1685.410096,8956.491898
21037.864861,-1776.494261,-1762.019645,11843.295072
21037.865185,-3478.967927,-1991.848295,11177.109724
21037.865509,-2738.761985,-4519.963438,11177.109724
21037.865832,-3627.009116,-4519.963438,11177.109724
21037.866156,-4589.276840,-3753.867940,11769.274478
21037.866479,-3775.050304,-2987.772442,11695.253884
21037.866803,-888.247130,-1685.410096,10140.821405
21037.867127,2368.659014,153.219100,7550.100608
21037.867450,1036.288319,1072.533697,7846.182985
21037.867774,-962.267725,612.876398,8142.265362
21037.868098,-518.144159,2145.067394,9178.553681
21037.868421,1628.453072,1455.581446,8660.409521
21037.868745,370.102971,306.438199,8660.409521
21037.869069,-888.247130,-689.485948,7031.956449
21037.869392,-148.041188,-766.095498,6439.791695
21037.869716,2442.679609,-1991.848295,7031.956449
21037.870040,1406.391290,-1762.019645,7476.080014
21037.870363,-1036.288319,-1455.581446,7920.203579
21037.870687,-666.185348,-1302.362347,7254.018232
21037.871011,1184.329507,-689.485948,9030.512492
21037.871334,2072.576638,-612.876398,9844.739029
21037.871658,2664.741391,383.047749,10510.924376
21037.871982,4071.132681,842.705048,10066.800811
21037.872305,3775.050304,2068.457845,10288.862594
21037.872629,3552.988522,536.266849,9400.615463
21037.872953,370.102971,459.657299,10214.842000
21037.873276,74.020594,0.000000,11251.130318
21037.873600,1036.288319,842.705048,11991.336260
21037.873924,1036.288319,306.438199,10214.842000
21037.874247,-370.102971,0.000000,9622.677246
21037.874571,0.000000,459.657299,9770.718434
21037.874894,1258.350101,0.000000,7698.141797
21037.875218,1184.329507,-1838.629195,8586.388927
21037.875542,-2664.741391,-2221.676944,9770.718434
21037.875865,-3552.988522,-1532.190996,8956.491898
21037.876189,-3034.844362,-1532.190996,9400.615463
21037.876513,-2886.803174,-2451.505594,8956.491898
21037.876836,-2368.659014,-1302.362347,8882.471304
21037.877160,-1036.288319,-1378.971896,7846.182985
21037.877484,666.185348,306.438199,8216.285956
21037.877807,1924.535449,1225.752797,7624.121203
21037.878131,370.102971,1991.848295,8364.327145
21037.878455,148.041188,1149.143247,7994.224174
21037.878778,370.102971,1149.143247,7402.059420
21037.879102,1258.350101,459.657299,7254.018232
21037.879426,-74.020594,1072.533697,9030.512492
21037.879749,-740.205942,-153.219100,8290.306550
21037.880073,-148.041188,-1225.752797,7846.182985
21037.880397,-296.082377,-3064.381992,7254.018232
21037.880720,-3330.926739,-3140.991542,9992.780217
21037.881044,-3552.988522,-3217.601092,12509.480420
21037.881368,-4367.215058,-2528.115143,12213.398043
21037.881691,-4515.256246,-4290.134789,10436.903782
21037.882015,-4737.318029,-4443.353888,11177.109724
21037.882338,-2886.803174,-2145.067394,9622.677246
21037.882662,0.000000,-766.095498,9770.718434
21037.882986,1998.556043,-306.438199,9104.533087
21037.883309,888.247130,1378.971896,9918.759623
21037.883633,444.123565,1225.752797,10362.883188
21037.883957,0.000000,1455.581446,9918.759623
21037.884280,370.102971,-1838.629195,9548.656652
21037.884604,-296.082377,-1302.362347,9400.615463
21037.884928,888.247130,-1685.410096,8068.244768
21037.885251,2664.741391,-1302.362347,7179.997637
21037.885575,1554.432478,-1608.800546,6513.812290
21037.885899,-370.102971,-689.485948,9326.594869
21037.886222,0.000000,-1378.971896,8956.491898
21037.886546,148.041188,-1838.629195,7920.203579
21037.886870,888.247130,-919.314598,9252.574275
21037.887193,-222.061783,306.438199,8512.368333
21037.887517,0.000000,536.266849,7476.080014
21037.887841,2368.659014,995.924147,5773.606348
21037.888164,3775.050304,1072.533697,5847.626942
21037.888488,2442.679609,689.485948,8142.265362
21037.888812,666.185348,842.705048,10881.027347
21037.889135,1406.391290,459.657299,10584.944971
21037.889459,2072.576638,-919.314598,10584.944971
21037.889782,666.185348,-2145.067394,10881.027347
21037.890106,1036.288319,-1302.362347,10732.986159
21037.890430,2738.761985,-1072.533697,10288.862594
21037.890753,3330.926739,-536.266849,9474.636058
21037.891077,2368.659014,-612.876398,9918.759623
21037.891401,-666.185348,-995.924147,10510.924376
21037.891724,-666.185348,-842.705048,10140.821405
21037.892048,-1554.432478,-842.705048,10510.924376
21037.892372,-2812.782580,-459.657299,10066.800811
21037.892695,-3330.926739,-153.219100,10214.842000
21037.893019,-1998.556043,-612.876398,7994.224174
21037.893343,-740.205942,-612.876398,7328.038826
21037.893666,-1258.350101,0.000000,8956.491898
21037.893990,-3182.885551,229.828649,9696.697840
21037.894314,-3034.844362,76.609550,8290.306550
21037.894637,-2516.700203,0.000000,7698.141797
21037.894961,-2146.597232,76.609550,8068.244768
21037.895285,-2442.679609,689.485948,7994.224174
21037.895608,-148.041188,0.000000,5403.503377
21037.895932,1628.453072,-229.828649,5995.668130
21037.896256,888.247130,536.266849,8734.430116
21037.896579,-1332.370696,1072.533697,10584.944971
21037.896903,-1628.453072,-383.047749,9030.512492
21037.897227,-3108.864956,-1532.190996,9548.656652
21037.897550,-4145.153275,-1991.848295,10288.862594
21037.897874,-4293.194464,-689.485948,11177.109724
21037.898197,-1258.350101,-1302.362347,9104.533087
21037.898521,1036.288319,-1302.362347,8068.244768
21037.898845,-222.061783,0.000000,10362.883188
21037.899168,-1332.370696,612.876398,11177.109724
21037.899492,-1036.288319,0.000000,9918.759623
21037.899816,888.247130,-1762.019645,9918.759623
21037.900139,0.000000,-995.924147,10584.944971
21037.900463,-962.267725,-689.485948,10807.006753
21037.900787,1036.288319,-2068.457845,9104.533087
21037.901110,2886.803174,-1532.190996,7994.224174
21037.901434,1998.556043,-842.705048,8808.450710
21037.901758,0.000000,-536.266849,9474.636058
21037.902081,-1776.494261,-1608.800546,9770.718434
21037.902405,-1036.288319,-612.876398,10066.800811
21037.902729,-1184.329507,-1149.143247,10807.006753
21037.903052,-1554.432478,-153.219100,8882.471304
21037.903376,-444.123565,0.000000,7402.059420
21037.903700,2516.700203,766.095498,4737.318029
21037.904023,3849.070898,2374.896044,6883.915261
21037.904347,1554.432478,2911.162892,7994.224174
21037.904671,-296.082377,2528.115143,7624.121203
21037.904994,-296.082377,1149.143247,8734.430116
21037.905318,444.123565,0.000000,7920.203579
21037.905641,-1184.329507,-1225.752797,9474.636058
21037.905965,-1184.329507,-2068.457845,9474.636058
21037.906289,592.164754,-1991.848295,8660.409521
21037.906612,1998.556043,-1608.800546,9474.636058
21037.906936,1184.329507,-842.705048,10066.800811
21037.907260,-1850.514855,-842.705048,11843.295072
21037.907583,-740.205942,-1915.238745,10066.800811
21037.907907,74.020594,0.000000,11917.315666
21037.908231,222.061783,0.000000,11991.336260
21037.908554,-1036.288319,1225.752797,10436.903782
21037.908878,1628.453072,-229.828649,6587.832884
21037.909202,3034.844362,0.000000,6809.894666
21037.909525,1110.308913,306.438199,9326.594869
21037.909849,-1850.514855,919.314598,9622.677246
21037.910173,-2220.617826,0.000000,9178.553681
21037.910496,-1628.453072,-1608.800546,9104.533087
21037.910820,-2590.720797,-1608.800546,8956.491898
21037.911144,-3256.906145,-2298.286494,9030.512492
21037.911467,-1628.453072,-2528.115143,7328.038826
21037.911791,518.144159,-1302.362347,7105.977043
21037.912115,518.144159,-766.095498,7624.121203
21037.912438,-1702.473667,-1378.971896,8882.471304
21037.912762,-1702.473667,-766.095498,9252.574275
21037.913086,-1110.308913,-153.219100,11621.233289
21037.913409,-1480.411884,-842.705048,10436.903782
21037.913733,-3182.885551,-919.314598,10658.965565
21037.914056,0.000000,-1072.533697,7994.224174
21037.914380,2072.576638,-612.876398,6439.791695
21037.914704,518.144159,0.000000,8808.450710
21037.915027,-1480.411884,76.609550,10362.883188
21037.915351,-1702.473667,612.876398,10066.800811
21037.915675,-222.061783,-919.314598,10140.821405
21037.915998,-1110.308913,-1225.752797,9918.759623
21037.916322,-2072.576638,-1608.800546,10362.883188
21037.916646,0.000000,-2068.457845,7772.162391
21037.916969,1554.432478,-919.314598,7624.121203
21037.917293,1110.308913,0.000000,8438.347739
21037.917617,-1406.391290,0.000000,9400.615463
21037.917940,-1480.411884,-1149.143247,8808.450710
21037.918264,-740.205942,-919.314598,9992.780217
21037.918588,-888.247130,383.047749,11103.089130
21037.918911,-2294.638420,689.485948,9474.636058
21037.919235,-666.185348,842.705048,7920.203579
21037.919559,1998.556043,0.000000,5921.647536
21037.919882,2664.741391,689.485948,7105.977043
21037.920206,1332.370696,995.924147,8808.450710
21037.920530,1554.432478,689.485948,8512.368333
21037.920853,1480.411884,1532.190996,10436.903782
21037.921177,1184.329507,1455.581446,11991.336260
21037.921500,0.000000,306.438199,10510.924376
21037.921824,370.102971,-1685.410096,7105.977043
21037.922148,2516.700203,-1532.190996,5847.626942
21037.922471,2812.782580,-766.095498,7772.162391
21037.922795,-962.267725,919.314598,11917.315666
21037.923119,-962.267725,-766.095498,9770.718434
21037.923442,-2072.576638,0.000000,9548.656652
21037.923766,-1036.288319,-1302.362347,11399.171507
21037.924090,-2812.782580,0.000000,11621.233289
21037.924413,-592.164754,-1455.581446,9918.759623
21037.924737,2516.700203,-919.314598,8882.471304
21037.925061,3404.947333,383.047749,7846.182985
21037.925384,1258.350101,612.876398,8290.306550
21037.925708,-1036.288319,-229.828649,7698.141797
21037.926032,-1036.288319,-689.485948,8068.244768
21037.926355,148.041188,-459.657299,11103.089130
21037.926679,-1480.411884,-995.924147,10584.944971
21037.927003,-2738.761985,-1762.019645,9992.780217
21037.927326,-222.061783,-2221.676944,7402.059420
21037.927650,1554.432478,-1532.190996,6735.874072
21037.927974,74.020594,-689.485948,9326.594869
21037.928297,-2368.659014,0.000000,8956.491898
21037.928621,-2368.659014,-842.705048,9178.553681
21037.928944,-1554.432478,-995.924147,9178.553681
21037.929268,-2220.617826,0.000000,10436.903782
21037.929592,-2368.659014,-995.924147,9844.739029
21037.929915,-370.102971,-2298.286494,7031.956449
21037.930239,1110.308913,-1762.019645,6957.935855
21037.930563,-370.102971,-229.828649,9696.697840
21037.930886,-2220.617826,229.828649,10807.006753
21037.931210,-962.267725,-1685.410096,8438.347739
21037.931534,0.000000,-2451.505594,11103.089130
21037.931857,-1332.370696,-766.095498,13249.686362
21037.932181,-2368.659014,0.000000,10881.027347
21037.932505,0.000000,-2221.676944,7328.038826
21037.932828,1776.494261,-1762.019645,7698.141797
21037.933152,814.226536,0.000000,8660.409521
21037.933476,-814.226536,76.609550,9474.636058
21037.933799,-814.226536,-1072.533697,8068.244768
21037.934123,-1184.329507,-459.657299,9622.677246
21037.934447,-2146.597232,459.657299,10288.862594
21037.934770,-2442.679609,-229.828649,9844.739029
21037.935094,0.000000,-842.705048,7328.038826
21037.935418,1258.350101,-689.485948,6069.688724
21037.935741,2294.638420,-536.266849,6069.688724
21037.936065,296.082377,536.266849,9400.615463
21037.936389,-222.061783,766.095498,11177.109724
21037.936712,592.164754,76.609550,11325.150913
21037.937036,222.061783,-919.314598,10288.862594
21037.937359,-666.185348,-842.705048,10658.965565
21037.937683,1554.432478,0.000000,7772.162391
21037.938007,3627.009116,459.657299,7179.997637
21037.938330,3330.926739,766.095498,8364.327145
21037.938654,592.164754,1532.190996,9030.512492
21037.938978,-1554.432478,689.485948,7994.224174
21037.939301,-2664.741391,-689.485948,9030.512492
21037.939625,-2886.803174,-842.705048,11325.150913
21037.939949,-2590.720797,-842.705048,11473.192101
21037.940272,-1480.411884,-2145.067394,8290.306550
21037.940596,296.082377,-2451.505594,7994.224174
21037.940920,222.061783,0.000000,8586.388927
21037.941243,-1332.370696,536.266849,9326.594869
21037.941567,-1110.308913,-766.095498,8142.265362
21037.941890,-222.061783,-153.219100,8142.265362
21037.942214,962.267725,76.609550,9770.718434
21037.942538,666.185348,689.485948,9400.615463
21037.942861,1628.453072,306.438199,7920.203579
21037.943185,3256.906145,383.047749,7920.203579
21037.943508,3552.988522,383.047749,8512.368333
21037.943832,2146.597232,766.095498,10066.800811
21037.944155,370.102971,-459.657299,8956.491898
21037.944479,-1406.391290,-306.438199,10510.924376
21037.944802,0.000000,-995.924147,10955.047942
21037.945126,-1702.473667,-536.266849,11547.212695
21037.945450,-1924.535449,-2068.457845,8364.327145
21037.945773,-962.267725,-1838.629195,6143.709319
21037.946097,-1184.329507,-766.095498,7105.977043
21037.946420,-2220.617826,-842.705048,9030.512492
21037.946744,-3478.967927,-842.705048,9030.512492
21037.947067,-3034.844362,-1991.848295,8956.491898
21037.947391,-2812.782580,-1302.362347,10288.862594
21037.947714,-3701.029710,-919.314598,10807.006753
21037.948038,-2664.741391,-1991.848295,10140.821405
21037.948362,-1776.494261,-2221.676944,9178.553681
21037.948685,-592.164754,-1378.971896,9400.615463
21037.949009,0.000000,-1225.752797,8660.409521
21037.949332,0.000000,-2221.676944,9030.512492
21037.949656,-370.102971,-1991.848295,9992.780217
21037.949979,-148.041188,-306.438199,11473.192101
21037.950303,74.020594,0.000000,10807.006753
21037.950626,1036.288319,-766.095498,9696.697840
21037.950950,2886.803174,-536.266849,6809.894666
21037.951274,3330.926739,0.000000,6587.832884
21037.951597,2590.720797,766.095498,9030.512492
21037.951921,1036.288319,1762.019645,10436.903782
21037.952244,814.226536,1915.238745,9622.677246
21037.952568,-148.041188,-536.266849,8660.409521
21037.952891,-3404.947333,-1991.848295,9400.615463
21037.953215,-4737.318029,-2374.896044,9844.739029
21037.953538,-1258.350101,-1991.848295,7476.080014
21037.953862,518.144159,-1608.800546,8068.244768
21037.954186,-370.102971,-1838.629195,6439.791695
21037.954509,-2886.803174,-306.438199,7772.162391
21037.954833,-2072.576638,-1302.362347,9400.615463
21037.955156,-1036.288319,229.828649,9474.636058
21037.955480,-962.267725,0.000000,9992.780217
21037.955803,-1184.329507,0.000000,10214.842000
21037.956127,888.247130,-995.924147,8364.327145
21037.956450,3627.009116,459.657299,7698.141797
21037.956774,4885.359217,459.657299,8956.491898
21037.957097,1998.556043,536.266849,10288.862594
21037.957421,1628.453072,1149.143247,10362.883188
21037.957745,1776.494261,536.266849,10955.047942
21037.958068,2294.638420,-306.438199,10584.944971
21037.958392,666.185348,-306.438199,9992.780217
21037.958715,1036.288319,-383.047749,8438.347739
21037.959039,2368.659014,229.828649,6957.935855
21037.959362,2368.659014,306.438199,7402.059420
21037.959686,962.267725,1072.533697,8882.471304
21037.960009,-740.205942,0.000000,8364.327145
21037.960333,-1628.453072,-612.876398,9252.574275
21037.960657,-1628.453072,-842.705048,9918.759623
21037.960980,-1776.494261,-459.657299,10658.965565
21037.961304,-592.164754,-919.314598,8660.409521
21037.961627,-296.082377,-1762.019645,7328.038826
21037.961951,0.000000,-1302.362347,7920.203579
21037.962274,-518.144159,229.828649,10066.800811
21037.962598,-1702.473667,-842.705048,9474.636058
21037.962921,-2368.659014,-612.876398,10436.903782
21037.963245,-2368.659014,-1225.752797,10436.903782
21037.963569,-4293.194464,-459.657299,12287.418637
21037.963892,-2886.803174,-2145.067394,10436.903782
21037.964216,-2294.638420,-1225.752797,7994.224174
21037.964539,-1332.370696,-1991.848295,7550.100608
21037.964863,-2072.576638,-459.657299,8882.471304
21037.965186,-2960.823768,153.219100,8364.327145
21037.965510,-2516.700203,0.000000,8734.430116
21037.965833,-2664.741391,153.219100,9104.533087
21037.966157,-3330.926739,-383.047749,9104.533087
21037.966481,-2664.741391,-1378.971896,9178.553681
21037.966804,370.102971,-1685.410096,6291.750507
21037.967128,2590.720797,-2221.676944,7031.956449
21037.967451,814.226536,-383.047749,9918.759623
21037.967775,-592.164754,76.609550,11991.336260
21037.968098,1480.411884,76.609550,10807.006753
21037.968422,2590.720797,-689.485948,10732.986159
21037.968745,1628.453072,-459.657299,12139.377449
21037.969069,296.082377,0.000000,9992.780217
21037.969393,2368.659014,-536.266849,7846.182985
21037.969716,4367.215058,-459.657299,7846.182985
21037.970040,2072.576638,842.705048,7698.141797
21037.970363,-2368.659014,383.047749,7846.182985
21037.970687,-3034.844362,-1455.581446,7624.121203
21037.971010,-2590.720797,-1455.581446,9622.677246
21037.971334,-2294.638420,-1608.800546,10807.006753
21037.971657,-2960.823768,-2221.676944,9622.677246
21037.971981,-814.226536,-2451.505594,8290.306550
21037.972305,1036.288319,-1685.410096,8438.347739
21037.972628,2294.638420,-689.485948,8290.306550
21037.972952,1628.453072,153.219100,9770.718434
21037.973275,1924.535449,-306.438199,9252.574275
21037.973599,2368.659014,536.266849,9252.574275
21037.973922,3034.844362,1072.533697,9326.594869
21037.974246,2812.782580,689.485948,10658.965565
21037.974569,3923.091493,766.095498,8512.368333
21037.974893,5033.400406,76.609550,7254.018232
21037.975217,3997.112087,0.000000,8290.306550
21037.975540,1184.329507,1149.143247,9770.718434
21037.975864,592.164754,383.047749,8808.450710
21037.976187,666.185348,-919.314598,9770.718434
21037.976511,-740.205942,-1149.143247,10066.800811
21037.976834,-2738.761985,-459.657299,9770.718434
21037.977158,-1924.535449,-1532.190996,7550.100608
21037.977481,-370.102971,-1838.629195,7550.100608
21037.977805,0.000000,-1378.971896,7402.059420
21037.978129,-2960.823768,-536.266849,9104.533087
21037.978452,-4219.173869,-2145.067394,8808.450710
21037.978776,-3775.050304,-1149.143247,10362.883188
21037.979099,-3552.988522,-1225.752797,11251.130318
21037.979423,-6439.791695,-1762.019645,11103.089130
21037.979746,-5477.523971,-3370.820191,8586.388927
21037.980070,-1480.411884,-2068.457845,8290.306550
21037.980393,592.164754,-1685.410096,10288.862594
21037.980717,-1850.514855,306.438199,12287.418637
21037.981041,-3330.926739,-766.095498,9548.656652
21037.981364,-2886.803174,-1378.971896,8734.430116
21037.981688,-1036.288319,-842.705048,8512.368333
21037.982011,-1480.411884,229.828649,8808.450710
21037.982335,-2738.761985,612.876398,9252.574275
21037.982658,148.041188,-229.828649,7402.059420
21037.982982,2812.782580,919.314598,6439.791695
21037.983305,1332.370696,1225.752797,8586.388927
21037.983629,-1776.494261,995.924147,8364.327145
21037.983953,-1554.432478,766.095498,8438.347739
21037.984276,222.061783,0.000000,9400.615463
21037.984600,-222.061783,306.438199,9252.574275
21037.984923,-1036.288319,0.000000,7846.182985
21037.985247,370.102971,-153.219100,8142.265362
21037.985570,2368.659014,-536.266849,8586.388927
21037.985894,2442.679609,229.828649,9474.636058
21037.986217,1332.370696,-153.219100,9178.553681
21037.986541,666.185348,153.219100,10066.800811
21037.986865,1628.453072,1532.190996,10362.883188
21037.987188,666.185348,842.705048,9992.780217
21037.987512,222.061783,-842.705048,8956.491898
21037.987835,2220.617826,153.219100,8438.347739
21037.988159,3256.906145,995.924147,8290.306550
21037.988482,1258.350101,919.314598,10658.965565
21037.988806,-1702.473667,0.000000,10584.944971
21037.989129,-2072.576638,0.000000,10881.027347
21037.989453,-814.226536,-995.924147,10955.047942
21037.989777,-1036.288319,-1762.019645,8882.471304
21037.990100,-2220.617826,-1762.019645,8364.327145
21037.990424,370.102971,-1378.971896,8512.368333
21037.990747,3256.906145,153.219100,8586.388927
21037.991071,3478.967927,536.266849,8586.388927
21037.991394,1110.308913,766.095498,8586.388927
21037.991718,1258.350101,842.705048,7402.059420
21037.992041,3404.947333,306.438199,8290.306550
21037.992365,2886.803174,0.000000,9992.780217
21037.992689,-444.123565,306.438199,10214.842000
21037.993012,888.247130,-1378.971896,6883.915261
21037.993336,2146.597232,-1532.190996,7994.224174
21037.993659,740.205942,-1838.629195,9622.677246
21037.993983,-3182.885551,-1072.533697,10807.006753
21037.994306,-4219.173869,-2681.334243,9400.615463
21037.994630,-3478.967927,-3370.820191,8586.388927
21037.994953,-3552.988522,-1991.848295,8586.388927
21037.995277,-4811.338623,-2374.896044,9030.512492
21037.995601,-3108.864956,-3140.991542,7550.100608
21037.995924,-1628.453072,-2145.067394,8364.327145
21037.996248,-296.082377,-1455.581446,9622.677246
21037.996571,-2146.597232,-1149.143247,10510.924376
21037.996895,-2442.679609,-2145.067394,8660.409521
21037.997218,-2368.659014,-2911.162892,10214.842000
21037.997542,-2220.617826,-2911.162892,12657.521608
21037.997865,-2146.597232,-2145.067394,13323.706956
21037.998189,-518.144159,-2145.067394,9992.780217
21037.998513,2146.597232,-1915.238745,8660.409521
21037.998836,2886.803174,-995.924147,8956.491898
21037.999160,296.082377,1149.143247,9770.718434
21037.999483,444.123565,1225.752797,9474.636058
21037.999807,518.144159,919.314598,9252.574275
21038.000130,-888.247130,459.657299,7994.224174
21038.000454,-2960.823768,306.438199,8586.388927
21038.000777,-2368.659014,-229.828649,7698.141797
21038.001101,0.000000,-766.095498,6957.935855
21038.001425,0.000000,-306.438199,8216.285956
21038.001748,-2738.761985,76.609550,9252.574275
21038.002072,-5255.462188,0.000000,7994.224174
21038.002395,-3404.947333,-1149.143247,7550.100608
21038.002719,-814.226536,-536.266849,9030.512492
21038.003042,-1110.308913,842.705048,9474.636058
21038.003366,74.020594,1149.143247,7031.956449
21038.003689,3034.844362,1685.410096,6143.709319
21038.004013,5107.421000,2451.505594,7476.080014
21038.004337,4737.318029,2834.553343,9696.697840
21038.004660,3108.864956,2451.505594,11473.192101
21038.004984,2220.617826,1378.971896,11547.212695
21038.005307,1332.370696,1455.581446,11843.295072
21038.005631,1628.453072,0.000000,11177.109724
21038.005954,888.247130,-229.828649,10066.800811
21038.006278,1776.494261,0.000000,8808.450710
21038.006601,3552.988522,766.095498,9030.512492
21038.006925,1406.391290,919.314598,8956.491898
21038.007249,-888.247130,1378.971896,9030.512492
21038.007572,-370.102971,1072.533697,7846.182985
21038.007896,-148.041188,229.828649,8290.306550
21038.008219,-1406.391290,383.047749,8808.450710
21038.008543,-1184.329507,612.876398,9474.636058
21038.008866,0.000000,-459.657299,6735.874072
21038.009190,-444.123565,-842.705048,6661.853478
21038.009513,-888.247130,-1838.629195,7994.224174
21038.009837,-3034.844362,-1455.581446,9326.594869
21038.010161,-3330.926739,-1762.019645,11177.109724
21038.010484,-1480.411884,-2221.676944,10436.903782
21038.010808,-1480.411884,-1685.410096,9326.594869
21038.011131,-2442.679609,-1685.410096,10807.006753
21038.011455,-370.102971,-1072.533697,8586.388927
21038.011778,2220.617826,-1225.752797,7254.018232
21038.012102,2072.576638,-1685.410096,7031.956449
21038.012425,-1258.350101,0.000000,10584.944971
21038.012749,-1258.350101,-153.219100,10584.944971
21038.013073,-518.144159,-1225.752797,9104.533087
21038.013396,-2442.679609,-3064.381992,9696.697840
21038.013720,-5403.503377,-2757.943793,12213.398043
21038.014043,-2812.782580,-3370.820191,9326.594869
21038.014367,-1036.288319,-3677.258390,8956.491898
21038.014690,148.041188,-4443.353888,9474.636058
21038.015014,-2960.823768,-2528.115143,8808.450710
21038.015337,-3034.844362,-2221.676944,8068.244768
21038.015661,-2146.597232,-1532.190996,10436.903782
21038.015985,-962.267725,-612.876398,10140.821405
21038.016308,74.020594,-1225.752797,9844.739029
21038.016632,1480.411884,-1915.238745,7994.224174
21038.016955,3256.906145,-153.219100,8142.265362
21038.017279,4737.318029,689.485948,9400.615463
21038.017602,2812.782580,995.924147,9844.739029
21038.017926,222.061783,0.000000,9992.780217
21038.018249,-370.102971,76.609550,9474.636058
21038.018573,-740.205942,-459.657299,9696.697840
21038.018897,-666.185348,-1302.362347,10362.883188
21038.019220,222.061783,-842.705048,8142.265362
21038.019544,1480.411884,0.000000,7179.997637
21038.019867,1480.411884,612.876398,8290.306550
21038.020191,74.020594,1302.362347,8438.347739
21038.020514,0.000000,1378.971896,8512.368333
21038.020838,0.000000,306.438199,8882.471304
21038.021161,74.020594,383.047749,9622.677246
21038.021485,370.102971,1608.800546,11103.089130
21038.021808,1110.308913,1072.533697,9178.553681
21038.022132,2146.597232,229.828649,7624.121203
21038.022456,2516.700203,153.219100,7698.141797
21038.022779,1406.391290,1532.190996,9918.759623
21038.023103,-148.041188,919.314598,10436.903782
21038.023426,-518.144159,612.876398,10066.800811
21038.023750,-444.123565,842.705048,9252.574275
21038.024073,-1258.350101,459.657299,9178.553681
21038.024397,-888.247130,306.438199,9252.574275
21038.024720,1480.411884,459.657299,7772.162391
21038.025044,1924.535449,689.485948,7031.956449
21038.025368,74.020594,1915.238745,8068.244768
21038.025691,-1702.473667,1378.971896,9474.636058
21038.026015,-1850.514855,1225.752797,9548.656652
21038.026338,-1184.329507,-612.876398,7920.203579
21038.026662,-2072.576638,-612.876398,8068.244768
21038.026985,-4071.132681,-536.266849,9770.718434
21038.027309,-1850.514855,-919.314598,7846.182985
21038.027632,2220.617826,-1378.971896,8364.327145
21038.027956,0.000000,-536.266849,9696.697840
21038.028280,-2368.659014,-459.657299,11177.109724
21038.028603,-1924.535449,-1149.143247,9474.636058
21038.028927,-1554.432478,-2298.286494,9918.759623
21038.029250,-2368.659014,-1225.752797,11695.253884
21038.029574,-3478.967927,-1455.581446,9918.759623
21038.029897,-1258.350101,-3140.991542,7402.059420
21038.030221,-296.082377,-3524.039291,6883.915261
21038.030544,-1480.411884,-2145.067394,8290.306550
21038.030868,-3256.906145,-1225.752797,10214.842000
21038.031192,-4293.194464,-1608.800546,10362.883188
21038.031515,-3034.844362,-1838.629195,10658.965565
21038.031839,-2886.803174,-2451.505594,9918.759623
21038.032162,-2664.741391,-3217.601092,8216.285956
21038.032486,0.000000,-2374.896044,7624.121203
21038.032809,2294.638420,-1532.190996,7105.977043
21038.033133,1628.453072,-459.657299,8882.471304
21038.033456,444.123565,0.000000,10658.965565
21038.033780,888.247130,76.609550,10066.800811
21038.034104,1702.473667,-995.924147,10510.924376
21038.034427,740.205942,-995.924147,10140.821405
21038.034751,1036.288319,-612.876398,9400.615463
21038.035074,3108.864956,-612.876398,7772.162391
21038.035398,4663.297435,-383.047749,7031.956449
21038.035721,3478.967927,689.485948,8586.388927
21038.036045,962.267725,1149.143247,9474.636058
21038.036368,0.000000,383.047749,9622.677246
21038.036692,296.082377,-1225.752797,9844.739029
21038.037016,-444.123565,-842.705048,9548.656652
21038.037339,-1406.391290,-919.314598,10436.903782
21038.037663,-814.226536,-1991.848295,8808.450710
21038.037986,814.226536,-1608.800546,7550.100608
21038.038310,1184.329507,-459.657299,7624.121203
21038.038633,-296.082377,-306.438199,9844.739029
21038.038957,-814.226536,-306.438199,9178.553681
21038.039280,222.061783,0.000000,9400.615463
21038.039604,370.102971,153.219100,9770.718434
21038.039928,-2146.597232,306.438199,9918.759623
21038.040251,-1184.329507,0.000000,6883.915261
21038.040575,2664.741391,-612.876398,6217.729913
21038.040898,4367.215058,76.609550,8438.347739
21038.041222,2812.782580,1762.019645,12953.603985
21038.041545,148.041188,1762.019645,11399.171507
21038.041865,-222.061783,0.000000,9844.739029
21038.042189,0.000000,-306.438199,9844.739029
21038.042512,-962.267725,919.314598,9252.574275
21038.042836,-592.164754,153.219100,8068.244768
21038.043159,1480.411884,229.828649,6513.812290
21038.043483,3034.844362,2757.943793,7254.018232
21038.043806,-148.041188,3447.429741,10214.842000
21038.044130,-3182.885551,1378.971896,7920.203579
21038.044453,-4589.276840,-459.657299,7846.182985
21038.044776,-4367.215058,-842.705048,10288.862594
21038.045100,-6587.832884,-766.095498,10510.924376
21038.045423,-7105.977043,-2298.286494,7550.100608
21038.045747,-4737.318029,-3447.429741,5551.544565
21038.046070,-4071.132681,-2145.067394,8586.388927
21038.046394,-4441.235652,-1378.971896,10140.821405
21038.046717,-5477.523971,-612.876398,9918.759623
21038.047041,-3182.885551,-2451.505594,9844.739029
21038.047364,-1332.370696,-919.314598,10140.821405
21038.047688,0.000000,-229.828649,9770.718434
21038.048011,592.164754,-383.047749,8808.450710
21038.048334,3330.926739,383.047749,8438.347739
21038.048658,6661.853478,1762.019645,8438.347739
21038.048981,4737.318029,612.876398,8882.471304
21038.049305,1554.432478,-229.828649,9918.759623
21038.049628,962.267725,-306.438199,11177.109724
21038.049952,1702.473667,-995.924147,11991.336260
21038.050275,666.185348,-2451.505594,10658.965565
21038.050599,-888.247130,-2374.896044,9696.697840
21038.050922,222.061783,-2221.676944,8142.265362
21038.051246,2664.741391,-1378.971896,6217.729913
21038.051569,2812.782580,-995.924147,8956.491898
21038.051893,0.000000,153.219100,9770.718434
21038.052216,-666.185348,0.000000,8364.327145
21038.052539,74.020594,-1225.752797,9104.533087
21038.052863,296.082377,-1915.238745,8808.450710
21038.053186,-1554.432478,-1149.143247,9474.636058
21038.053510,0.000000,-2451.505594,8216.285956
21038.053833,2516.700203,-2221.676944,8438.347739
21038.054157,1628.453072,-2145.067394,10066.800811
21038.054480,-1702.473667,-2068.457845,10288.862594
21038.054804,-2442.679609,-3064.381992,9918.759623
21038.055127,-1480.411884,-2757.943793,11029.068536
21038.055451,0.000000,-1532.190996,11177.109724
21038.055774,0.000000,-1378.971896,9696.697840
21038.056097,1258.350101,-766.095498,7402.059420
21038.056421,4367.215058,306.438199,6587.832884
21038.056744,5625.565159,1532.190996,7624.121203
21038.057068,3552.988522,1608.800546,9252.574275
21038.057391,740.205942,1455.581446,9400.615463
21038.057715,1036.288319,1915.238745,10658.965565
21038.058038,1110.308913,306.438199,11621.233289
21038.058362,-444.123565,-612.876398,9696.697840
21038.058685,-666.185348,-1685.410096,8142.265362
21038.059009,666.185348,-1455.581446,7105.977043
21038.059332,444.123565,536.266849,8734.430116
21038.059656,-1184.329507,689.485948,10214.842000
21038.059979,-2886.803174,153.219100,9400.615463
21038.060302,-4589.276840,0.000000,9030.512492
21038.060626,-3997.112087,229.828649,8586.388927
21038.060949,-4441.235652,-153.219100,9696.697840
21038.061273,-4219.173869,-689.485948,7698.141797
21038.061596,-3404.947333,0.000000,7254.018232
21038.061920,-1850.514855,383.047749,6069.688724
21038.062243,-4441.235652,919.314598,8660.409521
21038.062567,-6365.771101,-153.219100,9400.615463
21038.062890,-5107.421000,153.219100,10510.924376
21038.063214,-3182.885551,-459.657299,11029.068536
21038.063537,-4071.132681,-919.314598,10436.903782
21038.063861,-4293.194464,-1072.533697,8808.450710
21038.064184,-1406.391290,-995.924147,7550.100608
21038.064507,1776.494261,306.438199,7920.203579
21038.064831,2590.720797,2298.286494,10732.986159
21038.065154,1702.473667,1608.800546,9696.697840
21038.065478,1406.391290,1991.848295,8956.491898
21038.065801,2960.823768,1608.800546,9844.739029
21038.066125,2886.803174,2068.457845,9918.759623
21038.066448,1924.535449,1225.752797,8586.388927
21038.066772,2368.659014,0.000000,7179.997637
21038.067095,4515.256246,-153.219100,6957.935855
21038.067419,3182.885551,1149.143247,8142.265362
21038.067742,962.267725,0.000000,11029.068536
21038.068065,-444.123565,-842.705048,10066.800811
21038.068389,-814.226536,-1532.190996,9474.636058
21038.068712,-888.247130,-2451.505594,9474.636058
21038.069036,-2960.823768,-1685.410096,9770.718434
21038.069359,-1776.494261,-2374.896044,7920.203579
21038.069683,592.164754,-2145.067394,7476.080014
21038.070006,2368.659014,-2528.115143,8586.388927
21038.070330,-370.102971,-1149.143247,10140.821405
21038.070653,-1554.432478,-842.705048,9400.615463
21038.070977,-1036.288319,-1838.629195,9622.677246
21038.071300,-148.041188,-2298.286494,9770.718434
21038.071624,0.000000,-1762.019645,9326.594869
21038.071947,2738.761985,-1991.848295,8660.409521
21038.072270,5699.585753,-1762.019645,7476.080014
21038.072594,5107.421000,153.219100,8956.491898
21038.072917,4071.132681,-153.219100,10436.903782
21038.073241,3182.885551,0.000000,9548.656652
21038.073564,2886.803174,-306.438199,11843.295072
21038.073888,1924.535449,-1302.362347,10584.944971
21038.074211,-592.164754,-2451.505594,9178.553681
21038.074535,-1332.370696,-2911.162892,8364.327145
21038.074858,-1184.329507,-2298.286494,8660.409521
21038.075182,-1554.432478,-1225.752797,9104.533087
21038.075505,-4663.297435,-2834.553343,9104.533087
21038.075828,-7476.080014,-3370.820191,9252.574275
21038.076152,-7105.977043,-2528.115143,10732.986159
21038.076475,-4663.297435,-2451.505594,9770.718434
21038.076799,-4737.318029,-2834.553343,9844.739029
21038.077122,-3256.906145,-2068.457845,8586.388927
21038.077446,-740.205942,229.828649,7846.182985
21038.077769,1702.473667,306.438199,7476.080014
21038.078093,1184.329507,1225.752797,8808.450710
21038.078416,-296.082377,1532.190996,9474.636058
21038.078740,222.061783,1915.238745,9696.697840
21038.079063,1332.370696,1685.410096,10288.862594
21038.079387,370.102971,1378.971896,10362.883188
21038.079710,-148.041188,1685.410096,9844.739029
21038.080033,518.144159,1532.190996,7920.203579
21038.080357,2220.617826,1149.143247,7254.018232
21038.080680,666.185348,919.314598,9252.574275
21038.081004,-2146.597232,919.314598,8660.409521
21038.081327,-3330.926739,1225.752797,9030.512492
21038.081651,-3701.029710,153.219100,7994.224174
21038.081974,-4885.359217,-383.047749,8068.244768
21038.082298,-5033.400406,-842.705048,7402.059420
21038.082621,-3108.864956,-1302.362347,6143.709319
21038.082945,-1110.308913,-536.266849,6143.709319
21038.083268,-1776.494261,-229.828649,8808.450710
21038.083591,-2220.617826,0.000000,9104.533087
21038.083915,-1258.350101,536.266849,8808.450710
21038.084238,1332.370696,0.000000,9770.718434
21038.084562,2146.597232,0.000000,10584.944971
21038.084885,3923.091493,-306.438199,9992.780217
21038.085209,6365.771101,306.438199,9474.636058
21038.085532,8068.244768,766.095498,9474.636058
21038.085856,7105.977043,1072.533697,9696.697840
21038.086179,3701.029710,306.438199,11029.068536
21038.086503,3775.050304,-612.876398,11251.130318
21038.086826,2590.720797,-689.485948,11547.212695
21038.087150,2072.576638,-1838.629195,11547.212695
21038.087473,222.061783,-1532.190996,9104.533087
21038.087796,296.082377,-1838.629195,8068.244768
21038.088120,1850.514855,-1532.190996,7846.182985
21038.088443,74.020594,-1302.362347,7846.182985
21038.088767,-2368.659014,-1149.143247,7772.162391
21038.089090,-2960.823768,-1838.629195,7920.203579
21038.089414,-2738.761985,-2145.067394,9178.553681
21038.089737,-2738.761985,-1915.238745,9548.656652
21038.090061,-2886.803174,-2451.505594,9770.718434
21038.090384,-1036.288319,-2604.724693,8068.244768
21038.090708,666.185348,-2451.505594,6883.915261
21038.091031,444.123565,-1762.019645,8068.244768
21038.091355,-444.123565,-1455.581446,11843.295072
21038.091678,-1554.432478,-842.705048,10510.924376
21038.092001,0.000000,-459.657299,10066.800811
21038.092325,-296.082377,-1225.752797,9622.677246
21038.092648,-2072.576638,-995.924147,9548.656652
21038.092972,-518.144159,-689.485948,7179.997637
21038.093295,1702.473667,-229.828649,8290.306550
21038.093619,74.020594,-229.828649,8660.409521
21038.093942,-2960.823768,-919.314598,9548.656652
21038.094266,-4293.194464,-1915.238745,8438.347739
21038.094589,-4219.173869,-2068.457845,9548.656652
21038.094913,-4293.194464,-1608.800546,10732.986159
21038.095236,-5625.565159,-1915.238745,11399.171507
21038.095559,-3997.112087,-1991.848295,8438.347739
21038.095883,-1110.308913,-1149.143247,6735.874072
21038.096206,592.164754,-689.485948,6957.935855
21038.096530,-666.185348,766.095498,9178.553681
21038.096853,-740.205942,1302.362347,9252.574275
21038.097177,518.144159,1455.581446,10214.842000
21038.097500,1110.308913,1532.190996,9770.718434
21038.097824,0.000000,919.314598,9770.718434
21038.098147,0.000000,0.000000,8364.327145
21038.098471,1850.514855,-766.095498,6661.853478
21038.098794,2442.679609,-306.438199,6883.915261
21038.099118,0.000000,766.095498,9548.656652
21038.099441,-2812.782580,612.876398,9918.759623
21038.099764,-2220.617826,-459.657299,9474.636058
21038.100088,-222.061783,-2681.334243,8586.388927
21038.100411,-666.185348,-1762.019645,10214.842000
21038.100735,-518.144159,-306.438199,11029.068536
21038.101058,2442.679609,995.924147,8808.450710
21038.101382,4737.318029,306.438199,7772.162391
21038.101705,2960.823768,-612.876398,7476.080014
21038.102029,518.144159,-383.047749,8438.347739
21038.102352,592.164754,459.657299,10955.047942
21038.102676,888.247130,766.095498,13027.624579
21038.102999,148.041188,-919.314598,12657.521608
21038.103322,-444.123565,-3140.991542,8808.450710
21038.103646,0.000000,-3677.258390,7994.224174
21038.103969,1258.350101,-1685.410096,9326.594869
21038.104293,1184.329507,306.438199,10214.842000
21038.104616,740.205942,306.438199,8882.471304
21038.104940,74.020594,-229.828649,8290.306550
21038.105263,-740.205942,995.924147,8290.306550
21038.105587,-1184.329507,306.438199,7772.162391
21038.105910,-1036.288319,-306.438199,7994.224174
21038.106234,2368.659014,459.657299,7994.224174
21038.106557,3627.009116,1072.533697,7920.203579
21038.106881,1406.391290,766.095498,9474.636058
21038.107204,-592.164754,76.609550,9030.512492
21038.107527,-1258.350101,76.609550,8586.388927
21038.107851,-1406.391290,-153.219100,9400.615463
21038.108174,-1332.370696,-766.095498,10362.883188
21038.108498,-962.267725,-536.266849,9474.636058
21038.108821,74.020594,0.000000,7550.100608
21038.109145,518.144159,0.000000,8068.244768
21038.109468,-962.267725,459.657299,8438.347739
21038.109792,-2294.638420,536.266849,9104.533087
21038.110115,-1776.494261,-229.828649,9474.636058
21038.110439,-1406.391290,-306.438199,10881.027347
21038.110762,-4219.173869,0.000000,10362.883188
21038.111085,-6143.709319,-1685.410096,9474.636058
21038.111409,-3849.070898,-3524.039291,6439.791695
21038.111732,-1036.288319,-2221.676944,7550.100608
21038.112056,-666.185348,-766.095498,9474.636058
21038.112379,-3256.906145,0.000000,11103.089130
21038.112703,-2960.823768,-842.705048,10362.883188
21038.113026,-1406.391290,-1762.019645,8882.471304
21038.113350,0.000000,-459.657299,9474.636058
21038.113673,148.041188,-1225.752797,9030.512492
21038.113997,1628.453072,-919.314598,7031.956449
21038.114320,4663.297435,-766.095498,7550.100608
21038.114644,5033.400406,1915.238745,9622.677246
21038.114967,2516.700203,1532.190996,9844.739029
21038.115290,2072.576638,-229.828649,8216.285956
21038.115614,2812.782580,-1608.800546,9326.594869
21038.115937,2072.576638,-995.924147,10807.006753
21038.116261,666.185348,0.000000,11325.150913
21038.116584,1184.329507,-1532.190996,8216.285956
21038.116908,1554.432478,-2298.286494,7328.038826
21038.117231,1110.308913,-1991.848295,8882.471304
21038.117555,-888.247130,-1225.752797,10955.047942
21038.117878,-2220.617826,-2221.676944,10066.800811
21038.118202,-3108.864956,-2374.896044,11029.068536
21038.118525,-2146.597232,-2145.067394,9696.697840
21038.118849,-3775.050304,-1225.752797,9844.739029
21038.119172,-2368.659014,-2374.896044,7105.977043
21038.119495,370.102971,-2068.457845,6957.935855
21038.119819,1036.288319,-766.095498,6883.915261
21038.120142,-592.164754,919.314598,9548.656652
21038.120466,-666.185348,459.657299,9622.677246
21038.120789,1036.288319,-842.705048,9104.533087
21038.121113,1184.329507,-612.876398,9696.697840
21038.121436,1036.288319,0.000000,11547.212695
21038.121760,1702.473667,153.219100,9474.636058
21038.122083,3997.112087,229.828649,7772.162391
21038.122407,5699.585753,-459.657299,8364.327145
21038.122730,3701.029710,919.314598,9326.594869
21038.123053,74.020594,459.657299,8660.409521
21038.123377,-1332.370696,-306.438199,9030.512492
21038.123700,-1776.494261,76.609550,9844.739029
21038.124024,-2738.761985,0.000000,10510.924376
21038.124347,-3923.091493,-1225.752797,9770.718434
21038.124671,-3404.947333,-2604.724693,8660.409521
21038.124994,-2664.741391,-2145.067394,7994.224174
21038.125318,-4367.215058,-612.876398,10362.883188
21038.125641,-6365.771101,-1225.752797,9992.780217
21038.125965,-5995.668130,-689.485948,8364.327145
21038.126288,-3701.029710,-1838.629195,8438.347739
21038.126612,-2590.720797,-536.266849,9474.636058
21038.126935,-1776.494261,229.828649,8734.430116
21038.127258,444.123565,1149.143247,8216.285956
21038.127582,3701.029710,2068.457845,8142.265362
21038.127905,4737.318029,2604.724693,8808.450710
21038.128229,3108.864956,2374.896044,9992.780217
21038.128552,2368.659014,1455.581446,8438.347739
21038.128876,2516.700203,2451.505594,10140.821405
21038.129199,2812.782580,2987.772442,11399.171507
21038.129523,444.123565,1915.238745,11399.171507
21038.129846,592.164754,-459.657299,7031.956449
21038.130170,-370.102971,-1225.752797,6439.791695
21038.130493,-2368.659014,-995.924147,9252.574275
21038.130816,-4367.215058,-153.219100,9844.739029
21038.131140,-4959.379811,-1915.238745,7105.977043
21038.131463,-4737.318029,-3524.039291,7328.038826
21038.131787,-5329.482782,-2374.896044,8438.347739
21038.132110,-5477.523971,-1455.581446,7772.162391
21038.132434,-3330.926739,-1762.019645,8290.306550
21038.132757,74.020594,-1608.800546,7994.224174
21038.133081,1776.494261,0.000000,8586.388927
21038.133404,1924.535449,-842.705048,10732.986159
21038.133728,740.205942,-766.095498,11029.068536
21038.134051,1406.391290,229.828649,12435.459826
21038.134375,2738.761985,459.657299,12805.562797
21038.134698,2664.741391,-919.314598,11695.253884
21038.135021,4145.153275,-1149.143247,8660.409521
21038.135345,4737.318029,-995.924147,8512.368333
21038.135668,4071.132681,-612.876398,9178.553681
21038.135992,1776.494261,766.095498,9992.780217
21038.136315,-296.082377,1072.533697,8216.285956
21038.136639,0.000000,0.000000,8290.306550
21038.136962,0.000000,-919.314598,7772.162391
21038.137286,-1702.473667,-612.876398,8808.450710
21038.137609,-814.226536,-1685.410096,7179.997637
21038.137933,296.082377,-1838.629195,6143.709319
21038.138256,1998.556043,-1149.143247,7328.038826
21038.138579,0.000000,0.000000,10658.965565
21038.138903,-1850.514855,-2298.286494,9474.636058
21038.139226,-1332.370696,-2604.724693,7920.203579
21038.139550,-666.185348,-2451.505594,9474.636058
21038.139873,0.000000,-1915.238745,10807.006753
21038.140197,74.020594,-842.705048,10140.821405
21038.140520,2368.659014,-1225.752797,8364.327145
21038.140844,4071.132681,-459.657299,8290.306550
21038.141167,1776.494261,766.095498,10362.883188
21038.141491,-592.164754,306.438199,10807.006753
21038.141814,-1036.288319,-153.219100,10510.924376
21038.142138,-222.061783,-995.924147,9770.718434
21038.142461,-1702.473667,-1072.533697,10955.047942
21038.142784,-3775.050304,-2374.896044,9474.636058
21038.143108,-2442.679609,-1225.752797,7920.203579
21038.143431,-1184.329507,-1149.143247,8882.471304
21038.143755,-1850.514855,-383.047749,9696.697840
21038.144078,-3552.988522,-306.438199,9104.533087
21038.144401,-3923.091493,-1149.143247,8290.306550
21038.144725,-2516.700203,-153.219100,8438.347739
21038.145048,-1776.494261,1302.362347,9030.512492
21038.145372,-1036.288319,842.705048,8512.368333
21038.145695,592.164754,153.219100,7550.100608
21038.146019,2146.597232,0.000000,6365.771101
21038.146342,1406.391290,306.438199,8290.306550
21038.146665,-1332.370696,306.438199,9770.718434
21038.146989,-2072.576638,0.000000,9474.636058
21038.147312,-1110.308913,-1455.581446,7698.141797
21038.147636,-1998.556043,-2221.676944,8808.450710
21038.147959,-1998.556043,-1685.410096,8808.450710
21038.148282,-666.185348,-536.266849,8068.244768
21038.148606,592.164754,-1532.190996,9326.594869
21038.148929,666.185348,-919.314598,10214.842000
21038.149253,-222.061783,-383.047749,10436.903782
21038.149576,-1258.350101,0.000000,10436.903782
21038.149900,-888.247130,-306.438199,10584.944971
21038.150223,-1184.329507,0.000000,10881.027347
21038.150546,-1036.288319,-306.438199,10807.006753
21038.150870,740.205942,-1378.971896,9770.718434
21038.151193,2664.741391,-1302.362347,8142.265362
21038.151517,2072.576638,-766.095498,7624.121203
21038.151840,-296.082377,536.266849,11547.212695
21038.152163,592.164754,2068.457845,10807.006753
21038.152487,3404.947333,2374.896044,8142.265362
21038.152810,3552.988522,689.485948,8364.327145
21038.153134,1406.391290,1532.190996,9326.594869
21038.153457,1924.535449,2987.772442,8512.368333
21038.153781,5181.441594,2068.457845,7328.038826
21038.154104,4663.297435,995.924147,6587.832884
21038.154427,0.000000,1608.800546,8438.347739
21038.154751,-2590.720797,459.657299,7179.997637
21038.155074,-3034.844362,0.000000,7476.080014
21038.155398,-2664.741391,-1608.800546,7550.100608
21038.155721,-4293.194464,-1149.143247,9474.636058
21038.156044,-3849.070898,-2221.676944,7105.977043
21038.156368,-2294.638420,-2221.676944,6809.894666
21038.156691,-1110.308913,-1608.800546,7772.162391
21038.157015,-3182.885551,-612.876398,10584.944971
21038.157338,-3478.967927,-536.266849,12805.562797
21038.157662,-1480.411884,-1532.190996,10658.965565
21038.157985,-1036.288319,-1915.238745,10066.800811
21038.158308,-1184.329507,-1685.410096,11843.295072
21038.158632,296.082377,-689.485948,11399.171507
21038.158955,3108.864956,-459.657299,8882.471304
21038.159279,3923.091493,-383.047749,8142.265362
21038.159602,1850.514855,0.000000,10510.924376
21038.159925,-296.082377,153.219100,10955.047942
21038.160249,296.082377,-229.828649,9918.759623
21038.160572,296.082377,-1378.971896,9992.780217
21038.160896,-1258.350101,-612.876398,10658.965565
21038.161219,-1776.494261,-919.314598,8660.409521
21038.161543,-740.205942,-1302.362347,6217.729913
21038.161866,-296.082377,-2451.505594,5255.462188
21038.162189,-2442.679609,-1072.533697,7994.224174
21038.162513,-3404.947333,-1149.143247,9844.739029
21038.162836,-2886.803174,-1915.238745,8512.368333
21038.163160,-2812.782580,-2068.457845,8216.285956
21038.163483,-3478.967927,-1762.019645,9400.615463
21038.163807,-2886.803174,-1838.629195,8068.244768
21038.164130,-444.123565,-2528.115143,6661.853478
21038.164453,2442.679609,-2451.505594,6661.853478
21038.164777,1628.453072,306.438199,9992.780217
21038.165100,-148.041188,383.047749,13323.706956
21038.165424,74.020594,-229.828649,11177.109724
21038.165747,888.247130,-1532.190996,10140.821405
21038.166070,1406.391290,-2145.067394,10658.965565
21038.166394,1702.473667,-383.047749,10807.006753
21038.166717,3108.864956,153.219100,9474.636058
21038.167041,3256.906145,229.828649,7920.203579
21038.167364,1628.453072,0.000000,7994.224174
21038.167688,-740.205942,306.438199,9474.636058
21038.168011,-740.205942,0.000000,8660.409521
21038.168334,-666.185348,0.000000,9474.636058
21038.168658,-592.164754,0.000000,10140.821405
21038.168981,-666.185348,383.047749,10584.944971
21038.169305,814.226536,153.219100,9104.533087
21038.169628,2368.659014,76.609550,7105.977043
21038.169951,814.226536,153.219100,7698.141797
21038.170275,-1184.329507,1455.581446,9696.697840
21038.170598,-962.267725,1149.143247,9252.574275
21038.170922,-666.185348,689.485948,8882.471304
21038.171245,-1628.453072,0.000000,7105.977043
21038.171569,-2368.659014,229.828649,6661.853478
21038.171892,-296.082377,-383.047749,7179.997637
21038.172215,2294.638420,229.828649,6883.915261
21038.172539,2220.617826,1072.533697,8142.265362
21038.172862,-518.144159,1302.362347,10288.862594
21038.173186,-2220.617826,1302.362347,9844.739029
21038.173509,-962.267725,-229.828649,8734.430116
21038.173832,296.082377,-1455.581446,9178.553681
21038.174156,-814.226536,-766.095498,11843.295072
21038.174479,-814.226536,459.657299,10288.862594
21038.174803,1924.535449,0.000000,8956.491898
21038.175126,2220.617826,-995.924147,8068.244768
21038.175450,-1480.411884,-995.924147,10066.800811
21038.175773,-1776.494261,-766.095498,10807.006753
21038.176096,-1480.411884,-1838.629195,10140.821405
21038.176420,-1850.514855,-1762.019645,10288.862594
21038.176743,-2590.720797,-1378.971896,10881.027347
21038.177067,-1332.370696,-2374.896044,8290.306550
21038.177390,370.102971,-2145.067394,7550.100608
21038.177713,1776.494261,-1302.362347,8956.491898
21038.178037,-444.123565,-229.828649,11177.109724
21038.178360,-2146.597232,-995.924147,9252.574275
21038.178684,-2812.782580,-1302.362347,9474.636058
21038.179007,-1554.432478,-2528.115143,9030.512492
21038.179331,-3701.029710,-1225.752797,9474.636058
21038.179654,-3034.844362,-1532.190996,10214.842000
21038.179977,148.041188,-2451.505594,7698.141797
21038.180301,962.267725,-1762.019645,5995.668130
21038.180624,-1850.514855,76.609550,9252.574275
21038.180948,-2146.597232,919.314598,9326.594869
21038.181271,-962.267725,-383.047749,8142.265362
21038.181595,444.123565,-1302.362347,8438.347739
21038.181918,0.000000,459.657299,10214.842000
21038.182241,-444.123565,306.438199,9770.718434
21038.182565,2220.617826,-1225.752797,7254.018232
21038.182888,3849.070898,-1455.581446,7994.224174
21038.183212,1184.329507,-612.876398,11547.212695
21038.183535,-888.247130,766.095498,11029.068536
21038.183858,-222.061783,-1838.629195,9918.759623
21038.184182,592.164754,-1991.848295,10584.944971
21038.184505,-444.123565,-842.705048,11695.253884
21038.184829,-296.082377,-536.266849,10362.883188
21038.185152,2294.638420,-1455.581446,7254.018232
21038.185476,3701.029710,-383.047749,6217.729913
21038.185799,2886.803174,2068.457845,9104.533087
21038.186122,74.020594,1685.410096,10436.903782
21038.186446,-666.185348,306.438199,8882.471304
21038.186769,518.144159,0.000000,8586.388927
21038.187093,0.000000,-306.438199,9178.553681
21038.187416,-1998.556043,-536.266849,8364.327145
21038.187739,-444.123565,-995.924147,7328.038826
21038.188063,2146.597232,-1302.362347,6439.791695
21038.188386,1480.411884,0.000000,7846.182985
21038.188710,-666.185348,612.876398,11029.068536
21038.189033,-666.185348,536.266849,10732.986159
21038.189357,666.185348,-612.876398,9844.739029
21038.189680,814.226536,-306.438199,9252.574275
21038.190003,-962.267725,0.000000,10510.924376
21038.190327,-1110.308913,1072.533697,8882.471304
21038.190650,2442.679609,306.438199,6365.771101
21038.190974,2368.659014,76.609550,7698.141797
21038.191297,-1036.288319,689.485948,10214.842000
21038.191620,-3034.844362,536.266849,9178.553681
21038.191944,-2738.761985,-229.828649,9474.636058
21038.192267,-2960.823768,-1762.019645,9400.615463
21038.192591,-5033.400406,-1072.533697,10510.924376
21038.192914,-4515.256246,-2757.943793,8068.244768
21038.193238,-2294.638420,-2298.286494,7920.203579
21038.193561,-148.041188,-2068.457845,9104.533087
21038.193884,-2072.576638,306.438199,11103.089130
21038.194208,-2960.823768,0.000000,9696.697840
21038.194531,-2220.617826,-689.485948,9326.594869
21038.194855,-1258.350101,-1072.533697,9474.636058
21038.195178,-1628.453072,-766.095498,8734.430116
21038.195501,-2294.638420,-919.314598,8142.265362
21038.195825,962.267725,-1685.410096,7179.997637
21038.196148,1998.556043,-229.828649,8142.265362
21038.196472,444.123565,0.000000,10066.800811
21038.196795,-1184.329507,-536.266849,10066.800811
21038.197119,-1332.370696,-1608.800546,8364.327145
21038.197442,296.082377,-1225.752797,9326.594869
21038.197765,-370.102971,-1072.533697,10140.821405
21038.198089,-740.205942,-766.095498,9252.574275
21038.198412,1628.453072,-995.924147,7254.018232
21038.198736,2368.659014,0.000000,7179.997637
21038.199059,962.267725,0.000000,10362.883188
21038.199383,-962.267725,229.828649,10214.842000
21038.199706,-222.061783,-842.705048,9252.574275
21038.200029,370.102971,-1762.019645,9548.656652
21038.200353,-1110.308913,-1072.533697,10066.800811
21038.200676,-666.185348,-1225.752797,9622.677246
21038.201000,2812.782580,-1532.190996,8142.265362
21038.201323,4959.379811,-459.657299,8660.409521
21038.201646,2368.659014,766.095498,12139.377449
21038.201970,-296.082377,76.609550,10955.047942
21038.202293,740.205942,-919.314598,8586.388927
21038.202617,1332.370696,-1455.581446,9400.615463
21038.202940,518.144159,0.000000,10955.047942
21038.203264,0.000000,459.657299,9696.697840
21038.203587,1554.432478,-919.314598,7179.997637
21038.203910,3330.926739,0.000000,6291.750507
21038.204234,1184.329507,1225.752797,8586.388927
21038.204557,-444.123565,1302.362347,9992.780217
21038.204881,-814.226536,0.000000,8364.327145
21038.205204,370.102971,0.000000,9474.636058
21038.205527,-148.041188,153.219100,8808.450710
21038.205851,-2442.679609,153.219100,9770.718434
21038.206174,0.000000,-459.657299,7624.121203
21038.206498,1332.370696,-306.438199,6143.709319
21038.206821,962.267725,-153.219100,9104.533087
21038.207145,-740.205942,383.047749,10436.903782
21038.207468,-2960.823768,766.095498,9178.553681
21038.207791,-3034.844362,-1072.533697,9918.759623
21038.208115,-2886.803174,-1149.143247,10214.842000
21038.208438,-3478.967927,-689.485948,9252.574275
21038.208762,-1776.494261,-1762.019645,7920.203579
21038.209085,-370.102971,-919.314598,7772.162391
21038.209408,-1184.329507,536.266849,9326.594869
21038.209732,-3182.885551,689.485948,10955.047942
21038.210055,-2886.803174,-1149.143247,9030.512492
21038.210379,-2146.597232,-2604.724693,9474.636058
21038.210702,-3108.864956,-1302.362347,11843.295072
21038.211026,-2960.823768,-842.705048,11547.212695
21038.211349,-888.247130,-1378.971896,9030.512492
21038.211672,592.164754,-1685.410096,6513.812290
21038.211996,1110.308913,-766.095498,6957.935855
21038.212319,444.123565,-229.828649,8068.244768
21038.212643,-1184.329507,0.000000,9326.594869
21038.212966,-296.082377,153.219100,11917.315666
21038.213289,814.226536,536.266849,9400.615463
21038.213613,0.000000,-919.314598,9178.553681
21038.213936,0.000000,-2145.067394,7179.997637
21038.214260,1184.329507,-459.657299,6883.915261
21038.214583,2294.638420,-383.047749,8882.471304
21038.214907,814.226536,0.000000,11843.295072
21038.215230,-296.082377,0.000000,9770.718434
21038.215553,-1036.288319,-1149.143247,8364.327145
21038.215877,-1184.329507,-2374.896044,8882.471304
21038.216200,-296.082377,-1149.143247,9844.739029
21038.216524,1184.329507,0.000000,9178.553681
21038.216847,3182.885551,0.000000,8216.285956
21038.217171,3923.091493,306.438199,9104.533087
21038.217494,2072.576638,766.095498,10510.924376
21038.217817,518.144159,229.828649,9844.739029
21038.218141,148.041188,-459.657299,9326.594869
21038.218464,296.082377,-766.095498,8956.491898
21038.218788,-296.082377,153.219100,9770.718434
21038.219111,74.020594,-459.657299,10140.821405
21038.219434,592.164754,-1072.533697,8364.327145
21038.219758,592.164754,-1072.533697,8290.306550
21038.220081,-518.144159,0.000000,9474.636058
21038.220405,-1480.411884,-842.705048,7994.224174
21038.220728,-1702.473667,153.219100,8438.347739
21038.221052,-1036.288319,-689.485948,7846.182985
21038.221375,-1184.329507,153.219100,7698.141797
21038.221698,-444.123565,-459.657299,9030.512492
21038.222022,814.226536,-229.828649,7550.100608
21038.222345,1406.391290,76.609550,7772.162391
21038.222669,1036.288319,-229.828649,9770.718434
21038.222992,-888.247130,-612.876398,11029.068536
21038.223315,-1998.556043,-1532.190996,10362.883188
21038.223639,-1776.494261,-1991.848295,9252.574275
21038.223962,-1258.350101,-1532.190996,9030.512492
21038.224286,-1406.391290,-1225.752797,9474.636058
21038.224609,148.041188,0.000000,8808.450710
21038.224933,2886.803174,306.438199,8290.306550
21038.225256,1628.453072,1455.581446,9696.697840
21038.225579,-962.267725,1685.410096,9770.718434
21038.225903,-1924.535449,-306.438199,8290.306550
21038.226226,-1480.411884,-1608.800546,7846.182985
21038.226550,-3404.947333,-1455.581446,10658.965565
21038.226873,-4293.194464,-995.924147,11769.274478
21038.227196,-2812.782580,-1762.019645,9400.615463
21038.227520,-2442.679609,-2681.334243,7698.141797
21038.227843,-3552.988522,-2451.505594,9992.780217
21038.228167,-3997.112087,-2451.505594,9548.656652
21038.228490,-3775.050304,-1608.800546,9178.553681
21038.228814,-2146.597232,-1608.800546,9400.615463
21038.229137,-1554.432478,229.828649,8586.388927
21038.229460,-1332.370696,76.609550,8586.388927
21038.229784,1850.514855,-306.438199,7476.080014
21038.230107,3997.112087,306.438199,6365.771101
21038.230431,4145.153275,1072.533697,8142.265362
21038.230754,1110.308913,2068.457845,12065.356855
21038.231077,296.082377,842.705048,10807.006753
21038.231401,1258.350101,-1149.143247,8438.347739
21038.231724,666.185348,-2451.505594,7698.141797
21038.232048,-148.041188,-919.314598,10732.986159
21038.232371,1628.453072,612.876398,9918.759623
21038.232695,3256.906145,76.609550,8586.388927
21038.233018,3627.009116,-612.876398,6291.750507
21038.233341,-296.082377,1455.581446,8068.244768
21038.233665,-1332.370696,1225.752797,8660.409521
21038.233988,-1332.370696,153.219100,9326.594869
21038.234312,0.000000,-766.095498,9030.512492
21038.234635,-1702.473667,76.609550,9992.780217
21038.234958,-370.102971,-1685.410096,8364.327145
21038.235282,518.144159,-1532.190996,8586.388927
21038.235605,1110.308913,-1378.971896,9400.615463
21038.235929,74.020594,383.047749,11251.130318
21038.236252,0.000000,-153.219100,10584.944971
21038.236576,296.082377,-919.314598,9252.574275
21038.236899,814.226536,-995.924147,9696.697840
21038.237222,-148.041188,229.828649,11029.068536
21038.237546,1406.391290,689.485948,8586.388927
21038.237869,3997.112087,536.266849,8142.265362
21038.238193,4071.132681,0.000000,6365.771101
21038.238516,1184.329507,536.266849,8068.244768
21038.238840,-592.164754,76.609550,10362.883188
21038.239163,-1036.288319,153.219100,10436.903782
21038.239486,-592.164754,-536.266849,9844.739029
21038.239810,-1924.535449,-2298.286494,9844.739029
21038.240133,-2442.679609,-2068.457845,8808.450710
21038.240457,-2442.679609,-2221.676944,7994.224174
21038.240780,-222.061783,-2145.067394,7105.977043
21038.241103,-1332.370696,-919.314598,9178.553681
21038.241427,-2368.659014,-459.657299,10140.821405
21038.241750,-2146.597232,-766.095498,7772.162391
21038.242074,-1850.514855,-1302.362347,8290.306550
21038.242397,-2738.761985,-383.047749,10658.965565
21038.242721,-3256.906145,0.000000,10658.965565
21038.243044,-592.164754,-1608.800546,7846.182985
21038.243367,0.000000,-2757.943793,7254.018232
21038.243691,-2368.659014,-1378.971896,10584.944971
21038.244014,-4145.153275,-689.485948,10732.986159
21038.244338,-3775.050304,-1455.581446,10362.883188
21038.244661,-1924.535449,-1915.238745,9992.780217
21038.244984,-1628.453072,-383.047749,10584.944971
21038.245308,-2146.597232,-919.314598,9622.677246
21038.245631,-74.020594,-1378.971896,7994.224174
21038.245955,2516.700203,-229.828649,7772.162391
21038.246278,2812.782580,1838.629195,8956.491898
21038.246602,1110.308913,1532.190996,9918.759623
21038.246925,444.123565,612.876398,8438.347739
21038.247248,1702.473667,76.609550,9252.574275
21038.247572,1036.288319,-536.266849,9030.512492
21038.247895,-518.144159,-536.266849,9474.636058
21038.248219,888.247130,-1149.143247,9326.594869
21038.248542,1776.494261,-689.485948,7846.182985
21038.248865,1184.329507,0.000000,9030.512492
21038.249189,-444.123565,-689.485948,9474.636058
21038.249512,-1184.329507,-459.657299,8734.430116
21038.249836,-296.082377,-153.219100,9030.512492
21038.250159,296.082377,153.219100,8882.471304
21038.250483,0.000000,766.095498,9696.697840
21038.250806,0.000000,0.000000,8364.327145
21038.251129,888.247130,-1072.533697,5995.668130
21038.251453,1480.411884,-1072.533697,7550.100608
21038.251776,-444.123565,76.609550,10881.027347
21038.252100,-1406.391290,229.828649,11695.253884
21038.252423,666.185348,-1225.752797,10584.944971
21038.252747,0.000000,-1532.190996,9844.739029
21038.253070,-1480.411884,-766.095498,11621.233289
21038.253393,74.020594,-383.047749,9548.656652
21038.253717,3552.988522,0.000000,7550.100608
21038.254040,5033.400406,-383.047749,8512.368333
21038.254364,2072.576638,1532.190996,9918.759623
21038.254687,-518.144159,1608.800546,8364.327145
21038.255011,-74.020594,76.609550,7624.121203
21038.255334,518.144159,76.609550,8586.388927
21038.255657,-740.205942,-229.828649,8956.491898
21038.255981,-2220.617826,0.000000,9474.636058
21038.256304,-296.082377,-1991.848295,8142.265362
21038.256628,222.061783,-1302.362347,7550.100608
21038.256951,-1998.556043,-1149.143247,8216.285956
21038.257274,-3627.009116,-919.314598,9030.512492
21038.257598,-2368.659014,-766.095498,9326.594869
21038.257921,-740.205942,-995.924147,8882.471304
21038.258245,-2146.597232,-689.485948,9622.677246
21038.258568,-3627.009116,-1149.143247,9178.553681
21038.258892,-2368.659014,-2451.505594,7994.224174
21038.259215,888.247130,-2068.457845,7772.162391
21038.259538,1184.329507,-1302.362347,11473.192101
21038.259862,-1850.514855,-536.266849,11991.336260
21038.260185,-3034.844362,-1378.971896,10362.883188
21038.260509,-2294.638420,-2528.115143,9770.718434
21038.260832,-1332.370696,-1838.629195,10140.821405
21038.261156,-74.020594,-536.266849,9770.718434
21038.261479,1480.411884,153.219100,10436.903782
21038.261802,2442.679609,0.000000,8364.327145
21038.262126,1332.370696,995.924147,8956.491898
21038.262449,-666.185348,153.219100,9326.594869
21038.262773,-1628.453072,76.609550,8438.347739
21038.263096,-444.123565,0.000000,8512.368333
21038.263420,-888.247130,-842.705048,9252.574275
21038.263743,-2146.597232,-612.876398,9474.636058
21038.264066,-1628.453072,-919.314598,7031.956449
21038.264390,0.000000,-1072.533697,7179.997637
21038.264713,-962.267725,-1149.143247,7105.977043
21038.265037,-3404.947333,-689.485948,7846.182985
21038.265360,-2146.597232,0.000000,9104.533087
21038.265683,-740.205942,0.000000,9474.636058
21038.266007,518.144159,383.047749,9474.636058
21038.266330,814.226536,-612.876398,8512.368333
21038.266654,2368.659014,-459.657299,7772.162391
21038.266977,4663.297435,459.657299,8956.491898
21038.267301,5329.482782,1378.971896,9844.739029
21038.267624,1998.556043,1072.533697,11917.315666
21038.267947,296.082377,0.000000,9548.656652
21038.268271,666.185348,-1302.362347,8882.471304
21038.268594,1258.350101,-1455.581446,10066.800811
21038.268918,74.020594,0.000000,11473.192101
21038.269241,888.247130,153.219100,9992.780217
21038.269565,2590.720797,-306.438199,7772.162391
21038.269888,1924.535449,306.438199,8438.347739
21038.270211,0.000000,229.828649,9548.656652
21038.270535,-740.205942,0.000000,8660.409521
21038.270858,0.000000,-229.828649,8808.450710
21038.271182,0.000000,-383.047749,9622.677246
21038.271505,-1036.288319,229.828649,9178.553681
21038.271829,-222.061783,-1149.143247,6291.750507
21038.272152,962.267725,-1608.800546,6365.771101
21038.272475,888.247130,-306.438199,8216.285956
21038.272799,-814.226536,383.047749,10288.862594
21038.273122,-2146.597232,0.000000,10362.883188
21038.273446,-1924.535449,-1455.581446,8808.450710
21038.273769,-1258.350101,-1378.971896,8660.409521
21038.274092,-1850.514855,-536.266849,10732.986159
21038.274416,-1110.308913,0.000000,9844.739029
21038.274739,740.205942,306.438199,9030.512492
21038.275063,1776.494261,-995.924147,7105.977043
21038.275386,-1702.473667,-536.266849,8586.388927
21038.275710,-3775.050304,-1378.971896,9474.636058
21038.276033,-3478.967927,-1838.629195,9696.697840
21038.276356,-2738.761985,-2068.457845,11177.109724
21038.276680,-3552.988522,-2221.676944,11029.068536
21038.277003,-3404.947333,-2374.896044,9474.636058
21038.277327,-1776.494261,-3447.429741,8512.368333
21038.277650,592.164754,-1685.410096,9474.636058
21038.277974,444.123565,-689.485948,10436.903782
21038.278297,-1480.411884,-1072.533697,9474.636058
21038.278620,-2368.659014,-766.095498,10140.821405
21038.278944,-1036.288319,-459.657299,10214.842000
21038.279267,-666.185348,-536.266849,9844.739029
21038.279591,-814.226536,-1838.629195,7772.162391
21038.279914,-370.102971,-1455.581446,6291.750507
21038.280237,666.185348,459.657299,7254.018232
21038.280561,296.082377,612.876398,9104.533087
21038.280884,-1554.432478,229.828649,9030.512492
21038.281208,-2294.638420,0.000000,8734.430116
21038.281531,-1184.329507,-153.219100,8660.409521
21038.281855,444.123565,0.000000,9030.512492
21038.282178,740.205942,76.609550,8808.450710
21038.282501,2220.617826,-229.828649,7328.038826
21038.282825,3552.988522,612.876398,7476.080014
21038.283148,4145.153275,1378.971896,9030.512492
21038.283472,2442.679609,1532.190996,10584.944971
21038.283795,2072.576638,995.924147,9770.718434
21038.284119,1998.556043,842.705048,9474.636058
21038.284442,2220.617826,-919.314598,8438.347739
21038.284765,1258.350101,-1302.362347,9326.594869
21038.285089,1184.329507,0.000000,8882.471304
21038.285412,2442.679609,459.657299,9770.718434
21038.285736,2590.720797,153.219100,10510.924376
21038.286059,222.061783,-229.828649,10955.047942
21038.286383,-1110.308913,-995.924147,9696.697840
21038.286706,-1628.453072,-766.095498,9474.636058
21038.287029,-1036.288319,0.000000,9770.718434
21038.287353,-1184.329507,-306.438199,8586.388927
21038.287676,-1184.329507,-1532.190996,6883.915261
21038.288000,0.000000,-1072.533697,6439.791695
21038.288323,-370.102971,-306.438199,7846.182985
21038.288646,-1702.473667,-306.438199,9992.780217
21038.288970,-1998.556043,-459.657299,10436.903782
21038.289293,-1850.514855,-1225.752797,10510.924376
21038.289617,-962.267725,-383.047749,9326.594869
21038.289940,-888.247130,-153.219100,9178.553681
21038.290264,0.000000,-919.314598,7254.018232
21038.290587,1184.329507,229.828649,7920.203579
21038.290910,2368.659014,842.705048,8216.285956
21038.291234,518.144159,919.314598,9400.615463
21038.291557,-2146.597232,-459.657299,8660.409521
21038.291881,-3256.906145,-1302.362347,7994.224174
21038.292204,-4219.173869,-1915.238745,9770.718434
21038.292528,-3923.091493,-2221.676944,11029.068536
21038.292851,-3923.091493,-1991.848295,10214.842000
21038.293174,-3034.844362,-2451.505594,9326.594869
21038.293498,-3256.906145,-2528.115143,8364.327145
21038.293821,-4293.194464,-2145.067394,10288.862594
21038.294145,-4515.256246,-2145.067394,10214.842000
21038.294468,-3256.906145,-1302.362347,10436.903782
21038.294792,-2294.638420,-1608.800546,9844.739029
21038.295115,-2664.741391,-1072.533697,10362.883188
21038.295438,-1702.473667,-1608.800546,8364.327145
21038.295762,814.226536,-1378.971896,7105.977043
21038.296085,3108.864956,-766.095498,7550.100608
21038.296409,2146.597232,2068.457845,10362.883188
21038.296732,1036.288319,1685.410096,9622.677246
21038.297055,1628.453072,612.876398,9030.512492
21038.297379,2146.597232,229.828649,9622.677246
21038.297702,1702.473667,1149.143247,9770.718434
21038.298026,2146.597232,1149.143247,8586.388927
21038.298349,4885.359217,153.219100,7624.121203
21038.298673,4663.297435,1685.410096,8438.347739
21038.298996,2294.638420,1685.410096,9178.553681
21038.299319,444.123565,919.314598,8660.409521
21038.299643,-518.144159,0.000000,8882.471304
21038.299966,444.123565,76.609550,8216.285956
21038.300290,-1258.350101,76.609550,9178.553681
21038.300613,-2442.679609,-842.705048,8808.450710
21038.300937,888.247130,-1915.238745,6217.729913
21038.301260,1628.453072,-306.438199,7920.203579
21038.301583,1998.556043,-153.219100,10214.842000
21038.301907,-888.247130,383.047749,10436.903782
21038.302230,-1036.288319,-1072.533697,9992.780217
21038.302554,-296.082377,-1302.362347,9844.739029
21038.302877,-1702.473667,0.000000,11399.171507
21038.303201,-666.185348,-1302.362347,11399.171507
21038.303524,1184.329507,-2298.286494,7846.182985
21038.303847,3627.009116,-1608.800546,7402.059420
21038.304171,2812.782580,1225.752797,9844.739029
21038.304494,148.041188,2451.505594,10140.821405
21038.304818,222.061783,766.095498,7031.956449
21038.305141,0.000000,-612.876398,6291.750507
21038.305464,-222.061783,0.000000,8956.491898
21038.305788,-888.247130,1838.629195,12139.377449
21038.306111,370.102971,-842.705048,8734.430116
21038.306435,222.061783,-2221.676944,6735.874072
21038.306758,-2146.597232,-1532.190996,8438.347739
21038.307082,-3849.070898,-459.657299,11399.171507
21038.307405,-3256.906145,-1532.190996,10510.924376
21038.307728,-3182.885551,-3140.991542,9696.697840
21038.308052,-4293.194464,-2528.115143,9548.656652
21038.308375,-5699.585753,-919.314598,10807.006753
21038.308699,-3108.864956,-1378.971896,8586.388927
21038.309022,-592.164754,-1685.410096,6513.812290
21038.309346,-1332.370696,-842.705048,6957.935855
21038.309669,-3404.947333,689.485948,9474.636058
21038.309992,-3108.864956,229.828649,9326.594869
21038.310316,-2072.576638,-689.485948,9474.636058
21038.310639,-1998.556043,-1378.971896,9918.759623
21038.310963,-3034.844362,-919.314598,10658.965565
21038.311286,-1480.411884,-1532.190996,9770.718434
21038.311610,666.185348,-1915.238745,8956.491898
21038.311933,1406.391290,-1225.752797,9326.594869
21038.312256,0.000000,-612.876398,9992.780217
21038.312580,-296.082377,-612.876398,8956.491898
21038.312903,444.123565,0.000000,9178.553681
21038.313227,1702.473667,842.705048,9030.512492
21038.313550,1184.329507,1225.752797,9548.656652
21038.313873,1776.494261,612.876398,7476.080014
21038.314197,2960.823768,842.705048,6587.832884
21038.314520,3404.947333,1225.752797,8142.265362
21038.314844,1776.494261,1302.362347,10584.944971
21038.315167,-592.164754,766.095498,9252.574275
21038.315491,-1258.350101,-459.657299,7772.162391
21038.315814,-518.144159,-1378.971896,8290.306550
21038.316137,-1702.473667,-459.657299,9770.718434
21038.316461,-1110.308913,-229.828649,9696.697840
21038.316784,296.082377,-689.485948,7254.018232
21038.317108,2368.659014,-536.266849,7328.038826
21038.317431,2146.597232,76.609550,9474.636058
21038.317755,666.185348,153.219100,9622.677246
21038.318078,1406.391290,306.438199,9622.677246
21038.318401,1702.473667,383.047749,9770.718434
21038.318725,1924.535449,229.828649,10732.986159
21038.319048,1776.494261,0.000000,10140.821405
21038.319372,2146.597232,-1072.533697,8956.491898
21038.319695,3330.926739,-1915.238745,7698.141797
21038.320018,1406.391290,-766.095498,9252.574275
21038.320342,-592.164754,-842.705048,9548.656652
21038.320665,-1036.288319,-2451.505594,10066.800811
21038.320989,-1554.432478,-1991.848295,9400.615463
21038.321312,-2590.720797,-1991.848295,8808.450710
21038.321636,-2516.700203,-2528.115143,8216.285956
21038.321959,-518.144159,-2451.505594,8216.285956
21038.322282,1480.411884,-229.828649,8438.347739
21038.322606,2072.576638,766.095498,8734.430116
21038.322929,-296.082377,-612.876398,9696.697840
21038.323253,-2664.741391,-1455.581446,9622.677246
21038.323576,-1702.473667,-1225.752797,9474.636058
21038.323900,-666.185348,-1378.971896,10140.821405
21038.324223,-3034.844362,-2451.505594,10658.965565
21038.324546,-2516.700203,-2528.115143,8660.409521
21038.324870,74.020594,-1685.410096,7550.100608
21038.325193,-296.082377,-842.705048,10214.842000
21038.325517,-3034.844362,-306.438199,11695.253884
21038.325840,-4219.173869,-612.876398,9104.533087
21038.326164,-3256.906145,-1991.848295,8956.491898
21038.326487,-3552.988522,-1532.190996,10140.821405
21038.326810,-5847.626942,0.000000,10881.027347
21038.327134,-4589.276840,-1378.971896,7624.121203
21038.327457,-1850.514855,-1455.581446,6957.935855
21038.327781,-814.226536,-766.095498,8216.285956
21038.328104,-3404.947333,459.657299,9178.553681
21038.328427,-4071.132681,-689.485948,8216.285956
21038.328751,-2072.576638,-842.705048,8660.409521
21038.329074,-888.247130,919.314598,9770.718434
21038.329398,-1184.329507,1455.581446,9696.697840
21038.329721,1480.411884,0.000000,6957.935855
21038.330045,3627.009116,-306.438199,6735.874072
21038.330368,4959.379811,2221.676944,8512.368333
21038.330691,2960.823768,3907.087040,10732.986159
21038.331015,2516.700203,1991.848295,9252.574275
21038.331338,3034.844362,919.314598,7772.162391
21038.331662,2368.659014,459.657299,7402.059420
21038.331985,-222.061783,689.485948,8808.450710
21038.332309,888.247130,612.876398,7772.162391
21038.332632,2590.720797,766.095498,7624.121203
21038.332955,1850.514855,842.705048,9474.636058
21038.333279,222.061783,-383.047749,8512.368333
21038.333602,-1036.288319,-842.705048,7476.080014
21038.333926,-148.041188,-995.924147,9770.718434
21038.334249,888.247130,459.657299,11177.109724
21038.334573,1850.514855,1225.752797,11843.295072
21038.334896,2294.638420,-1072.533697,10732.986159
21038.335219,3552.988522,-229.828649,9474.636058
21038.335543,4441.235652,0.000000,8956.491898
21038.335866,2442.679609,-306.438199,10362.883188
21038.336190,518.144159,-766.095498,9400.615463
21038.336513,148.041188,-919.314598,8882.471304
21038.336836,814.226536,-689.485948,9474.636058
21038.337160,-370.102971,-1762.019645,10436.903782
21038.337483,-1850.514855,-1149.143247,9696.697840
21038.337807,-1184.329507,-2145.067394,7920.203579
21038.338130,1332.370696,-2374.896044,8438.347739
21038.338454,444.123565,-842.705048,9474.636058
21038.338777,-2664.741391,-306.438199,10066.800811
21038.339100,-3108.864956,-2374.896044,9178.553681
21038.339424,-3182.885551,-2374.896044,7179.997637
21038.339747,-2664.741391,-2298.286494,9104.533087
21038.340071,-3849.070898,-1302.362347,9474.636058
21038.340394,-3034.844362,-1991.848295,7328.038826
21038.340718,-740.205942,-2298.286494,6439.791695
21038.341041,-1480.411884,-2221.676944,9030.512492
21038.341364,-3849.070898,-1225.752797,10288.862594
21038.341688,-4293.194464,-1225.752797,10214.842000
21038.342011,-1850.514855,-2757.943793,9770.718434
21038.342335,-2442.679609,-2068.457845,10807.006753
21038.342658,-4589.276840,-2298.286494,10584.944971
21038.342982,-2368.659014,-1762.019645,8882.471304
21038.343305,444.123565,-1532.190996,7772.162391
21038.343628,518.144159,-383.047749,10066.800811
21038.343952,-1110.308913,153.219100,10140.821405
21038.344275,-2072.576638,-766.095498,8956.491898
21038.344599,-1554.432478,-1608.800546,9622.677246
21038.344922,-1036.288319,-383.047749,11325.150913
21038.345245,-1258.350101,383.047749,10584.944971
21038.345569,666.185348,-1991.848295,7031.956449
21038.345892,2516.700203,-766.095498,7550.100608
21038.346216,3997.112087,2298.286494,10214.842000
21038.346539,1628.453072,3600.648841,10436.903782
21038.346863,1628.453072,842.705048,7402.059420
21038.347186,2368.659014,-536.266849,5921.647536
21038.347509,1110.308913,1225.752797,9548.656652
21038.347833,814.226536,2374.896044,11325.150913
21038.348156,2146.597232,919.314598,6883.915261
21038.348480,2812.782580,-1225.752797,5847.626942
21038.348803,1924.535449,0.000000,8660.409521
21038.349126,74.020594,2298.286494,9326.594869
21038.349450,814.226536,995.924147,8734.430116
21038.349773,1184.329507,-459.657299,8586.388927
21038.350097,74.020594,689.485948,9252.574275
21038.350420,-740.205942,1532.190996,10288.862594
21038.350744,1554.432478,-153.219100,8586.388927
21038.351067,2664.741391,153.219100,7698.141797
21038.351390,2220.617826,995.924147,9178.553681
21038.351714,74.020594,689.485948,11325.150913
21038.352037,-814.226536,-919.314598,10140.821405
21038.352361,-370.102971,-1838.629195,9030.512492
21038.352684,-296.082377,-2221.676944,9622.677246
21038.353007,-1406.391290,-153.219100,10658.965565
21038.353331,-1036.288319,-536.266849,10140.821405
21038.353654,1406.391290,-1149.143247,7476.080014
21038.353978,2368.659014,-536.266849,7550.100608
21038.354301,0.000000,0.000000,9992.780217
21038.354625,-2368.659014,0.000000,10214.842000
21038.354948,-2516.700203,-1685.410096,9696.697840
21038.355271,-2368.659014,-1302.362347,8660.409521
21038.355595,-3923.091493,-1072.533697,9474.636058
21038.355918,-5033.400406,-2451.505594,7105.977043
21038.356242,-3923.091493,-3064.381992,6587.832884
21038.356565,-1998.556043,-1991.848295,9696.697840
21038.356888,-2368.659014,0.000000,10881.027347
21038.357212,-3775.050304,-1302.362347,8882.471304
21038.357535,-4145.153275,-2987.772442,7031.956449
21038.357859,-2294.638420,-1991.848295,8290.306550
21038.358182,-2590.720797,-153.219100,11547.212695
21038.358505,-518.144159,-1225.752797,10214.842000
21038.358829,1258.350101,-1378.971896,7476.080014
21038.359152,1998.556043,-2068.457845,8438.347739
21038.359476,740.205942,-612.876398,10881.027347
21038.359799,296.082377,-1378.971896,11251.130318
21038.360123,296.082377,-1915.238745,11177.109724
21038.360446,74.020594,-1838.629195,10436.903782
21038.360769,-814.226536,-1838.629195,9474.636058
21038.361093,148.041188,-2834.553343,8512.368333
21038.361416,1184.329507,-1532.190996,8142.265362
21038.361740,2590.720797,153.219100,8882.471304
21038.362063,2516.700203,1685.410096,9252.574275
21038.362386,222.061783,0.000000,8586.388927
21038.362710,-1332.370696,-766.095498,7920.203579
21038.363033,-2146.597232,-612.876398,8586.388927
21038.363357,-2072.576638,-383.047749,9326.594869
21038.363680,-1184.329507,-612.876398,9474.636058
21038.364004,-296.082377,-842.705048,7254.018232
21038.364327,814.226536,-153.219100,6439.791695
21038.364650,74.020594,842.705048,7846.182985
21038.364974,-1480.411884,612.876398,10881.027347
21038.365297,666.185348,153.219100,9622.677246
21038.365621,1924.535449,459.657299,10140.821405
21038.365944,3478.967927,383.047749,10066.800811
21038.366267,2590.720797,2374.896044,10807.006753
21038.366591,3627.009116,1532.190996,9030.512492
21038.366914,5181.441594,2374.896044,8512.368333
21038.367238,4293.194464,1838.629195,8808.450710
21038.367561,1480.411884,1685.410096,9178.553681
21038.367885,-1332.370696,0.000000,8882.471304
21038.368208,-2368.659014,0.000000,9474.636058
21038.368531,-1850.514855,0.000000,9696.697840
21038.368855,-3330.926739,-766.095498,9326.594869
21038.369178,-2442.679609,-2145.067394,6217.729913
21038.369502,-1628.453072,-1762.019645,5181.441594
21038.369825,-222.061783,-383.047749,8512.368333
21038.370148,-592.164754,0.000000,9918.759623
21038.370472,-1258.350101,-1149.143247,7994.224174
21038.370795,-1184.329507,-2298.286494,7179.997637
21038.371119,296.082377,-1915.238745,8808.450710
21038.371442,222.061783,-1608.800546,10955.047942
21038.371766,2442.679609,-1225.752797,11029.068536
21038.372089,2960.823768,-1532.190996,10658.965565
21038.372412,2442.679609,-2221.676944,8512.368333
21038.372736,1924.535449,-1532.190996,8660.409521
21038.373059,740.205942,-2374.896044,9400.615463
21038.373383,148.041188,-1915.238745,11325.150913
21038.373706,0.000000,-1378.971896,10436.903782
21038.374029,-444.123565,-1915.238745,9104.533087
21038.374353,-740.205942,-3524.039291,8956.491898
21038.374676,444.123565,-3600.648841,7698.141797
21038.375000,888.247130,-2987.772442,8512.368333
21038.375323,1110.308913,-2451.505594,10658.965565
21038.375646,0.000000,-2757.943793,11177.109724
21038.375970,-1628.453072,-3830.477490,9474.636058
21038.376293,-2294.638420,-5056.230287,8438.347739
21038.376617,-2072.576638,-5362.668486,8512.368333
21038.376940,-1184.329507,-4366.744339,10510.924376
21038.377264,740.205942,-3600.648841,9474.636058
21038.377587,3034.844362,-2834.553343,8216.285956
21038.377910,2738.761985,-2528.115143,7624.121203
21038.378234,1554.432478,-2987.772442,7254.018232
21038.378557,1110.308913,-4060.306139,8512.368333
21038.378881,1628.453072,-3524.039291,9622.677246
21038.379204,1702.473667,-2451.505594,10955.047942
21038.379527,1258.350101,-2834.553343,10510.924376
21038.379851,444.123565,-4213.525239,9548.656652
21038.380174,370.102971,-3600.648841,9400.615463
21038.380498,2146.597232,-2374.896044,9474.636058
21038.380821,4219.173869,-1685.410096,8734.430116
21038.381145,4219.173869,-995.924147,8660.409521
21038.381468,3182.885551,-766.095498,9696.697840
21038.381791,3256.906145,-153.219100,9474.636058
21038.382115,4145.153275,0.000000,9622.677246
21038.382438,4515.256246,459.657299,11103.089130
21038.382762,3849.070898,612.876398,10288.862594
21038.383085,3108.864956,76.609550,9474.636058
21038.383408,4219.173869,-229.828649,9030.512492
21038.383732,5181.441594,76.609550,8364.327145
21038.384055,4737.318029,153.219100,7698.141797
21038.384379,2294.638420,-1302.362347,5921.647536
21038.384702,1406.391290,-842.705048,6513.812290
21038.385026,518.144159,-612.876398,9030.512492
21038.385349,-814.226536,-306.438199,10140.821405
21038.385672,-1480.411884,-1762.019645,8734.430116
21038.385996,-2368.659014,-2987.772442,8068.244768
21038.386319,-1924.535449,-2451.505594,7846.182985
21038.386643,-74.020594,-1225.752797,7179.997637
21038.386966,1036.288319,-1149.143247,6809.894666
21038.387289,1480.411884,-1302.362347,6439.791695
21038.387613,1036.288319,-1378.971896,7476.080014
21038.387936,962.267725,-1532.190996,8438.347739
21038.388260,1110.308913,-3064.381992,10140.821405
21038.388583,0.000000,-3524.039291,12065.356855
21038.388907,666.185348,-4213.525239,11325.150913
21038.389230,962.267725,-4903.011187,12065.356855
21038.389553,1850.514855,-4673.182538,11991.336260
21038.389877,3478.967927,-2987.772442,10140.821405
21038.390200,6291.750507,-2604.724693,9178.553681
21038.390524,8216.285956,-2145.067394,7994.224174
21038.390847,8290.306550,-1149.143247,7105.977043
21038.391170,7624.121203,-919.314598,8512.368333
21038.391494,5255.462188,-2757.943793,8438.347739
21038.391817,2664.741391,-4596.572988,8364.327145
21038.392141,74.020594,-5669.106685,10510.924376
21038.392464,-1554.432478,-7048.078582,11473.192101
21038.392787,-2516.700203,-7277.907231,11695.253884
21038.393111,-2812.782580,-6128.763984,12213.398043
21038.393434,-2146.597232,-6205.373534,11399.171507
21038.393758,-1480.411884,-5209.449386,9252.574275
21038.394081,0.000000,-4749.792088,7920.203579
21038.394405,1776.494261,-3830.477490,5995.668130
21038.394728,2664.741391,-3140.991542,4737.318029
21038.395051,2516.700203,-4290.134789,4737.318029
21038.395375,1258.350101,-4749.792088,7105.977043
21038.395698,1332.370696,-4213.525239,9844.739029
21038.396022,518.144159,-4213.525239,14211.954086
21038.396345,-296.082377,-5439.278036,15100.201217
21038.396668,-296.082377,-5669.106685,14285.974681
21038.396992,666.185348,-5132.839837,14730.098246
21038.397315,1184.329507,-3217.601092,13545.768739
21038.397639,2812.782580,0.000000,9474.636058
21038.397962,4589.276840,1149.143247,5255.462188
21038.398286,7031.956449,1225.752797,4293.194464
21038.398609,7624.121203,3140.991542,3182.885551
21038.398932,8290.306550,3140.991542,2664.741391
21038.399256,6291.750507,1608.800546,3849.070898
21038.399579,2664.741391,-689.485948,5625.565159
21038.399903,1258.350101,-2298.286494,7772.162391
21038.400226,0.000000,-3830.477490,10510.924376
21038.400549,-3552.988522,-5669.106685,14508.036463
21038.400873,-5847.626942,-5209.449386,15396.283594
21038.401196,-3923.091493,-4596.572988,13767.830521
21038.401520,-1702.473667,-2604.724693,12657.521608
21038.401843,-518.144159,0.000000,10732.986159
21038.402167,1036.288319,2528.115143,7476.080014
21038.402490,3552.988522,3524.039291,3034.844362
21038.402813,4811.338623,4366.744339,2442.679609
21038.403137,4885.359217,3753.867940,1924.535449
21038.403460,4737.318029,2298.286494,1776.494261
21038.403784,4959.379811,-842.705048,4219.173869
21038.404107,4885.359217,-3217.601092,7846.182985
21038.404430,2220.617826,-5362.668486,10436.903782
21038.404754,-370.102971,-8273.831378,13101.645173
21038.405077,-962.267725,-9576.193725,16284.530724
21038.405401,-1776.494261,-8963.317327,17690.922014
21038.405724,-1332.370696,-7507.735880,17764.942608
21038.406047,-518.144159,-5056.230287,17098.757260
21038.406371,1110.308913,-1532.190996,14137.933492
21038.406694,3108.864956,2911.162892,10214.842000
21038.407018,4145.153275,5056.230287,5995.668130
21038.407341,5255.462188,4979.620737,1850.514855
21038.407665,5255.462188,5439.278036,-814.226536
21038.407988,5107.421000,3677.258390,-518.144159
21038.408311,3404.947333,612.876398,518.144159
21038.408635,296.082377,-2987.772442,3627.009116
21038.408958,-1184.329507,-7660.954980,5699.585753
21038.409282,-2368.659014,-11568.042020,10140.821405
21038.409605,-2146.597232,-13942.938064,13545.768739
21038.409928,-1702.473667,-14249.376263,16802.674883
21038.410252,0.000000,-14172.766713,16580.613101
21038.410575,3182.885551,-11721.261119,16284.530724
21038.410899,6217.729913,-6894.859482,14952.160028
21038.411222,8290.306550,-1378.971896,12953.603985
21038.411546,8808.450710,2451.505594,10955.047942
21038.411869,9104.533087,5515.887586,8956.491898
21038.412192,7105.977043,7201.297681,7105.977043
21038.412516,4515.256246,6358.592633,5329.482782
21038.412839,740.205942,4136.915689,5403.503377
21038.413163,-1924.535449,1149.143247,5773.606348
21038.413486,-5033.400406,-2221.676944,6513.812290
21038.413809,-7476.080014,-5898.935335,7476.080014
21038.414133,-9030.512492,-9116.536426,7624.121203
21038.414456,-9178.553681,-12104.308868,8808.450710
21038.414780,-7920.203579,-12563.966167,11177.109724
21038.415103,-5403.503377,-11644.651570,11917.315666
21038.415427,-2368.659014,-8963.317327,12287.418637
21038.415750,2368.659014,-6665.030833,11769.274478
21038.416073,6587.832884,-2145.067394,9770.718434
21038.416397,9252.574275,1455.581446,8734.430116
21038.416720,11695.253884,4060.306139,7624.121203
21038.417044,13101.645173,6588.421283,6217.729913
21038.417367,13619.789333,7814.174080,5625.565159
21038.417690,13249.686362,7201.297681,5255.462188
21038.418014,10288.862594,5209.449386,5403.503377
21038.418337,7254.018232,2374.896044,5329.482782
21038.418661,3849.070898,-766.095498,6439.791695
21038.418984,444.123565,-5362.668486,7772.162391
21038.419308,-3256.906145,-8733.488677,9622.677246
21038.419631,-5847.626942,-10725.336972,11695.253884
21038.419954,-5329.482782,-11568.042020,13323.706956
21038.420278,-4885.359217,-11031.775171,13841.851115
21038.420601,-4219.173869,-8886.707777,13841.851115
21038.420925,-2072.576638,-6052.154434,13841.851115
21038.421248,222.061783,-1991.848295,12953.603985
21038.421571,2294.638420,612.876398,12065.356855
21038.421895,3627.009116,2757.943793,10732.986159
21038.422218,4663.297435,4596.572988,9326.594869
21038.422542,4293.194464,4903.011187,7476.080014
21038.422865,3627.009116,4596.572988,7105.977043
21038.423188,2664.741391,3983.696590,7179.997637
21038.423512,592.164754,2145.067394,7402.059420
21038.423835,0.000000,-919.314598,6735.874072
21038.424159,-1998.556043,-3217.601092,6069.688724
21038.424482,-3627.009116,-4903.011187,6217.729913
21038.424806,-3552.988522,-6205.373534,6661.853478
21038.425129,-2590.720797,-5745.716235,6439.791695
21038.425452,-1924.535449,-5286.058936,6661.853478
21038.425776,-888.247130,-4136.915689,7031.956449
21038.426099,444.123565,-2374.896044,7698.141797
21038.426423,2886.803174,-383.047749,7994.224174
21038.426746,3478.967927,536.266849,8882.471304
21038.427069,4145.153275,612.876398,9548.656652
21038.427393,4293.194464,919.314598,8956.491898
21038.427716,5329.482782,0.000000,8586.388927
21038.428040,4811.338623,-689.485948,9030.512492
21038.428363,3923.091493,-2374.896044,9252.574275
21038.428687,2812.782580,-3677.258390,9770.718434
21038.429010,2294.638420,-5745.716235,10584.944971
21038.429333,2368.659014,-6894.859482,11991.336260
21038.429657,1332.370696,-7814.174080,13249.686362
21038.429980,148.041188,-8427.050478,13471.748144
21038.430304,814.226536,-8273.831378,13323.706956
21038.430627,2738.761985,-7431.126331,12583.501014
21038.430950,2960.823768,-5439.278036,11473.192101
21038.431274,2738.761985,-3447.429741,10732.986159
21038.431597,2220.617826,-1225.752797,10658.965565
21038.431921,1924.535449,459.657299,9918.759623
21038.432244,1628.453072,536.266849,8808.450710
21038.432568,2812.782580,0.000000,7254.018232
21038.432891,1406.391290,76.609550,6365.771101
21038.433214,222.061783,459.657299,6217.729913
21038.433538,1406.391290,76.609550,4663.297435
21038.433861,2220.617826,-689.485948,4737.318029
21038.434185,1184.329507,-1225.752797,6365.771101
21038.434508,-444.123565,-995.924147,7105.977043
21038.434831,-592.164754,-1378.971896,7624.121203
21038.435155,-1480.411884,-3677.258390,8586.388927
21038.435478,-1184.329507,-3447.429741,9252.574275
21038.435802,-1110.308913,-2757.943793,9844.739029
21038.436125,-2220.617826,-2834.553343,8956.491898
21038.436448,-2442.679609,-2451.505594,8808.450710
21038.436772,-1332.370696,-1378.971896,8660.409521
21038.437095,-740.205942,-1302.362347,8734.430116
21038.437419,222.061783,-1072.533697,9548.656652
21038.437742,1036.288319,-536.266849,9474.636058
21038.438066,740.205942,-536.266849,9474.636058
21038.438389,2442.679609,-1608.800546,9770.718434
21038.438712,4367.215058,-2145.067394,11029.068536
21038.439036,4737.318029,-2757.943793,11547.212695
21038.439359,4515.256246,-2911.162892,11399.171507
21038.439683,5477.523971,-2681.334243,10881.027347
21038.440006,7254.018232,-3140.991542,10955.047942
21038.440329,7031.956449,-3294.210641,10436.903782
21038.440653,7031.956449,-2757.943793,8882.471304
21038.440976,7550.100608,-2451.505594,7254.018232
21038.441300,7402.059420,-1762.019645,6957.935855
21038.441623,7179.997637,-1072.533697,6069.688724
21038.441947,6809.894666,-842.705048,5699.585753
21038.442270,6291.750507,-1991.848295,5921.647536
21038.442593,5403.503377,-1991.848295,6365.771101
21038.442917,4737.318029,-3064.381992,7105.977043
21038.443240,2368.659014,-4290.134789,7402.059420
21038.443564,1258.350101,-5592.497135,8290.306550
21038.443887,518.144159,-7124.688131,9474.636058
21038.444210,-296.082377,-8120.612279,10732.986159
21038.444534,-1776.494261,-8810.098227,11029.068536
21038.444857,-2220.617826,-8810.098227,11991.336260
21038.445181,-1998.556043,-8427.050478,12731.542202
21038.445504,-2368.659014,-7431.126331,13915.871710
21038.445828,-2886.803174,-6358.592633,13693.809927
21038.446151,-2960.823768,-5286.058936,12731.542202
21038.446475,-1776.494261,-4519.963438,11769.274478
21038.446798,-1258.350101,-3217.601092,10510.924376
21038.447121,-370.102971,-2374.896044,10288.862594
21038.447445,-740.205942,-2068.457845,9622.677246
21038.447768,518.144159,-1915.238745,8882.471304
21038.448092,962.267725,-1685.410096,7698.141797
21038.448415,518.144159,-2451.505594,7402.059420
21038.448739,74.020594,-2681.334243,7402.059420
21038.449062,814.226536,-3294.210641,7402.059420
21038.449386,2220.617826,-2451.505594,7402.059420
21038.449709,1406.391290,-2068.457845,7624.121203
21038.450033,1258.350101,-612.876398,8068.244768
21038.450356,2072.576638,0.000000,8216.285956
21038.450680,3330.926739,536.266849,8216.285956
21038.451003,3849.070898,1532.190996,7179.997637
21038.451327,3775.050304,2528.115143,5995.668130
21038.451650,3404.947333,2374.896044,4663.297435
21038.451974,4071.132681,1302.362347,4367.215058
21038.452297,3923.091493,842.705048,4885.359217
21038.452621,2812.782580,-766.095498,5995.668130
21038.452944,1554.432478,-2221.676944,7105.977043
21038.453268,666.185348,-3753.867940,9474.636058
21038.453591,962.267725,-4903.011187,12509.480420
21038.453915,296.082377,-4749.792088,15544.324782
21038.454238,-370.102971,-4596.572988,16654.633695
21038.454562,666.185348,-3677.258390,16802.674883
21038.454885,4071.132681,-2528.115143,14656.077652
21038.455209,4885.359217,0.000000,13249.686362
21038.455532,5329.482782,2374.896044,11769.274478
21038.455856,5847.626942,3677.258390,8290.306550
21038.456179,7105.977043,4060.306139,5329.482782
21038.456503,6809.894666,3983.696590,4441.235652
21038.456826,4145.153275,3447.429741,3552.988522
21038.457150,2590.720797,383.047749,3108.864956
21038.457473,1850.514855,-2145.067394,4367.215058
21038.457797,1776.494261,-3600.648841,5403.503377
21038.458120,962.267725,-4673.182538,6809.894666
21038.458444,518.144159,-7354.516781,7105.977043
21038.458767,1628.453072,-7737.564530,8364.327145
21038.459091,3182.885551,-7737.564530,9474.636058
21038.459414,2738.761985,-6971.469032,10584.944971
21038.459738,2812.782580,-5132.839837,12435.459826
21038.460061,2368.659014,-3907.087040,12583.501014
21038.460385,1924.535449,-3447.429741,11769.274478
21038.460708,1184.329507,-2681.334243,11991.336260
21038.461032,0.000000,-1991.848295,11991.336260
21038.461355,-1850.514855,-1532.190996,11251.130318
21038.461679,-2294.638420,-2221.676944,10288.862594
21038.462002,-2664.741391,-3524.039291,9474.636058
21038.462326,-4737.318029,-4136.915689,9770.718434
21038.462649,-5329.482782,-5362.668486,9326.594869
21038.462973,-3775.050304,-7124.688131,8216.285956
21038.463296,-2664.741391,-8273.831378,7920.203579
21038.463620,-740.205942,-9652.803275,8734.430116
21038.463943,1110.308913,-8886.707777,8956.491898
21038.464267,3108.864956,-9269.755526,9918.759623
21038.464590,3330.926739,-7277.907231,11473.192101
21038.464914,5329.482782,-4673.182538,12435.459826
21038.465237,6217.729913,-1915.238745,13619.789333
21038.465561,7698.141797,0.000000,11843.295072
21038.465884,7105.977043,2145.067394,9844.739029
21038.466207,6661.853478,4213.525239,6809.894666
21038.466531,4737.318029,5056.230287,5255.462188
21038.466854,3034.844362,5669.106685,4071.132681
21038.467178,74.020594,4290.134789,3108.864956
21038.467501,-2368.659014,1532.190996,1924.535449
21038.467825,-3034.844362,-1455.581446,1406.391290
21038.468148,-3182.885551,-4673.182538,2590.720797
21038.468472,-3775.050304,-7354.516781,3775.050304
21038.468795,-3552.988522,-9346.365076,7105.977043
21038.469119,-2146.597232,-10342.289223,11177.109724
21038.469442,-1628.453072,-10189.070123,15248.242405
21038.469766,592.164754,-9652.803275,17838.963202
21038.470089,3256.906145,-7124.688131,20059.581028
21038.470413,7031.956449,-4443.353888,19837.519246
21038.470736,10732.986159,0.000000,18357.107362
21038.471060,12953.603985,4519.963438,16654.633695
21038.471383,12805.562797,8197.221829,12139.377449
21038.471707,12583.501014,9499.584175,6365.771101
21038.472030,12731.542202,7507.735880,1554.432478
21038.472354,10066.800811,5515.887586,-0.000000
21038.472677,5107.421000,2987.772442,518.144159
21038.473001,-592.164754,459.657299,2738.761985
21038.473324,-4367.215058,-4596.572988,4885.359217
21038.473648,-7846.182985,-8427.050478,6957.935855
21038.473971,-11251.130318,-11261.603821,10584.944971
21038.474295,-12213.398043,-12870.404366,12361.439231
21038.474618,-10066.800811,-11491.432470,13767.830521
21038.474942,-5107.421000,-8963.317327,12583.501014
21038.475265,-370.102971,-4596.572988,10066.800811
21038.475589,3256.906145,0.000000,9178.553681
21038.475912,7105.977043,4060.306139,6291.750507
21038.476236,10066.800811,6511.811733,4737.318029
21038.476559,10436.903782,7354.516781,5995.668130
21038.476883,8660.409521,6894.859482,5403.503377
21038.477206,5847.626942,4749.792088,6439.791695
21038.477530,2294.638420,689.485948,8660.409521
21038.477853,-1258.350101,-3447.429741,11029.068536
21038.478177,-4885.359217,-6741.640382,12361.439231
21038.478500,-6291.750507,-9806.022374,12805.562797
21038.478824,-7105.977043,-11491.432470,12805.562797
21038.479147,-6365.771101,-11951.089769,11547.212695
21038.479471,-5181.441594,-11568.042020,10955.047942
21038.479794,-3849.070898,-9193.145976,11177.109724
21038.480118,-444.123565,-5362.668486,10214.842000
21038.480441,1998.556043,-2221.676944,9326.594869
21038.480765,3923.091493,0.000000,9104.533087
21038.481088,6291.750507,2298.286494,9030.512492
21038.481412,9030.512492,4290.134789,8142.265362
21038.481735,11769.274478,4826.401637,7402.059420
21038.482059,11177.109724,3983.696590,6587.832884
21038.482382,9030.512492,995.924147,5699.585753
21038.482706,7105.977043,-1302.362347,6069.688724
21038.483029,4811.338623,-2987.772442,7328.038826
21038.483353,1036.288319,-5669.106685,10140.821405
21038.483676,-2220.617826,-7890.783629,10955.047942
21038.484000,-3404.947333,-10189.070123,10584.944971
21038.484323,-2146.597232,-10801.946522,11695.253884
21038.484647,-1110.308913,-8886.707777,11177.109724
21038.484970,2368.659014,-6052.154434,8512.368333
21038.485293,3404.947333,-3140.991542,8512.368333
21038.485617,2738.761985,-1532.190996,7920.203579
21038.485940,3701.029710,1378.971896,7105.977043
21038.486264,5699.585753,2145.067394,8956.491898
21038.486587,5033.400406,2451.505594,10214.842000
21038.486911,3256.906145,3064.381992,12583.501014
21038.487234,1702.473667,0.000000,12361.439231
21038.487558,1998.556043,-2528.115143,10955.047942
21038.487881,3034.844362,-3983.696590,10066.800811
21038.488205,888.247130,-3830.477490,10584.944971
21038.488528,-2368.659014,-4903.011187,9992.780217
21038.488852,-1998.556043,-4903.011187,9400.615463
21038.489175,-296.082377,-3524.039291,9474.636058
21038.489499,-666.185348,-3294.210641,8734.430116
21038.489822,-1554.432478,-1915.238745,8734.430116
21038.490146,-518.144159,-1532.190996,6069.688724
21038.490469,962.267725,153.219100,7254.018232
21038.490793,962.267725,2374.896044,8882.471304
21038.491116,-1258.350101,3830.477490,8586.388927
21038.491440,-3478.967927,3217.601092,7772.162391
21038.491763,-3478.967927,3370.820191,8882.471304
21038.492087,-3775.050304,3064.381992,10881.027347
21038.492410,-5329.482782,1685.410096,10436.903782
21038.492734,-5255.462188,0.000000,7328.038826
21038.493057,-3404.947333,-919.314598,5107.421000
21038.493381,-2812.782580,-459.657299,5477.523971
21038.493704,-2960.823768,-306.438199,6661.853478
21038.494028,-2220.617826,-1532.190996,5773.606348
21038.494351,-2368.659014,-1915.238745,7402.059420
21038.494675,-1628.453072,-2374.896044,10140.821405
21038.494998,-740.205942,-1608.800546,11695.253884
21038.495322,962.267725,-1685.410096,12287.418637
21038.495645,3182.885551,-1608.800546,11917.315666
21038.495969,2960.823768,0.000000,11991.336260
21038.496292,2368.659014,689.485948,11547.212695
21038.496616,3256.906145,2068.457845,11325.150913
21038.496939,3701.029710,2681.334243,9474.636058
21038.497263,3404.947333,3140.991542,9474.636058
21038.497586,2516.700203,2298.286494,8068.244768
21038.497910,3330.926739,1532.190996,7772.162391
21038.498233,5033.400406,995.924147,5995.668130
21038.498557,3775.050304,612.876398,6883.915261
21038.498880,1184.329507,-1608.800546,7031.956449
21038.499204,222.061783,-3064.381992,7402.059420
21038.499527,74.020594,-4443.353888,9104.533087
21038.499851,-370.102971,-3907.087040,10807.006753
21038.500174,-2516.700203,-3064.381992,12139.377449
21038.500498,-1776.494261,-3983.696590,10658.965565
21038.500821,666.185348,-3677.258390,9474.636058
21038.501145,2294.638420,-1762.019645,10288.862594
21038.501468,1702.473667,459.657299,10881.027347
21038.501792,518.144159,689.485948,9252.574275
21038.502115,1258.350101,2145.067394,7920.203579
21038.502439,1628.453072,2911.162892,8734.430116
21038.502762,518.144159,2298.286494,9030.512492
21038.503086,592.164754,536.266849,6809.894666
21038.503409,592.164754,229.828649,5773.606348
21038.503732,-2072.576638,0.000000,7105.977043
21038.504056,-3404.947333,-2451.505594,7476.080014
21038.504379,-4811.338623,-4290.134789,8882.471304
21038.504703,-5477.523971,-5822.325785,10732.986159
21038.505026,-6809.894666,-4903.011187,11325.150913
21038.505350,-6587.832884,-5439.278036,11621.233289
21038.505673,-4441.235652,-4903.011187,11251.130318
21038.505997,-1036.288319,-2374.896044,10362.883188
21038.506320,1628.453072,1302.362347,10288.862594
21038.506644,518.144159,2221.676944,10066.800811
21038.506967,-222.061783,2221.676944,8364.327145
21038.507291,740.205942,2528.115143,7402.059420
21038.507614,962.267725,2145.067394,7920.203579
21038.507938,-222.061783,1915.238745,8956.491898
21038.508261,-2368.659014,1149.143247,9326.594869
21038.508585,-1554.432478,-1532.190996,7105.977043
21038.508908,-1850.514855,-2834.553343,8808.450710
21038.509232,-2960.823768,-2604.724693,10066.800811
21038.509555,-4959.379811,-2987.772442,10955.047942
21038.509879,-3923.091493,-5056.230287,7920.203579
21038.510202,-2664.741391,-4213.525239,8808.450710
21038.510526,-2368.659014,-2221.676944,9770.718434
21038.510849,-222.061783,1838.629195,11843.295072
21038.511173,3108.864956,2528.115143,9992.780217
21038.511496,6291.750507,2834.553343,8068.244768
21038.511820,6957.935855,2757.943793,6069.688724
21038.512143,4589.276840,3907.087040,7550.100608
21038.512467,4663.297435,4366.744339,9252.574275
21038.512790,3404.947333,4366.744339,10362.883188
21038.513114,518.144159,2221.676944,8068.244768
21038.513437,-740.205942,0.000000,7846.182985
21038.513761,592.164754,-1991.848295,8364.327145
21038.514084,1628.453072,-1149.143247,8512.368333
21038.514408,592.164754,-919.314598,10066.800811
21038.514731,-740.205942,-1608.800546,9696.697840
21038.515055,-1406.391290,-1225.752797,8882.471304
21038.515378,-1036.288319,-2298.286494,6735.874072
21038.515702,-370.102971,-1915.238745,8734.430116
21038.516025,-1924.535449,-766.095498,10584.944971
21038.516349,0.000000,766.095498,11103.089130
21038.516672,4145.153275,1072.533697,8290.306550
21038.516996,3627.009116,995.924147,9104.533087
21038.517319,-370.102971,1762.019645,10510.924376
21038.517643,-2072.576638,1608.800546,10510.924376
21038.517966,0.000000,536.266849,10140.821405
21038.518290,222.061783,-536.266849,9770.718434
21038.518613,-2294.638420,0.000000,9474.636058
21038.518937,-2368.659014,-995.924147,7476.080014
21038.519260,-1554.432478,-2145.067394,6217.729913
21038.519584,-814.226536,-1685.410096,8068.244768
21038.519907,-2072.576638,-383.047749,10066.800811
21038.520231,-3330.926739,-2221.676944,8882.471304
21038.520554,-3923.091493,-4596.572988,7402.059420
21038.520878,-4441.235652,-3370.820191,9548.656652
21038.521201,-5477.523971,-1685.410096,11843.295072
21038.521525,-4219.173869,-1455.581446,10140.821405
21038.521848,0.000000,-1838.629195,6883.915261
21038.522172,814.226536,-612.876398,7772.162391
21038.522495,-1036.288319,1302.362347,9696.697840
21038.522818,-1110.308913,2374.896044,11547.212695
21038.523142,1258.350101,76.609550,9474.636058
21038.523465,370.102971,-995.924147,8364.327145
21038.523789,-2590.720797,-995.924147,9326.594869
21038.524112,-2442.679609,-1302.362347,9474.636058
21038.524436,888.247130,-2451.505594,7550.100608
21038.524759,444.123565,-2221.676944,9844.739029
21038.525083,-888.247130,-2911.162892,9030.512492
21038.525406,-2368.659014,-2451.505594,8660.409521
21038.525730,-1184.329507,-3677.258390,8734.430116
21038.526053,-740.205942,-1685.410096,10584.944971
21038.526377,-1480.411884,-306.438199,12435.459826
21038.526700,-518.144159,306.438199,10732.986159
21038.527024,3627.009116,306.438199,7031.956449
21038.527347,5329.482782,0.000000,6365.771101
21038.527671,3182.885551,2451.505594,8068.244768
21038.527994,1480.411884,3370.820191,10362.883188
21038.528318,3034.844362,2528.115143,9252.574275
21038.528641,2886.803174,1378.971896,8438.347739
21038.528965,1554.432478,383.047749,8438.347739
21038.529288,0.000000,229.828649,9178.553681
21038.529612,2442.679609,-1762.019645,8660.409521
21038.529935,5181.441594,-306.438199,7179.997637
21038.530259,2886.803174,-459.657299,9326.594869
21038.530582,-666.185348,-536.266849,9326.594869
21038.530906,-1554.432478,-536.266849,9918.759623
21038.531229,-1110.308913,-919.314598,10140.821405
21038.531553,-2220.617826,-612.876398,10066.800811
21038.531876,-3552.988522,-1149.143247,8660.409521
21038.532200,-962.267725,-1302.362347,6217.729913
21038.532523,1406.391290,-153.219100,7402.059420
21038.532847,0.000000,1991.848295,10584.944971
21038.533170,-1628.453072,2451.505594,11473.192101
21038.533494,-1480.411884,459.657299,9622.677246
21038.533817,-1184.329507,-1225.752797,8660.409521
21038.534141,-2664.741391,-1225.752797,7624.121203
21038.534464,-4145.153275,-459.657299,8734.430116
21038.534788,-888.247130,-1302.362347,8808.450710
21038.535111,2220.617826,-459.657299,7476.080014
21038.535435,1628.453072,612.876398,10584.944971
21038.535758,-518.144159,0.000000,11769.274478
21038.536082,-1184.329507,-689.485948,9400.615463
21038.536405,148.041188,-1762.019645,8660.409521
21038.536729,-1998.556043,-919.314598,9918.759623
21038.537052,-2960.823768,0.000000,10288.862594
21038.537376,-1406.391290,536.266849,7920.203579
21038.537699,148.041188,229.828649,5921.647536
21038.538023,-592.164754,919.314598,8290.306550
21038.538346,-2368.659014,1225.752797,9400.615463
21038.538670,-2516.700203,0.000000,9104.533087
21038.538993,-1850.514855,-1762.019645,8660.409521
21038.539317,-4367.215058,-1762.019645,9178.553681
21038.539640,-6291.750507,-2298.286494,9178.553681
21038.539964,-4589.276840,-2757.943793,9474.636058
21038.540287,-592.164754,-3140.991542,8142.265362
21038.540611,666.185348,-2451.505594,8364.327145
21038.540934,-740.205942,-1991.848295,9030.512492
21038.541258,-2368.659014,-1455.581446,10436.903782
21038.541581,370.102971,-919.314598,9992.780217
21038.541904,1998.556043,-689.485948,9918.759623
21038.542228,888.247130,76.609550,10584.944971
21038.542551,2368.659014,459.657299,9548.656652
21038.542875,5699.585753,919.314598,7476.080014
21038.543198,6957.935855,1302.362347,9548.656652
21038.543522,4737.318029,2298.286494,10066.800811
21038.543845,2590.720797,1762.019645,8734.430116
21038.544169,2590.720797,-1915.238745,7328.038826
21038.544492,1332.370696,-1378.971896,9400.615463
21038.544816,-222.061783,-1225.752797,10436.903782
21038.545139,-1702.473667,-1838.629195,9104.533087
21038.545463,-444.123565,-3907.087040,7402.059420
21038.545786,962.267725,-2145.067394,7624.121203
21038.546110,-518.144159,-1532.190996,8808.450710
21038.546433,-1554.432478,-1762.019645,9696.697840
21038.546757,-740.205942,-1915.238745,9548.656652
21038.547080,-444.123565,-689.485948,10066.800811
21038.547404,-1480.411884,-612.876398,9992.780217
21038.547727,-1332.370696,-1532.190996,8586.388927
21038.548051,888.247130,-766.095498,7994.224174
21038.548374,2664.741391,689.485948,9104.533087
21038.548698,1998.556043,689.485948,10807.006753
21038.549021,-666.185348,306.438199,11029.068536
21038.549345,-1036.288319,-459.657299,10436.903782
21038.549668,0.000000,-1302.362347,8956.491898
21038.549992,-1184.329507,-995.924147,10066.800811
21038.550315,-1776.494261,-1225.752797,9548.656652
21038.550639,-444.123565,153.219100,7624.121203
21038.550962,1776.494261,459.657299,7254.018232
21038.551286,1036.288319,842.705048,8364.327145
21038.551609,-888.247130,1378.971896,9474.636058
21038.551932,-1998.556043,0.000000,8216.285956
21038.552256,-2072.576638,-995.924147,7624.121203
21038.552579,-3849.070898,-306.438199,9326.594869
21038.552903,-5033.400406,612.876398,10066.800811
21038.553226,-3775.050304,-766.095498,7031.956449
21038.553550,-1110.308913,-2145.067394,5921.647536
21038.553873,-1924.535449,-306.438199,7994.224174
21038.554197,-3552.988522,383.047749,8142.265362
21038.554520,-3627.009116,-306.438199,9104.533087
21038.554844,-2146.597232,-2068.457845,7846.182985
21038.555167,-2664.741391,-766.095498,10584.944971
21038.555490,-2664.741391,-1455.581446,11695.253884
21038.555814,-1998.556043,-2681.334243,8734.430116
21038.556137,1110.308913,-2604.724693,8142.265362
21038.556461,2664.741391,-842.705048,10584.944971
21038.556784,1406.391290,459.657299,11325.150913
21038.557108,1110.308913,-459.657299,10955.047942
21038.557431,2294.638420,-842.705048,9844.739029
21038.557755,1702.473667,842.705048,11547.212695
21038.558078,888.247130,1838.629195,12361.439231
21038.558401,1998.556043,383.047749,8586.388927
21038.558725,3701.029710,-766.095498,6661.853478
21038.559048,4441.235652,153.219100,8216.285956
21038.559372,2442.679609,1685.410096,8660.409521
21038.559695,592.164754,306.438199,8586.388927
21038.560019,444.123565,-766.095498,8586.388927
21038.560342,0.000000,-1302.362347,8660.409521
21038.560666,-1184.329507,-1915.238745,8364.327145
21038.560989,-1702.473667,-2451.505594,7105.977043
21038.561313,-148.041188,-3064.381992,5995.668130
21038.561636,222.061783,-1072.533697,8956.491898
21038.561959,814.226536,-153.219100,9696.697840
21038.562283,0.000000,0.000000,9474.636058
21038.562606,-666.185348,-995.924147,8956.491898
21038.562930,-1258.350101,0.000000,9696.697840
21038.563253,-148.041188,-229.828649,10288.862594
21038.563577,518.144159,-766.095498,9400.615463
21038.563900,888.247130,-842.705048,8882.471304
21038.564224,1702.473667,-306.438199,8586.388927
21038.564547,814.226536,-229.828649,9622.677246
21038.564871,0.000000,-1532.190996,10584.944971
21038.565194,-1258.350101,-1685.410096,9770.718434
21038.565517,-1258.350101,-2451.505594,10288.862594
21038.565841,-2516.700203,-2298.286494,11399.171507
21038.566164,-2812.782580,-1225.752797,11325.150913
21038.566488,-518.144159,-919.314598,8586.388927
21038.566811,1776.494261,-383.047749,9104.533087
21038.567135,1776.494261,842.705048,9992.780217
21038.567458,222.061783,2604.724693,9770.718434
21038.567782,-444.123565,1915.238745,8660.409521
21038.568105,-1776.494261,1072.533697,8512.368333
21038.568429,-3182.885551,1072.533697,8364.327145
21038.568752,-3849.070898,0.000000,7624.121203
21038.569075,-3256.906145,-919.314598,5773.606348
21038.569399,-1850.514855,-689.485948,7328.038826
21038.569722,-2368.659014,76.609550,8364.327145
