#time,accel_x,accel_y,accel_z
1487.489544,148.041188,1149.143247,9030.512492
1487.489871,-444.123565,1149.143247,8882.471304
1487.490197,740.205942,0.000000,9696.697840
1487.490523,740.205942,0.000000,9770.718434
1487.490849,-962.267725,306.438199,8438.347739
1487.491175,-444.123565,842.705048,8586.388927
1487.491502,-74.020594,153.219100,9474.636058
1487.491828,0.000000,612.876398,9326.594869
1487.492154,222.061783,766.095498,9400.615463
1487.492480,148.041188,1149.143247,8734.430116
1487.492806,148.041188,1225.752797,8660.409521
1487.493132,1036.288319,536.266849,9474.636058
1487.493459,518.144159,766.095498,9474.636058
1487.493785,-370.102971,1378.971896,8882.471304
1487.494111,-518.144159,459.657299,9474.636058
1487.494437,222.061783,-153.219100,10140.821405
1487.494763,-592.164754,153.219100,9400.615463
1487.495090,-1258.350101,766.095498,9104.533087
1487.495416,-592.164754,76.609550,9770.718434
1487.495742,-370.102971,306.438199,9770.718434
1487.496068,-296.082377,919.314598,9548.656652
1487.496394,-370.102971,1302.362347,9548.656652
1487.496721,-592.164754,1072.533697,9030.512492
1487.497047,0.000000,1302.362347,9326.594869
1487.497373,1036.288319,1072.533697,9992.780217
1487.497699,-740.205942,1532.190996,9104.533087
1487.498025,-1036.288319,1302.362347,8808.450710
1487.498352,518.144159,383.047749,9178.553681
1487.498678,0.000000,459.657299,9696.697840
1487.499004,-1702.473667,1608.800546,8882.471304
1487.499330,-1406.391290,1532.190996,8808.450710
1487.499656,-740.205942,766.095498,9548.656652
1487.499983,-962.267725,612.876398,9474.636058
1487.500309,-2072.576638,1762.019645,9252.574275
1487.500635,-2368.659014,2374.896044,8956.491898
1487.500961,-1554.432478,1991.848295,9252.574275
1487.501287,-1258.350101,1915.238745,10140.821405
1487.501614,-2072.576638,2757.943793,9844.739029
1487.501940,-3404.947333,3294.210641,9326.594869
1487.502266,-2812.782580,2834.553343,8956.491898
1487.502592,-2072.576638,2145.067394,9918.759623
1487.502918,-3627.009116,3370.820191,9474.636058
1487.503245,-4885.359217,3677.258390,8956.491898
1487.503571,-3923.091493,3217.601092,9326.594869
1487.503897,-3627.009116,2374.896044,9548.656652
1487.504223,-3997.112087,3370.820191,9326.594869
1487.504549,-3627.009116,4443.353888,9400.615463
1487.504876,-3478.967927,3907.087040,8808.450710
1487.505202,-2960.823768,4136.915689,8882.471304
1487.505528,-3182.885551,4060.306139,9030.512492
1487.505854,-3256.906145,4826.401637,8660.409521
1487.506180,-3627.009116,5209.449386,7550.100608
1487.506507,-2072.576638,3983.696590,8290.306550
1487.506833,-1554.432478,4060.306139,9030.512492
1487.507159,-2294.638420,3447.429741,7698.141797
1487.507485,-2516.700203,4366.744339,7105.977043
1487.507811,-1628.453072,3677.258390,8068.244768
1487.508138,-1184.329507,2987.772442,8438.347739
1487.508464,-1036.288319,3753.867940,8660.409521
1487.508790,-518.144159,4060.306139,8734.430116
1487.509116,222.061783,3217.601092,9104.533087
1487.509442,1184.329507,2451.505594,9992.780217
1487.509769,1110.308913,2298.286494,10214.842000
1487.510095,0.000000,2987.772442,9474.636058
1487.510421,518.144159,2298.286494,9474.636058
1487.510747,1628.453072,689.485948,10436.903782
1487.511073,370.102971,995.924147,10214.842000
1487.511400,-666.185348,1685.410096,9548.656652
1487.511726,-666.185348,536.266849,10732.986159
1487.512052,-814.226536,0.000000,11325.150913
1487.512378,-2516.700203,76.609550,12065.356855
1487.512704,-3478.967927,919.314598,12435.459826
1487.513030,-3997.112087,1149.143247,11695.253884
1487.513357,-3849.070898,689.485948,11917.315666
1487.513683,-4219.173869,1455.581446,12361.439231
1487.514009,-5181.441594,3753.867940,11177.109724
1487.514335,-5255.462188,4290.134789,9252.574275
1487.514661,-4737.318029,3217.601092,8882.471304
1487.514988,-4219.173869,3447.429741,7772.162391
1487.515314,-4589.276840,4673.182538,5255.462188
1487.515640,-3034.844362,4979.620737,4071.132681
1487.515966,-2220.617826,4060.306139,4589.276840
1487.516292,-2516.700203,2374.896044,4293.194464
1487.516619,-2960.823768,2068.457845,5847.626942
1487.516945,-3478.967927,1608.800546,7105.977043
1487.517271,-4367.215058,612.876398,7994.224174
1487.517597,-3627.009116,-919.314598,9696.697840
1487.517923,-3627.009116,0.000000,10807.006753
1487.518250,-3923.091493,2451.505594,10214.842000
1487.518576,-2294.638420,2374.896044,10807.006753
1487.518902,148.041188,2604.724693,11399.171507
1487.519228,962.267725,4596.572988,9918.759623
1487.519554,1554.432478,5822.325785,7920.203579
1487.519881,3034.844362,5745.716235,7920.203579
1487.520207,3330.926739,4060.306139,8660.409521
1487.520533,1406.391290,3600.648841,10214.842000
1487.520859,-296.082377,1915.238745,11769.274478
1487.521185,-2664.741391,229.828649,12509.480420
1487.521512,-3701.029710,-1608.800546,14804.118840
1487.521838,-5181.441594,-2451.505594,16284.530724
1487.522164,-6217.729913,0.000000,16358.551318
1487.522490,-5773.606348,1532.190996,13915.871710
1487.522816,-2812.782580,2604.724693,11769.274478
1487.523143,-740.205942,4826.401637,8364.327145
1487.523469,0.000000,9039.926876,4219.173869
1487.523795,444.123565,11184.994271,2516.700203
1487.524121,2146.597232,10725.336972,2294.638420
1487.524447,888.247130,8044.002729,2146.597232
1487.524774,-296.082377,5669.106685,2442.679609
1487.525100,-1850.514855,4366.744339,3256.906145
1487.525426,-2442.679609,689.485948,4811.338623
1487.525752,-2516.700203,-2145.067394,8364.327145
1487.526078,-3108.864956,-2604.724693,10436.903782
1487.526405,-4663.297435,-2145.067394,11029.068536
1487.526731,-4367.215058,-1685.410096,11399.171507
1487.527057,-3034.844362,-766.095498,13249.686362
1487.527383,-3997.112087,2451.505594,14063.912898
1487.527709,-4293.194464,5439.278036,13323.706956
1487.528036,-3256.906145,6971.469032,12139.377449
1487.528362,-2220.617826,6588.421283,11917.315666
1487.528688,-1480.411884,6971.469032,10732.986159
1487.529014,-1480.411884,8044.002729,10732.986159
1487.529340,-888.247130,7354.516781,9918.759623
1487.529667,-370.102971,3753.867940,8808.450710
1487.529993,-1036.288319,995.924147,8956.491898
1487.530319,-2590.720797,-842.705048,7254.018232
1487.530645,-2294.638420,-1762.019645,6217.729913
1487.530971,-1998.556043,-3677.258390,6957.935855
1487.531298,-2960.823768,-6052.154434,8808.450710
1487.531624,-6143.709319,-4979.620737,9474.636058
1487.531950,-5107.421000,-3064.381992,10288.862594
1487.532276,-3627.009116,-1302.362347,12361.439231
1487.532602,-4663.297435,0.000000,13249.686362
1487.532928,-5107.421000,2528.115143,10732.986159
1487.533255,-1406.391290,7048.078582,8956.491898
1487.533581,1184.329507,9882.631924,8660.409521
1487.533907,1628.453072,10878.556072,6513.812290
1487.534233,2960.823768,10418.898773,4145.153275
1487.534559,5107.421000,9499.584175,2738.761985
1487.534886,5699.585753,7584.345430,3108.864956
1487.535212,4145.153275,2911.162892,2960.823768
1487.535538,2072.576638,-1838.629195,3923.091493
1487.535864,-444.123565,-5439.278036,7772.162391
1487.536190,-2590.720797,-8503.660028,11843.295072
1487.536517,-4441.235652,-10955.165621,14656.077652
1487.536843,-6291.750507,-10572.117872,17912.983796
1487.537169,-7624.121203,-8120.612279,19911.539840
1487.537495,-4367.215058,-3983.696590,19541.436869
1487.537821,740.205942,76.609550,18579.169144
1487.538148,1850.514855,4903.011187,15840.407159
1487.538474,1776.494261,10112.460574,10288.862594
1487.538800,5921.647536,13483.280765,4885.359217
1487.539126,9918.759623,12793.794817,2368.659014
1487.539452,9622.677246,11261.603821,370.102971
1487.539779,6883.915261,9806.022374,-1776.494261
1487.540105,3108.864956,5515.887586,370.102971
1487.540431,-1850.514855,-2145.067394,4589.276840
1487.540757,-5699.585753,-9116.536426,8956.491898
1487.541083,-8734.430116,-12180.918418,12657.521608
1487.541410,-10807.006753,-12563.966167,13767.830521
1487.541736,-9918.759623,-10495.508323,15470.304188
1487.542062,-6291.750507,-7124.688131,17320.819043
1487.542388,-3923.091493,-1225.752797,16580.613101
1487.542714,666.185348,4443.353888,12583.501014
1487.543041,5181.441594,9346.365076,9030.512492
1487.543367,7254.018232,12793.794817,3552.988522
1487.543693,8438.347739,14632.424012,-962.267725
1487.544019,10362.883188,12793.794817,-1702.473667
1487.544345,8956.491898,10265.679673,1850.514855
1487.544672,2960.823768,5286.058936,6735.874072
1487.544998,-2294.638420,-766.095498,9918.759623
1487.545324,-5995.668130,-7124.688131,12509.480420
1487.545650,-8364.327145,-11568.042020,15174.221811
1487.545976,-8586.388927,-12257.527968,16728.654289
1487.546302,-6291.750507,-10265.679673,17320.819043
1487.546628,-5477.523971,-5362.668486,15988.448347
1487.546954,-4293.194464,-2911.162892,12953.603985
1487.547280,0.000000,842.705048,9622.677246
1487.547606,4737.318029,5515.887586,5995.668130
1487.547932,4959.379811,8580.269578,2368.659014
1487.548258,5847.626942,8044.002729,-0.000000
1487.548584,6439.791695,5439.278036,2886.803174
1487.548910,3923.091493,4979.620737,7624.121203
1487.549236,2146.597232,2068.457845,11177.109724
1487.549562,-1184.329507,-1838.629195,13545.768739
1487.549889,-4663.297435,-6435.202183,14063.912898
1487.550215,-5107.421000,-7660.954980,14211.954086
1487.550541,-2516.700203,-4903.011187,14285.974681
1487.550867,-962.267725,-1608.800546,13175.665768
1487.551193,-222.061783,-689.485948,8956.491898
1487.551519,1998.556043,1072.533697,4811.338623
1487.551845,4071.132681,3524.039291,3701.029710
1487.552171,4663.297435,5362.668486,2590.720797
1487.552497,4811.338623,5592.497135,2220.617826
1487.552823,3849.070898,3217.601092,4663.297435
1487.553149,222.061783,153.219100,7476.080014
1487.553475,-2368.659014,-459.657299,11177.109724
1487.553801,-3775.050304,-2451.505594,15100.201217
1487.554127,-5551.544565,-5056.230287,17542.880825
1487.554453,-7105.977043,-5898.935335,16728.654289
1487.554779,-5033.400406,-3370.820191,16728.654289
1487.555105,-2072.576638,383.047749,14508.036463
1487.555431,1110.308913,3217.601092,10214.842000
1487.555757,3330.926739,5132.839837,5921.647536
1487.556083,4145.153275,6358.592633,1850.514855
1487.556409,5995.668130,7354.516781,-1110.308913
1487.556735,7031.956449,6894.859482,740.205942
1487.557061,4145.153275,3907.087040,3849.070898
1487.557387,-666.185348,76.609550,7476.080014
1487.557713,-3627.009116,-2604.724693,11843.295072
1487.558039,-4737.318029,-6205.373534,14878.139434
1487.558365,-7476.080014,-7890.783629,16432.571912
1487.558691,-9104.533087,-6741.640382,16950.716072
1487.559017,-6217.729913,-2987.772442,16136.489536
1487.559343,-3552.988522,1915.238745,14285.974681
1487.559669,-296.082377,3753.867940,9474.636058
1487.559995,2294.638420,8273.831378,3701.029710
1487.560321,5773.606348,10572.117872,-592.164754
1487.560647,7698.141797,11491.432470,-1850.514855
1487.560973,7698.141797,9576.193725,-1332.370696
1487.561299,5107.421000,4596.572988,3552.988522
1487.561625,370.102971,0.000000,7698.141797
1487.561951,-2960.823768,-4749.792088,11103.089130
1487.562278,-4737.318029,-8733.488677,16210.510130
1487.562604,-6291.750507,-11414.822920,18949.272115
1487.562930,-6957.935855,-9499.584175,18653.189738
1487.563256,-5403.503377,-6128.763984,18801.230927
1487.563582,-1480.411884,-2681.334243,17246.798449
1487.563908,2220.617826,2451.505594,12361.439231
1487.564234,5625.565159,7048.078582,6217.729913
1487.564560,8586.388927,9193.145976,1258.350101
1487.564886,10288.862594,10418.898773,-1554.432478
1487.565212,9696.697840,9729.412825,74.020594
1487.565538,7179.997637,7890.783629,4737.318029
1487.565864,2738.761985,2987.772442,7105.977043
1487.566190,-1554.432478,-3907.087040,10510.924376
1487.566516,-4367.215058,-8580.269578,14656.077652
1487.566842,-7328.038826,-10189.070123,16136.489536
1487.567168,-8216.285956,-7660.954980,15840.407159
1487.567494,-6513.812290,-6665.030833,15248.242405
1487.567820,-4441.235652,-4443.353888,14211.954086
1487.568146,-1924.535449,612.876398,10214.842000
1487.568472,1850.514855,5745.716235,6587.832884
1487.568798,4515.256246,7660.954980,2664.741391
1487.569124,4959.379811,7737.564530,-0.000000
1487.569450,5477.523971,6665.030833,-518.144159
1487.569776,4441.235652,6435.202183,4145.153275
1487.570102,1110.308913,3677.258390,7994.224174
1487.570428,-1924.535449,-612.876398,11917.315666
1487.570754,-5033.400406,-4596.572988,15322.262999
1487.571080,-5995.668130,-6818.249932,15618.345376
1487.571406,-6143.709319,-5822.325785,15618.345376
1487.571732,-4145.153275,-3907.087040,15470.304188
1487.572058,-2960.823768,-766.095498,13545.768739
1487.572384,0.000000,2451.505594,9474.636058
1487.572710,3849.070898,4366.744339,5181.441594
1487.573036,5329.482782,5286.058936,2590.720797
1487.573362,5329.482782,5898.935335,-74.020594
1487.573688,4589.276840,6894.859482,2072.576638
1487.574014,3108.864956,5745.716235,6957.935855
1487.574340,370.102971,1532.190996,8586.388927
1487.574666,-3256.906145,-3447.429741,11769.274478
1487.574993,-6217.729913,-6588.421283,14285.974681
1487.575319,-9030.512492,-6205.373534,14582.057057
1487.575645,-6883.915261,-4903.011187,15544.324782
1487.575971,-3701.029710,-3830.477490,16210.510130
1487.576297,-2812.782580,-229.828649,13101.645173
1487.576623,296.082377,3677.258390,8364.327145
1487.576949,4959.379811,5592.497135,4737.318029
1487.577275,7846.182985,5822.325785,1480.411884
1487.577601,8290.306550,6894.859482,888.247130
1487.577927,7846.182985,7507.735880,2886.803174
1487.578253,5329.482782,4749.792088,6809.894666
1487.578579,1110.308913,-842.705048,10658.965565
1487.578905,-2516.700203,-5745.716235,14508.036463
1487.579231,-6587.832884,-6818.249932,16802.674883
1487.579557,-7846.182985,-6511.811733,17098.757260
1487.579883,-5773.606348,-4903.011187,17764.942608
1487.580209,-3775.050304,-3064.381992,15692.365970
1487.580535,-3627.009116,1072.533697,11399.171507
1487.580861,222.061783,5132.839837,5921.647536
1487.581187,4589.276840,7354.516781,2220.617826
1487.581513,6513.812290,9039.926876,-0.000000
1487.581839,6809.894666,9269.755526,-666.185348
1487.582165,4811.338623,7584.345430,1480.411884
1487.582491,1628.453072,2451.505594,5033.400406
1487.582817,-1850.514855,-2757.943793,9696.697840
1487.583143,-5477.523971,-5898.935335,14063.912898
1487.583469,-8216.285956,-8580.269578,15544.324782
1487.583795,-8660.409521,-8273.831378,16580.613101
1487.584121,-6661.853478,-6818.249932,17987.004391
1487.584447,-5773.606348,-2221.676944,16062.468941
1487.584773,-2812.782580,2221.676944,11029.068536
1487.585099,2368.659014,5439.278036,6513.812290
1487.585425,5625.565159,8120.612279,3701.029710
1487.585751,7772.162391,9806.022374,740.205942
1487.586077,8660.409521,10495.508323,-222.061783
1487.586403,7031.956449,7584.345430,1480.411884
1487.586729,3627.009116,3064.381992,6587.832884
1487.587055,0.000000,-1149.143247,10658.965565
1487.587382,-3552.988522,-3753.867940,14582.057057
1487.587708,-5847.626942,-7737.564530,15988.448347
1487.588034,-6069.688724,-9269.755526,16580.613101
1487.588360,-4737.318029,-7354.516781,16654.633695
1487.588686,-3849.070898,-2528.115143,14730.098246
1487.589012,-1036.288319,1378.971896,11991.336260
1487.589338,3478.967927,3524.039291,8438.347739
1487.589664,5551.544565,5592.497135,4663.297435
1487.589990,6513.812290,7431.126331,-0.000000
1487.590316,7105.977043,8044.002729,-592.164754
1487.590642,6069.688724,6971.469032,2664.741391
1487.590968,2442.679609,2221.676944,7179.997637
1487.591294,-1258.350101,-2451.505594,10288.862594
1487.591620,-5107.421000,-5975.544884,13175.665768
1487.591946,-6439.791695,-8120.612279,15174.221811
1487.592272,-5921.647536,-7737.564530,16432.571912
1487.592598,-5107.421000,-5362.668486,16654.633695
1487.592924,-3478.967927,-2145.067394,14285.974681
1487.593250,666.185348,459.657299,10362.883188
1487.593576,4589.276840,4060.306139,5921.647536
1487.593902,6957.935855,6588.421283,2664.741391
1487.594228,7328.038826,8197.221829,666.185348
1487.594554,7920.203579,8197.221829,1924.535449
1487.594880,6883.915261,5362.668486,5921.647536
1487.595206,2294.638420,919.314598,9178.553681
1487.595532,-2664.741391,-2451.505594,10362.883188
1487.595858,-5477.523971,-5286.058936,14285.974681
1487.596184,-6883.915261,-7048.078582,17320.819043
1487.596510,-7994.224174,-5898.935335,16876.695478
1487.596836,-6883.915261,-4060.306139,15840.407159
1487.597162,-4515.256246,-2068.457845,13545.768739
1487.597488,-2072.576638,2374.896044,8660.409521
1487.597814,1628.453072,5439.278036,4367.215058
1487.598140,4441.235652,7431.126331,1258.350101
1487.598466,5477.523971,7201.297681,-370.102971
1487.598792,4959.379811,6128.763984,1776.494261
1487.599118,3849.070898,3983.696590,5403.503377
1487.599444,-296.082377,459.657299,8512.368333
1487.599771,-3182.885551,-3447.429741,12657.521608
1487.600097,-4737.318029,-7124.688131,15692.365970
1487.600423,-5033.400406,-7737.564530,16358.551318
1487.600749,-5847.626942,-5362.668486,17468.860231
1487.601075,-4367.215058,-2374.896044,15174.221811
1487.601401,-1258.350101,1225.752797,12361.439231
1487.601727,2812.782580,4213.525239,8438.347739
1487.602053,4885.359217,7354.516781,5107.421000
1487.602379,6957.935855,10035.851024,2146.597232
1487.602705,8586.388927,9116.536426,-0.000000
1487.603031,8068.244768,6971.469032,1628.453072
1487.603357,4441.235652,3830.477490,5995.668130
1487.603683,-740.205942,306.438199,7476.080014
1487.604009,-3182.885551,-3907.087040,11843.295072
1487.604335,-5477.523971,-8350.440928,16580.613101
1487.604661,-8364.327145,-9116.536426,17616.901420
1487.604987,-8142.265362,-5515.887586,16506.592507
1487.605313,-4663.297435,-3370.820191,14952.160028
1487.605639,-2738.761985,-306.438199,13101.645173
1487.605965,518.144159,2681.334243,8438.347739
1487.606291,3701.029710,7124.688131,4071.132681
1487.606617,6439.791695,9882.631924,1850.514855
1487.606943,8364.327145,7201.297681,-666.185348
1487.607269,7031.956449,6435.202183,2220.617826
1487.607595,3108.864956,4213.525239,5699.585753
1487.607921,-1480.411884,383.047749,9178.553681
1487.608247,-2886.803174,-4596.572988,12805.562797
1487.608573,-5107.421000,-8886.707777,15840.407159
1487.608899,-7179.997637,-8350.440928,15322.262999
1487.609225,-5403.503377,-5286.058936,15544.324782
1487.609551,-3701.029710,-1762.019645,16580.613101
1487.609877,-2146.597232,-306.438199,13175.665768
1487.610203,2294.638420,2757.943793,7698.141797
1487.610529,5995.668130,7201.297681,3997.112087
1487.610855,7624.121203,9652.803275,888.247130
1487.611181,7920.203579,9652.803275,-296.082377
1487.611507,7105.977043,6665.030833,3701.029710
1487.611833,1850.514855,2451.505594,7328.038826
1487.612160,-2294.638420,-2068.457845,9326.594869
1487.612486,-4811.338623,-5515.887586,14137.933492
1487.612812,-7328.038826,-8044.002729,16062.468941
1487.613138,-9844.739029,-8044.002729,15692.365970
1487.613464,-8142.265362,-6971.469032,16062.468941
1487.613790,-4367.215058,-5132.839837,14582.057057
1487.614116,-2368.659014,0.000000,11399.171507
1487.614442,1258.350101,4519.963438,7254.018232
1487.614768,5033.400406,7048.078582,2442.679609
1487.615094,7994.224174,7354.516781,370.102971
1487.615420,9178.553681,7354.516781,2072.576638
1487.615746,7254.018232,7354.516781,3256.906145
1487.616072,3552.988522,4136.915689,5551.544565
1487.616398,1332.370696,-1915.238745,10658.965565
1487.616724,-1998.556043,-5669.106685,15322.262999
1487.617050,-5625.565159,-6665.030833,16506.592507
1487.617376,-6513.812290,-6358.592633,16654.633695
1487.617702,-4219.173869,-4673.182538,17098.757260
1487.618028,-2442.679609,-1608.800546,15174.221811
1487.618354,74.020594,2374.896044,11769.274478
1487.618680,2368.659014,6358.592633,6587.832884
1487.619006,4515.256246,7354.516781,2220.617826
1487.619332,6587.832884,7124.688131,370.102971
1487.619658,6957.935855,8044.002729,592.164754
1487.619984,3923.091493,7737.564530,3478.967927
1487.620310,222.061783,2451.505594,6217.729913
1487.620636,-2590.720797,-3294.210641,10214.842000
1487.620962,-6439.791695,-5898.935335,14878.139434
1487.621288,-9400.615463,-6281.983084,15766.386565
1487.621614,-8734.430116,-6052.154434,14952.160028
1487.621940,-5921.647536,-4903.011187,15692.365970
1487.622266,-3108.864956,-2757.943793,14656.077652
1487.622592,296.082377,4903.011187,10436.903782
1487.622918,4885.359217,8656.879127,5477.523971
1487.623244,7402.059420,7890.783629,2442.679609
1487.623570,8882.471304,7584.345430,962.267725
1487.623896,8882.471304,8810.098227,1110.308913
1487.624222,5403.503377,7124.688131,4441.235652
1487.624549,1554.432478,383.047749,7254.018232
1487.624875,-1332.370696,-5209.449386,11917.315666
1487.625201,-5033.400406,-6588.421283,15618.345376
1487.625527,-8290.306550,-6894.859482,16136.489536
1487.625853,-8734.430116,-7201.297681,16580.613101
1487.626179,-6439.791695,-6281.983084,16950.716072
1487.626505,-4441.235652,-2374.896044,13619.789333
1487.626831,-962.267725,2604.724693,8956.491898
1487.627157,2960.823768,4213.525239,4885.359217
1487.627483,5181.441594,6511.811733,2664.741391
1487.627809,6883.915261,7354.516781,962.267725
1487.628135,5995.668130,6971.469032,1110.308913
1487.628461,3256.906145,4213.525239,5033.400406
1487.628787,740.205942,-1149.143247,8956.491898
1487.629113,-2294.638420,-4060.306139,12435.459826
1487.629439,-5181.441594,-6205.373534,14359.995275
1487.629765,-7105.977043,-8044.002729,15470.304188
1487.630091,-6291.750507,-7584.345430,15914.427753
1487.630417,-3182.885551,-4443.353888,15692.365970
1487.630743,-1110.308913,-229.828649,13323.706956
1487.631069,1184.329507,3983.696590,9326.594869
1487.631395,4959.379811,5362.668486,4885.359217
1487.631721,8142.265362,5898.935335,2294.638420
1487.632047,7846.182985,8656.879127,444.123565
1487.632373,5773.606348,7967.393179,962.267725
1487.632699,2960.823768,3753.867940,5107.421000
1487.633025,-518.144159,-1532.190996,8734.430116
1487.633351,-4811.338623,-4826.401637,13027.624579
1487.633677,-7698.141797,-6128.763984,16136.489536
1487.634003,-8882.471304,-7124.688131,15322.262999
1487.634329,-6809.894666,-6894.859482,15544.324782
1487.634655,-4737.318029,-4826.401637,14211.954086
1487.634981,-2960.823768,1225.752797,12435.459826
1487.635307,740.205942,5745.716235,8290.306550
1487.635633,5403.503377,6818.249932,4737.318029
1487.635959,7624.121203,7354.516781,2516.700203
1487.636285,7550.100608,8044.002729,444.123565
1487.636611,5921.647536,7890.783629,2220.617826
1487.636937,3775.050304,3600.648841,5995.668130
1487.637264,-444.123565,-1608.800546,9770.718434
1487.637590,-4441.235652,-4290.134789,12953.603985
1487.637916,-6439.791695,-5669.106685,16062.468941
1487.638242,-7179.997637,-6128.763984,16210.510130
1487.638568,-6217.729913,-5822.325785,16580.613101
1487.638894,-4885.359217,-2451.505594,15100.201217
1487.639220,-2442.679609,2528.115143,11177.109724
1487.639546,2812.782580,5286.058936,6439.791695
1487.639872,6809.894666,6358.592633,2886.803174
1487.640198,6809.894666,7814.174080,962.267725
1487.640524,7031.956449,9422.974625,-0.000000
1487.640850,6735.874072,7584.345430,3627.009116
1487.641176,3775.050304,1915.238745,7550.100608
1487.641502,-1110.308913,-2911.162892,9770.718434
1487.641828,-4589.276840,-4903.011187,13989.892304
1487.642154,-6143.709319,-6128.763984,16950.716072
1487.642480,-6809.894666,-6894.859482,17172.777854
1487.642806,-5181.441594,-6358.592633,17468.860231
1487.643132,-3108.864956,-2604.724693,15174.221811
1487.643458,-592.164754,2911.162892,11621.233289
1487.643784,3997.112087,5898.935335,7179.997637
1487.644110,6513.812290,7354.516781,3182.885551
1487.644436,7105.977043,7584.345430,-518.144159
1487.644762,6883.915261,8197.221829,-592.164754
1487.645088,5255.462188,6588.421283,3404.947333
1487.645414,962.267725,1685.410096,6513.812290
1487.645740,-2664.741391,-3830.477490,9696.697840
1487.646066,-5107.421000,-7048.078582,14211.954086
1487.646392,-6957.935855,-7967.393179,15544.324782
1487.646718,-7402.059420,-7124.688131,16580.613101
1487.647044,-5699.585753,-5132.839837,17616.901420
1487.647370,-3701.029710,-2145.067394,14359.995275
1487.647696,666.185348,1991.848295,9548.656652
1487.648022,6587.832884,5132.839837,5921.647536
1487.648348,7920.203579,9116.536426,4071.132681
1487.648674,7920.203579,10342.289223,74.020594
1487.649000,9474.636058,8044.002729,296.082377
1487.649326,7105.977043,3217.601092,4219.173869
1487.649652,592.164754,0.000000,7031.956449
1487.649978,-3997.112087,-2451.505594,9622.677246
1487.650304,-5847.626942,-6358.592633,15100.201217
1487.650630,-8216.285956,-9576.193725,16876.695478
1487.650956,-9474.636058,-9346.365076,17912.983796
1487.651282,-7031.956449,-5592.497135,16432.571912
1487.651608,-4515.256246,-1455.581446,13471.748144
1487.651934,-1110.308913,1838.629195,11325.150913
1487.652260,3701.029710,4903.011187,6587.832884
1487.652586,4589.276840,7201.297681,2442.679609
1487.652912,6809.894666,7890.783629,-740.205942
1487.653238,7698.141797,6665.030833,740.205942
1487.653564,4811.338623,4596.572988,4885.359217
1487.653890,222.061783,689.485948,7920.203579
1487.654216,-2590.720797,-3524.039291,11473.192101
1487.654542,-5033.400406,-6358.592633,15544.324782
1487.654868,-7179.997637,-8273.831378,16580.613101
1487.655194,-6439.791695,-5822.325785,17172.777854
1487.655520,-4293.194464,-3064.381992,15914.427753
1487.655846,-1702.473667,-612.876398,13249.686362
1487.656172,2220.617826,3294.210641,9770.718434
1487.656498,5403.503377,7814.174080,5477.523971
1487.656824,6735.874072,9652.803275,1258.350101
1487.657150,8290.306550,9193.145976,-1924.535449
1487.657476,7698.141797,7431.126331,-222.061783
1487.657802,3108.864956,4826.401637,5033.400406
1487.658128,-2146.597232,1225.752797,7328.038826
1487.658454,-4737.318029,-3140.991542,12361.439231
1487.658779,-7624.121203,-8044.002729,16062.468941
1487.659105,-9918.759623,-8886.707777,16950.716072
1487.659431,-8882.471304,-5975.544884,16950.716072
1487.659757,-5625.565159,-2221.676944,16210.510130
1487.660083,-3034.844362,459.657299,14582.057057
1487.660409,1480.411884,3140.991542,9844.739029
1487.660735,4367.215058,7201.297681,3923.091493
1487.661061,6439.791695,10035.851024,296.082377
1487.661387,9696.697840,9652.803275,-444.123565
1487.661713,8882.471304,8273.831378,1332.370696
1487.662039,4367.215058,5132.839837,4293.194464
1487.662365,666.185348,536.266849,7772.162391
1487.662691,-2294.638420,-4136.915689,12435.459826
1487.663017,-5921.647536,-7048.078582,15692.365970
1487.663343,-7476.080014,-8503.660028,17542.880825
1487.663669,-6587.832884,-6205.373534,17394.839637
1487.663995,-4293.194464,-3983.696590,15766.386565
1487.664321,-1924.535449,-1149.143247,12805.562797
1487.664647,444.123565,4213.525239,7550.100608
1487.664973,3775.050304,7584.345430,2294.638420
1487.665299,6735.874072,7890.783629,-222.061783
1487.665625,8882.471304,6665.030833,-1480.411884
1487.665951,6439.791695,7048.078582,1702.473667
1487.666277,3849.070898,3677.258390,4959.379811
1487.666603,222.061783,-459.657299,8734.430116
1487.666929,-2442.679609,-5975.544884,14582.057057
1487.667255,-4663.297435,-8580.269578,18357.107362
1487.667581,-6365.771101,-7660.954980,18283.086767
1487.667907,-5329.482782,-6281.983084,17690.922014
1487.668233,-3330.926739,-4366.744339,17764.942608
1487.668559,-518.144159,-383.047749,13323.706956
1487.668885,1628.453072,3907.087040,7994.224174
1487.669211,4811.338623,6052.154434,3627.009116
1487.669537,6217.729913,6511.811733,1184.329507
1487.669863,6661.853478,7354.516781,592.164754
1487.670189,4811.338623,5822.325785,2072.576638
1487.670515,1258.350101,2298.286494,5033.400406
1487.670841,-2220.617826,-2604.724693,8586.388927
1487.671167,-5329.482782,-6281.983084,13619.789333
1487.671493,-7402.059420,-6818.249932,15766.386565
1487.671819,-8216.285956,-6818.249932,16802.674883
1487.672145,-5921.647536,-5898.935335,16654.633695
1487.672471,-3627.009116,-2987.772442,15692.365970
1487.672797,-1628.453072,1762.019645,11547.212695
1487.673123,2072.576638,6052.154434,6957.935855
1487.673449,5847.626942,7507.735880,2220.617826
1487.673774,7254.018232,7737.564530,666.185348
1487.674100,6883.915261,8427.050478,-962.267725
1487.674426,5625.565159,7048.078582,888.247130
1487.674752,1702.473667,2451.505594,5255.462188
1487.675078,-2220.617826,-2451.505594,9474.636058
1487.675404,-5403.503377,-3907.087040,14508.036463
1487.675730,-6957.935855,-5439.278036,16580.613101
1487.676056,-7550.100608,-6128.763984,15396.283594
1487.676382,-5329.482782,-5515.887586,16136.489536
1487.676708,-3478.967927,-1608.800546,15840.407159
1487.677034,-1110.308913,4213.525239,12139.377449
1487.677360,3923.091493,6971.469032,7698.141797
1487.677686,7105.977043,6052.154434,4515.256246
1487.678012,7476.080014,7277.907231,296.082377
1487.678338,6809.894666,9346.365076,-1110.308913
1487.678664,6365.771101,7277.907231,2960.823768
1487.678990,2812.782580,2528.115143,8216.285956
1487.679316,-2368.659014,-2911.162892,12213.398043
1487.679642,-5403.503377,-7201.297681,14952.160028
1487.679968,-7328.038826,-7660.954980,15470.304188
1487.680294,-6513.812290,-7431.126331,15988.448347
1487.680620,-5255.462188,-4903.011187,16802.674883
1487.680946,-3775.050304,-919.314598,14211.954086
1487.681272,-1406.391290,3294.210641,11695.253884
1487.681598,3478.967927,4749.792088,6513.812290
1487.681924,6217.729913,5975.544884,1702.473667
1487.682250,6587.832884,7354.516781,-1258.350101
1487.682576,7328.038826,8886.707777,-592.164754
1487.682902,5847.626942,6665.030833,4367.215058
1487.683228,2146.597232,536.266849,8068.244768
1487.683554,-2664.741391,-4596.572988,11325.150913
1487.683880,-5699.585753,-6588.421283,15026.180623
1487.684206,-7254.018232,-6971.469032,15914.427753
1487.684532,-5847.626942,-6358.592633,17542.880825
1487.684858,-5181.441594,-4749.792088,18431.127956
1487.685184,-4737.318029,-536.266849,15618.345376
1487.685510,-1480.411884,2757.943793,10362.883188
1487.685836,3701.029710,3217.601092,4737.318029
1487.686162,4589.276840,5362.668486,2368.659014
1487.686488,5107.421000,7890.783629,-666.185348
1487.686814,5847.626942,9269.755526,1036.288319
1487.687140,4515.256246,4213.525239,4071.132681
1487.687466,74.020594,-1838.629195,7105.977043
1487.687792,-3330.926739,-4213.525239,10732.986159
1487.688118,-5625.565159,-4136.915689,14063.912898
1487.688444,-7328.038826,-5669.106685,15840.407159
1487.688770,-5995.668130,-7048.078582,17912.983796
1487.689095,-4959.379811,-5439.278036,17172.777854
1487.689421,-3478.967927,-459.657299,13619.789333
1487.689747,888.247130,4519.963438,9474.636058
1487.690073,4441.235652,5515.887586,5847.626942
1487.690399,5847.626942,6435.202183,1628.453072
1487.690725,7328.038826,7507.735880,-1184.329507
1487.691051,7476.080014,7507.735880,962.267725
1487.691377,4663.297435,4903.011187,4515.256246
1487.691703,370.102971,1225.752797,8142.265362
1487.692029,-2146.597232,-3677.258390,11843.295072
1487.692355,-4367.215058,-6128.763984,15248.242405
1487.692681,-5921.647536,-7354.516781,16210.510130
1487.693007,-5477.523971,-6281.983084,17912.983796
1487.693333,-4219.173869,-2911.162892,16358.551318
1487.693659,-1332.370696,0.000000,13767.830521
1487.693985,2368.659014,2528.115143,9770.718434
1487.694311,4885.359217,4749.792088,5625.565159
1487.694637,5995.668130,6971.469032,1776.494261
1487.694963,8216.285956,8120.612279,-0.000000
1487.695289,7624.121203,7507.735880,2590.720797
1487.695615,4441.235652,3753.867940,5847.626942
1487.695941,444.123565,-612.876398,8586.388927
1487.696267,-2516.700203,-2681.334243,12879.583391
1487.696593,-5107.421000,-6281.983084,16136.489536
1487.696919,-6661.853478,-6435.202183,16728.654289
1487.697245,-6143.709319,-5669.106685,16580.613101
1487.697571,-4589.276840,-2681.334243,15248.242405
1487.697897,-1998.556043,766.095498,12509.480420
1487.698223,1628.453072,3370.820191,8512.368333
1487.698549,3627.009116,5975.544884,4219.173869
1487.698875,5107.421000,7584.345430,296.082377
1487.699201,6809.894666,7048.078582,-296.082377
1487.699527,5773.606348,6358.592633,2072.576638
1487.699853,2220.617826,3524.039291,5773.606348
1487.700179,-962.267725,-689.485948,8512.368333
1487.700505,-3330.926739,-3907.087040,12657.521608
1487.700831,-5477.523971,-5822.325785,15544.324782
1487.701157,-7031.956449,-6281.983084,16432.571912
1487.701483,-6661.853478,-4826.401637,16136.489536
1487.701809,-5551.544565,-2451.505594,15470.304188
1487.702135,-2368.659014,383.047749,12879.583391
1487.702461,1258.350101,4136.915689,7476.080014
1487.702787,3108.864956,5975.544884,3627.009116
1487.703113,4663.297435,6741.640382,296.082377
1487.703439,5107.421000,6588.421283,-592.164754
1487.703765,4885.359217,5209.449386,3330.926739
1487.704091,1776.494261,1532.190996,6883.915261
1487.704416,-1258.350101,-1762.019645,9400.615463
1487.704742,-3182.885551,-4366.744339,13545.768739
1487.705068,-4663.297435,-6511.811733,16284.530724
1487.705394,-5773.606348,-6818.249932,15248.242405
1487.705720,-4959.379811,-5439.278036,16358.551318
1487.706046,-1850.514855,-2911.162892,15692.365970
1487.706372,296.082377,2221.676944,12953.603985
1487.706698,2516.700203,4903.011187,7772.162391
1487.707024,5403.503377,4979.620737,3775.050304
1487.707350,6735.874072,4519.963438,666.185348
1487.707676,7179.997637,6435.202183,444.123565
1487.708002,5181.441594,6588.421283,3997.112087
1487.708328,2368.659014,2451.505594,7402.059420
1487.708654,-888.247130,-2834.553343,10066.800811
1487.708980,-3552.988522,-6588.421283,14211.954086
1487.709306,-6513.812290,-7201.297681,15766.386565
1487.709632,-7105.977043,-5286.058936,14730.098246
1487.709958,-4737.318029,-4213.525239,15840.407159
1487.710284,-2368.659014,-2451.505594,15914.427753
1487.710610,-1036.288319,1378.971896,11917.315666
1487.710936,1406.391290,4826.401637,6661.853478
1487.711262,4441.235652,5515.887586,3404.947333
1487.711588,6809.894666,5515.887586,1110.308913
1487.711914,7105.977043,7354.516781,1184.329507
1487.712240,5477.523971,7507.735880,4737.318029
1487.712566,888.247130,2757.943793,7772.162391
1487.712892,-2220.617826,-3217.601092,9326.594869
1487.713218,-4441.235652,-5515.887586,13619.789333
1487.713544,-7550.100608,-5286.058936,14656.077652
1487.713870,-8364.327145,-3830.477490,15174.221811
1487.714196,-5107.421000,-3600.648841,16062.468941
1487.714522,-3997.112087,-2068.457845,14952.160028
1487.714848,-3701.029710,2298.286494,9548.656652
1487.715174,518.144159,5362.668486,3923.091493
1487.715500,4219.173869,6588.421283,1702.473667
1487.715826,6439.791695,6511.811733,-0.000000
1487.716152,5921.647536,7967.393179,1702.473667
1487.716478,4515.256246,7737.564530,4515.256246
1487.716804,2146.597232,2374.896044,7402.059420
1487.717130,-592.164754,-2604.724693,10955.047942
1487.717456,-3404.947333,-4979.620737,14804.118840
1487.717782,-5699.585753,-4443.353888,15174.221811
1487.718108,-4737.318029,-4213.525239,16654.633695
1487.718434,-2812.782580,-4366.744339,17542.880825
1487.718760,-2738.761985,-1838.629195,13693.809927
1487.719086,-444.123565,3064.381992,8956.491898
1487.719411,4367.215058,5745.716235,6143.709319
1487.719737,6143.709319,6052.154434,3182.885551
1487.720063,7105.977043,6358.592633,1036.288319
1487.720389,6735.874072,6205.373534,2294.638420
1487.720715,4219.173869,3907.087040,5033.400406
1487.721041,1110.308913,0.000000,8068.244768
1487.721367,-1406.391290,-3983.696590,12361.439231
1487.721693,-4441.235652,-6128.763984,15100.201217
1487.722019,-7105.977043,-6281.983084,14508.036463
1487.722345,-4737.318029,-6128.763984,16580.613101
1487.722671,-2738.761985,-4060.306139,16506.592507
1487.722997,-2738.761985,0.000000,12065.356855
1487.723323,0.000000,3753.867940,8364.327145
1487.723649,4071.132681,4903.011187,5329.482782
1487.723975,5995.668130,6358.592633,2516.700203
1487.724301,7254.018232,5822.325785,1036.288319
1487.724627,6069.688724,5975.544884,2886.803174
1487.724953,3034.844362,3370.820191,6143.709319
1487.725279,814.226536,-1149.143247,9252.574275
1487.725605,-1776.494261,-4060.306139,13175.665768
1487.725931,-6217.729913,-5669.106685,13915.871710
1487.726257,-7476.080014,-6052.154434,14285.974681
1487.726583,-3552.988522,-4596.572988,15174.221811
1487.726909,-2960.823768,-1455.581446,15692.365970
1487.727235,-4219.173869,2528.115143,12287.418637
1487.727561,-296.082377,3600.648841,7031.956449
1487.727887,3108.864956,3830.477490,4071.132681
1487.728213,4811.338623,4903.011187,1776.494261
1487.728539,4663.297435,7201.297681,1110.308913
1487.728865,4145.153275,7660.954980,2368.659014
1487.729191,1924.535449,1532.190996,7846.182985
1487.729517,-740.205942,-4213.525239,10807.006753
1487.729843,-4737.318029,-4979.620737,13323.706956
1487.730169,-6957.935855,-4903.011187,14285.974681
1487.730495,-6069.688724,-6281.983084,15100.201217
1487.730821,-3997.112087,-4596.572988,16432.571912
1487.731147,-3182.885551,-2451.505594,14359.995275
1487.731473,-1332.370696,2451.505594,10584.944971
1487.731799,2738.761985,5439.278036,7550.100608
1487.732125,4145.153275,6665.030833,4589.276840
1487.732451,5773.606348,6665.030833,1554.432478
1487.732777,7031.956449,6894.859482,1184.329507
1487.733103,5033.400406,4903.011187,3923.091493
1487.733429,1628.453072,1685.410096,7031.956449
1487.733755,-962.267725,-2221.676944,10510.924376
1487.734081,-3775.050304,-4519.963438,14137.933492
1487.734407,-5699.585753,-6205.373534,15174.221811
1487.734732,-4515.256246,-6588.421283,15840.407159
1487.735058,-3923.091493,-3524.039291,15988.448347
1487.735384,-2886.803174,1149.143247,12657.521608
1487.735710,0.000000,4136.915689,8882.471304
1487.736036,3330.926739,4826.401637,5625.565159
1487.736362,4441.235652,5898.935335,2664.741391
1487.736688,4589.276840,7507.735880,962.267725
1487.737014,6143.709319,7584.345430,1850.514855
1487.737340,4959.379811,5745.716235,6291.750507
1487.737666,1332.370696,689.485948,9918.759623
1487.737992,-1554.432478,-3294.210641,11991.336260
1487.738318,-4367.215058,-4749.792088,13693.809927
1487.738644,-5995.668130,-6281.983084,15026.180623
1487.738970,-5625.565159,-5592.497135,16062.468941
1487.739296,-4811.338623,-2604.724693,15174.221811
1487.739622,-4071.132681,536.266849,13249.686362
1487.739948,-1850.514855,2987.772442,9548.656652
1487.740274,1702.473667,4903.011187,5995.668130
1487.740600,2960.823768,6281.983084,3108.864956
1487.740926,4737.318029,6818.249932,444.123565
1487.741252,5329.482782,6818.249932,1184.329507
1487.741578,3997.112087,3677.258390,5625.565159
1487.741904,444.123565,229.828649,8364.327145
1487.742230,-2516.700203,-2068.457845,11695.253884
1487.742556,-4737.318029,-4903.011187,15026.180623
1487.742882,-5255.462188,-7277.907231,15692.365970
1487.743208,-5625.565159,-5898.935335,15988.448347
1487.743534,-4219.173869,-3447.429741,14359.995275
1487.743860,-2590.720797,-612.876398,12139.377449
1487.744186,1184.329507,2528.115143,9030.512492
1487.744512,3849.070898,5286.058936,5773.606348
1487.744838,5995.668130,7277.907231,3034.844362
1487.745164,6513.812290,6588.421283,-148.041188
1487.745490,6291.750507,5975.544884,1702.473667
1487.745816,4737.318029,3064.381992,6217.729913
1487.746142,740.205942,0.000000,8956.491898
1487.746468,-2368.659014,-3370.820191,11695.253884
1487.746794,-4071.132681,-7431.126331,15322.262999
1487.747120,-4959.379811,-8733.488677,16358.551318
1487.747446,-4959.379811,-6281.983084,16062.468941
1487.747772,-2664.741391,-2757.943793,15470.304188
1487.748098,-370.102971,0.000000,12953.603985
1487.748424,2812.782580,2757.943793,8734.430116
1487.748750,5773.606348,5745.716235,5699.585753
1487.749076,6365.771101,7124.688131,2812.782580
1487.749402,7179.997637,7431.126331,1110.308913
1487.749728,6957.935855,5209.449386,3849.070898
1487.750054,3182.885551,2528.115143,7254.018232
1487.750380,-1850.514855,-842.705048,9622.677246
1487.750706,-4737.318029,-3830.477490,12509.480420
1487.751032,-5995.668130,-7201.297681,15544.324782
1487.751358,-7920.203579,-9116.536426,14952.160028
1487.751684,-7105.977043,-4903.011187,14359.995275
1487.752010,-4663.297435,-612.876398,14434.015869
1487.752336,-2368.659014,1838.629195,10955.047942
1487.752662,1258.350101,3753.867940,6069.688724
1487.752988,4441.235652,6281.983084,3330.926739
1487.753314,5699.585753,8503.660028,592.164754
1487.753640,6883.915261,9346.365076,-296.082377
1487.753966,6809.894666,7124.688131,3775.050304
1487.754292,2368.659014,2834.553343,8216.285956
1487.754618,-1850.514855,-995.924147,9474.636058
1487.754944,-2738.761985,-4290.134789,13249.686362
1487.755270,-5181.441594,-6128.763984,15618.345376
1487.755596,-8068.244768,-6281.983084,14434.015869
1487.755922,-6217.729913,-4290.134789,15692.365970
1487.756248,-2960.823768,-1149.143247,15248.242405
1487.756574,-2590.720797,2221.676944,11843.295072
1487.756900,666.185348,3907.087040,6217.729913
1487.757226,3552.988522,6205.373534,3330.926739
1487.757552,5699.585753,7354.516781,1480.411884
1487.757878,7031.956449,7354.516781,2220.617826
1487.758204,4811.338623,6205.373534,5477.523971
1487.758530,592.164754,1378.971896,8660.409521
1487.758856,-1702.473667,-3064.381992,9992.780217
1487.759182,-2590.720797,-5362.668486,14063.912898
1487.759508,-5847.626942,-6128.763984,16136.489536
1487.759834,-6439.791695,-5745.716235,15470.304188
1487.760160,-3404.947333,-3753.867940,16062.468941
1487.760487,-518.144159,-1838.629195,14285.974681
1487.760813,0.000000,2528.115143,10214.842000
1487.761139,2590.720797,5439.278036,5921.647536
1487.761465,5255.462188,7354.516781,2960.823768
1487.761791,7031.956449,6435.202183,1332.370696
1487.762117,7105.977043,5975.544884,2072.576638
1487.762443,3923.091493,5515.887586,3997.112087
1487.762769,0.000000,1149.143247,6069.688724
1487.763095,-2072.576638,-3753.867940,10510.924376
1487.763421,-4589.276840,-6511.811733,15396.283594
1487.763747,-7624.121203,-6894.859482,15322.262999
1487.764073,-7254.018232,-6281.983084,14211.954086
1487.764399,-3997.112087,-4979.620737,14730.098246
1487.764725,-2368.659014,-1762.019645,13397.727550
1487.765051,-962.267725,4213.525239,10584.944971
1487.765377,2738.761985,6665.030833,6661.853478
1487.765703,6069.688724,6205.373534,2886.803174
1487.766029,7846.182985,5132.839837,1480.411884
1487.766355,7402.059420,6818.249932,2590.720797
1487.766681,4145.153275,6665.030833,5699.585753
1487.767007,666.185348,612.876398,9030.512492
1487.767333,-2072.576638,-4749.792088,13471.748144
1487.767659,-4737.318029,-7201.297681,15322.262999
1487.767985,-7254.018232,-6435.202183,15026.180623
1487.768311,-6735.874072,-5132.839837,15396.283594
1487.768637,-4589.276840,-4213.525239,15692.365970
1487.768963,-2812.782580,-1378.971896,13545.768739
1487.769289,-444.123565,3907.087040,8956.491898
1487.769615,3108.864956,6894.859482,3775.050304
1487.769941,5551.544565,7584.345430,1184.329507
1487.770267,6069.688724,6128.763984,296.082377
1487.770593,4811.338623,6358.592633,1184.329507
1487.770919,2294.638420,4519.963438,5329.482782
1487.771245,-222.061783,-1302.362347,8956.491898
1487.771571,-2960.823768,-5286.058936,12361.439231
1487.771897,-5625.565159,-6281.983084,15100.201217
1487.772223,-7328.038826,-6435.202183,15322.262999
1487.772549,-4811.338623,-6281.983084,15174.221811
1487.772875,-2368.659014,-3983.696590,15840.407159
1487.773201,74.020594,919.314598,13915.871710
1487.773527,3256.906145,6358.592633,8438.347739
1487.773853,6883.915261,8580.269578,4293.194464
1487.774179,9474.636058,7354.516781,1628.453072
1487.774506,8956.491898,7890.783629,666.185348
1487.774832,6143.709319,9039.926876,1406.391290
1487.775158,3404.947333,3983.696590,6291.750507
1487.775484,518.144159,-2221.676944,10732.986159
1487.775810,-3627.009116,-5056.230287,14582.057057
1487.776136,-7254.018232,-6741.640382,15840.407159
1487.776462,-8660.409521,-7660.954980,14508.036463
1487.776788,-6661.853478,-7277.907231,15544.324782
1487.777114,-3849.070898,-4213.525239,15766.386565
1487.777440,-2220.617826,2834.553343,13249.686362
1487.777766,1628.453072,6281.983084,7550.100608
1487.778092,3997.112087,6588.421283,4219.173869
1487.778418,6365.771101,5439.278036,1702.473667
1487.778744,7105.977043,7354.516781,-222.061783
1487.779070,6143.709319,8733.488677,1776.494261
1487.779396,3701.029710,3830.477490,6513.812290
1487.779722,-666.185348,-2451.505594,9770.718434
1487.780048,-4145.153275,-5669.106685,13027.624579
1487.780374,-6883.915261,-6358.592633,16136.489536
1487.780700,-7994.224174,-6894.859482,15174.221811
1487.781026,-5403.503377,-5975.544884,14878.139434
1487.781352,-2590.720797,-2834.553343,14730.098246
1487.781678,-1628.453072,2298.286494,11769.274478
1487.782004,1998.556043,5822.325785,6809.894666
1487.782330,5625.565159,5822.325785,3849.070898
1487.782656,5773.606348,6435.202183,1850.514855
1487.782982,5921.647536,7737.564530,370.102971
1487.783308,5773.606348,6741.640382,3627.009116
1487.783634,2368.659014,1302.362347,7031.956449
1487.783960,-2516.700203,-4749.792088,10362.883188
1487.784286,-5477.523971,-6435.202183,14137.933492
1487.784612,-7105.977043,-6741.640382,16580.613101
1487.784938,-7920.203579,-7507.735880,16358.551318
1487.785264,-6143.709319,-7277.907231,16432.571912
1487.785590,-4737.318029,-3524.039291,15396.283594
1487.785916,-2294.638420,1991.848295,10732.986159
1487.786242,2590.720797,5822.325785,7105.977043
1487.786568,7105.977043,6818.249932,3775.050304
1487.786894,6957.935855,6741.640382,518.144159
1487.787220,7179.997637,8350.440928,-814.226536
1487.787546,7328.038826,7048.078582,3627.009116
1487.787872,3256.906145,2604.724693,8438.347739
1487.788198,-962.267725,-2068.457845,10881.027347
1487.788524,-3701.029710,-4903.011187,14434.015869
1487.788851,-5773.606348,-6511.811733,16802.674883
1487.789177,-6883.915261,-6971.469032,15692.365970
1487.789503,-5329.482782,-5439.278036,15544.324782
1487.789829,-3552.988522,-1455.581446,14137.933492
1487.790155,-1480.411884,2681.334243,10732.986159
1487.790481,2590.720797,6281.983084,6809.894666
1487.790807,4663.297435,7277.907231,3256.906145
1487.791133,4589.276840,7584.345430,-592.164754
1487.791459,5847.626942,7584.345430,-666.185348
1487.791785,4959.379811,5975.544884,3701.029710
1487.792111,666.185348,1915.238745,7994.224174
1487.792437,-2738.761985,-2451.505594,10881.027347
1487.792763,-4589.276840,-5745.716235,16580.613101
1487.793089,-7105.977043,-6894.859482,16432.571912
1487.793415,-7179.997637,-6665.030833,15618.345376
1487.793741,-4663.297435,-3983.696590,16284.530724
1487.794067,-2368.659014,-459.657299,13767.830521
1487.794393,740.205942,3907.087040,10140.821405
1487.794719,4367.215058,6358.592633,6143.709319
1487.795045,5255.462188,7354.516781,2368.659014
1487.795371,6143.709319,7124.688131,-1184.329507
1487.795697,7402.059420,6818.249932,518.144159
1487.796023,5255.462188,5439.278036,5921.647536
1487.796349,518.144159,1149.143247,7920.203579
1487.796675,-1924.535449,-3983.696590,10955.047942
1487.797001,-3552.988522,-7048.078582,15470.304188
1487.797327,-6735.874072,-7048.078582,15988.448347
1487.797653,-6217.729913,-4903.011187,16432.571912
1487.797979,-3627.009116,-2834.553343,16580.613101
1487.798305,-1554.432478,-1608.800546,13323.706956
1487.798631,2368.659014,2145.067394,9622.677246
1487.798957,4737.318029,6358.592633,5255.462188
1487.799283,4885.359217,8886.707777,1554.432478
1487.799609,5403.503377,6741.640382,-0.000000
1487.799935,6957.935855,4673.182538,1776.494261
1487.800261,3256.906145,2451.505594,6439.791695
1487.800587,-2368.659014,-383.047749,8142.265362
1487.800913,-3849.070898,-3983.696590,11769.274478
1487.801239,-4737.318029,-7048.078582,16284.530724
1487.801565,-6661.853478,-7890.783629,16580.613101
1487.801891,-6439.791695,-4979.620737,16210.510130
1487.802217,-3256.906145,-2145.067394,14063.912898
1487.802543,-370.102971,689.485948,12287.418637
1487.802869,2886.803174,4213.525239,9178.553681
1487.803196,5255.462188,7584.345430,4811.338623
1487.803522,5921.647536,8350.440928,1628.453072
1487.803848,7846.182985,5975.544884,-370.102971
1487.804174,6513.812290,5209.449386,2516.700203
1487.804500,2294.638420,2987.772442,6143.709319
1487.804826,-1480.411884,-919.314598,8512.368333
1487.805152,-3923.091493,-4903.011187,13101.645173
1487.805478,-6735.874072,-8273.831378,16210.510130
1487.805804,-8586.388927,-8120.612279,15914.427753
1487.806130,-6735.874072,-3677.258390,15914.427753
1487.806456,-3627.009116,-1072.533697,15174.221811
1487.806782,-962.267725,1149.143247,12805.562797
1487.807108,1480.411884,4136.915689,7179.997637
1487.807434,3478.967927,6894.859482,3627.009116
1487.807760,4737.318029,7890.783629,1406.391290
1487.808086,6513.812290,6818.249932,148.041188
1487.808412,5847.626942,5898.935335,2886.803174
1487.808738,1924.535449,2834.553343,6661.853478
1487.809064,-1036.288319,-1302.362347,9918.759623
1487.809390,-3108.864956,-5286.058936,13989.892304
1487.809716,-5847.626942,-7277.907231,16802.674883
1487.810042,-6661.853478,-6894.859482,16654.633695
1487.810368,-4737.318029,-4366.744339,15470.304188
1487.810694,-1554.432478,-1915.238745,15026.180623
1487.811020,0.000000,1838.629195,12287.418637
1487.811346,2146.597232,6128.763984,7698.141797
1487.811672,5107.421000,7890.783629,3108.864956
1487.811998,6957.935855,7354.516781,962.267725
1487.812324,6735.874072,6511.811733,444.123565
1487.812650,4145.153275,5822.325785,1998.556043
1487.812976,1184.329507,2298.286494,5847.626942
1487.813302,-1924.535449,-3217.601092,9844.739029
1487.813628,-4663.297435,-5056.230287,14359.995275
1487.813954,-6735.874072,-6281.983084,16432.571912
1487.814280,-7476.080014,-6741.640382,15396.283594
1487.814606,-5181.441594,-5209.449386,15470.304188
1487.814932,-2664.741391,-2145.067394,15544.324782
1487.815258,-962.267725,3140.991542,11695.253884
1487.815584,1480.411884,6511.811733,5699.585753
1487.815910,5033.400406,6052.154434,2368.659014
1487.816236,6217.729913,5822.325785,814.226536
1487.816562,5921.647536,7277.907231,814.226536
1487.816888,4367.215058,7277.907231,4367.215058
1487.817215,1554.432478,2068.457845,8364.327145
1487.817541,-1480.411884,-3830.477490,10955.047942
1487.817867,-3997.112087,-6435.202183,14211.954086
1487.818193,-6365.771101,-4979.620737,15840.407159
1487.818519,-6217.729913,-4290.134789,15396.283594
1487.818845,-3701.029710,-3830.477490,16358.551318
1487.819171,-2590.720797,-1762.019645,15174.221811
1487.819497,-2590.720797,2374.896044,10140.821405
1487.819823,814.226536,5286.058936,4293.194464
1487.820149,4589.276840,5592.497135,1776.494261
1487.820475,4737.318029,4903.011187,666.185348
1487.820801,4959.379811,5822.325785,222.061783
1487.821127,4293.194464,4903.011187,4293.194464
1487.821453,1702.473667,-995.924147,8142.265362
1487.821779,-1628.453072,-5515.887586,10955.047942
1487.822105,-3182.885551,-5056.230287,15100.201217
1487.822431,-4145.153275,-4060.306139,16580.613101
1487.822757,-3775.050304,-3753.867940,16506.592507
1487.823083,-814.226536,-4290.134789,15840.407159
1487.823409,592.164754,-1991.848295,13545.768739
1487.823735,1850.514855,3983.696590,9474.636058
1487.824061,4441.235652,7967.393179,5921.647536
1487.824387,6735.874072,6665.030833,3701.029710
1487.824713,6809.894666,4826.401637,888.247130
1487.825039,5551.544565,5592.497135,814.226536
1487.825365,3404.947333,4826.401637,4663.297435
1487.825691,0.000000,689.485948,8364.327145
1487.826017,-3034.844362,-3830.477490,12583.501014
1487.826343,-5847.626942,-6358.592633,16506.592507
1487.826669,-7920.203579,-6818.249932,15840.407159
1487.826995,-7179.997637,-5898.935335,15396.283594
1487.827321,-4441.235652,-2604.724693,15322.262999
1487.827647,-3034.844362,459.657299,12361.439231
1487.827973,-962.267725,4136.915689,8068.244768
1487.828299,3330.926739,5515.887586,4885.359217
1487.828625,4959.379811,7584.345430,2960.823768
1487.828951,5107.421000,8044.002729,-296.082377
1487.829277,5625.565159,6358.592633,518.144159
1487.829603,3330.926739,3753.867940,5329.482782
1487.829929,-444.123565,-229.828649,9252.574275
1487.830255,-3108.864956,-3447.429741,11843.295072
1487.830581,-4737.318029,-5515.887586,14582.057057
1487.830907,-6291.750507,-6358.592633,15914.427753
1487.831233,-5181.441594,-3907.087040,16802.674883
1487.831560,-2886.803174,-306.438199,16136.489536
1487.831886,-2294.638420,1302.362347,12731.542202
1487.832212,814.226536,2987.772442,7920.203579
1487.832538,4959.379811,5745.716235,4071.132681
1487.832864,5773.606348,8197.221829,2146.597232
1487.833190,5255.462188,8044.002729,-666.185348
1487.833516,4293.194464,5975.544884,1406.391290
1487.833842,1480.411884,2374.896044,5995.668130
1487.834168,-1480.411884,-1762.019645,9770.718434
1487.834494,-3775.050304,-3753.867940,12731.542202
1487.834820,-5033.400406,-6435.202183,14952.160028
1487.835146,-5625.565159,-7124.688131,15396.283594
1487.835472,-4071.132681,-5056.230287,16728.654289
1487.835798,-2368.659014,-1685.410096,16210.510130
1487.836124,-296.082377,1225.752797,12509.480420
1487.836450,3923.091493,2987.772442,8660.409521
1487.836776,6661.853478,5439.278036,5847.626942
1487.837102,6957.935855,8197.221829,1998.556043
1487.837428,7105.977043,7737.564530,592.164754
1487.837754,6217.729913,4519.963438,2886.803174
1487.838080,2442.679609,0.000000,6439.791695
1487.838406,-1628.453072,-2528.115143,9178.553681
1487.838732,-4145.153275,-3447.429741,13249.686362
1487.839058,-5699.585753,-6511.811733,15988.448347
1487.839384,-6439.791695,-7967.393179,16950.716072
1487.839710,-4959.379811,-6205.373534,16580.613101
1487.840036,-4071.132681,-2298.286494,14137.933492
1487.840362,-2368.659014,995.924147,10288.862594
1487.840688,1036.288319,2681.334243,6957.935855
1487.841014,2146.597232,4826.401637,4145.153275
1487.841340,3256.906145,6665.030833,2146.597232
1487.841666,4737.318029,6358.592633,1110.308913
1487.841992,4145.153275,3447.429741,2516.700203
1487.842318,0.000000,459.657299,6735.874072
1487.842644,-3182.885551,-1378.971896,10214.842000
1487.842970,-3923.091493,-2451.505594,13767.830521
1487.843296,-4811.338623,-5362.668486,15544.324782
1487.843622,-5921.647536,-7354.516781,15766.386565
1487.843948,-4663.297435,-2451.505594,15248.242405
1487.844274,-2294.638420,1072.533697,12731.542202
1487.844600,-370.102971,2911.162892,10584.944971
1487.844926,2590.720797,4366.744339,5995.668130
1487.845252,4737.318029,6894.859482,3330.926739
1487.845578,6439.791695,8120.612279,1110.308913
1487.845905,7179.997637,6128.763984,1480.411884
1487.846231,4515.256246,3983.696590,4293.194464
1487.846557,1628.453072,229.828649,8142.265362
1487.846883,-1110.308913,-1455.581446,11621.233289
1487.847209,-2368.659014,-3753.867940,14359.995275
1487.847535,-4737.318029,-5286.058936,16358.551318
1487.847861,-5403.503377,-4903.011187,15322.262999
1487.848187,-3478.967927,-2834.553343,14730.098246
1487.848513,-2146.597232,0.000000,13693.809927
1487.848839,0.000000,1991.848295,10436.903782
1487.849165,1480.411884,4979.620737,5847.626942
1487.849491,4219.173869,6358.592633,2368.659014
1487.849817,5847.626942,5209.449386,666.185348
1487.850143,5921.647536,4826.401637,1258.350101
1487.850469,3552.988522,3753.867940,4737.318029
1487.850795,1998.556043,1532.190996,8512.368333
1487.851121,296.082377,-2528.115143,11769.274478
1487.851448,-1850.514855,-5669.106685,15544.324782
1487.851774,-4145.153275,-6205.373534,16062.468941
1487.852100,-4145.153275,-3830.477490,15618.345376
1487.852426,-1554.432478,-1608.800546,15840.407159
1487.852752,0.000000,-536.266849,14508.036463
1487.853078,1480.411884,1455.581446,10214.842000
1487.853404,3404.947333,5209.449386,4737.318029
1487.853730,4663.297435,6511.811733,3256.906145
1487.854056,5329.482782,6205.373534,1036.288319
1487.854382,4737.318029,4903.011187,888.247130
1487.854708,1776.494261,2911.162892,5033.400406
1487.855034,-1776.494261,-766.095498,8290.306550
1487.855360,-4145.153275,-3983.696590,11325.150913
1487.855686,-6365.771101,-5822.325785,14434.015869
1487.856012,-9326.594869,-7660.954980,15470.304188
1487.856338,-8734.430116,-5362.668486,15026.180623
1487.856664,-4663.297435,-2451.505594,15322.262999
1487.856990,-2220.617826,76.609550,13619.789333
1487.857317,-740.205942,3447.429741,8660.409521
1487.857643,3182.885551,6818.249932,4145.153275
1487.857969,6661.853478,8273.831378,2442.679609
1487.858295,7328.038826,7507.735880,1184.329507
1487.858621,6661.853478,6511.811733,2812.782580
1487.858947,3701.029710,3830.477490,6143.709319
1487.859273,0.000000,-612.876398,8216.285956
1487.859599,-2220.617826,-3370.820191,13249.686362
1487.859925,-3997.112087,-5286.058936,16358.551318
1487.860251,-6957.935855,-5439.278036,16062.468941
1487.860577,-6661.853478,-5286.058936,15470.304188
1487.860903,-3478.967927,-3217.601092,15618.345376
1487.861229,-2146.597232,76.609550,13027.624579
1487.861555,-148.041188,3983.696590,7105.977043
1487.861881,3034.844362,6511.811733,3923.091493
1487.862207,5699.585753,5209.449386,1184.329507
1487.862533,6439.791695,5592.497135,-740.205942
1487.862860,5699.585753,5898.935335,1480.411884
1487.863186,3552.988522,3217.601092,6439.791695
1487.863512,0.000000,-842.705048,10140.821405
1487.863838,-1850.514855,-4749.792088,14211.954086
1487.864164,-3997.112087,-6511.811733,17320.819043
1487.864490,-5477.523971,-6128.763984,16284.530724
1487.864816,-3552.988522,-4673.182538,16876.695478
1487.865142,-518.144159,-1838.629195,15766.386565
1487.865468,-222.061783,2451.505594,12731.542202
1487.865794,1924.535449,5439.278036,7105.977043
1487.866120,5551.544565,6205.373534,3627.009116
1487.866446,6439.791695,6894.859482,888.247130
1487.866772,5403.503377,6741.640382,-74.020594
1487.867098,3552.988522,5898.935335,2664.741391
1487.867424,1406.391290,1149.143247,5699.585753
1487.867750,-2442.679609,-3217.601092,10658.965565
1487.868076,-5329.482782,-6052.154434,15248.242405
1487.868402,-8364.327145,-6818.249932,16950.716072
1487.868729,-8364.327145,-7354.516781,15692.365970
1487.869055,-4811.338623,-6205.373534,16580.613101
1487.869381,-3256.906145,-1149.143247,15396.283594
1487.869707,-2812.782580,3447.429741,11325.150913
1487.870033,1332.370696,6052.154434,5477.523971
1487.870359,5699.585753,6205.373534,2960.823768
1487.870685,6143.709319,6128.763984,-0.000000
1487.871011,6069.688724,7354.516781,-1554.432478
1487.871337,5625.565159,7354.516781,1850.514855
1487.871663,1702.473667,2451.505594,7550.100608
1487.871989,-1258.350101,-3370.820191,11399.171507
1487.872315,-4515.256246,-5592.497135,14211.954086
1487.872641,-7624.121203,-6818.249932,15026.180623
1487.872967,-7846.182985,-6818.249932,15988.448347
1487.873293,-4441.235652,-5362.668486,16876.695478
1487.873619,-2960.823768,-1072.533697,15988.448347
1487.873945,-2220.617826,3830.477490,12361.439231
1487.874271,2516.700203,5362.668486,5773.606348
1487.874598,6217.729913,6665.030833,2664.741391
1487.874924,7698.141797,7048.078582,444.123565
1487.875250,6957.935855,8350.440928,888.247130
1487.875576,5921.647536,6358.592633,2960.823768
1487.875902,3627.009116,-536.266849,7772.162391
1487.876228,-518.144159,-3830.477490,11991.336260
1487.876554,-4367.215058,-4903.011187,14878.139434
1487.876880,-6439.791695,-6435.202183,15322.262999
1487.877206,-5329.482782,-7584.345430,16580.613101
1487.877532,-2960.823768,-6358.592633,17246.798449
1487.877858,-2072.576638,-612.876398,14285.974681
1487.878184,666.185348,4136.915689,9474.636058
1487.878510,4737.318029,4903.011187,5403.503377
1487.878836,6217.729913,6281.983084,2368.659014
1487.879162,7624.121203,7354.516781,-222.061783
1487.879488,6809.894666,8427.050478,-0.000000
1487.879814,4515.256246,5056.230287,2442.679609
1487.880141,1110.308913,-1378.971896,7254.018232
1487.880467,-3256.906145,-4290.134789,11769.274478
1487.880793,-6587.832884,-6741.640382,15322.262999
1487.881119,-8734.430116,-7354.516781,17172.777854
1487.881445,-7402.059420,-8656.879127,17912.983796
1487.881771,-6069.688724,-5515.887586,17912.983796
1487.882097,-3478.967927,-306.438199,14285.974681
1487.882423,148.041188,4749.792088,10436.903782
1487.882749,4737.318029,6818.249932,5477.523971
1487.883075,7105.977043,8197.221829,2368.659014
1487.883401,7846.182985,9729.412825,-74.020594
1487.883727,7846.182985,9576.193725,-518.144159
1487.884053,5551.544565,6205.373534,4219.173869
1487.884379,2072.576638,383.047749,7698.141797
1487.884705,-2738.761985,-2298.286494,11251.130318
1487.885031,-5773.606348,-4673.182538,14804.118840
1487.885357,-7105.977043,-6665.030833,16210.510130
1487.885683,-7698.141797,-6818.249932,16432.571912
1487.886010,-6735.874072,-4443.353888,15322.262999
1487.886336,-4811.338623,153.219100,13471.748144
1487.886662,-1184.329507,3524.039291,8660.409521
1487.886988,1628.453072,5822.325785,4145.153275
1487.887314,3108.864956,6358.592633,1332.370696
1487.887640,3775.050304,7354.516781,-1110.308913
1487.887966,4811.338623,7277.907231,-0.000000
1487.888292,2960.823768,3294.210641,6069.688724
1487.888618,-1258.350101,-2221.676944,8586.388927
1487.888944,-4145.153275,-4903.011187,12065.356855
1487.889270,-5033.400406,-6281.983084,16062.468941
1487.889596,-4959.379811,-7584.345430,17172.777854
1487.889922,-5255.462188,-5975.544884,17172.777854
1487.890248,-2590.720797,-3064.381992,16284.530724
1487.890574,-148.041188,1302.362347,15026.180623
1487.890900,3256.906145,4366.744339,10066.800811
1487.891226,7031.956449,6358.592633,5255.462188
1487.891552,9178.553681,8044.002729,2220.617826
1487.891879,9992.780217,8656.879127,-962.267725
1487.892205,8808.450710,9116.536426,1702.473667
1487.892531,5625.565159,4213.525239,6661.853478
1487.892857,-222.061783,-1608.800546,8512.368333
1487.893183,-3627.009116,-5592.497135,11769.274478
1487.893509,-5255.462188,-7354.516781,15988.448347
1487.893835,-8438.347739,-6741.640382,15988.448347
1487.894161,-8808.450710,-6128.763984,15470.304188
1487.894487,-5921.647536,-5132.839837,14359.995275
1487.894813,-4219.173869,-1302.362347,12583.501014
1487.895139,-1184.329507,4903.011187,7920.203579
1487.895465,2664.741391,7737.564530,3775.050304
1487.895791,4885.359217,7277.907231,444.123565
1487.896117,6365.771101,6665.030833,-592.164754
1487.896443,5995.668130,6665.030833,3034.844362
1487.896769,2812.782580,5209.449386,5921.647536
1487.897095,-1184.329507,-995.924147,8068.244768
1487.897422,-2664.741391,-5669.106685,12879.583391
1487.897748,-4441.235652,-7048.078582,16580.613101
1487.898074,-6957.935855,-5056.230287,17246.798449
1487.898400,-5477.523971,-3907.087040,17172.777854
1487.898726,-2368.659014,-2757.943793,16062.468941
1487.899052,-888.247130,76.609550,13249.686362
1487.899378,1850.514855,5975.544884,7402.059420
1487.899704,4663.297435,9346.365076,3701.029710
1487.900030,6957.935855,8503.660028,1110.308913
1487.900356,7624.121203,7048.078582,-0.000000
1487.900682,5995.668130,6435.202183,2664.741391
1487.901008,1628.453072,2681.334243,5699.585753
1487.901334,-2442.679609,-1762.019645,8660.409521
1487.901660,-4219.173869,-7048.078582,13989.892304
1487.901986,-7105.977043,-8503.660028,16358.551318
1487.902312,-9030.512492,-7354.516781,15174.221811
1487.902638,-7105.977043,-5898.935335,16580.613101
1487.902964,-4071.132681,-4443.353888,15692.365970
1487.903291,-2220.617826,76.609550,12139.377449
1487.903617,1480.411884,4979.620737,6809.894666
1487.903943,5329.482782,7201.297681,2960.823768
1487.904269,8216.285956,7431.126331,-74.020594
1487.904595,9992.780217,7507.735880,-148.041188
1487.904921,7772.162391,6665.030833,3330.926739
1487.905247,3404.947333,3294.210641,6217.729913
1487.905573,1406.391290,-2374.896044,10288.862594
1487.905899,-518.144159,-5898.935335,15692.365970
1487.906225,-4737.318029,-6894.859482,16950.716072
1487.906551,-6439.791695,-6128.763984,16580.613101
1487.906877,-4293.194464,-5362.668486,17246.798449
1487.907203,-2220.617826,-3524.039291,15914.427753
1487.907529,-592.164754,1302.362347,11917.315666
1487.907855,2294.638420,6358.592633,7254.018232
1487.908181,5181.441594,8580.269578,2738.761985
1487.908507,6957.935855,7354.516781,-148.041188
1487.908834,6883.915261,6281.983084,-148.041188
1487.909160,3552.988522,5745.716235,2294.638420
1487.909486,0.000000,2068.457845,5847.626942
1487.909812,-2368.659014,-3600.648841,9844.739029
1487.910138,-5403.503377,-6894.859482,14952.160028
1487.910464,-9770.718434,-7890.783629,15766.386565
1487.910790,-8660.409521,-6205.373534,16358.551318
1487.911116,-5403.503377,-4826.401637,16580.613101
1487.911442,-3775.050304,-1991.848295,14582.057057
1487.911768,-1332.370696,2834.553343,11029.068536
1487.912094,2664.741391,7201.297681,5403.503377
1487.912420,5329.482782,8120.612279,1924.535449
1487.912746,7105.977043,7431.126331,-444.123565
1487.913072,6809.894666,7584.345430,296.082377
1487.913398,3108.864956,6894.859482,3997.112087
1487.913724,1406.391290,153.219100,7105.977043
1487.914050,-1776.494261,-4903.011187,11399.171507
1487.914376,-5995.668130,-6511.811733,16580.613101
1487.914703,-7550.100608,-6205.373534,16580.613101
1487.915029,-6069.688724,-4826.401637,16876.695478
1487.915355,-3849.070898,-5822.325785,16580.613101
1487.915681,-2812.782580,-2681.334243,14359.995275
1487.916007,0.000000,4366.744339,9474.636058
1487.916333,4589.276840,8044.002729,4589.276840
1487.916659,7254.018232,7584.345430,2812.782580
1487.916985,7105.977043,7048.078582,1036.288319
1487.917311,5625.565159,7584.345430,740.205942
1487.917637,3775.050304,4903.011187,4441.235652
1487.917963,444.123565,-1762.019645,8438.347739
1487.918289,-3478.967927,-6128.763984,12065.356855
1487.918615,-5773.606348,-6818.249932,15100.201217
1487.918941,-6809.894666,-6741.640382,16136.489536
1487.919267,-7105.977043,-6358.592633,17764.942608
1487.919593,-6143.709319,-4596.572988,17172.777854
1487.919919,-2886.803174,-1455.581446,12879.583391
1487.920245,296.082377,4213.525239,8808.450710
1487.920572,4737.318029,6971.469032,4737.318029
1487.920898,6957.935855,8120.612279,2590.720797
1487.921224,7550.100608,8656.879127,-296.082377
1487.921550,6439.791695,7890.783629,1258.350101
1487.921876,4811.338623,4519.963438,5699.585753
1487.922202,1702.473667,76.609550,7254.018232
1487.922528,-1332.370696,-2604.724693,11399.171507
1487.922854,-3627.009116,-4290.134789,15322.262999
1487.923180,-5773.606348,-5515.887586,15766.386565
1487.923506,-4737.318029,-4903.011187,16062.468941
1487.923832,-2294.638420,-2221.676944,16284.530724
1487.924158,-2294.638420,2911.162892,12583.501014
1487.924484,962.267725,5745.716235,7105.977043
1487.924810,5033.400406,6588.421283,4663.297435
1487.925136,5699.585753,6588.421283,2294.638420
1487.925462,4367.215058,8197.221829,-74.020594
1487.925788,3627.009116,7277.907231,888.247130
1487.926115,2220.617826,1455.581446,5477.523971
1487.926441,-3182.885551,-2757.943793,8956.491898
1487.926767,-6513.812290,-5209.449386,12065.356855
1487.927093,-7772.162391,-6511.811733,16432.571912
1487.927419,-8290.306550,-8656.879127,15544.324782
1487.927745,-6809.894666,-8427.050478,16432.571912
1487.928071,-4441.235652,-4749.792088,15988.448347
1487.928397,-2146.597232,919.314598,12435.459826
1487.928723,2738.761985,4443.353888,8808.450710
1487.929049,7698.141797,5669.106685,6439.791695
1487.929375,8660.409521,6358.592633,2590.720797
1487.929701,9326.594869,7660.954980,-814.226536
1487.930027,9104.533087,7048.078582,3552.988522
1487.930353,5773.606348,1762.019645,7920.203579
1487.930679,444.123565,-2298.286494,10436.903782
1487.931005,-2368.659014,-4443.353888,13915.871710
1487.931331,-4219.173869,-7048.078582,17172.777854
1487.931657,-6217.729913,-7507.735880,15322.262999
1487.931984,-5551.544565,-7048.078582,16136.489536
1487.932310,-4737.318029,-3677.258390,15026.180623
1487.932636,-3478.967927,1302.362347,10288.862594
1487.932962,888.247130,4136.915689,6809.894666
1487.933288,4293.194464,5132.839837,3997.112087
1487.933614,3775.050304,6665.030833,-592.164754
1487.933940,4293.194464,6128.763984,-1110.308913
1487.934266,4441.235652,4826.401637,3034.844362
1487.934592,888.247130,1302.362347,7846.182985
1487.934918,-2812.782580,-2374.896044,10436.903782
1487.935244,-4145.153275,-4596.572988,14063.912898
1487.935570,-5329.482782,-6588.421283,14730.098246
1487.935896,-5847.626942,-6052.154434,15914.427753
1487.936222,-3701.029710,-3140.991542,16876.695478
1487.936548,-2368.659014,536.266849,14730.098246
1487.936874,-296.082377,3370.820191,10881.027347
1487.937200,3627.009116,5209.449386,6957.935855
1487.937527,4737.318029,7584.345430,3108.864956
1487.937853,5921.647536,8503.660028,-592.164754
1487.938179,7031.956449,8810.098227,666.185348
1487.938505,6661.853478,5286.058936,5107.421000
1487.938831,1332.370696,1455.581446,7846.182985
1487.939157,-2146.597232,-1225.752797,10140.821405
1487.939483,-4071.132681,-3370.820191,14359.995275
1487.939809,-6439.791695,-5286.058936,15026.180623
1487.940135,-6365.771101,-5669.106685,15174.221811
1487.940461,-4737.318029,-3140.991542,16062.468941
1487.940787,-4219.173869,0.000000,13101.645173
1487.941113,-1258.350101,2987.772442,9918.759623
1487.941439,2368.659014,4673.182538,6217.729913
1487.941765,3256.906145,6511.811733,2812.782580
1487.942091,4515.256246,7431.126331,-74.020594
1487.942417,5995.668130,6205.373534,1184.329507
1487.942743,4071.132681,3064.381992,4441.235652
1487.943069,0.000000,76.609550,7031.956449
1487.943396,-1924.535449,-2528.115143,11325.150913
1487.943722,-3034.844362,-4673.182538,15322.262999
1487.944048,-4737.318029,-6818.249932,15840.407159
1487.944374,-4219.173869,-6894.859482,16876.695478
1487.944700,-2294.638420,-4749.792088,15988.448347
1487.945026,-666.185348,-306.438199,13767.830521
1487.945352,2368.659014,2374.896044,10436.903782
1487.945678,4737.318029,4060.306139,6957.935855
1487.946004,5181.441594,4673.182538,3182.885551
1487.946330,6217.729913,4979.620737,1554.432478
1487.946656,5995.668130,4903.011187,3404.947333
1487.946982,2442.679609,2374.896044,5995.668130
1487.947308,-888.247130,-1915.238745,7698.141797
1487.947634,-3108.864956,-4596.572988,12139.377449
1487.947960,-6217.729913,-6358.592633,15914.427753
1487.948286,-7920.203579,-6741.640382,15692.365970
1487.948612,-6365.771101,-5745.716235,14434.015869
1487.948938,-4885.359217,-3983.696590,14285.974681
1487.949264,-4145.153275,153.219100,12361.439231
1487.949590,-1184.329507,3983.696590,8068.244768
1487.949916,1776.494261,6128.763984,4367.215058
1487.950241,3034.844362,4826.401637,1850.514855
1487.950567,4441.235652,5056.230287,-74.020594
1487.950893,4663.297435,5975.544884,2368.659014
1487.951219,2072.576638,4290.134789,5921.647536
1487.951545,0.000000,-536.266849,9326.594869
1487.951871,-1850.514855,-3753.867940,12731.542202
1487.952197,-3108.864956,-3753.867940,14285.974681
1487.952523,-4293.194464,-2681.334243,14804.118840
1487.952849,-2442.679609,-2451.505594,14878.139434
1487.953175,-1480.411884,-1072.533697,15618.345376
1487.953501,518.144159,1608.800546,12805.562797
1487.953827,2960.823768,4979.620737,8216.285956
1487.954153,3775.050304,7814.174080,4737.318029
1487.954479,5255.462188,5362.668486,1406.391290
1487.954805,5699.585753,5439.278036,1554.432478
1487.955131,3701.029710,5362.668486,3701.029710
1487.955457,370.102971,2604.724693,7254.018232
1487.955783,-1702.473667,-1762.019645,10214.842000
1487.956108,-3627.009116,-5362.668486,12509.480420
1487.956434,-6217.729913,-6205.373534,14359.995275
1487.956760,-6143.709319,-4979.620737,15026.180623
1487.957086,-3182.885551,-2451.505594,15840.407159
1487.957412,-666.185348,-1072.533697,15396.283594
1487.957738,370.102971,1532.190996,11695.253884
1487.958064,2220.617826,4749.792088,6883.915261
1487.958390,5625.565159,6511.811733,3849.070898
1487.958716,8142.265362,6358.592633,3330.926739
1487.959042,7698.141797,7201.297681,2812.782580
1487.959368,5477.523971,5592.497135,5181.441594
1487.959694,2442.679609,1991.848295,8216.285956
1487.960020,0.000000,-2604.724693,10584.944971
1487.960346,-2960.823768,-4060.306139,14211.954086
1487.960672,-5847.626942,-4673.182538,15544.324782
1487.960998,-6143.709319,-3983.696590,15248.242405
1487.961324,-3330.926739,-3677.258390,14137.933492
1487.961650,-2146.597232,-1685.410096,12657.521608
1487.961975,-2516.700203,2681.334243,8734.430116
1487.962301,148.041188,6588.421283,3997.112087
1487.962627,3701.029710,7354.516781,2664.741391
1487.962953,4441.235652,6205.373534,1924.535449
1487.963279,3108.864956,5669.106685,370.102971
1487.963605,2368.659014,4443.353888,3108.864956
1487.963931,-370.102971,0.000000,6735.874072
1487.964257,-2590.720797,-2911.162892,11325.150913
1487.964583,-3849.070898,-4596.572988,14804.118840
1487.964909,-5403.503377,-5439.278036,15914.427753
1487.965235,-5847.626942,-5362.668486,15692.365970
1487.965561,-3923.091493,-3830.477490,15988.448347
1487.965887,-2368.659014,-842.705048,14063.912898
1487.966213,-1480.411884,2145.067394,9474.636058
1487.966539,1628.453072,4366.744339,5995.668130
1487.966865,4145.153275,5132.839837,4663.297435
1487.967191,3997.112087,4596.572988,1480.411884
1487.967517,3997.112087,4136.915689,1332.370696
1487.967842,2072.576638,2451.505594,5847.626942
1487.968168,-888.247130,-919.314598,9474.636058
1487.968494,-1924.535449,-4673.182538,11843.295072
1487.968820,-2812.782580,-6281.983084,15988.448347
1487.969146,-4219.173869,-6511.811733,15988.448347
1487.969472,-2294.638420,-5286.058936,14211.954086
1487.969798,370.102971,-2221.676944,15100.201217
1487.970124,1406.391290,306.438199,13101.645173
1487.970450,2664.741391,3677.258390,9474.636058
1487.970776,6365.771101,5439.278036,4663.297435
1487.971102,7994.224174,5745.716235,2368.659014
1487.971428,6217.729913,6358.592633,518.144159
1487.971754,5181.441594,5592.497135,1554.432478
1487.972080,2664.741391,1991.848295,6735.874072
1487.972406,-1332.370696,-2757.943793,9696.697840
1487.972732,-4737.318029,-5439.278036,13101.645173
1487.973058,-5995.668130,-6741.640382,14878.139434
1487.973384,-7105.977043,-6665.030833,14804.118840
1487.973709,-5773.606348,-4979.620737,15766.386565
1487.974035,-3478.967927,-2528.115143,15618.345376
1487.974361,-3034.844362,1915.238745,11843.295072
1487.974687,-148.041188,4596.572988,7698.141797
1487.975013,3478.967927,5439.278036,4737.318029
1487.975339,5255.462188,6665.030833,1998.556043
1487.975665,5255.462188,7584.345430,296.082377
1487.975991,5403.503377,6894.859482,3849.070898
1487.976317,3627.009116,4290.134789,7624.121203
1487.976643,444.123565,-229.828649,10214.842000
1487.976969,-2516.700203,-2757.943793,14063.912898
1487.977295,-4885.359217,-3600.648841,15988.448347
1487.977621,-6069.688724,-4060.306139,14952.160028
1487.977947,-4589.276840,-3370.820191,15618.345376
1487.978273,-3775.050304,-995.924147,14359.995275
1487.978599,-4219.173869,2528.115143,10436.903782
1487.978925,-1184.329507,4673.182538,5477.523971
1487.979251,1924.535449,6358.592633,2590.720797
1487.979576,2368.659014,6741.640382,-148.041188
1487.979902,2664.741391,6281.983084,-888.247130
1487.980228,3330.926739,6358.592633,2146.597232
1487.980554,444.123565,2451.505594,6661.853478
1487.980880,-2368.659014,-2221.676944,9918.759623
1487.981206,-3330.926739,-4366.744339,13249.686362
1487.981532,-4219.173869,-5132.839837,16136.489536
1487.981858,-3923.091493,-5209.449386,17024.736666
1487.982184,-2294.638420,-4213.525239,17468.860231
1487.982510,-814.226536,-1608.800546,15322.262999
1487.982836,592.164754,1378.971896,12065.356855
1487.983162,4737.318029,3524.039291,7328.038826
1487.983488,6735.874072,5132.839837,3849.070898
1487.983814,7031.956449,6588.421283,2664.741391
1487.984140,8512.368333,7048.078582,1776.494261
1487.984466,7105.977043,5898.935335,4367.215058
1487.984792,3034.844362,612.876398,7772.162391
1487.985118,-222.061783,-3830.477490,10807.006753
1487.985443,-2516.700203,-5209.449386,14211.954086
1487.985769,-4515.256246,-6741.640382,16432.571912
1487.986095,-5181.441594,-6894.859482,16580.613101
1487.986421,-4441.235652,-6052.154434,15618.345376
1487.986747,-3034.844362,-2528.115143,13915.871710
1487.987073,-1628.453072,919.314598,9918.759623
1487.987399,1406.391290,3753.867940,6513.812290
1487.987725,3552.988522,5439.278036,2886.803174
1487.988051,5551.544565,6052.154434,592.164754
1487.988377,6291.750507,6052.154434,592.164754
1487.988703,4737.318029,4443.353888,2960.823768
1487.989029,1184.329507,1915.238745,6883.915261
1487.989355,-1036.288319,-1991.848295,10066.800811
1487.989681,-3478.967927,-4060.306139,13915.871710
1487.990007,-4811.338623,-5439.278036,16062.468941
1487.990333,-5773.606348,-4903.011187,15618.345376
1487.990659,-4663.297435,-3217.601092,15026.180623
1487.990985,-3478.967927,-919.314598,13323.706956
1487.991310,-2220.617826,1455.581446,10362.883188
1487.991636,1110.308913,4826.401637,6069.688724
1487.991962,3034.844362,6588.421283,3404.947333
1487.992288,4219.173869,6128.763984,1554.432478
1487.992614,3701.029710,5669.106685,1554.432478
1487.992940,2368.659014,4749.792088,4885.359217
1487.993266,-962.267725,919.314598,9178.553681
1487.993592,-3478.967927,-2604.724693,11695.253884
1487.993918,-5551.544565,-5822.325785,14508.036463
1487.994244,-6587.832884,-6971.469032,16580.613101
1487.994570,-6883.915261,-5286.058936,16432.571912
1487.994896,-5477.523971,-2604.724693,16358.551318
1487.995222,-2516.700203,-995.924147,13841.851115
1487.995548,-592.164754,1838.629195,9104.533087
1487.995874,1850.514855,4979.620737,3627.009116
1487.996200,4515.256246,7354.516781,1258.350101
1487.996526,6439.791695,7967.393179,-0.000000
1487.996852,6661.853478,7201.297681,666.185348
1487.997177,5255.462188,4749.792088,5033.400406
1487.997503,2294.638420,1991.848295,8586.388927
1487.997829,-518.144159,-1532.190996,10732.986159
1487.998155,-1554.432478,-4596.572988,14952.160028
1487.998481,-3849.070898,-6052.154434,16284.530724
1487.998807,-4737.318029,-4596.572988,15988.448347
1487.999133,-1776.494261,-2681.334243,15396.283594
1487.999459,0.000000,306.438199,14063.912898
1487.999785,74.020594,3370.820191,10436.903782
1488.000111,2886.803174,5515.887586,4959.379811
1488.000437,5255.462188,6894.859482,2590.720797
1488.000763,5477.523971,5898.935335,-0.000000
1488.001089,3775.050304,5822.325785,1776.494261
1488.001415,1628.453072,4290.134789,5847.626942
1488.001741,-1258.350101,153.219100,8956.491898
1488.002067,-3256.906145,-4749.792088,12065.356855
1488.002393,-5107.421000,-6818.249932,15544.324782
1488.002719,-7994.224174,-5822.325785,14804.118840
1488.003044,-6291.750507,-4673.182538,14878.139434
1488.003370,-2738.761985,-3064.381992,16284.530724
1488.003696,-1628.453072,-995.924147,13397.727550
1488.004022,-740.205942,3217.601092,7476.080014
1488.004348,3775.050304,5515.887586,3108.864956
1488.004674,6661.853478,6665.030833,1924.535449
1488.005000,7179.997637,7124.688131,888.247130
1488.005326,7105.977043,7890.783629,2442.679609
1488.005652,4737.318029,4443.353888,5995.668130
1488.005978,1480.411884,-459.657299,9030.512492
1488.006304,-1258.350101,-4213.525239,12583.501014
1488.006630,-4219.173869,-5362.668486,15692.365970
1488.006956,-7105.977043,-5898.935335,15396.283594
1488.007282,-5255.462188,-5822.325785,15396.283594
1488.007608,-3701.029710,-5056.230287,15766.386565
1488.007934,-3701.029710,-1532.190996,12213.398043
1488.008260,-1924.535449,2911.162892,7254.018232
1488.008586,2516.700203,4519.963438,4589.276840
1488.008911,4367.215058,4366.744339,2368.659014
1488.009237,4737.318029,4903.011187,1554.432478
1488.009563,5403.503377,5056.230287,2442.679609
1488.009889,3404.947333,2298.286494,5699.585753
1488.010215,1184.329507,-2451.505594,10584.944971
1488.010541,-444.123565,-4213.525239,15470.304188
1488.010867,-3034.844362,-4136.915689,17172.777854
1488.011193,-3923.091493,-5515.887586,16506.592507
1488.011519,-2590.720797,-6052.154434,17172.777854
1488.011845,-1184.329507,-2911.162892,15544.324782
1488.012171,-148.041188,1915.238745,10732.986159
1488.012497,2664.741391,5209.449386,6143.709319
1488.012823,4959.379811,5132.839837,3478.967927
1488.013149,5773.606348,6128.763984,592.164754
1488.013475,6217.729913,7737.564530,-0.000000
1488.013801,4515.256246,8197.221829,2664.741391
1488.014127,1554.432478,2911.162892,5625.565159
1488.014453,-518.144159,-1762.019645,9104.533087
1488.014778,-3552.988522,-3447.429741,13249.686362
1488.015104,-7550.100608,-4519.963438,15174.221811
1488.015430,-8068.244768,-4903.011187,15100.201217
1488.015756,-5255.462188,-4290.134789,16580.613101
1488.016082,-4293.194464,-1225.752797,14137.933492
1488.016408,-3182.885551,3600.648841,9696.697840
1488.016734,-296.082377,5975.544884,6217.729913
1488.017060,3552.988522,5975.544884,3182.885551
1488.017386,4811.338623,6665.030833,962.267725
1488.017712,5921.647536,7354.516781,740.205942
1488.018038,4737.318029,6971.469032,3627.009116
1488.018364,3108.864956,3294.210641,7402.059420
1488.018690,888.247130,-1072.533697,12509.480420
1488.019016,-2442.679609,-4519.963438,14952.160028
1488.019342,-5995.668130,-4979.620737,15914.427753
1488.019668,-4515.256246,-5898.935335,15914.427753
1488.019994,-3182.885551,-4366.744339,16950.716072
1488.020320,-3627.009116,-1225.752797,14582.057057
1488.020646,-2220.617826,1685.410096,10807.006753
1488.020971,2072.576638,3753.867940,6143.709319
1488.021297,4737.318029,4903.011187,2886.803174
1488.021623,4589.276840,6358.592633,1110.308913
1488.021949,5181.441594,6665.030833,-222.061783
1488.022275,4589.276840,4366.744339,3627.009116
1488.022601,2072.576638,-842.705048,8660.409521
1488.022927,-1850.514855,-3677.258390,11325.150913
1488.023253,-4367.215058,-5056.230287,13175.665768
1488.023579,-4811.338623,-7048.078582,16358.551318
1488.023905,-4885.359217,-8044.002729,16950.716072
1488.024231,-4589.276840,-5975.544884,16506.592507
1488.024557,-4145.153275,-1915.238745,13915.871710
1488.024883,-962.267725,1685.410096,9844.739029
1488.025209,2664.741391,3600.648841,5625.565159
1488.025535,4737.318029,5132.839837,3478.967927
1488.025861,4589.276840,6818.249932,1332.370696
1488.026187,4959.379811,6894.859482,1036.288319
1488.026513,4737.318029,3600.648841,5403.503377
1488.026838,1480.411884,-919.314598,8068.244768
1488.027164,-2664.741391,-2834.553343,11177.109724
1488.027490,-3923.091493,-3600.648841,14952.160028
1488.027816,-3627.009116,-5286.058936,16506.592507
1488.028142,-3849.070898,-5592.497135,17098.757260
1488.028468,-3404.947333,-2834.553343,15618.345376
1488.028794,-1258.350101,1455.581446,12731.542202
1488.029120,1554.432478,4290.134789,8586.388927
1488.029446,3997.112087,5439.278036,4441.235652
1488.029772,5107.421000,7584.345430,2220.617826
1488.030098,5255.462188,8580.269578,-592.164754
1488.030424,5033.400406,8197.221829,444.123565
1488.030750,2516.700203,2911.162892,4811.338623
1488.031076,-2368.659014,-1225.752797,9030.512492
1488.031402,-5625.565159,-2834.553343,12287.418637
1488.031728,-6735.874072,-4826.401637,15026.180623
1488.032054,-7920.203579,-7890.783629,15470.304188
1488.032380,-8290.306550,-7507.735880,14804.118840
1488.032705,-5921.647536,-3064.381992,13915.871710
1488.033031,-2960.823768,1762.019645,12287.418637
1488.033357,814.226536,4290.134789,9104.533087
1488.033683,4367.215058,5362.668486,4737.318029
1488.034009,6587.832884,7201.297681,2812.782580
1488.034335,7994.224174,8810.098227,666.185348
1488.034661,9178.553681,7967.393179,2886.803174
1488.034987,6661.853478,4060.306139,8068.244768
1488.035313,2886.803174,-995.924147,11325.150913
1488.035639,0.000000,-3217.601092,13841.851115
1488.035965,-1998.556043,-5669.106685,17172.777854
1488.036291,-4737.318029,-7048.078582,17024.736666
1488.036617,-5329.482782,-5286.058936,15544.324782
1488.036943,-2812.782580,-2221.676944,15470.304188
1488.037269,-962.267725,1149.143247,11473.192101
1488.037595,592.164754,3600.648841,5921.647536
1488.037921,1850.514855,4673.182538,2960.823768
1488.038247,2960.823768,6281.983084,518.144159
1488.038572,4663.297435,6971.469032,-740.205942
1488.038898,4367.215058,5669.106685,3330.926739
1488.039224,888.247130,1915.238745,7031.956449
1488.039550,-2294.638420,-2221.676944,8216.285956
1488.039876,-3182.885551,-4903.011187,12657.521608
1488.040202,-4367.215058,-6665.030833,16358.551318
1488.040528,-6365.771101,-5822.325785,16284.530724
1488.040854,-3701.029710,-3983.696590,16506.592507
1488.041180,-962.267725,-1991.848295,15840.407159
1488.041506,-518.144159,1149.143247,11769.274478
1488.041832,2220.617826,3753.867940,7105.977043
1488.042158,5107.421000,7431.126331,3330.926739
1488.042484,6291.750507,7890.783629,296.082377
1488.042810,7698.141797,7354.516781,740.205942
1488.043136,5551.544565,6281.983084,4367.215058
1488.043462,740.205942,3064.381992,7550.100608
1488.043788,-2960.823768,-1685.410096,10584.944971
1488.044114,-4219.173869,-6358.592633,14878.139434
1488.044439,-7254.018232,-7431.126331,15840.407159
1488.044765,-9326.594869,-6818.249932,14508.036463
1488.045091,-6661.853478,-5209.449386,15100.201217
1488.045417,-3997.112087,-2451.505594,14656.077652
1488.045743,-2886.803174,1149.143247,10881.027347
1488.046069,0.000000,4596.572988,5551.544565
1488.046395,3404.947333,6281.983084,2368.659014
1488.046721,5699.585753,6511.811733,222.061783
1488.047047,6661.853478,7201.297681,1036.288319
1488.047373,5477.523971,5592.497135,4589.276840
1488.047699,1998.556043,1838.629195,7994.224174
1488.048025,74.020594,-3140.991542,11621.233289
1488.048351,-1776.494261,-5439.278036,16432.571912
1488.048677,-4737.318029,-5745.716235,16580.613101
1488.049003,-5033.400406,-5592.497135,15840.407159
1488.049329,-2664.741391,-3447.429741,16136.489536
1488.049654,-222.061783,-536.266849,14063.912898
1488.049980,592.164754,3370.820191,9548.656652
1488.050306,3256.906145,5745.716235,4663.297435
1488.050632,5477.523971,6971.469032,2664.741391
1488.050958,6291.750507,7507.735880,2442.679609
1488.051284,5329.482782,6741.640382,2590.720797
1488.051610,2590.720797,4290.134789,5625.565159
1488.051936,-666.185348,-1378.971896,8216.285956
1488.052262,-2664.741391,-4673.182538,11769.274478
1488.052588,-4663.297435,-5286.058936,14656.077652
1488.052914,-7772.162391,-5822.325785,15470.304188
1488.053240,-7179.997637,-5745.716235,15988.448347
1488.053566,-3330.926739,-3600.648841,16432.571912
1488.053892,-1702.473667,0.000000,13249.686362
1488.054218,74.020594,3907.087040,8586.388927
1488.054543,2664.741391,5822.325785,3330.926739
1488.054869,5551.544565,6205.373534,1332.370696
1488.055195,6883.915261,7048.078582,962.267725
1488.055521,6291.750507,7277.907231,1184.329507
1488.055847,3108.864956,4060.306139,5033.400406
1488.056173,444.123565,-689.485948,9252.574275
1488.056499,-1258.350101,-3677.258390,12509.480420
1488.056825,-4589.276840,-4903.011187,15248.242405
1488.057151,-6957.935855,-5745.716235,15322.262999
1488.057477,-5921.647536,-4826.401637,15544.324782
1488.057803,-2886.803174,-2681.334243,15174.221811
1488.058129,-2146.597232,995.924147,12953.603985
1488.058455,-888.247130,4366.744339,7105.977043
1488.058781,2590.720797,5669.106685,4219.173869
1488.059107,5033.400406,7048.078582,3256.906145
1488.059432,5773.606348,6435.202183,1110.308913
1488.059758,4293.194464,6205.373534,2368.659014
1488.060084,1924.535449,2451.505594,6513.812290
1488.060410,-666.185348,-2528.115143,9918.759623
1488.060736,-3627.009116,-4596.572988,13323.706956
1488.061062,-6217.729913,-6205.373534,16210.510130
1488.061388,-6513.812290,-6894.859482,16802.674883
1488.061714,-4145.153275,-5975.544884,16136.489536
1488.062040,-1480.411884,-2757.943793,15840.407159
1488.062366,-222.061783,1762.019645,12583.501014
1488.062692,2442.679609,5362.668486,7105.977043
1488.063018,6883.915261,6665.030833,3182.885551
1488.063344,9030.512492,6358.592633,2294.638420
1488.063670,7698.141797,7354.516781,222.061783
1488.063996,5625.565159,7201.297681,1924.535449
1488.064321,4737.318029,2374.896044,6587.832884
1488.064647,814.226536,-2834.553343,10584.944971
1488.064973,-3849.070898,-5132.839837,13989.892304
1488.065299,-6069.688724,-6052.154434,15470.304188
1488.065625,-6513.812290,-6894.859482,15396.283594
1488.065951,-5107.421000,-6052.154434,16580.613101
1488.066277,-3256.906145,-1762.019645,15544.324782
1488.066603,-2146.597232,3294.210641,10955.047942
1488.066929,1554.432478,5209.449386,5181.441594
1488.067255,5403.503377,6511.811733,3330.926739
1488.067581,5699.585753,8044.002729,1332.370696
1488.067907,4811.338623,9346.365076,-296.082377
1488.068233,4737.318029,7124.688131,2072.576638
1488.068559,2738.761985,306.438199,7105.977043
1488.068885,-2220.617826,-3753.867940,10732.986159
1488.069210,-5329.482782,-3600.648841,14211.954086
1488.069536,-6661.853478,-4826.401637,16728.654289
1488.069862,-6661.853478,-8656.879127,17542.880825
1488.070188,-5181.441594,-6358.592633,17616.901420
1488.070514,-3330.926739,-1838.629195,14804.118840
1488.070840,-1628.453072,2757.943793,10436.903782
1488.071166,1924.535449,5362.668486,5477.523971
1488.071492,5255.462188,6205.373534,3330.926739
1488.071818,6883.915261,7584.345430,2072.576638
1488.072144,5921.647536,8580.269578,-518.144159
1488.072470,4811.338623,5286.058936,1850.514855
1488.072796,1702.473667,383.047749,6661.853478
1488.073122,-2960.823768,-2757.943793,10881.027347
1488.073448,-4515.256246,-4749.792088,14211.954086
1488.073774,-7031.956449,-6894.859482,17172.777854
1488.074099,-7402.059420,-9193.145976,16432.571912
1488.074425,-5255.462188,-5669.106685,17616.901420
1488.074751,-2442.679609,0.000000,14656.077652
1488.075077,-518.144159,3294.210641,10288.862594
1488.075403,3552.988522,3907.087040,5995.668130
1488.075729,5699.585753,5822.325785,3256.906145
1488.076055,4959.379811,8810.098227,-0.000000
1488.076381,6735.874072,7737.564530,-148.041188
1488.076707,5181.441594,3294.210641,3997.112087
1488.077033,148.041188,-1608.800546,7550.100608
1488.077359,-2886.803174,-3753.867940,10807.006753
1488.077685,-4441.235652,-4749.792088,15988.448347
1488.078011,-6661.853478,-7354.516781,18357.107362
1488.078337,-7031.956449,-7431.126331,17838.963202
1488.078663,-3849.070898,-4443.353888,16136.489536
1488.078988,-1480.411884,-153.219100,12879.583391
1488.079314,740.205942,3677.258390,10066.800811
1488.079640,4663.297435,6511.811733,5329.482782
1488.079966,6439.791695,8273.831378,2294.638420
1488.080292,6439.791695,8273.831378,-444.123565
1488.080618,6809.894666,6971.469032,-370.102971
1488.080944,4367.215058,4596.572988,3182.885551
1488.081270,222.061783,0.000000,6809.894666
1488.081596,-3182.885551,-2451.505594,11547.212695
1488.081922,-4811.338623,-5132.839837,15544.324782
1488.082248,-6587.832884,-7354.516781,15766.386565
1488.082574,-6661.853478,-6741.640382,16284.530724
1488.082900,-5181.441594,-3370.820191,15988.448347
1488.083226,-2960.823768,1378.971896,13397.727550
1488.083552,1332.370696,4213.525239,10436.903782
1488.083877,3923.091493,5822.325785,5181.441594
1488.084203,4589.276840,6971.469032,518.144159
1488.084529,5847.626942,7814.174080,-1332.370696
1488.084855,6513.812290,7201.297681,888.247130
1488.085181,3849.070898,4673.182538,5921.647536
1488.085507,0.000000,153.219100,9252.574275
1488.085833,-2368.659014,-3524.039291,13471.748144
1488.086159,-4663.297435,-6894.859482,15692.365970
1488.086485,-6587.832884,-7660.954980,15840.407159
1488.086811,-5255.462188,-6511.811733,17098.757260
1488.087137,-2664.741391,-2681.334243,17098.757260
1488.087463,-814.226536,995.924147,14211.954086
1488.087789,1628.453072,3524.039291,10140.821405
1488.088115,3775.050304,4826.401637,4959.379811
1488.088441,5921.647536,7354.516781,2220.617826
1488.088766,8142.265362,7584.345430,-74.020594
1488.089092,6957.935855,6741.640382,2072.576638
1488.089418,3108.864956,3064.381992,3923.091493
1488.089744,-518.144159,-1378.971896,6957.935855
1488.090070,-2886.803174,-4213.525239,11695.253884
1488.090396,-5699.585753,-5898.935335,15840.407159
1488.090722,-7846.182985,-5056.230287,17172.777854
1488.091048,-5625.565159,-6052.154434,16580.613101
1488.091374,-4367.215058,-4519.963438,15692.365970
1488.091700,-2442.679609,-1608.800546,13027.624579
1488.092026,-444.123565,4136.915689,8734.430116
1488.092352,2886.803174,7967.393179,3330.926739
1488.092678,5773.606348,7354.516781,888.247130
1488.093004,7698.141797,6435.202183,-1036.288319
1488.093330,5847.626942,7354.516781,444.123565
1488.093655,2442.679609,5439.278036,4589.276840
1488.093981,222.061783,0.000000,8142.265362
1488.094307,-2294.638420,-4060.306139,13249.686362
1488.094633,-4663.297435,-6128.763984,16580.613101
1488.094959,-6439.791695,-6358.592633,16506.592507
1488.095285,-4737.318029,-5056.230287,16580.613101
1488.095611,-2516.700203,-3907.087040,17172.777854
1488.095937,-1480.411884,536.266849,15248.242405
1488.096263,1184.329507,4903.011187,8808.450710
1488.096589,4071.132681,5669.106685,3775.050304
1488.096915,6143.709319,5209.449386,518.144159
1488.097241,6513.812290,6435.202183,-222.061783
1488.097567,5625.565159,7431.126331,740.205942
1488.097893,3182.885551,4596.572988,5033.400406
1488.098219,-592.164754,-2068.457845,9992.780217
1488.098544,-3627.009116,-5822.325785,13323.706956
1488.098870,-5773.606348,-6281.983084,15840.407159
1488.099196,-7328.038826,-6205.373534,15544.324782
1488.099522,-6217.729913,-5439.278036,16802.674883
1488.099848,-3034.844362,-3524.039291,16210.510130
1488.100174,-1850.514855,306.438199,12139.377449
1488.100500,0.000000,4443.353888,7920.203579
1488.100826,3849.070898,5975.544884,3775.050304
1488.101152,6513.812290,7277.907231,1406.391290
1488.101478,6735.874072,8273.831378,-0.000000
1488.101804,4737.318029,6588.421283,444.123565
1488.102130,2368.659014,2834.553343,4811.338623
1488.102456,-370.102971,-1608.800546,9474.636058
1488.102782,-3034.844362,-3983.696590,14434.015869
1488.103108,-5477.523971,-6052.154434,16358.551318
1488.103433,-6291.750507,-6665.030833,17468.860231
1488.103759,-4737.318029,-5439.278036,19023.292709
1488.104085,-3034.844362,-2221.676944,17912.983796
1488.104411,-2368.659014,1149.143247,12361.439231
1488.104737,518.144159,3753.867940,6883.915261
1488.105063,3849.070898,4979.620737,2664.741391
1488.105389,5699.585753,7507.735880,-74.020594
1488.105715,5181.441594,8963.317327,-962.267725
1488.106041,3849.070898,6665.030833,1850.514855
1488.106367,1480.411884,1455.581446,7031.956449
1488.106693,-814.226536,-3217.601092,9400.615463
1488.107019,-4441.235652,-4213.525239,13397.727550
1488.107345,-6735.874072,-5975.544884,14804.118840
1488.107671,-5921.647536,-6511.811733,16358.551318
1488.107997,-4071.132681,-4903.011187,18653.189738
1488.108322,-3404.947333,-1991.848295,16358.551318
1488.108648,-2368.659014,2298.286494,11103.089130
1488.108974,2442.679609,5132.839837,6587.832884
1488.109300,5847.626942,6358.592633,3256.906145
1488.109626,6957.935855,7354.516781,-592.164754
1488.109952,7105.977043,8273.831378,-1184.329507
1488.110278,5847.626942,6435.202183,3330.926739
1488.110604,2516.700203,2374.896044,7031.956449
1488.110930,-1036.288319,-1608.800546,9770.718434
1488.111256,-3552.988522,-4826.401637,14878.139434
1488.111582,-5033.400406,-7124.688131,16802.674883
1488.111908,-4515.256246,-7048.078582,17024.736666
1488.112234,-3552.988522,-4903.011187,18283.086767
1488.112560,-3849.070898,-1838.629195,15174.221811
1488.112886,-1998.556043,1685.410096,10658.965565
1488.113211,3256.906145,3217.601092,6143.709319
1488.113537,5477.523971,5362.668486,4515.256246
1488.113863,4885.359217,7354.516781,-74.020594
1488.114189,5773.606348,7584.345430,-74.020594
1488.114515,5107.421000,4519.963438,3923.091493
1488.114841,2220.617826,-536.266849,7402.059420
1488.115167,-1776.494261,-2374.896044,11473.192101
1488.115493,-3552.988522,-3677.258390,14137.933492
1488.115819,-4885.359217,-4519.963438,15692.365970
1488.116145,-4219.173869,-5898.935335,17024.736666
1488.116471,-3701.029710,-4213.525239,17764.942608
1488.116797,-3404.947333,-306.438199,13989.892304
1488.117123,-1036.288319,2604.724693,9844.739029
1488.117449,3108.864956,4366.744339,5551.544565
1488.117775,4145.153275,6665.030833,1924.535449
1488.118100,5255.462188,8120.612279,-370.102971
1488.118426,5699.585753,7890.783629,-444.123565
1488.118752,3552.988522,4519.963438,2442.679609
1488.119078,296.082377,306.438199,6735.874072
1488.119404,-2886.803174,-919.314598,11769.274478
1488.119730,-4885.359217,-2374.896044,14656.077652
1488.120056,-6513.812290,-5975.544884,16506.592507
1488.120382,-5847.626942,-7431.126331,16876.695478
1488.120708,-5403.503377,-4366.744339,17172.777854
1488.121034,-3627.009116,842.705048,14211.954086
1488.121360,814.226536,3677.258390,10436.903782
1488.121686,3552.988522,3447.429741,5921.647536
1488.122012,3923.091493,4596.572988,1332.370696
1488.122338,6069.688724,7737.564530,-1406.391290
1488.122664,6809.894666,9269.755526,888.247130
1488.122989,3997.112087,3907.087040,4737.318029
1488.123315,222.061783,-1378.971896,8142.265362
1488.123641,-2146.597232,-3830.477490,12731.542202
1488.123967,-4293.194464,-5515.887586,15766.386565
1488.124293,-5995.668130,-6894.859482,16654.633695
1488.124619,-5181.441594,-6588.421283,17172.777854
1488.124945,-4145.153275,-3983.696590,16802.674883
1488.125271,-2664.741391,-536.266849,13397.727550
1488.125597,1110.308913,2221.676944,9474.636058
1488.125923,2368.659014,3600.648841,4663.297435
1488.126249,4145.153275,5745.716235,518.144159
1488.126575,6069.688724,7737.564530,-222.061783
1488.126901,6513.812290,7814.174080,1850.514855
1488.127227,3923.091493,3830.477490,4959.379811
1488.127553,74.020594,-536.266849,8068.244768
1488.127878,-2072.576638,-3064.381992,11251.130318
1488.128204,-3330.926739,-4826.401637,15248.242405
1488.128530,-4441.235652,-5898.935335,17172.777854
1488.128856,-4885.359217,-4443.353888,18135.045579
1488.129182,-4441.235652,-2834.553343,16284.530724
1488.129508,-1850.514855,-842.705048,12805.562797
1488.129834,222.061783,2068.457845,8660.409521
1488.130160,2664.741391,5132.839837,4145.153275
1488.130486,4293.194464,7201.297681,592.164754
1488.130812,5551.544565,7507.735880,-0.000000
1488.131138,4589.276840,6128.763984,2146.597232
1488.131464,1628.453072,4366.744339,5255.462188
1488.131790,-1258.350101,459.657299,7476.080014
1488.132116,-2368.659014,-2757.943793,12065.356855
1488.132442,-4737.318029,-4903.011187,16062.468941
1488.132767,-5995.668130,-5286.058936,16062.468941
1488.133093,-5255.462188,-4366.744339,16802.674883
1488.133419,-3478.967927,-3370.820191,15618.345376
1488.133745,-2516.700203,-612.876398,12213.398043
1488.134071,-592.164754,3600.648841,7550.100608
1488.134397,3256.906145,6205.373534,4219.173869
1488.134723,5551.544565,7201.297681,1332.370696
1488.135049,6661.853478,6894.859482,-0.000000
1488.135375,5329.482782,6281.983084,1776.494261
1488.135701,3034.844362,4060.306139,5107.421000
1488.136027,222.061783,1225.752797,9252.574275
1488.136353,-1258.350101,-2604.724693,14137.933492
1488.136679,-3997.112087,-5592.497135,16506.592507
1488.137005,-5329.482782,-5439.278036,15026.180623
1488.137331,-4145.153275,-4519.963438,16432.571912
1488.137656,-2220.617826,-2987.772442,15766.386565
1488.137982,-1110.308913,0.000000,11843.295072
1488.138308,1110.308913,2604.724693,7920.203579
1488.138634,4293.194464,4443.353888,4663.297435
1488.138960,5847.626942,6128.763984,2146.597232
1488.139286,6883.915261,7354.516781,962.267725
1488.139612,5625.565159,5669.106685,2516.700203
1488.139938,2368.659014,1608.800546,6069.688724
1488.140264,888.247130,-1991.848295,10140.821405
1488.140590,-1258.350101,-3370.820191,14656.077652
1488.140916,-5107.421000,-4673.182538,15840.407159
1488.141242,-6439.791695,-6128.763984,15322.262999
1488.141568,-4367.215058,-6052.154434,15988.448347
1488.141894,-2886.803174,-3983.696590,15026.180623
1488.142220,-2368.659014,919.314598,10807.006753
1488.142545,74.020594,3217.601092,6217.729913
1488.142871,2812.782580,4519.963438,3478.967927
1488.143197,5181.441594,6205.373534,1332.370696
1488.143523,5921.647536,7507.735880,962.267725
1488.143849,3775.050304,5209.449386,3256.906145
1488.144175,1184.329507,2068.457845,7031.956449
1488.144501,518.144159,-1072.533697,10955.047942
1488.144827,-2146.597232,-2528.115143,14359.995275
1488.145153,-5329.482782,-4060.306139,14656.077652
1488.145479,-5699.585753,-5592.497135,14952.160028
1488.145805,-4589.276840,-4903.011187,16506.592507
1488.146131,-3330.926739,-1838.629195,15396.283594
1488.146457,-2442.679609,2451.505594,10732.986159
1488.146783,370.102971,3370.820191,7328.038826
1488.147109,2812.782580,4060.306139,3034.844362
1488.147434,4663.297435,5975.544884,222.061783
1488.147760,5329.482782,7201.297681,1406.391290
1488.148086,3108.864956,6128.763984,4293.194464
1488.148412,1998.556043,2221.676944,8660.409521
1488.148738,740.205942,-1762.019645,11621.233289
1488.149064,-2960.823768,-3753.867940,13841.851115
1488.149390,-5847.626942,-4903.011187,14137.933492
1488.149716,-4367.215058,-5515.887586,15026.180623
1488.150042,-2590.720797,-3753.867940,17024.736666
1488.150368,-2886.803174,-229.828649,13915.871710
1488.150694,-740.205942,1455.581446,9104.533087
1488.151020,2664.741391,2681.334243,5847.626942
1488.151346,3997.112087,4903.011187,2886.803174
1488.151672,4959.379811,7277.907231,740.205942
1488.151998,5847.626942,7431.126331,1258.350101
1488.152324,5033.400406,3983.696590,4663.297435
1488.152650,1850.514855,536.266849,9104.533087
1488.152976,-1480.411884,-1378.971896,11547.212695
1488.153302,-3923.091493,-3600.648841,14656.077652
1488.153628,-5181.441594,-6435.202183,15988.448347
1488.153954,-4071.132681,-6511.811733,17616.901420
1488.154280,-3997.112087,-2911.162892,17394.839637
1488.154606,-3330.926739,76.609550,13027.624579
1488.154932,-1110.308913,1838.629195,8290.306550
1488.155258,2664.741391,2451.505594,5181.441594
1488.155584,3923.091493,5209.449386,2590.720797
1488.155910,5181.441594,8044.002729,1554.432478
1488.156236,4663.297435,7124.688131,3034.844362
1488.156562,2590.720797,2374.896044,6217.729913
1488.156888,0.000000,-1608.800546,9030.512492
1488.157214,-3330.926739,-1991.848295,11547.212695
1488.157540,-6069.688724,-3447.429741,13841.851115
1488.157866,-6217.729913,-6205.373534,15174.221811
1488.158192,-4737.318029,-5822.325785,16062.468941
1488.158518,-4737.318029,-2528.115143,14582.057057
1488.158844,-3552.988522,842.705048,10066.800811
1488.159170,148.041188,2911.162892,6809.894666
1488.159496,3701.029710,5439.278036,4737.318029
1488.159822,3552.988522,7277.907231,2368.659014
1488.160148,5477.523971,6741.640382,-148.041188
1488.160474,4885.359217,5745.716235,2146.597232
1488.160800,3552.988522,1608.800546,6365.771101
1488.161126,148.041188,0.000000,9992.780217
1488.161452,-1924.535449,-689.485948,13545.768739
1488.161778,-3997.112087,-3830.477490,16950.716072
1488.162104,-4515.256246,-7354.516781,16432.571912
1488.162430,-3775.050304,-6741.640382,15692.365970
1488.162756,-3552.988522,-2145.067394,14952.160028
1488.163082,-1628.453072,1378.971896,12139.377449
1488.163408,1554.432478,3753.867940,9030.512492
1488.163734,4589.276840,3294.210641,5033.400406
1488.164060,5329.482782,4826.401637,1332.370696
1488.164386,5625.565159,8197.221829,-0.000000
1488.164712,6217.729913,7354.516781,2886.803174
1488.165038,4145.153275,2681.334243,6291.750507
1488.165364,592.164754,-1302.362347,9770.718434
1488.165690,-2738.761985,-2834.553343,13323.706956
1488.166016,-3552.988522,-4673.182538,14878.139434
1488.166342,-4367.215058,-5439.278036,15840.407159
1488.166668,-3775.050304,-5515.887586,16062.468941
1488.166994,-2368.659014,-2451.505594,14359.995275
1488.167320,222.061783,1225.752797,10881.027347
1488.167646,2960.823768,3600.648841,7254.018232
1488.167972,5107.421000,5362.668486,4071.132681
1488.168298,5921.647536,7507.735880,1110.308913
1488.168624,6809.894666,8044.002729,1480.411884
1488.168950,5847.626942,5209.449386,3330.926739
1488.169276,1554.432478,1608.800546,7550.100608
1488.169602,-3478.967927,-1455.581446,10288.862594
1488.169928,-5107.421000,-3064.381992,13915.871710
1488.170254,-6439.791695,-5669.106685,17098.757260
1488.170580,-7846.182985,-7277.907231,17024.736666
1488.170906,-7476.080014,-5592.497135,15692.365970
1488.171232,-5033.400406,-2681.334243,13397.727550
1488.171558,-2368.659014,536.266849,10362.883188
1488.171884,222.061783,3753.867940,6513.812290
1488.172210,2812.782580,6435.202183,3552.988522
1488.172536,5033.400406,7201.297681,-370.102971
1488.172862,6291.750507,6894.859482,666.185348
1488.173188,4811.338623,5439.278036,4811.338623
1488.173514,1332.370696,2221.676944,7846.182985
1488.173840,-1110.308913,-229.828649,10510.924376
1488.174166,-2072.576638,-4903.011187,14434.015869
1488.174492,-4811.338623,-6741.640382,16358.551318
1488.174818,-5477.523971,-5362.668486,15914.427753
1488.175144,-4071.132681,-2604.724693,15914.427753
1488.175470,-2516.700203,-1302.362347,13323.706956
1488.175796,-222.061783,689.485948,8956.491898
1488.176122,2812.782580,4060.306139,5477.523971
1488.176448,4441.235652,6971.469032,1702.473667
1488.176774,5403.503377,8197.221829,-148.041188
1488.177100,6217.729913,6358.592633,1998.556043
1488.177426,3849.070898,3447.429741,5477.523971
1488.177752,148.041188,842.705048,8142.265362
1488.178078,-1702.473667,-1991.848295,11621.233289
1488.178404,-3330.926739,-4903.011187,16062.468941
1488.178730,-5921.647536,-6205.373534,16432.571912
1488.179056,-5181.441594,-5822.325785,15766.386565
1488.179382,-3108.864956,-4443.353888,15840.407159
1488.179708,-2146.597232,-1302.362347,12879.583391
1488.180034,666.185348,3064.381992,9844.739029
1488.180360,4589.276840,5592.497135,6661.853478
1488.180686,6365.771101,6435.202183,1776.494261
1488.181012,7402.059420,6435.202183,-222.061783
1488.181338,7031.956449,5745.716235,1924.535449
1488.181664,3775.050304,4366.744339,5847.626942
1488.181990,148.041188,1532.190996,10140.821405
1488.182316,-1480.411884,-3064.381992,14359.995275
1488.182642,-4219.173869,-6665.030833,16506.592507
1488.182968,-6735.874072,-7660.954980,15026.180623
1488.183294,-5921.647536,-5056.230287,15692.365970
1488.183620,-3701.029710,-2681.334243,15766.386565
1488.183946,-3404.947333,-306.438199,12583.501014
1488.184272,-296.082377,2221.676944,8290.306550
1488.184598,2516.700203,4903.011187,4145.153275
1488.184924,3552.988522,6894.859482,370.102971
1488.185250,5625.565159,6741.640382,-370.102971
1488.185576,5033.400406,6281.983084,1776.494261
1488.185902,1036.288319,3217.601092,6291.750507
1488.186228,-1332.370696,-153.219100,9770.718434
1488.186554,-2812.782580,-3830.477490,13027.624579
1488.186880,-6365.771101,-5822.325785,15618.345376
1488.187206,-7920.203579,-6052.154434,15470.304188
1488.187532,-4885.359217,-3907.087040,15692.365970
1488.187858,-2812.782580,-2221.676944,15396.283594
1488.188184,-1998.556043,306.438199,11991.336260
1488.188510,148.041188,4060.306139,8068.244768
1488.188836,3775.050304,6435.202183,3182.885551
1488.189162,6069.688724,6971.469032,1184.329507
1488.189488,7254.018232,6435.202183,740.205942
1488.189814,5329.482782,6435.202183,3627.009116
1488.190140,3034.844362,4213.525239,7920.203579
1488.190466,1110.308913,-229.828649,11547.212695
1488.190792,-1850.514855,-4903.011187,14063.912898
1488.191118,-4811.338623,-6741.640382,14508.036463
1488.191444,-5181.441594,-5898.935335,14952.160028
1488.191771,-3330.926739,-3600.648841,16654.633695
1488.192097,-2146.597232,-1455.581446,15914.427753
1488.192423,-1036.288319,919.314598,11695.253884
1488.192749,1406.391290,3294.210641,6809.894666
1488.193075,4293.194464,5362.668486,2294.638420
1488.193401,5995.668130,7354.516781,666.185348
1488.193727,6365.771101,7354.516781,740.205942
1488.194053,4589.276840,6052.154434,3256.906145
1488.194379,2294.638420,2221.676944,6217.729913
1488.194705,-296.082377,-1915.238745,10362.883188
1488.195031,-3627.009116,-3524.039291,13989.892304
1488.195357,-5699.585753,-4519.963438,15692.365970
1488.195683,-4737.318029,-5362.668486,15470.304188
1488.196009,-2886.803174,-4673.182538,16580.613101
1488.196335,-1998.556043,-1915.238745,15248.242405
1488.196661,-592.164754,2374.896044,11029.068536
1488.196987,2220.617826,5362.668486,5551.544565
1488.197313,5329.482782,5669.106685,2442.679609
1488.197639,6957.935855,5898.935335,1332.370696
1488.197965,5773.606348,7584.345430,1332.370696
1488.198291,3404.947333,6358.592633,4515.256246
1488.198617,592.164754,612.876398,8068.244768
1488.198943,-2664.741391,-3907.087040,10732.986159
1488.199269,-6735.874072,-6358.592633,13545.768739
1488.199595,-7920.203579,-7124.688131,15322.262999
1488.199921,-6217.729913,-6971.469032,16506.592507
1488.200247,-5181.441594,-5362.668486,17542.880825
1488.200573,-4145.153275,-2451.505594,14359.995275
1488.200899,-1554.432478,2145.067394,8882.471304
1488.201225,3034.844362,4290.134789,4293.194464
1488.201551,5773.606348,5592.497135,1924.535449
1488.201877,6365.771101,7354.516781,518.144159
1488.202203,5847.626942,8656.879127,1480.411884
1488.202529,5107.421000,4903.011187,4737.318029
1488.202855,1998.556043,-919.314598,8512.368333
1488.203181,-2960.823768,-3907.087040,11917.315666
1488.203507,-5921.647536,-4596.572988,15100.201217
1488.203833,-6661.853478,-6435.202183,16506.592507
1488.204159,-5329.482782,-7660.954980,17098.757260
1488.204485,-4293.194464,-5439.278036,17764.942608
1488.204811,-3108.864956,-1455.581446,12731.542202
1488.205137,-518.144159,3447.429741,8512.368333
1488.205463,3923.091493,5592.497135,5403.503377
1488.205789,5995.668130,6358.592633,2220.617826
1488.206115,6809.894666,9116.536426,-518.144159
1488.206441,7476.080014,9116.536426,-0.000000
1488.206767,5107.421000,5056.230287,4959.379811
1488.207093,592.164754,459.657299,8956.491898
1488.207419,-2960.823768,-2528.115143,12731.542202
1488.207745,-4589.276840,-5056.230287,15988.448347
1488.208071,-5551.544565,-7737.564530,15988.448347
1488.208397,-5551.544565,-6435.202183,16432.571912
1488.208723,-4145.153275,-2911.162892,15470.304188
1488.209049,-2886.803174,1225.752797,11769.274478
1488.209375,370.102971,4060.306139,7328.038826
1488.209701,4663.297435,5822.325785,3552.988522
1488.210027,5107.421000,7814.174080,592.164754
1488.210353,5773.606348,9269.755526,-1480.411884
1488.210679,5477.523971,8044.002729,740.205942
1488.211005,2442.679609,3294.210641,6291.750507
1488.211331,-1924.535449,-1532.190996,9252.574275
1488.211657,-4219.173869,-3294.210641,12953.603985
1488.211983,-5699.585753,-5515.887586,17320.819043
1488.212309,-7254.018232,-7660.954980,17468.860231
1488.212635,-6809.894666,-6435.202183,17394.839637
1488.212961,-4367.215058,-4060.306139,16062.468941
1488.213287,-1998.556043,536.266849,11695.253884
1488.213613,2146.597232,4366.744339,8216.285956
1488.213939,4737.318029,6205.373534,4515.256246
1488.214265,5329.482782,7890.783629,592.164754
1488.214591,5995.668130,8273.831378,-370.102971
1488.214917,7254.018232,5898.935335,2960.823768
1488.215243,3997.112087,3294.210641,7105.977043
1488.215569,-518.144159,0.000000,9252.574275
1488.215895,-2368.659014,-3983.696590,13989.892304
1488.216221,-4441.235652,-6358.592633,17172.777854
1488.216547,-5995.668130,-7124.688131,16802.674883
1488.216873,-5477.523971,-5822.325785,17024.736666
1488.217199,-3627.009116,-3524.039291,14063.912898
1488.217525,-1628.453072,0.000000,10732.986159
1488.217851,2368.659014,3064.381992,8216.285956
1488.218177,4737.318029,6128.763984,4293.194464
1488.218503,5033.400406,6511.811733,-814.226536
1488.218829,6735.874072,4826.401637,-1554.432478
1488.219155,6291.750507,4290.134789,2368.659014
1488.219481,2590.720797,3217.601092,7031.956449
1488.219807,-518.144159,-229.828649,9992.780217
1488.220133,-2368.659014,-4596.572988,14434.015869
1488.220459,-4885.359217,-7737.564530,16876.695478
1488.220785,-5329.482782,-7431.126331,16210.510130
1488.221111,-3997.112087,-4366.744339,17616.901420
1488.221437,-2442.679609,-2451.505594,15914.427753
1488.221763,-814.226536,-229.828649,11843.295072
1488.222089,2368.659014,3064.381992,6587.832884
1488.222415,3627.009116,6205.373534,3034.844362
1488.222741,4071.132681,7967.393179,444.123565
1488.223067,5329.482782,6435.202183,-296.082377
1488.223393,3997.112087,4749.792088,3034.844362
1488.223719,0.000000,2451.505594,7328.038826
1488.224045,-2664.741391,0.000000,11029.068536
1488.224371,-4145.153275,-4213.525239,14211.954086
1488.224697,-6809.894666,-6894.859482,16062.468941
1488.225023,-6661.853478,-6358.592633,16728.654289
1488.225349,-4145.153275,-2604.724693,16950.716072
1488.225675,-1924.535449,0.000000,14508.036463
1488.226001,222.061783,1685.410096,10807.006753
1488.226327,2146.597232,4749.792088,5921.647536
1488.226653,4441.235652,8273.831378,1258.350101
1488.226979,6661.853478,9193.145976,-592.164754
1488.227305,6809.894666,7814.174080,444.123565
1488.227631,4441.235652,5132.839837,2738.761985
1488.227957,518.144159,2451.505594,6883.915261
1488.228283,-2738.761985,-383.047749,11399.171507
1488.228609,-3849.070898,-4596.572988,14582.057057
1488.228935,-6291.750507,-6741.640382,15914.427753
1488.229261,-6217.729913,-5439.278036,15618.345376
1488.229587,-4589.276840,-2298.286494,16432.571912
1488.229913,-1776.494261,76.609550,13989.892304
1488.230239,148.041188,2298.286494,10732.986159
1488.230565,1628.453072,4749.792088,5329.482782
1488.230891,4737.318029,6894.859482,1850.514855
1488.231217,7179.997637,8427.050478,592.164754
1488.231543,6587.832884,7431.126331,1776.494261
1488.231869,3552.988522,4596.572988,5107.421000
1488.232195,370.102971,0.000000,7772.162391
1488.232521,-1998.556043,-3217.601092,11991.336260
1488.232847,-4885.359217,-5745.716235,16136.489536
1488.233173,-6587.832884,-7201.297681,16876.695478
1488.233499,-5403.503377,-7201.297681,15914.427753
1488.233825,-3627.009116,-5669.106685,17468.860231
1488.234151,-2220.617826,-2757.943793,14582.057057
1488.234477,-518.144159,2451.505594,9178.553681
1488.234803,3478.967927,4596.572988,4737.318029
1488.235129,6291.750507,5669.106685,1924.535449
1488.235455,6513.812290,7431.126331,666.185348
1488.235781,6661.853478,7354.516781,962.267725
1488.236107,4145.153275,4213.525239,3478.967927
1488.236433,888.247130,-1072.533697,7254.018232
1488.236759,-2146.597232,-3907.087040,11177.109724
1488.237085,-4515.256246,-4979.620737,15100.201217
1488.237411,-7105.977043,-6205.373534,16654.633695
1488.237737,-6439.791695,-7354.516781,16728.654289
1488.238063,-4811.338623,-6281.983084,16432.571912
1488.238389,-3701.029710,-2451.505594,13471.748144
1488.238715,-1332.370696,1685.410096,9178.553681
1488.239041,2812.782580,4443.353888,4441.235652
1488.239367,5329.482782,5286.058936,1776.494261
1488.239693,5329.482782,6511.811733,518.144159
1488.240019,5773.606348,7584.345430,1184.329507
1488.240345,4589.276840,4979.620737,5625.565159
1488.240671,2072.576638,536.266849,9252.574275
1488.240997,-1628.453072,-3064.381992,13989.892304
1488.241323,-3256.906145,-4136.915689,16876.695478
1488.241649,-4293.194464,-5362.668486,16580.613101
1488.241975,-3701.029710,-6281.983084,16728.654289
1488.242301,-2664.741391,-4749.792088,17246.798449
1488.242627,-2442.679609,383.047749,12657.521608
1488.242953,222.061783,4136.915689,8438.347739
1488.243279,3182.885551,5515.887586,4811.338623
1488.243605,4885.359217,5898.935335,740.205942
1488.243931,4959.379811,7048.078582,-2072.576638
1488.244257,5255.462188,7584.345430,666.185348
1488.244583,2960.823768,4979.620737,5477.523971
1488.244909,-148.041188,1378.971896,9030.512492
1488.245235,-2516.700203,-2221.676944,12287.418637
1488.245561,-5255.462188,-5209.449386,14582.057057
1488.245887,-6217.729913,-5132.839837,15174.221811
1488.246213,-4589.276840,-4136.915689,16580.613101
1488.246539,-3330.926739,-1532.190996,16210.510130
1488.246865,-2738.761985,1532.190996,11695.253884
1488.247191,1258.350101,3830.477490,8216.285956
1488.247517,4959.379811,5669.106685,4515.256246
1488.247843,5033.400406,7890.783629,888.247130
1488.248169,5107.421000,8963.317327,-518.144159
1488.248495,5403.503377,7354.516781,2072.576638
1488.248821,3182.885551,3524.039291,6439.791695
1488.249147,-592.164754,0.000000,10436.903782
1488.249473,-3849.070898,-2681.334243,13619.789333
1488.249799,-5329.482782,-5132.839837,16358.551318
1488.250125,-5403.503377,-6511.811733,16506.592507
1488.250451,-4811.338623,-5209.449386,18579.169144
1488.250777,-4293.194464,-1838.629195,16876.695478
1488.251103,-2146.597232,1072.533697,11399.171507
1488.251429,1480.411884,2604.724693,6957.935855
1488.251755,4663.297435,3907.087040,2368.659014
1488.252081,5033.400406,7890.783629,-370.102971
1488.252407,7105.977043,9116.536426,-370.102971
1488.252733,6143.709319,6205.373534,2590.720797
1488.253058,2072.576638,1532.190996,5847.626942
1488.253384,-1332.370696,-2681.334243,9548.656652
1488.253710,-3627.009116,-4826.401637,12879.583391
1488.254036,-5477.523971,-6894.859482,15396.283594
1488.254362,-5477.523971,-8503.660028,18949.272115
1488.254688,-5181.441594,-6894.859482,18431.127956
1488.255014,-4737.318029,-3830.477490,14730.098246
1488.255340,-1850.514855,-1378.971896,10436.903782
1488.255666,2368.659014,995.924147,6661.853478
1488.255992,3997.112087,5822.325785,3404.947333
1488.256318,5625.565159,8120.612279,666.185348
1488.256644,7624.121203,7277.907231,1480.411884
1488.256970,6661.853478,3600.648841,2960.823768
1488.257296,1998.556043,536.266849,7994.224174
1488.257622,-1480.411884,-995.924147,11473.192101
1488.257948,-3182.885551,-3830.477490,15248.242405
1488.258274,-4367.215058,-7737.564530,18431.127956
1488.258600,-4441.235652,-9193.145976,18283.086767
1488.258926,-4885.359217,-5822.325785,17764.942608
1488.259252,-3552.988522,-1762.019645,13101.645173
1488.259578,-444.123565,766.095498,9030.512492
1488.259904,2072.576638,3370.820191,6069.688724
1488.260229,3034.844362,6128.763984,1850.514855
1488.260555,4441.235652,8273.831378,-1406.391290
1488.260881,5551.544565,7201.297681,-0.000000
1488.261207,3034.844362,4749.792088,3849.070898
1488.261533,-814.226536,1685.410096,6883.915261
1488.261859,-2812.782580,-1225.752797,10510.924376
1488.262185,-4737.318029,-4366.744339,15026.180623
1488.262511,-6365.771101,-6665.030833,17246.798449
1488.262837,-6365.771101,-5286.058936,16876.695478
1488.263163,-5255.462188,-1915.238745,15840.407159
1488.263489,-3330.926739,229.828649,12139.377449
1488.263815,370.102971,2911.162892,9400.615463
1488.264141,2664.741391,4903.011187,5107.421000
1488.264467,4737.318029,8503.660028,962.267725
1488.264793,6809.894666,9499.584175,-444.123565
1488.265119,7031.956449,8273.831378,1554.432478
1488.265445,5181.441594,5439.278036,5403.503377
1488.265771,1776.494261,2681.334243,9474.636058
1488.266097,-962.267725,306.438199,12731.542202
1488.266423,-3256.906145,-3983.696590,15914.427753
1488.266749,-4589.276840,-6052.154434,16802.674883
1488.267075,-4885.359217,-4826.401637,16580.613101
1488.267401,-4441.235652,-1915.238745,16062.468941
1488.267726,-2664.741391,-306.438199,12213.398043
1488.268052,-444.123565,2451.505594,9474.636058
1488.268378,2516.700203,5132.839837,3627.009116
1488.268704,4663.297435,7737.564530,74.020594
1488.269030,5625.565159,7890.783629,-1258.350101
1488.269356,5329.482782,5898.935335,-0.000000
1488.269682,2886.803174,2834.553343,3849.070898
1488.270008,370.102971,-306.438199,8586.388927
1488.270334,-1554.432478,-2451.505594,14063.912898
1488.270660,-3404.947333,-6128.763984,17764.942608
1488.270986,-6513.812290,-6741.640382,18653.189738
1488.271312,-6587.832884,-7277.907231,17098.757260
1488.271638,-3552.988522,-5439.278036,16210.510130
1488.271964,-888.247130,-1762.019645,12805.562797
1488.272290,666.185348,2528.115143,7550.100608
1488.272616,3997.112087,5209.449386,2738.761985
1488.272942,7402.059420,7124.688131,1480.411884
1488.273268,9178.553681,7737.564530,1036.288319
1488.273594,6513.812290,6665.030833,1850.514855
1488.273920,3034.844362,3140.991542,5403.503377
1488.274246,1110.308913,-766.095498,9400.615463
1488.274572,-2368.659014,-3677.258390,14730.098246
1488.274897,-5625.565159,-6971.469032,17616.901420
1488.275223,-8142.265362,-8963.317327,17320.819043
1488.275549,-7402.059420,-7354.516781,17987.004391
1488.275875,-4885.359217,-4596.572988,16876.695478
1488.276201,-3256.906145,-306.438199,11991.336260
1488.276527,-888.247130,2681.334243,6291.750507
1488.276853,3182.885551,4673.182538,1998.556043
1488.277179,5847.626942,7124.688131,-1480.411884
1488.277505,7328.038826,9193.145976,-1924.535449
1488.277831,6587.832884,8197.221829,1850.514855
1488.278157,3182.885551,3677.258390,5699.585753
1488.278483,296.082377,-1915.238745,9696.697840
1488.278809,-3108.864956,-4903.011187,15174.221811
1488.279135,-5847.626942,-6435.202183,17024.736666
1488.279461,-7105.977043,-6511.811733,17246.798449
1488.279787,-5329.482782,-6818.249932,17838.963202
1488.280113,-3552.988522,-4290.134789,16062.468941
1488.280439,-2368.659014,612.876398,12139.377449
1488.280765,1332.370696,4060.306139,6217.729913
1488.281091,5329.482782,6665.030833,2072.576638
1488.281417,7550.100608,8427.050478,-1036.288319
1488.281743,7550.100608,10495.508323,-1036.288319
1488.282068,6143.709319,9193.145976,740.205942
1488.282394,2368.659014,4596.572988,5551.544565
1488.282720,-740.205942,-1685.410096,11325.150913
1488.283046,-4441.235652,-4290.134789,15840.407159
1488.283372,-7846.182985,-5975.544884,17912.983796
1488.283698,-7550.100608,-7890.783629,18727.210333
1488.284024,-5329.482782,-6511.811733,19023.292709
1488.284350,-4219.173869,-3140.991542,15988.448347
1488.284676,-1480.411884,2145.067394,10510.924376
1488.285002,3701.029710,4903.011187,5403.503377
