#time,accel_x,accel_y,accel_z
4707.701762,0.000000,842.705048,9474.636058
4707.702076,0.000000,919.314598,9400.615463
4707.702391,0.000000,1072.533697,9400.615463
4707.702705,0.000000,536.266849,9030.512492
4707.703020,0.000000,919.314598,9178.553681
4707.703334,74.020594,229.828649,9104.533087
4707.703649,0.000000,459.657299,8882.471304
4707.703963,0.000000,306.438199,9104.533087
4707.704278,0.000000,842.705048,9400.615463
4707.704592,222.061783,842.705048,9474.636058
4707.704907,74.020594,689.485948,9474.636058
4707.705221,74.020594,995.924147,9474.636058
4707.705536,74.020594,1149.143247,9104.533087
4707.705850,0.000000,842.705048,9326.594869
4707.706164,0.000000,306.438199,9252.574275
4707.706479,222.061783,842.705048,9474.636058
4707.706793,222.061783,1072.533697,9474.636058
4707.707108,222.061783,1149.143247,9474.636058
4707.707422,444.123565,842.705048,9400.615463
4707.707737,148.041188,995.924147,9400.615463
4707.708051,518.144159,1685.410096,9326.594869
4707.708366,592.164754,842.705048,8882.471304
4707.708680,592.164754,689.485948,9326.594869
4707.708995,740.205942,1302.362347,9400.615463
4707.709309,666.185348,1378.971896,9400.615463
4707.709624,666.185348,1302.362347,9252.574275
4707.709938,888.247130,1685.410096,9474.636058
4707.710252,1184.329507,1532.190996,9178.553681
4707.710567,1258.350101,2145.067394,9474.636058
4707.710881,1702.473667,1991.848295,9252.574275
4707.711196,1480.411884,1762.019645,9400.615463
4707.711510,1554.432478,1915.238745,9474.636058
4707.711825,1702.473667,2068.457845,9622.677246
4707.712139,2072.576638,2068.457845,9622.677246
4707.712454,2368.659014,2451.505594,9622.677246
4707.712768,2368.659014,1838.629195,9622.677246
4707.713083,2516.700203,2068.457845,9474.636058
4707.713397,2442.679609,2604.724693,9844.739029
4707.713712,2590.720797,2911.162892,9696.697840
4707.714026,2812.782580,2987.772442,9474.636058
4707.714341,2960.823768,3294.210641,9474.636058
4707.714655,3330.926739,3753.867940,9326.594869
4707.714969,3701.029710,3983.696590,9178.553681
4707.715284,3256.906145,4290.134789,9030.512492
4707.715598,3775.050304,4443.353888,8660.409521
4707.715913,3627.009116,4366.744339,8882.471304
4707.716227,3775.050304,4366.744339,8734.430116
4707.716542,3701.029710,4519.963438,8808.450710
4707.716856,3182.885551,4136.915689,8808.450710
4707.717171,2886.803174,4213.525239,8660.409521
4707.717485,2886.803174,4136.915689,9030.512492
4707.717800,2368.659014,3677.258390,8956.491898
4707.718114,2072.576638,3753.867940,9104.533087
4707.718429,1480.411884,3753.867940,9104.533087
4707.718743,962.267725,3524.039291,8956.491898
4707.719058,518.144159,3140.991542,8734.430116
4707.719372,370.102971,3524.039291,8808.450710
4707.719686,222.061783,2681.334243,8882.471304
4707.720001,0.000000,2528.115143,8956.491898
4707.720315,-222.061783,2528.115143,8734.430116
4707.720630,-370.102971,2374.896044,9252.574275
4707.720944,0.000000,2221.676944,9252.574275
4707.721259,222.061783,1838.629195,9770.718434
4707.721573,592.164754,1838.629195,9992.780217
4707.721888,1036.288319,1838.629195,10584.944971
4707.722202,1258.350101,2068.457845,10807.006753
4707.722517,1184.329507,689.485948,10436.903782
4707.722831,1702.473667,1608.800546,10658.965565
4707.723146,1998.556043,1455.581446,11029.068536
4707.723460,2516.700203,1838.629195,10732.986159
4707.723775,3034.844362,2068.457845,10362.883188
4707.724089,3552.988522,2528.115143,9696.697840
4707.724403,3775.050304,2757.943793,9400.615463
4707.724718,3849.070898,2681.334243,9030.512492
4707.725032,3849.070898,3217.601092,8290.306550
4707.725347,3552.988522,2834.553343,8290.306550
4707.725661,2960.823768,2987.772442,8142.265362
4707.725976,2590.720797,2604.724693,7846.182985
4707.726290,2368.659014,2451.505594,7624.121203
4707.726605,2368.659014,2528.115143,7920.203579
4707.726919,2516.700203,2681.334243,8660.409521
4707.727234,2294.638420,2451.505594,9178.553681
4707.727548,2590.720797,2451.505594,9622.677246
4707.727863,2368.659014,1838.629195,9474.636058
4707.728177,2590.720797,1915.238745,9474.636058
4707.728492,2442.679609,2221.676944,10362.883188
4707.728806,2516.700203,2681.334243,10436.903782
4707.729120,2664.741391,3140.991542,10658.965565
4707.729435,2664.741391,2451.505594,10066.800811
4707.729749,2886.803174,3140.991542,9474.636058
4707.730064,3182.885551,3370.820191,9030.512492
4707.730378,3923.091493,4290.134789,8734.430116
4707.730693,4589.276840,5209.449386,8290.306550
4707.731007,4959.379811,5592.497135,8364.327145
4707.731322,4737.318029,5362.668486,8364.327145
4707.731636,3701.029710,5362.668486,7920.203579
4707.731951,2664.741391,4673.182538,8068.244768
4707.732265,1480.411884,4366.744339,9178.553681
4707.732580,-222.061783,2604.724693,10066.800811
4707.732894,-1554.432478,689.485948,10362.883188
4707.733209,-2664.741391,-76.609550,10732.986159
4707.733523,-3775.050304,-383.047749,10955.047942
4707.733837,-2812.782580,76.609550,10584.944971
4707.734152,-1850.514855,919.314598,11177.109724
4707.734466,222.061783,1532.190996,11621.233289
4707.734781,2516.700203,3447.429741,9992.780217
4707.735095,4219.173869,4749.792088,8512.368333
4707.735410,5107.421000,6281.983084,8142.265362
4707.735724,5477.523971,7584.345430,7994.224174
4707.736039,5847.626942,7354.516781,8290.306550
4707.736353,5921.647536,6205.373534,7402.059420
4707.736668,4293.194464,4749.792088,6661.853478
4707.736982,2368.659014,3753.867940,7031.956449
4707.737297,1924.535449,3907.087040,7994.224174
4707.737611,1110.308913,3447.429741,8956.491898
4707.737926,592.164754,2145.067394,10214.842000
4707.738240,222.061783,766.095498,9918.759623
4707.738554,-592.164754,0.000000,9474.636058
4707.738869,-740.205942,153.219100,9104.533087
4707.739183,-888.247130,1149.143247,9400.615463
4707.739498,222.061783,1762.019645,10140.821405
4707.739812,1036.288319,2068.457845,10658.965565
4707.740127,2294.638420,2451.505594,10658.965565
4707.740441,3627.009116,2451.505594,10362.883188
4707.740756,3775.050304,3217.601092,9770.718434
4707.741070,3108.864956,2681.334243,9474.636058
4707.741385,3404.947333,2145.067394,9474.636058
4707.741699,3775.050304,1838.629195,8734.430116
4707.742014,3997.112087,2528.115143,9474.636058
4707.742328,4145.153275,2911.162892,9178.553681
4707.742642,3923.091493,3753.867940,9400.615463
4707.742957,4219.173869,3064.381992,8290.306550
4707.743271,4589.276840,3753.867940,8882.471304
4707.743586,4441.235652,2528.115143,8734.430116
4707.743900,3552.988522,2145.067394,7994.224174
4707.744215,3034.844362,2757.943793,7550.100608
4707.744529,2738.761985,2604.724693,9474.636058
4707.744844,1998.556043,2451.505594,11103.089130
4707.745158,1850.514855,1302.362347,10732.986159
4707.745473,1776.494261,766.095498,10732.986159
4707.745787,888.247130,919.314598,11029.068536
4707.746102,1406.391290,1608.800546,10807.006753
4707.746416,2220.617826,2757.943793,9178.553681
4707.746731,3034.844362,3907.087040,9104.533087
4707.747045,4145.153275,5592.497135,9104.533087
4707.747359,4293.194464,6435.202183,7698.141797
4707.747674,4737.318029,6435.202183,6513.812290
4707.747988,5625.565159,7507.735880,6439.791695
4707.748303,5773.606348,7737.564530,7254.018232
4707.748617,5477.523971,7201.297681,8216.285956
4707.748932,4219.173869,5669.106685,8068.244768
4707.749246,1850.514855,3600.648841,8512.368333
4707.749561,-1702.473667,2604.724693,9770.718434
4707.749875,-3108.864956,1072.533697,10510.924376
4707.750190,-3627.009116,-383.047749,11177.109724
4707.750504,-4219.173869,-1991.848295,12509.480420
4707.750819,-4293.194464,-2451.505594,12065.356855
4707.751133,-3478.967927,-1225.752797,11769.274478
4707.751448,-2368.659014,306.438199,10066.800811
4707.751762,1036.288319,2681.334243,9252.574275
4707.752076,4663.297435,6358.592633,9326.594869
4707.752391,7772.162391,8350.440928,9918.759623
4707.752705,9844.739029,9346.365076,8438.347739
4707.753020,9548.656652,9422.974625,6883.915261
4707.753334,7624.121203,8044.002729,6365.771101
4707.753649,5181.441594,6588.421283,5847.626942
4707.753963,1850.514855,4749.792088,7105.977043
4707.754278,-1110.308913,2221.676944,9252.574275
4707.754592,-3330.926739,-612.876398,9918.759623
4707.754907,-5255.462188,-3064.381992,10807.006753
4707.755221,-5551.544565,-4136.915689,10214.842000
4707.755536,-4737.318029,-2987.772442,9992.780217
4707.755850,-1924.535449,-2451.505594,11177.109724
4707.756165,1554.432478,76.609550,12583.501014
4707.756479,3256.906145,1608.800546,11991.336260
4707.756793,5033.400406,2451.505594,9474.636058
4707.757108,6217.729913,4060.306139,6809.894666
4707.757422,6143.709319,5132.839837,7105.977043
4707.757737,7105.977043,6281.983084,8364.327145
4707.758051,7328.038826,6665.030833,9104.533087
4707.758366,7105.977043,4443.353888,8734.430116
4707.758680,5921.647536,2911.162892,7476.080014
4707.758995,3997.112087,2911.162892,7105.977043
4707.759309,1480.411884,2451.505594,9178.553681
4707.759623,0.000000,1915.238745,10584.944971
4707.759938,-814.226536,-383.047749,11103.089130
4707.760252,-1406.391290,-2987.772442,11029.068536
4707.760566,-2960.823768,-1838.629195,11399.171507
4707.760880,-2886.803174,-2145.067394,9770.718434
4707.761195,-2294.638420,-1072.533697,9326.594869
4707.761509,-370.102971,995.924147,9992.780217
4707.761823,2146.597232,1685.410096,9400.615463
4707.762138,4293.194464,4136.915689,9326.594869
4707.762452,5107.421000,4979.620737,8660.409521
4707.762766,4885.359217,5209.449386,8290.306550
4707.763081,4811.338623,4979.620737,7254.018232
4707.763395,3627.009116,4290.134789,7402.059420
4707.763709,2442.679609,4519.963438,9474.636058
4707.764024,1554.432478,3217.601092,10140.821405
4707.764338,814.226536,1915.238745,9548.656652
4707.764652,-222.061783,995.924147,8882.471304
4707.764966,-1776.494261,306.438199,8734.430116
4707.765281,-2368.659014,1685.410096,10066.800811
4707.765595,-1628.453072,1072.533697,9918.759623
4707.765909,-814.226536,76.609550,9400.615463
4707.766224,-1406.391290,-383.047749,8438.347739
4707.766538,-2368.659014,0.000000,8586.388927
4707.766852,-1776.494261,2451.505594,9252.574275
4707.767167,1258.350101,2987.772442,9326.594869
4707.767481,4219.173869,3217.601092,9326.594869
4707.767795,5033.400406,3677.258390,9474.636058
4707.768110,4515.256246,4903.011187,9622.677246
4707.768424,3627.009116,5286.058936,8956.491898
4707.768738,3330.926739,3447.429741,8068.244768
4707.769053,2294.638420,2145.067394,8956.491898
4707.769367,0.000000,1838.629195,10658.965565
4707.769681,-2220.617826,689.485948,9918.759623
4707.769995,-3552.988522,-766.095498,8512.368333
4707.770310,-3701.029710,-2068.457845,8290.306550
4707.770624,-3552.988522,-1455.581446,9178.553681
4707.770938,-3552.988522,-306.438199,9548.656652
4707.771253,-3330.926739,-1302.362347,8808.450710
4707.771567,-3552.988522,-612.876398,9400.615463
4707.771881,-3701.029710,-1608.800546,8068.244768
4707.772196,-3108.864956,-1685.410096,9104.533087
4707.772510,-2886.803174,-1302.362347,9104.533087
4707.772824,-518.144159,-1378.971896,9178.553681
4707.773139,518.144159,383.047749,10436.903782
4707.773453,2294.638420,0.000000,10362.883188
4707.773767,3404.947333,842.705048,10510.924376
4707.774082,2516.700203,1149.143247,9770.718434
4707.774396,1554.432478,0.000000,9178.553681
4707.774710,814.226536,-229.828649,7624.121203
4707.775024,-444.123565,-766.095498,8956.491898
4707.775339,-1332.370696,-1915.238745,10288.862594
4707.775653,-1554.432478,-2221.676944,9548.656652
4707.775967,-814.226536,-2604.724693,9326.594869
4707.776282,-740.205942,-2451.505594,9696.697840
4707.776596,-1480.411884,-459.657299,11843.295072
4707.776910,-518.144159,-1532.190996,10436.903782
4707.777225,1036.288319,-766.095498,10140.821405
4707.777539,1628.453072,-153.219100,8882.471304
4707.777853,518.144159,536.266849,8290.306550
4707.778168,888.247130,1532.190996,7550.100608
4707.778482,1998.556043,1838.629195,7846.182985
4707.778796,3627.009116,3370.820191,9474.636058
4707.779111,4071.132681,2528.115143,9770.718434
4707.779425,2294.638420,1991.848295,9696.697840
4707.779739,814.226536,919.314598,7328.038826
4707.780053,-296.082377,1302.362347,7846.182985
4707.780368,-1554.432478,459.657299,8956.491898
4707.780682,-2368.659014,-766.095498,8808.450710
4707.780996,-3404.947333,-459.657299,9844.739029
4707.781311,-2886.803174,-766.095498,10140.821405
4707.781625,-1776.494261,229.828649,9030.512492
4707.781939,148.041188,229.828649,9104.533087
4707.782254,740.205942,1762.019645,10436.903782
4707.782568,148.041188,2451.505594,10140.821405
4707.782882,1332.370696,2911.162892,9400.615463
4707.783197,2368.659014,2604.724693,7920.203579
4707.783511,1776.494261,3294.210641,8438.347739
4707.783825,1332.370696,4060.306139,9326.594869
4707.784140,1480.411884,2834.553343,8808.450710
4707.784454,3404.947333,3600.648841,9918.759623
4707.784768,3256.906145,2298.286494,9548.656652
4707.785082,1554.432478,2374.896044,10214.842000
4707.785397,74.020594,1991.848295,9030.512492
4707.785711,-296.082377,2757.943793,9178.553681
4707.786025,-518.144159,1608.800546,9030.512492
4707.786340,-1924.535449,153.219100,9770.718434
4707.786654,-2442.679609,229.828649,9622.677246
4707.786968,-1184.329507,612.876398,8808.450710
4707.787283,0.000000,1455.581446,9548.656652
4707.787597,222.061783,1685.410096,10066.800811
4707.787911,962.267725,2528.115143,10584.944971
4707.788226,1628.453072,2528.115143,9474.636058
4707.788540,1110.308913,3064.381992,7920.203579
4707.788854,0.000000,2068.457845,7328.038826
4707.789169,-962.267725,842.705048,7179.997637
4707.789483,-1998.556043,1378.971896,8216.285956
4707.789797,-2442.679609,766.095498,9104.533087
4707.790111,-1998.556043,0.000000,9770.718434
4707.790426,-2072.576638,-842.705048,9622.677246
4707.790740,-2516.700203,-153.219100,9992.780217
4707.791054,-2886.803174,-1608.800546,9622.677246
4707.791369,-2146.597232,-2145.067394,9178.553681
4707.791683,-1332.370696,-2451.505594,9030.512492
4707.791997,-1628.453072,-2221.676944,9474.636058
4707.792312,-1776.494261,-689.485948,10214.842000
4707.792626,0.000000,-536.266849,9400.615463
4707.792940,2738.761985,0.000000,9992.780217
4707.793255,4515.256246,0.000000,11695.253884
4707.793569,4219.173869,1225.752797,12065.356855
4707.793883,4145.153275,1225.752797,9770.718434
4707.794197,3478.967927,459.657299,9178.553681
4707.794512,2442.679609,459.657299,9104.533087
4707.794826,814.226536,0.000000,9178.553681
4707.795140,-666.185348,0.000000,8142.265362
4707.795455,-1850.514855,0.000000,7846.182985
4707.795769,-2220.617826,0.000000,8364.327145
4707.796083,-2442.679609,-459.657299,9104.533087
4707.796398,-2146.597232,-1455.581446,9474.636058
4707.796712,-2442.679609,-2145.067394,8586.388927
4707.797026,-2294.638420,-1455.581446,9104.533087
4707.797341,-1850.514855,-1225.752797,7994.224174
4707.797655,-1628.453072,-229.828649,8660.409521
4707.797969,-1110.308913,0.000000,8438.347739
4707.798284,740.205942,1225.752797,8734.430116
4707.798598,2812.782580,2451.505594,9548.656652
4707.798912,4663.297435,2451.505594,11399.171507
4707.799226,2812.782580,3370.820191,13471.748144
4707.799541,4071.132681,1072.533697,10288.862594
4707.799855,4589.276840,2987.772442,9178.553681
4707.800169,2886.803174,2757.943793,9474.636058
4707.800484,1480.411884,1455.581446,9252.574275
4707.800798,-444.123565,2068.457845,8068.244768
4707.801112,-1850.514855,612.876398,9030.512492
4707.801427,-1850.514855,1991.848295,10214.842000
4707.801741,-2738.761985,459.657299,9326.594869
4707.802055,-2812.782580,-842.705048,9548.656652
4707.802370,-2960.823768,383.047749,9474.636058
4707.802684,-2960.823768,0.000000,8290.306550
4707.802998,-2590.720797,-383.047749,7031.956449
4707.803313,-1702.473667,1072.533697,7402.059420
4707.803627,-1998.556043,2604.724693,9178.553681
4707.803941,-444.123565,2911.162892,9030.512492
4707.804255,1184.329507,2757.943793,8512.368333
4707.804570,2072.576638,2451.505594,10066.800811
4707.804884,2220.617826,2987.772442,11547.212695
4707.805198,2442.679609,2528.115143,10140.821405
4707.805513,2294.638420,1302.362347,9770.718434
4707.805827,1628.453072,919.314598,9104.533087
4707.806141,-740.205942,1455.581446,10066.800811
4707.806456,-2664.741391,612.876398,8438.347739
4707.806770,-1258.350101,459.657299,7920.203579
4707.807084,-148.041188,1378.971896,10436.903782
4707.807399,0.000000,0.000000,10510.924376
4707.807713,222.061783,612.876398,9178.553681
4707.808027,222.061783,-612.876398,8068.244768
4707.808342,148.041188,1225.752797,9326.594869
4707.808656,222.061783,1915.238745,9992.780217
4707.808970,0.000000,-153.219100,8734.430116
4707.809284,-740.205942,-842.705048,8068.244768
4707.809599,-148.041188,536.266849,9178.553681
4707.809913,1406.391290,1149.143247,8882.471304
4707.810227,2886.803174,1838.629195,9474.636058
4707.810542,2812.782580,1532.190996,10955.047942
4707.810856,2294.638420,842.705048,10807.006753
4707.811170,2294.638420,842.705048,9252.574275
4707.811485,2294.638420,229.828649,7920.203579
4707.811799,888.247130,383.047749,8956.491898
4707.812113,148.041188,689.485948,8882.471304
4707.812428,962.267725,1149.143247,8734.430116
4707.812742,1554.432478,229.828649,9178.553681
4707.813056,2146.597232,153.219100,9844.739029
4707.813371,1776.494261,842.705048,9770.718434
4707.813685,1258.350101,0.000000,8216.285956
4707.813999,1184.329507,766.095498,8438.347739
4707.814313,1110.308913,919.314598,9844.739029
4707.814628,0.000000,0.000000,9030.512492
4707.814942,-814.226536,383.047749,9548.656652
4707.815256,-518.144159,612.876398,8956.491898
4707.815571,-222.061783,995.924147,9326.594869
4707.815885,0.000000,76.609550,9844.739029
4707.816199,-2294.638420,76.609550,11621.233289
4707.816514,-3552.988522,-229.828649,11621.233289
4707.816828,-3182.885551,-459.657299,9696.697840
4707.817142,-3997.112087,-1608.800546,8364.327145
4707.817457,-5033.400406,-2145.067394,8142.265362
4707.817771,-5551.544565,-383.047749,9400.615463
4707.818085,-4737.318029,306.438199,8586.388927
4707.818400,-2146.597232,1225.752797,8882.471304
4707.818714,0.000000,1072.533697,9104.533087
4707.819028,222.061783,1302.362347,10214.842000
4707.819342,1406.391290,2987.772442,9918.759623
4707.819657,2738.761985,2834.553343,8364.327145
4707.819971,3627.009116,1991.848295,8438.347739
4707.820285,2960.823768,1455.581446,9400.615463
4707.820600,2368.659014,2757.943793,9622.677246
4707.820914,2812.782580,4213.525239,9104.533087
4707.821228,3552.988522,3447.429741,8586.388927
4707.821543,3256.906145,2987.772442,9400.615463
4707.821857,1702.473667,2987.772442,10288.862594
4707.822171,888.247130,2528.115143,8956.491898
4707.822486,0.000000,919.314598,8142.265362
4707.822800,-1110.308913,0.000000,8216.285956
4707.823114,-2812.782580,0.000000,9030.512492
4707.823429,-4441.235652,919.314598,9030.512492
4707.823743,-4219.173869,229.828649,8068.244768
4707.824057,-2442.679609,0.000000,8808.450710
4707.824371,-1998.556043,0.000000,9696.697840
4707.824686,-2590.720797,229.828649,10140.821405
4707.825000,-1332.370696,229.828649,9252.574275
4707.825314,0.000000,229.828649,8438.347739
4707.825629,814.226536,0.000000,9178.553681
4707.825943,1110.308913,766.095498,10066.800811
4707.826257,888.247130,1762.019645,10140.821405
4707.826572,2368.659014,1685.410096,8882.471304
4707.826886,4663.297435,1685.410096,9992.780217
4707.827200,5181.441594,766.095498,10807.006753
4707.827515,4145.153275,1915.238745,11547.212695
4707.827829,3330.926739,1455.581446,9474.636058
4707.828143,2812.782580,1225.752797,9326.594869
4707.828457,2072.576638,306.438199,9104.533087
4707.828772,1184.329507,153.219100,9474.636058
4707.829086,-666.185348,383.047749,9030.512492
4707.829400,-888.247130,-383.047749,7105.977043
4707.829715,-444.123565,459.657299,8142.265362
4707.830029,-296.082377,229.828649,9474.636058
4707.830343,-222.061783,1072.533697,10732.986159
4707.830658,0.000000,229.828649,9400.615463
4707.830972,-148.041188,-383.047749,8956.491898
4707.831286,-1184.329507,0.000000,7920.203579
4707.831601,-1998.556043,-229.828649,8586.388927
4707.831915,-4293.194464,153.219100,9474.636058
4707.832229,-1924.535449,-153.219100,8290.306550
4707.832544,296.082377,306.438199,7920.203579
4707.832858,-296.082377,0.000000,9400.615463
4707.833172,-1110.308913,612.876398,10881.027347
4707.833486,-1628.453072,1762.019645,10584.944971
4707.833801,-592.164754,-459.657299,9030.512492
4707.834115,-444.123565,-2068.457845,8586.388927
4707.834429,-2738.761985,-1378.971896,10658.965565
4707.834744,-2516.700203,-995.924147,10881.027347
4707.835058,-1924.535449,766.095498,9030.512492
4707.835372,-148.041188,0.000000,8216.285956
4707.835687,370.102971,-459.657299,9548.656652
4707.836001,666.185348,2221.676944,9770.718434
4707.836315,888.247130,2374.896044,8734.430116
4707.836630,888.247130,2068.457845,8290.306550
4707.836944,-370.102971,612.876398,7994.224174
4707.837258,-1036.288319,-229.828649,10214.842000
4707.837573,-2146.597232,842.705048,9770.718434
4707.837887,-814.226536,-689.485948,8216.285956
4707.838201,1628.453072,153.219100,8216.285956
4707.838515,1480.411884,1455.581446,9252.574275
4707.838830,1332.370696,1915.238745,10510.924376
4707.839144,1184.329507,2068.457845,9104.533087
4707.839458,1036.288319,689.485948,8660.409521
4707.839773,666.185348,0.000000,9030.512492
4707.840087,-1110.308913,76.609550,8734.430116
4707.840401,-962.267725,229.828649,9326.594869
4707.840716,296.082377,459.657299,9474.636058
4707.841030,1406.391290,2221.676944,9474.636058
4707.841344,2072.576638,842.705048,9992.780217
4707.841659,1628.453072,2145.067394,9104.533087
4707.841973,962.267725,2681.334243,9326.594869
4707.842287,1036.288319,1838.629195,9474.636058
4707.842602,666.185348,1532.190996,9326.594869
4707.842916,-888.247130,-306.438199,9326.594869
4707.843230,-1406.391290,229.828649,10140.821405
4707.843544,-1332.370696,689.485948,9474.636058
4707.843859,-148.041188,306.438199,10955.047942
4707.844173,74.020594,383.047749,10140.821405
4707.844487,-74.020594,612.876398,11473.192101
4707.844802,-444.123565,459.657299,10214.842000
4707.845116,222.061783,1149.143247,8734.430116
4707.845430,518.144159,919.314598,8438.347739
4707.845745,148.041188,1608.800546,8438.347739
4707.846059,0.000000,2145.067394,8808.450710
4707.846373,1332.370696,1838.629195,8808.450710
4707.846688,2442.679609,2451.505594,9474.636058
4707.847002,2220.617826,2145.067394,9252.574275
4707.847316,1332.370696,2221.676944,9326.594869
4707.847631,1110.308913,2451.505594,7920.203579
4707.847945,1036.288319,2681.334243,8512.368333
4707.848259,370.102971,1608.800546,9104.533087
4707.848573,-296.082377,1225.752797,9548.656652
4707.848888,-1776.494261,383.047749,9030.512492
4707.849202,-2590.720797,689.485948,9104.533087
4707.849516,-518.144159,459.657299,8734.430116
4707.849831,962.267725,306.438199,9030.512492
4707.850145,-296.082377,2145.067394,10658.965565
4707.850459,-888.247130,1225.752797,9622.677246
4707.850774,-592.164754,612.876398,7624.121203
4707.851088,-814.226536,306.438199,8586.388927
4707.851402,-518.144159,1072.533697,10510.924376
4707.851717,-1184.329507,766.095498,10658.965565
4707.852031,-444.123565,-766.095498,9474.636058
4707.852345,222.061783,0.000000,9770.718434
4707.852660,1184.329507,153.219100,10140.821405
4707.852974,888.247130,1149.143247,10362.883188
4707.853288,962.267725,1608.800546,9178.553681
4707.853602,1406.391290,1455.581446,9326.594869
4707.853917,1332.370696,919.314598,9918.759623
4707.854231,148.041188,0.000000,9918.759623
4707.854545,-962.267725,-536.266849,9326.594869
4707.854860,-444.123565,-153.219100,8290.306550
4707.855174,1332.370696,229.828649,8290.306550
4707.855488,2368.659014,842.705048,8956.491898
4707.855803,1998.556043,2145.067394,10584.944971
4707.856117,1480.411884,919.314598,9326.594869
4707.856431,888.247130,1072.533697,7402.059420
4707.856746,518.144159,536.266849,8216.285956
4707.857060,-74.020594,536.266849,9844.739029
4707.857374,-444.123565,766.095498,9326.594869
4707.857688,296.082377,-536.266849,9178.553681
4707.858003,1628.453072,-229.828649,9326.594869
4707.858317,1776.494261,919.314598,9474.636058
4707.858631,296.082377,1072.533697,9548.656652
4707.858946,0.000000,1455.581446,8438.347739
4707.859260,-296.082377,1685.410096,9696.697840
4707.859574,-888.247130,306.438199,10066.800811
4707.859889,-1850.514855,0.000000,9770.718434
4707.860203,-3256.906145,-2298.286494,8808.450710
4707.860517,-3330.926739,-1378.971896,8808.450710
4707.860831,-2072.576638,0.000000,9474.636058
4707.861146,-1184.329507,306.438199,10807.006753
4707.861460,-1332.370696,459.657299,10510.924376
4707.861774,-2072.576638,0.000000,9252.574275
4707.862088,-2368.659014,689.485948,8660.409521
4707.862403,-444.123565,766.095498,8068.244768
4707.862717,-296.082377,1378.971896,9474.636058
4707.863031,-888.247130,536.266849,10214.842000
4707.863346,1258.350101,689.485948,9474.636058
4707.863660,3256.906145,1915.238745,9474.636058
4707.863974,1628.453072,2451.505594,9918.759623
4707.864288,2220.617826,2451.505594,9548.656652
4707.864603,2220.617826,2681.334243,8290.306550
4707.864917,1110.308913,2298.286494,8882.471304
4707.865231,1850.514855,1149.143247,8290.306550
4707.865545,0.000000,612.876398,8216.285956
4707.865860,-1554.432478,-76.609550,8956.491898
4707.866174,-1332.370696,1532.190996,8216.285956
4707.866488,-1184.329507,1685.410096,9622.677246
4707.866803,-814.226536,-1455.581446,9622.677246
4707.867117,-1776.494261,459.657299,9992.780217
4707.867431,-1850.514855,229.828649,9104.533087
4707.867745,-1406.391290,766.095498,8364.327145
4707.868060,-666.185348,766.095498,7402.059420
4707.868374,-1184.329507,-306.438199,9474.636058
4707.868688,-1110.308913,842.705048,10881.027347
4707.869002,-962.267725,1072.533697,9622.677246
4707.869317,-148.041188,76.609550,9474.636058
4707.869631,962.267725,0.000000,10066.800811
4707.869945,888.247130,1072.533697,10881.027347
4707.870259,1332.370696,383.047749,9474.636058
4707.870574,1702.473667,1378.971896,9178.553681
4707.870888,1924.535449,536.266849,10214.842000
4707.871202,1998.556043,1608.800546,9918.759623
4707.871517,2072.576638,1762.019645,8734.430116
4707.871831,3108.864956,689.485948,8068.244768
4707.872145,3478.967927,2451.505594,9770.718434
4707.872459,4441.235652,1608.800546,9474.636058
4707.872774,4515.256246,1991.848295,9474.636058
4707.873088,2368.659014,2987.772442,9326.594869
4707.873402,2664.741391,2451.505594,8142.265362
4707.873716,2812.782580,2528.115143,8438.347739
4707.874031,1258.350101,1378.971896,8364.327145
4707.874345,-1628.453072,995.924147,9178.553681
4707.874659,-1776.494261,612.876398,7624.121203
4707.874974,-2072.576638,459.657299,7402.059420
4707.875288,-2072.576638,842.705048,9400.615463
4707.875602,-2886.803174,842.705048,10584.944971
4707.875916,-3330.926739,-153.219100,10140.821405
4707.876231,-2664.741391,-766.095498,9252.574275
4707.876545,-3108.864956,-1072.533697,9326.594869
4707.876859,-3330.926739,-1991.848295,9770.718434
4707.877173,-2886.803174,-153.219100,9474.636058
4707.877488,-2146.597232,-76.609550,8438.347739
4707.877802,-518.144159,612.876398,9844.739029
4707.878116,1110.308913,1838.629195,10436.903782
4707.878430,2146.597232,2068.457845,10658.965565
4707.878745,2220.617826,1762.019645,9918.759623
4707.879059,2294.638420,1608.800546,9770.718434
4707.879373,2294.638420,766.095498,10510.924376
4707.879688,1480.411884,459.657299,9992.780217
4707.880002,148.041188,842.705048,9770.718434
4707.880316,148.041188,459.657299,9474.636058
4707.880630,1036.288319,1225.752797,9474.636058
4707.880945,1332.370696,1455.581446,9844.739029
4707.881259,1184.329507,1685.410096,9252.574275
4707.881573,-814.226536,1685.410096,8734.430116
4707.881887,-444.123565,995.924147,7179.997637
4707.882202,-74.020594,1225.752797,7105.977043
4707.882516,-1628.453072,766.095498,7772.162391
4707.882830,-2220.617826,229.828649,7772.162391
4707.883145,-2146.597232,536.266849,7920.203579
4707.883459,0.000000,1149.143247,8734.430116
4707.883773,814.226536,766.095498,9030.512492
4707.884087,0.000000,766.095498,10510.924376
4707.884402,814.226536,383.047749,10066.800811
4707.884716,1184.329507,1072.533697,9326.594869
4707.885030,1184.329507,0.000000,8660.409521
4707.885344,0.000000,-612.876398,9622.677246
4707.885659,-888.247130,689.485948,10658.965565
4707.885973,592.164754,612.876398,9030.512492
4707.886287,1850.514855,1838.629195,9770.718434
4707.886601,1998.556043,-995.924147,9918.759623
4707.886916,1406.391290,383.047749,11177.109724
4707.887230,740.205942,2374.896044,10510.924376
4707.887544,222.061783,1149.143247,9178.553681
4707.887859,0.000000,0.000000,8438.347739
4707.888173,-1184.329507,995.924147,10436.903782
4707.888487,-1850.514855,919.314598,10436.903782
4707.888801,-888.247130,1532.190996,9030.512492
4707.889116,74.020594,0.000000,7920.203579
4707.889430,0.000000,-383.047749,9474.636058
4707.889744,-296.082377,1685.410096,9696.697840
4707.890058,-148.041188,1991.848295,8808.450710
4707.890373,888.247130,1378.971896,7328.038826
4707.890687,888.247130,1455.581446,8438.347739
4707.891001,0.000000,1072.533697,9770.718434
4707.891316,296.082377,1915.238745,8512.368333
4707.891630,814.226536,1149.143247,7698.141797
4707.891944,740.205942,383.047749,8586.388927
4707.892258,1332.370696,612.876398,8734.430116
4707.892573,666.185348,2068.457845,10066.800811
4707.892887,444.123565,1991.848295,10510.924376
4707.893201,222.061783,1302.362347,9548.656652
4707.893515,0.000000,76.609550,8956.491898
4707.893830,-1258.350101,-842.705048,8216.285956
4707.894144,-1924.535449,383.047749,8734.430116
4707.894458,-1480.411884,0.000000,8364.327145
4707.894773,0.000000,612.876398,8808.450710
4707.895087,962.267725,919.314598,10436.903782
4707.895401,1036.288319,1149.143247,11621.233289
4707.895715,888.247130,1608.800546,11103.089130
4707.896030,518.144159,76.609550,10732.986159
4707.896344,592.164754,-459.657299,9104.533087
4707.896658,74.020594,-383.047749,9104.533087
4707.896972,-1480.411884,-153.219100,9992.780217
4707.897287,-1554.432478,153.219100,9474.636058
4707.897601,-370.102971,306.438199,9400.615463
4707.897915,0.000000,229.828649,9178.553681
4707.898229,-740.205942,1072.533697,9178.553681
4707.898544,-222.061783,1991.848295,8808.450710
4707.898858,740.205942,1762.019645,7994.224174
4707.899172,592.164754,766.095498,7624.121203
4707.899487,-740.205942,612.876398,8216.285956
4707.899801,-1184.329507,1225.752797,9030.512492
4707.900115,592.164754,1302.362347,7994.224174
4707.900429,1628.453072,2911.162892,8290.306550
4707.900744,2072.576638,689.485948,8808.450710
4707.901058,2294.638420,2374.896044,9844.739029
4707.901372,1628.453072,1762.019645,9104.533087
4707.901686,888.247130,995.924147,9474.636058
4707.902001,370.102971,995.924147,10658.965565
4707.902315,-814.226536,-689.485948,10066.800811
4707.902629,-1776.494261,-1072.533697,8660.409521
4707.902944,-962.267725,-229.828649,9326.594869
4707.903258,-1480.411884,0.000000,10066.800811
4707.903572,-222.061783,689.485948,10288.862594
4707.903886,666.185348,76.609550,9696.697840
4707.904201,0.000000,306.438199,10807.006753
4707.904515,74.020594,229.828649,11029.068536
4707.904829,-222.061783,0.000000,8956.491898
4707.905143,-222.061783,-612.876398,9252.574275
4707.905458,-1850.514855,153.219100,9696.697840
4707.905772,-1258.350101,306.438199,9548.656652
4707.906086,1258.350101,689.485948,8586.388927
4707.906400,1998.556043,1991.848295,10066.800811
4707.906715,1776.494261,1915.238745,10288.862594
4707.907029,370.102971,842.705048,9474.636058
4707.907343,0.000000,1532.190996,8142.265362
4707.907658,-962.267725,0.000000,8142.265362
4707.907972,-1258.350101,689.485948,7846.182985
4707.908286,-2368.659014,229.828649,8586.388927
4707.908600,-740.205942,0.000000,8216.285956
4707.908915,814.226536,2681.334243,9474.636058
4707.909229,1554.432478,919.314598,8956.491898
4707.909543,1184.329507,1838.629195,9252.574275
4707.909857,1036.288319,2298.286494,8586.388927
4707.910172,1258.350101,1991.848295,9030.512492
4707.910486,2146.597232,1302.362347,8956.491898
4707.910800,1036.288319,229.828649,9400.615463
4707.911115,0.000000,-383.047749,9844.739029
4707.911429,-296.082377,306.438199,8956.491898
4707.911743,0.000000,1455.581446,10362.883188
4707.912057,74.020594,229.828649,9992.780217
4707.912372,-666.185348,766.095498,11769.274478
4707.912686,-1258.350101,-766.095498,10436.903782
4707.913000,-814.226536,-842.705048,8068.244768
4707.913314,-1480.411884,0.000000,7994.224174
4707.913629,-3108.864956,-383.047749,9918.759623
4707.913943,-3256.906145,383.047749,9252.574275
4707.914257,-888.247130,1149.143247,8882.471304
4707.914571,74.020594,1149.143247,9178.553681
4707.914886,888.247130,459.657299,9548.656652
4707.915200,148.041188,536.266849,9474.636058
4707.915514,148.041188,842.705048,8734.430116
4707.915829,1036.288319,1302.362347,9252.574275
4707.916143,666.185348,229.828649,10214.842000
4707.916457,296.082377,-76.609550,10732.986159
4707.916771,74.020594,1991.848295,10436.903782
4707.917086,1332.370696,1608.800546,7772.162391
4707.917400,2368.659014,1149.143247,8438.347739
4707.917714,2146.597232,1762.019645,8808.450710
4707.918028,1998.556043,3140.991542,10658.965565
4707.918343,2072.576638,2451.505594,8660.409521
4707.918657,1480.411884,995.924147,6883.915261
4707.918971,0.000000,536.266849,8586.388927
4707.919286,-814.226536,1149.143247,9474.636058
4707.919600,-1406.391290,1685.410096,8438.347739
4707.919914,-666.185348,-153.219100,7550.100608
4707.920228,-444.123565,0.000000,9474.636058
4707.920543,-222.061783,612.876398,11103.089130
4707.920857,0.000000,459.657299,9474.636058
4707.921171,-444.123565,1225.752797,9326.594869
4707.921485,222.061783,0.000000,9844.739029
4707.921800,370.102971,536.266849,9622.677246
4707.922114,444.123565,1072.533697,9104.533087
4707.922428,-592.164754,-612.876398,9178.553681
4707.922742,-148.041188,842.705048,10362.883188
4707.923057,1036.288319,536.266849,9252.574275
4707.923371,2664.741391,1149.143247,9622.677246
4707.923685,1776.494261,1915.238745,10510.924376
4707.924000,814.226536,1685.410096,10214.842000
4707.924314,1480.411884,1608.800546,8364.327145
4707.924628,666.185348,229.828649,8068.244768
4707.924942,-1480.411884,459.657299,9844.739029
4707.925257,-2220.617826,153.219100,10066.800811
4707.925571,-1406.391290,612.876398,9548.656652
4707.925885,148.041188,0.000000,8882.471304
4707.926199,962.267725,612.876398,8660.409521
4707.926514,148.041188,229.828649,8808.450710
4707.926828,-592.164754,1072.533697,8438.347739
4707.927142,666.185348,2681.334243,8660.409521
4707.927457,592.164754,1608.800546,9696.697840
4707.927771,0.000000,-153.219100,9770.718434
4707.928085,-296.082377,459.657299,10140.821405
4707.928399,-1776.494261,459.657299,9474.636058
4707.928714,-1110.308913,689.485948,9252.574275
4707.929028,-740.205942,1455.581446,9400.615463
4707.929342,-888.247130,76.609550,9622.677246
4707.929656,-1110.308913,1072.533697,9696.697840
4707.929971,-1554.432478,1915.238745,8512.368333
4707.930285,-1850.514855,306.438199,7920.203579
4707.930599,-2442.679609,612.876398,8216.285956
4707.930913,-3256.906145,1072.533697,9992.780217
4707.931228,-1776.494261,-536.266849,8808.450710
4707.931542,296.082377,306.438199,8660.409521
4707.931856,74.020594,-536.266849,8956.491898
4707.932171,74.020594,1149.143247,10362.883188
4707.932485,1480.411884,2987.772442,9474.636058
4707.932799,2368.659014,1302.362347,8808.450710
4707.933113,2516.700203,459.657299,9326.594869
4707.933428,666.185348,459.657299,9178.553681
4707.933742,-222.061783,1072.533697,9770.718434
4707.934056,814.226536,2298.286494,9326.594869
4707.934370,1702.473667,1838.629195,10955.047942
4707.934685,2516.700203,-153.219100,11325.150913
4707.934999,2220.617826,612.876398,10436.903782
4707.935313,1702.473667,766.095498,8216.285956
4707.935628,1554.432478,919.314598,7105.977043
4707.935942,962.267725,1915.238745,8290.306550
4707.936256,74.020594,1225.752797,9178.553681
4707.936570,-666.185348,2451.505594,11103.089130
4707.936885,-740.205942,76.609550,9474.636058
4707.937199,888.247130,-919.314598,8956.491898
4707.937513,1776.494261,153.219100,9474.636058
4707.937827,2072.576638,1685.410096,10584.944971
4707.938142,1406.391290,2145.067394,9548.656652
4707.938456,1184.329507,612.876398,8660.409521
4707.938770,-370.102971,0.000000,8438.347739
4707.939084,-2072.576638,383.047749,9030.512492
4707.939399,-1924.535449,1302.362347,8290.306550
4707.939713,-1036.288319,1455.581446,9400.615463
4707.940027,666.185348,919.314598,9844.739029
4707.940342,1332.370696,306.438199,10214.842000
4707.940656,666.185348,0.000000,9918.759623
4707.940970,-962.267725,1225.752797,9252.574275
4707.941284,-888.247130,1685.410096,8364.327145
4707.941599,-592.164754,919.314598,8290.306550
4707.941913,-814.226536,-306.438199,8808.450710
4707.942227,-1480.411884,919.314598,9474.636058
4707.942541,-1776.494261,612.876398,8808.450710
4707.942856,-370.102971,995.924147,9474.636058
4707.943170,1554.432478,383.047749,9918.759623
4707.943484,1480.411884,2145.067394,11547.212695
4707.943799,1110.308913,1608.800546,11103.089130
4707.944113,1036.288319,919.314598,9474.636058
4707.944427,666.185348,689.485948,8586.388927
4707.944741,0.000000,-383.047749,7772.162391
4707.945056,-1110.308913,919.314598,8882.471304
4707.945370,-666.185348,1685.410096,9918.759623
4707.945684,592.164754,1608.800546,10066.800811
4707.945998,0.000000,1608.800546,11547.212695
4707.946313,-296.082377,-383.047749,9696.697840
4707.946627,-222.061783,306.438199,8216.285956
4707.946941,-962.267725,842.705048,7624.121203
4707.947256,-1258.350101,306.438199,7550.100608
4707.947570,-1628.453072,842.705048,9326.594869
4707.947884,-2368.659014,459.657299,9770.718434
4707.948198,-1258.350101,995.924147,9548.656652
4707.948513,0.000000,153.219100,8364.327145
4707.948827,0.000000,-459.657299,9252.574275
4707.949141,296.082377,1072.533697,10362.883188
4707.949455,370.102971,1149.143247,10362.883188
4707.949770,1406.391290,842.705048,9622.677246
4707.950084,1850.514855,0.000000,8660.409521
4707.950398,444.123565,689.485948,8660.409521
4707.950712,74.020594,2068.457845,9030.512492
4707.951027,222.061783,1838.629195,9178.553681
4707.951341,1628.453072,919.314598,10066.800811
4707.951655,2294.638420,0.000000,10732.986159
4707.951970,814.226536,689.485948,10658.965565
4707.952284,0.000000,842.705048,9918.759623
4707.952598,740.205942,1225.752797,8068.244768
4707.952912,1406.391290,1915.238745,9326.594869
4707.953227,592.164754,536.266849,9400.615463
4707.953541,-740.205942,76.609550,8290.306550
4707.953855,74.020594,1072.533697,8956.491898
4707.954169,1258.350101,2145.067394,9178.553681
4707.954484,1924.535449,1991.848295,9326.594869
4707.954798,1776.494261,1302.362347,10436.903782
4707.955112,1480.411884,1685.410096,9844.739029
4707.955427,1184.329507,2451.505594,8808.450710
4707.955741,518.144159,459.657299,6735.874072
4707.956055,-814.226536,459.657299,7698.141797
4707.956369,-2146.597232,1378.971896,9326.594869
4707.956684,-1628.453072,1838.629195,9178.553681
4707.956998,0.000000,1072.533697,9030.512492
4707.957312,0.000000,612.876398,9252.574275
4707.957626,-370.102971,536.266849,9622.677246
4707.957941,-962.267725,1915.238745,8734.430116
4707.958255,-222.061783,1532.190996,8364.327145
4707.958569,-518.144159,153.219100,8734.430116
4707.958883,-1110.308913,0.000000,9770.718434
4707.959198,-1924.535449,612.876398,10214.842000
4707.959512,-444.123565,919.314598,9178.553681
4707.959826,1628.453072,689.485948,9474.636058
4707.960141,2220.617826,459.657299,11325.150913
4707.960455,2294.638420,1225.752797,12065.356855
4707.960769,148.041188,1838.629195,11177.109724
4707.961084,740.205942,229.828649,9030.512492
4707.961398,1628.453072,842.705048,8068.244768
4707.961712,-814.226536,1225.752797,8734.430116
4707.962027,-370.102971,842.705048,9104.533087
4707.962341,0.000000,1915.238745,8512.368333
4707.962655,-370.102971,306.438199,8290.306550
4707.962970,888.247130,-842.705048,8438.347739
4707.963284,222.061783,1455.581446,9474.636058
4707.963598,-148.041188,612.876398,9548.656652
4707.963913,814.226536,1532.190996,9622.677246
4707.964227,1036.288319,459.657299,8364.327145
4707.964541,0.000000,-919.314598,9622.677246
4707.964856,-296.082377,1302.362347,8882.471304
4707.965170,222.061783,1072.533697,7920.203579
4707.965484,1258.350101,919.314598,9178.553681
4707.965799,1702.473667,1455.581446,10436.903782
4707.966113,518.144159,1455.581446,10881.027347
4707.966428,814.226536,0.000000,8956.491898
4707.966742,0.000000,766.095498,8438.347739
4707.967056,-592.164754,0.000000,8438.347739
4707.967371,-888.247130,0.000000,8512.368333
4707.967685,-1628.453072,612.876398,9548.656652
4707.967999,-1258.350101,0.000000,9992.780217
4707.968314,-148.041188,459.657299,10066.800811
4707.968628,222.061783,-459.657299,10658.965565
4707.968942,-518.144159,76.609550,9622.677246
4707.969257,-296.082377,1532.190996,9178.553681
4707.969571,222.061783,766.095498,9992.780217
4707.969885,888.247130,0.000000,9696.697840
4707.970200,592.164754,306.438199,9474.636058
4707.970514,-444.123565,1072.533697,8808.450710
4707.970828,-444.123565,1762.019645,8512.368333
4707.971143,1332.370696,1378.971896,7698.141797
4707.971457,2368.659014,1149.143247,9326.594869
4707.971771,740.205942,1608.800546,9622.677246
4707.972086,-666.185348,2068.457845,10510.924376
4707.972400,-1184.329507,1225.752797,9104.533087
4707.972714,148.041188,0.000000,8068.244768
4707.973029,-370.102971,766.095498,8660.409521
4707.973343,-1406.391290,229.828649,9548.656652
4707.973657,-1702.473667,1225.752797,9770.718434
4707.973972,222.061783,229.828649,8290.306550
4707.974286,888.247130,-306.438199,9474.636058
4707.974600,148.041188,1225.752797,10510.924376
4707.974915,74.020594,2221.676944,10066.800811
4707.975229,222.061783,1378.971896,8290.306550
4707.975543,518.144159,76.609550,7994.224174
4707.975858,-1850.514855,-383.047749,10066.800811
4707.976172,-2516.700203,-995.924147,9326.594869
4707.976487,-2368.659014,995.924147,8068.244768
4707.976801,-444.123565,383.047749,9030.512492
4707.977115,-370.102971,0.000000,10140.821405
4707.977430,-222.061783,536.266849,11103.089130
4707.977744,222.061783,0.000000,9770.718434
4707.978058,444.123565,995.924147,9030.512492
4707.978373,0.000000,0.000000,8808.450710
4707.978687,370.102971,0.000000,8882.471304
4707.979001,666.185348,2374.896044,9844.739029
4707.979316,1110.308913,1685.410096,9770.718434
4707.979630,2664.741391,612.876398,9918.759623
4707.979944,3034.844362,842.705048,9474.636058
4707.980259,2590.720797,1378.971896,9696.697840
4707.980573,1702.473667,2451.505594,8808.450710
4707.980887,1702.473667,1991.848295,8956.491898
4707.981202,1924.535449,1378.971896,8808.450710
4707.981516,222.061783,995.924147,8290.306550
4707.981830,-888.247130,536.266849,9252.574275
4707.982145,-1628.453072,995.924147,8586.388927
4707.982459,-666.185348,919.314598,7624.121203
4707.982773,-148.041188,-76.609550,8660.409521
4707.983088,-962.267725,459.657299,9844.739029
4707.983402,-1702.473667,459.657299,9548.656652
4707.983716,-1480.411884,459.657299,8512.368333
4707.984031,-1332.370696,76.609550,8068.244768
4707.984345,-1924.535449,-1762.019645,8512.368333
4707.984659,-2146.597232,153.219100,9770.718434
4707.984974,-962.267725,1225.752797,10288.862594
4707.985288,888.247130,612.876398,10881.027347
4707.985602,1628.453072,76.609550,10584.944971
4707.985917,1036.288319,153.219100,11029.068536
4707.986231,1776.494261,1685.410096,9844.739029
4707.986546,1702.473667,2604.724693,9030.512492
4707.986860,1110.308913,153.219100,8734.430116
4707.987174,0.000000,153.219100,10288.862594
4707.987489,-592.164754,1302.362347,10362.883188
4707.987803,0.000000,995.924147,9030.512492
4707.988117,1184.329507,995.924147,8438.347739
4707.988432,1406.391290,766.095498,9252.574275
4707.988746,592.164754,2528.115143,10288.862594
4707.989060,0.000000,2451.505594,8882.471304
4707.989375,222.061783,1149.143247,7846.182985
4707.989689,-444.123565,306.438199,7994.224174
4707.990003,-1332.370696,919.314598,9326.594869
4707.990318,-1702.473667,2298.286494,9622.677246
4707.990632,-370.102971,995.924147,8290.306550
4707.990946,740.205942,306.438199,9474.636058
4707.991261,666.185348,919.314598,9918.759623
4707.991575,74.020594,842.705048,9178.553681
4707.991889,-222.061783,2145.067394,9252.574275
4707.992204,-444.123565,842.705048,9104.533087
4707.992518,-444.123565,0.000000,9844.739029
4707.992832,-592.164754,-383.047749,9918.759623
4707.993147,-1184.329507,0.000000,8586.388927
4707.993461,-2368.659014,919.314598,8734.430116
4707.993775,-1036.288319,-229.828649,8734.430116
4707.994090,0.000000,306.438199,9252.574275
4707.994404,222.061783,1455.581446,10881.027347
4707.994718,-592.164754,306.438199,9770.718434
4707.995033,-222.061783,-153.219100,8586.388927
4707.995347,-592.164754,-383.047749,9326.594869
4707.995661,-518.144159,-306.438199,10584.944971
4707.995976,-740.205942,-383.047749,10658.965565
4707.996290,-296.082377,-995.924147,10140.821405
4707.996605,1702.473667,-459.657299,9992.780217
4707.996919,2886.803174,1378.971896,9992.780217
4707.997233,3330.926739,1532.190996,8882.471304
4707.997548,3182.885551,1762.019645,7846.182985
4707.997862,2738.761985,2834.553343,9400.615463
4707.998176,2590.720797,2374.896044,9104.533087
4707.998491,1110.308913,1225.752797,9030.512492
4707.998805,-518.144159,-306.438199,8512.368333
4707.999119,-370.102971,459.657299,8808.450710
4707.999434,962.267725,1072.533697,9030.512492
4707.999748,814.226536,842.705048,9252.574275
4708.000062,370.102971,306.438199,9326.594869
4708.000377,-592.164754,612.876398,9178.553681
4708.000691,0.000000,1762.019645,8808.450710
4708.001005,-148.041188,1685.410096,8512.368333
4708.001320,-1480.411884,612.876398,9992.780217
4708.001634,-1924.535449,383.047749,11029.068536
4708.001948,-592.164754,76.609550,10140.821405
4708.002263,666.185348,153.219100,9030.512492
4708.002577,1258.350101,536.266849,9400.615463
4708.002891,518.144159,3064.381992,10214.842000
4708.003206,-296.082377,2681.334243,10288.862594
4708.003520,592.164754,2451.505594,9252.574275
4708.003834,74.020594,995.924147,7846.182985
4708.004149,-1480.411884,229.828649,8512.368333
4708.004463,-2886.803174,1455.581446,9104.533087
4708.004777,-1776.494261,1915.238745,9178.553681
4708.005092,814.226536,1149.143247,9178.553681
4708.005406,1036.288319,919.314598,10140.821405
4708.005720,-1184.329507,1302.362347,10510.924376
4708.006035,-962.267725,1149.143247,7920.203579
4708.006349,1184.329507,3064.381992,6957.935855
4708.006664,1332.370696,2987.772442,7920.203579
4708.006978,740.205942,2298.286494,9252.574275
4708.007292,888.247130,2451.505594,9104.533087
4708.007607,1184.329507,1838.629195,8290.306550
4708.007921,1702.473667,2604.724693,9622.677246
4708.008235,888.247130,383.047749,9622.677246
4708.008550,74.020594,689.485948,10214.842000
4708.008864,-370.102971,612.876398,9622.677246
4708.009178,-592.164754,229.828649,9548.656652
4708.009493,-1628.453072,-1915.238745,8882.471304
4708.009807,-3034.844362,-2221.676944,8882.471304
4708.010121,-3775.050304,0.000000,9548.656652
4708.010436,-2812.782580,536.266849,10658.965565
4708.010750,74.020594,-842.705048,9992.780217
4708.011064,1480.411884,-1685.410096,9770.718434
4708.011379,222.061783,-612.876398,10807.006753
4708.011693,0.000000,383.047749,9252.574275
4708.012007,592.164754,1302.362347,8142.265362
4708.012322,962.267725,-536.266849,8808.450710
4708.012636,592.164754,-612.876398,10288.862594
4708.012950,-962.267725,306.438199,10362.883188
4708.013265,370.102971,-612.876398,8586.388927
4708.013579,1036.288319,689.485948,9770.718434
4708.013893,1258.350101,-1072.533697,10807.006753
4708.014208,592.164754,-766.095498,10140.821405
4708.014522,0.000000,459.657299,8364.327145
4708.014836,518.144159,306.438199,8512.368333
4708.015151,0.000000,0.000000,8290.306550
4708.015465,-296.082377,-536.266849,8660.409521
4708.015779,-1110.308913,0.000000,8808.450710
4708.016094,0.000000,1072.533697,8882.471304
4708.016408,370.102971,459.657299,9474.636058
4708.016723,1628.453072,76.609550,9400.615463
4708.017037,1702.473667,1838.629195,10214.842000
4708.017351,962.267725,1685.410096,9622.677246
4708.017666,296.082377,1532.190996,8586.388927
4708.017980,0.000000,536.266849,8068.244768
4708.018294,-740.205942,0.000000,9548.656652
4708.018609,-1702.473667,1991.848295,9992.780217
4708.018923,-740.205942,919.314598,9252.574275
4708.019237,962.267725,1225.752797,9474.636058
4708.019552,814.226536,766.095498,9770.718434
4708.019866,-666.185348,1762.019645,9844.739029
4708.020180,-740.205942,1149.143247,7698.141797
4708.020495,0.000000,1072.533697,7179.997637
4708.020809,-592.164754,1915.238745,9178.553681
4708.021123,-1924.535449,1608.800546,10510.924376
4708.021438,-1702.473667,1838.629195,9178.553681
4708.021752,-592.164754,689.485948,9474.636058
4708.022066,444.123565,1072.533697,9696.697840
4708.022381,1332.370696,919.314598,9696.697840
4708.022695,962.267725,1685.410096,9696.697840
4708.023009,1258.350101,2757.943793,9918.759623
4708.023324,1628.453072,2911.162892,9326.594869
4708.023638,1776.494261,1762.019645,8586.388927
4708.023952,1480.411884,1608.800546,8586.388927
4708.024267,296.082377,2068.457845,9844.739029
4708.024581,666.185348,2145.067394,10362.883188
4708.024895,1110.308913,1608.800546,9400.615463
4708.025210,1184.329507,306.438199,9178.553681
4708.025524,148.041188,1532.190996,9474.636058
4708.025839,-1184.329507,2298.286494,9474.636058
4708.026153,-666.185348,919.314598,8290.306550
4708.026467,1036.288319,383.047749,7994.224174
4708.026782,-592.164754,-153.219100,8956.491898
4708.027096,-1554.432478,76.609550,9474.636058
4708.027410,-592.164754,1685.410096,8660.409521
4708.027725,814.226536,1149.143247,9474.636058
4708.028039,1258.350101,0.000000,11177.109724
4708.028353,1184.329507,919.314598,11029.068536
4708.028668,1110.308913,153.219100,9622.677246
4708.028982,1776.494261,153.219100,8364.327145
4708.029296,740.205942,76.609550,8882.471304
4708.029611,-518.144159,-459.657299,9548.656652
4708.029925,-1776.494261,0.000000,9622.677246
4708.030239,-1184.329507,689.485948,9696.697840
4708.030554,444.123565,-842.705048,9918.759623
4708.030868,888.247130,-766.095498,9696.697840
4708.031182,222.061783,76.609550,10214.842000
4708.031497,-222.061783,612.876398,8586.388927
4708.031811,148.041188,1072.533697,8660.409521
4708.032125,444.123565,-229.828649,9548.656652
4708.032440,-148.041188,76.609550,8512.368333
4708.032754,-740.205942,536.266849,8290.306550
4708.033068,-1924.535449,229.828649,8808.450710
4708.033383,0.000000,1915.238745,10955.047942
4708.033697,2220.617826,536.266849,10066.800811
4708.034011,2368.659014,-229.828649,9252.574275
4708.034326,814.226536,229.828649,9178.553681
4708.034640,0.000000,1302.362347,9770.718434
4708.034954,-370.102971,1532.190996,8808.450710
4708.035269,-666.185348,306.438199,8216.285956
4708.035583,-1924.535449,-995.924147,8068.244768
4708.035898,-1702.473667,0.000000,9104.533087
4708.036212,-666.185348,1838.629195,10140.821405
4708.036526,-148.041188,1455.581446,9622.677246
4708.036841,-296.082377,0.000000,11251.130318
4708.037155,148.041188,-306.438199,10066.800811
4708.037469,518.144159,842.705048,8660.409521
4708.037784,370.102971,919.314598,7105.977043
4708.038098,-1332.370696,1685.410096,7920.203579
4708.038412,-1850.514855,1762.019645,9622.677246
4708.038727,0.000000,2604.724693,10510.924376
4708.039041,1258.350101,2145.067394,9918.759623
4708.039355,296.082377,-536.266849,10584.944971
4708.039670,0.000000,1455.581446,10658.965565
4708.039984,-370.102971,2145.067394,9474.636058
4708.040298,1036.288319,1608.800546,9030.512492
4708.040613,814.226536,1225.752797,9104.533087
4708.040927,-814.226536,0.000000,9474.636058
4708.041241,-1628.453072,1685.410096,7920.203579
4708.041556,-814.226536,3524.039291,7772.162391
4708.041870,814.226536,2145.067394,9400.615463
4708.042184,1850.514855,1302.362347,10510.924376
4708.042499,1628.453072,1762.019645,10362.883188
4708.042813,1036.288319,689.485948,7846.182985
4708.043127,0.000000,1915.238745,7476.080014
4708.043442,296.082377,1378.971896,7698.141797
4708.043756,814.226536,2451.505594,9326.594869
4708.044070,0.000000,1991.848295,9400.615463
4708.044385,74.020594,536.266849,10140.821405
4708.044699,296.082377,459.657299,9474.636058
4708.045013,666.185348,306.438199,9770.718434
4708.045328,740.205942,1149.143247,10214.842000
4708.045642,-370.102971,1302.362347,10066.800811
4708.045957,74.020594,459.657299,10066.800811
4708.046271,-592.164754,-689.485948,8512.368333
4708.046585,-2072.576638,0.000000,7920.203579
4708.046900,-2886.803174,383.047749,9844.739029
4708.047214,-2368.659014,612.876398,9326.594869
4708.047528,0.000000,0.000000,8808.450710
4708.047843,888.247130,-536.266849,10807.006753
4708.048157,0.000000,76.609550,11103.089130
4708.048471,592.164754,76.609550,9844.739029
4708.048786,1850.514855,459.657299,7179.997637
4708.049100,1480.411884,536.266849,8512.368333
4708.049414,1258.350101,1225.752797,10584.944971
4708.049729,740.205942,1455.581446,9696.697840
4708.050043,1998.556043,383.047749,9030.512492
4708.050357,3478.967927,1608.800546,10288.862594
4708.050672,3627.009116,1685.410096,9992.780217
4708.050986,3034.844362,995.924147,9400.615463
4708.051300,1998.556043,1072.533697,8734.430116
4708.051615,666.185348,1915.238745,9844.739029
4708.051929,-296.082377,383.047749,9548.656652
4708.052243,-1702.473667,0.000000,9104.533087
4708.052558,-3108.864956,-1608.800546,7846.182985
4708.052872,-2886.803174,-1072.533697,8216.285956
4708.053186,-1924.535449,76.609550,9178.553681
4708.053501,-1406.391290,-459.657299,9030.512492
4708.053815,-1850.514855,306.438199,9622.677246
4708.054129,-1924.535449,766.095498,9548.656652
4708.054444,-962.267725,689.485948,8734.430116
4708.054758,518.144159,919.314598,7920.203579
4708.055072,74.020594,919.314598,8882.471304
4708.055387,-222.061783,1762.019645,9474.636058
4708.055701,666.185348,2221.676944,9696.697840
4708.056016,2516.700203,1762.019645,10807.006753
4708.056330,2368.659014,1225.752797,12213.398043
4708.056644,2368.659014,1072.533697,11843.295072
4708.056959,1036.288319,842.705048,9918.759623
4708.057273,1036.288319,842.705048,8734.430116
4708.057587,1036.288319,1225.752797,9030.512492
4708.057901,-740.205942,842.705048,9474.636058
4708.058216,-1924.535449,919.314598,8660.409521
4708.058530,-2442.679609,1762.019645,8216.285956
4708.058844,-1332.370696,1225.752797,8660.409521
4708.059158,-740.205942,1455.581446,9622.677246
4708.059473,-1184.329507,306.438199,8882.471304
4708.059787,-1036.288319,842.705048,8290.306550
4708.060101,-1036.288319,2145.067394,8808.450710
4708.060415,-592.164754,1532.190996,8512.368333
4708.060730,-1702.473667,995.924147,8808.450710
4708.061044,-962.267725,766.095498,7994.224174
4708.061358,-148.041188,2374.896044,9326.594869
4708.061672,1480.411884,1225.752797,9104.533087
4708.061987,3108.864956,995.924147,9622.677246
4708.062301,2072.576638,1608.800546,10955.047942
4708.062615,1924.535449,1455.581446,10288.862594
4708.062929,2812.782580,1608.800546,9030.512492
4708.063244,2368.659014,229.828649,8660.409521
4708.063558,1332.370696,0.000000,9474.636058
4708.063872,518.144159,766.095498,9696.697840
4708.064186,148.041188,229.828649,9844.739029
4708.064501,1036.288319,612.876398,10214.842000
4708.064815,1332.370696,-306.438199,10807.006753
4708.065129,222.061783,-689.485948,10140.821405
4708.065443,-740.205942,-459.657299,9548.656652
4708.065758,148.041188,-306.438199,8956.491898
4708.066072,-296.082377,0.000000,9400.615463
4708.066386,-1258.350101,-766.095498,8734.430116
4708.066700,-1702.473667,76.609550,8808.450710
4708.067015,-1332.370696,1532.190996,9474.636058
4708.067329,444.123565,1762.019645,9918.759623
4708.067643,814.226536,919.314598,9326.594869
4708.067957,666.185348,-153.219100,9770.718434
4708.068272,814.226536,153.219100,9252.574275
4708.068586,814.226536,995.924147,9030.512492
4708.068900,1184.329507,766.095498,9104.533087
4708.069214,592.164754,1378.971896,9104.533087
4708.069529,370.102971,1149.143247,8882.471304
4708.069843,962.267725,1378.971896,8586.388927
4708.070157,1998.556043,1838.629195,9178.553681
4708.070471,1850.514855,1302.362347,9178.553681
4708.070786,962.267725,1532.190996,8808.450710
4708.071100,-222.061783,2451.505594,9400.615463
4708.071414,0.000000,2221.676944,8956.491898
4708.071728,-444.123565,1072.533697,8586.388927
4708.072043,-2516.700203,-612.876398,8068.244768
4708.072357,-3923.091493,-1072.533697,8364.327145
4708.072671,-3775.050304,1532.190996,8808.450710
4708.072985,-1184.329507,689.485948,9548.656652
4708.073300,-370.102971,459.657299,10732.986159
4708.073614,-1850.514855,76.609550,11547.212695
4708.073928,-1924.535449,459.657299,9918.759623
4708.074242,-1628.453072,612.876398,8068.244768
4708.074557,-1406.391290,0.000000,8660.409521
4708.074871,-1036.288319,0.000000,9548.656652
4708.075185,-518.144159,1149.143247,9918.759623
4708.075500,-148.041188,1455.581446,10066.800811
4708.075814,888.247130,1072.533697,10288.862594
4708.076128,1258.350101,689.485948,10362.883188
4708.076442,1480.411884,536.266849,9696.697840
4708.076757,1406.391290,2145.067394,8734.430116
4708.077071,1406.391290,2068.457845,8586.388927
4708.077385,1998.556043,1302.362347,8216.285956
4708.077699,1110.308913,1149.143247,7920.203579
4708.078014,-370.102971,1072.533697,8438.347739
4708.078328,-296.082377,2298.286494,9326.594869
4708.078642,888.247130,2068.457845,8956.491898
4708.078956,1480.411884,459.657299,8956.491898
4708.079271,1110.308913,-1302.362347,8364.327145
4708.079585,-666.185348,-383.047749,8438.347739
4708.079899,-962.267725,1225.752797,10436.903782
4708.080213,-1258.350101,1225.752797,9474.636058
4708.080528,-1702.473667,-919.314598,9104.533087
4708.080842,-1480.411884,-2068.457845,8882.471304
4708.081156,-888.247130,-306.438199,8734.430116
4708.081470,148.041188,306.438199,9844.739029
4708.081785,814.226536,153.219100,9474.636058
4708.082099,518.144159,383.047749,10510.924376
4708.082413,444.123565,0.000000,10658.965565
4708.082727,1258.350101,919.314598,9252.574275
4708.083042,1406.391290,306.438199,8734.430116
4708.083356,592.164754,-689.485948,8808.450710
4708.083670,0.000000,612.876398,9178.553681
4708.083984,1184.329507,995.924147,9474.636058
4708.084299,1850.514855,1149.143247,9918.759623
4708.084613,1850.514855,229.828649,10288.862594
4708.084927,1184.329507,1225.752797,10658.965565
4708.085241,1184.329507,1302.362347,9326.594869
4708.085556,1776.494261,612.876398,8586.388927
4708.085870,1184.329507,536.266849,9400.615463
4708.086184,296.082377,459.657299,9104.533087
4708.086498,-962.267725,1608.800546,8290.306550
4708.086813,-1628.453072,1838.629195,8438.347739
4708.087127,-296.082377,1762.019645,10066.800811
4708.087441,518.144159,1838.629195,9918.759623
4708.087755,444.123565,1072.533697,9252.574275
4708.088070,-370.102971,612.876398,7846.182985
4708.088384,-370.102971,1608.800546,9178.553681
4708.088698,-666.185348,1532.190996,9622.677246
4708.089012,-1258.350101,1378.971896,9770.718434
4708.089327,-2442.679609,995.924147,10214.842000
4708.089641,-1480.411884,995.924147,9030.512492
4708.089955,-1036.288319,2374.896044,9474.636058
4708.090269,0.000000,153.219100,8882.471304
4708.090584,-370.102971,1302.362347,9104.533087
4708.090898,-814.226536,1762.019645,9844.739029
4708.091212,-1554.432478,1608.800546,9992.780217
4708.091526,-1110.308913,1838.629195,9252.574275
4708.091841,-1702.473667,383.047749,8808.450710
4708.092155,-2146.597232,0.000000,9326.594869
4708.092469,-592.164754,1455.581446,8586.388927
4708.092783,592.164754,1838.629195,9104.533087
4708.093098,1184.329507,842.705048,9474.636058
4708.093412,1184.329507,2221.676944,9252.574275
4708.093726,1628.453072,2451.505594,9030.512492
4708.094040,1480.411884,2681.334243,8734.430116
4708.094355,888.247130,1685.410096,8808.450710
4708.094669,1332.370696,-459.657299,7994.224174
4708.094983,666.185348,536.266849,9030.512492
4708.095297,814.226536,536.266849,9326.594869
4708.095612,1332.370696,1532.190996,10214.842000
4708.095926,2590.720797,1149.143247,9548.656652
4708.096240,1554.432478,229.828649,9770.718434
4708.096554,1628.453072,536.266849,8808.450710
4708.096869,1036.288319,0.000000,8586.388927
4708.097183,592.164754,-229.828649,9030.512492
4708.097497,74.020594,0.000000,9622.677246
4708.097811,0.000000,153.219100,9770.718434
4708.098126,370.102971,306.438199,10288.862594
4708.098440,518.144159,-306.438199,9696.697840
4708.098754,592.164754,-612.876398,9696.697840
4708.099068,-888.247130,-689.485948,9770.718434
4708.099383,-1110.308913,-383.047749,9622.677246
4708.099697,-740.205942,-153.219100,9696.697840
4708.100011,-1258.350101,-1225.752797,9770.718434
4708.100325,-1776.494261,0.000000,9844.739029
4708.100640,-2516.700203,-1072.533697,9622.677246
4708.100954,-1776.494261,-536.266849,9696.697840
4708.101268,0.000000,153.219100,10214.842000
4708.101582,1184.329507,0.000000,9252.574275
4708.101897,740.205942,1455.581446,9548.656652
4708.102211,444.123565,2221.676944,8808.450710
4708.102525,888.247130,2911.162892,7920.203579
4708.102839,814.226536,1302.362347,7402.059420
4708.103154,222.061783,1378.971896,7994.224174
4708.103468,-444.123565,766.095498,8216.285956
4708.103782,-962.267725,1455.581446,8142.265362
4708.104096,-444.123565,1532.190996,9178.553681
4708.104411,-148.041188,842.705048,9844.739029
4708.104725,-148.041188,612.876398,9992.780217
4708.105039,0.000000,153.219100,8808.450710
4708.105353,0.000000,1072.533697,8512.368333
4708.105668,444.123565,689.485948,7846.182985
4708.105982,-666.185348,689.485948,8512.368333
4708.106296,-1406.391290,1455.581446,9992.780217
4708.106610,-1554.432478,1302.362347,10584.944971
4708.106925,592.164754,1685.410096,11029.068536
4708.107239,2072.576638,229.828649,9326.594869
4708.107553,962.267725,383.047749,11695.253884
4708.107867,0.000000,1149.143247,11769.274478
4708.108182,-296.082377,1072.533697,9104.533087
4708.108496,-148.041188,383.047749,9030.512492
4708.108810,-1480.411884,-383.047749,9326.594869
4708.109124,-2294.638420,1225.752797,10288.862594
4708.109439,-1406.391290,383.047749,9474.636058
4708.109753,-370.102971,1072.533697,8734.430116
4708.110067,0.000000,-153.219100,7772.162391
4708.110381,-74.020594,536.266849,9178.553681
4708.110696,592.164754,1302.362347,7402.059420
4708.111010,1406.391290,2681.334243,8142.265362
4708.111324,1258.350101,2374.896044,8216.285956
4708.111638,1184.329507,1149.143247,8142.265362
4708.111953,1924.535449,1455.581446,8290.306550
4708.112267,2812.782580,3524.039291,8734.430116
4708.112581,2442.679609,2834.553343,9474.636058
4708.112895,3775.050304,1838.629195,8882.471304
4708.113210,3034.844362,1915.238745,9548.656652
4708.113524,1924.535449,1455.581446,10510.924376
4708.113838,814.226536,1915.238745,10066.800811
4708.114152,-370.102971,-612.876398,8438.347739
4708.114467,-1036.288319,-459.657299,9622.677246
4708.114781,-1554.432478,229.828649,9918.759623
4708.115095,-1554.432478,766.095498,10955.047942
4708.115410,-814.226536,-536.266849,10510.924376
4708.115724,-74.020594,-995.924147,9622.677246
4708.116038,-1184.329507,0.000000,9474.636058
4708.116352,-1850.514855,995.924147,9178.553681
4708.116667,-1480.411884,2068.457845,9178.553681
4708.116981,-518.144159,536.266849,8660.409521
4708.117295,0.000000,0.000000,8956.491898
4708.117609,-1628.453072,689.485948,9992.780217
4708.117924,-1628.453072,612.876398,9548.656652
4708.118238,148.041188,1225.752797,8956.491898
4708.118552,1554.432478,536.266849,9326.594869
4708.118866,1406.391290,842.705048,9622.677246
4708.119181,888.247130,1685.410096,9400.615463
4708.119495,592.164754,1991.848295,8290.306550
4708.119809,518.144159,1608.800546,6809.894666
4708.120123,1036.288319,1149.143247,8068.244768
4708.120438,74.020594,612.876398,9770.718434
4708.120752,592.164754,1149.143247,9844.739029
4708.121066,1554.432478,995.924147,9770.718434
4708.121380,1554.432478,-383.047749,9030.512492
4708.121695,296.082377,689.485948,9918.759623
4708.122009,0.000000,842.705048,9252.574275
4708.122323,370.102971,1685.410096,8142.265362
4708.122637,518.144159,766.095498,8068.244768
4708.122952,-666.185348,76.609550,9326.594869
4708.123266,-1628.453072,459.657299,9992.780217
4708.123580,-1184.329507,612.876398,9918.759623
4708.123894,-444.123565,306.438199,10807.006753
4708.124209,0.000000,-612.876398,10732.986159
4708.124523,-1036.288319,-1072.533697,10362.883188
4708.124837,0.000000,-995.924147,9178.553681
4708.125151,222.061783,1225.752797,9252.574275
4708.125466,74.020594,536.266849,8216.285956
4708.125780,-740.205942,306.438199,8512.368333
4708.126094,-1258.350101,1225.752797,9474.636058
4708.126408,-296.082377,1532.190996,10362.883188
4708.126723,666.185348,1072.533697,9622.677246
4708.127037,592.164754,-842.705048,9474.636058
4708.127351,-222.061783,-689.485948,9548.656652
4708.127665,-444.123565,536.266849,8882.471304
4708.127980,-518.144159,766.095498,8216.285956
4708.128294,-296.082377,-229.828649,7550.100608
4708.128608,-1406.391290,1302.362347,8660.409521
4708.128922,-1332.370696,1762.019645,9326.594869
4708.129237,222.061783,1838.629195,8660.409521
4708.129551,1480.411884,1072.533697,8512.368333
4708.129865,1998.556043,76.609550,9622.677246
4708.130179,1406.391290,1378.971896,9844.739029
4708.130494,814.226536,1455.581446,8882.471304
4708.130808,0.000000,1302.362347,8660.409521
4708.131122,-222.061783,1225.752797,9474.636058
4708.131436,-666.185348,689.485948,10066.800811
4708.131751,-1628.453072,306.438199,9474.636058
4708.132065,-1110.308913,306.438199,9252.574275
4708.132379,0.000000,76.609550,9844.739029
4708.132693,518.144159,0.000000,10288.862594
4708.133008,444.123565,842.705048,10140.821405
4708.133322,296.082377,2221.676944,9918.759623
4708.133636,0.000000,1378.971896,9548.656652
4708.133950,-222.061783,995.924147,8512.368333
4708.134265,296.082377,842.705048,7846.182985
4708.134579,-296.082377,1378.971896,8290.306550
4708.134893,-222.061783,2221.676944,9474.636058
4708.135207,592.164754,1302.362347,9696.697840
4708.135522,1110.308913,689.485948,9992.780217
4708.135836,370.102971,76.609550,9622.677246
4708.136150,-444.123565,689.485948,9548.656652
4708.136464,-888.247130,689.485948,7846.182985
4708.136779,-592.164754,459.657299,7624.121203
4708.137093,-888.247130,842.705048,8586.388927
4708.137407,-740.205942,612.876398,9770.718434
4708.137721,-148.041188,306.438199,9622.677246
4708.138036,1332.370696,1378.971896,9474.636058
4708.138350,2368.659014,1608.800546,9548.656652
4708.138664,2368.659014,1225.752797,9696.697840
4708.138978,2220.617826,1608.800546,9548.656652
4708.139293,2812.782580,2374.896044,9400.615463
4708.139607,2220.617826,1149.143247,8216.285956
4708.139921,1036.288319,766.095498,9326.594869
4708.140235,-370.102971,1149.143247,10584.944971
4708.140550,370.102971,1762.019645,9992.780217
4708.140864,592.164754,1072.533697,10658.965565
4708.141178,296.082377,-612.876398,11325.150913
4708.141492,296.082377,-306.438199,9992.780217
4708.141807,-740.205942,76.609550,8586.388927
4708.142121,-1480.411884,383.047749,7402.059420
4708.142435,-1776.494261,306.438199,7994.224174
4708.142749,-1702.473667,842.705048,9030.512492
4708.143064,-1702.473667,2145.067394,10288.862594
4708.143378,-518.144159,766.095498,9770.718434
4708.143692,666.185348,-689.485948,9400.615463
4708.144006,370.102971,-689.485948,9178.553681
4708.144321,518.144159,919.314598,9992.780217
4708.144635,-370.102971,1532.190996,9622.677246
4708.144949,0.000000,1302.362347,8586.388927
4708.145263,148.041188,1302.362347,7476.080014
4708.145578,-888.247130,1072.533697,7920.203579
4708.145892,-1628.453072,842.705048,7772.162391
4708.146206,-814.226536,995.924147,8660.409521
4708.146520,74.020594,766.095498,9992.780217
4708.146835,1036.288319,766.095498,10807.006753
4708.147149,814.226536,306.438199,10214.842000
4708.147463,592.164754,-229.828649,8364.327145
4708.147777,740.205942,1225.752797,8438.347739
4708.148092,592.164754,1838.629195,9992.780217
4708.148406,0.000000,995.924147,8956.491898
4708.148720,222.061783,153.219100,9548.656652
4708.149034,592.164754,689.485948,10658.965565
4708.149349,888.247130,1302.362347,11473.192101
4708.149663,1406.391290,306.438199,10881.027347
4708.149977,518.144159,153.219100,9770.718434
4708.150291,592.164754,0.000000,9252.574275
4708.150606,592.164754,842.705048,7994.224174
4708.150920,-148.041188,995.924147,8142.265362
4708.151234,-1998.556043,1302.362347,10732.986159
4708.151548,-2072.576638,1455.581446,10214.842000
4708.151863,-1406.391290,459.657299,10140.821405
4708.152177,0.000000,-1838.629195,9326.594869
4708.152491,148.041188,-1608.800546,9326.594869
4708.152805,962.267725,76.609550,9030.512492
4708.153120,592.164754,1838.629195,7624.121203
4708.153434,666.185348,3447.429741,8364.327145
4708.153748,-222.061783,1455.581446,9104.533087
4708.154062,-740.205942,689.485948,8364.327145
4708.154377,-148.041188,1838.629195,7920.203579
4708.154691,-518.144159,1685.410096,8586.388927
4708.155005,1628.453072,1455.581446,9400.615463
4708.155320,3478.967927,0.000000,9474.636058
4708.155634,1332.370696,1608.800546,9548.656652
4708.155948,740.205942,2374.896044,10288.862594
4708.156262,-444.123565,2221.676944,8364.327145
4708.156577,-1332.370696,842.705048,8216.285956
4708.156891,370.102971,842.705048,8734.430116
4708.157205,-148.041188,1762.019645,11103.089130
4708.157519,-444.123565,-689.485948,10436.903782
4708.157834,1110.308913,-536.266849,8882.471304
4708.158148,1480.411884,1915.238745,10140.821405
4708.158462,1036.288319,1072.533697,10658.965565
4708.158776,1258.350101,1455.581446,9252.574275
4708.159091,518.144159,919.314598,8882.471304
4708.159405,148.041188,842.705048,8068.244768
4708.159719,-814.226536,2681.334243,9400.615463
4708.160033,-2072.576638,-229.828649,9326.594869
4708.160348,-814.226536,-536.266849,10362.883188
4708.160662,-370.102971,306.438199,11325.150913
4708.160976,-296.082377,-842.705048,10881.027347
4708.161290,-592.164754,-612.876398,8882.471304
4708.161605,-740.205942,306.438199,8808.450710
4708.161919,-370.102971,1838.629195,9252.574275
4708.162233,-444.123565,1608.800546,7105.977043
4708.162547,-888.247130,612.876398,8364.327145
4708.162862,-1924.535449,76.609550,9104.533087
4708.163176,-592.164754,995.924147,9548.656652
4708.163490,592.164754,536.266849,9844.739029
4708.163804,666.185348,-612.876398,9104.533087
4708.164119,518.144159,0.000000,9548.656652
4708.164433,370.102971,229.828649,9474.636058
4708.164747,1110.308913,766.095498,7698.141797
4708.165061,1406.391290,1991.848295,9548.656652
4708.165376,1554.432478,919.314598,9622.677246
4708.165690,518.144159,1608.800546,9252.574275
4708.166004,1406.391290,1455.581446,9326.594869
4708.166318,2368.659014,1455.581446,9992.780217
4708.166633,2664.741391,1072.533697,9770.718434
4708.166947,2072.576638,1762.019645,10140.821405
4708.167261,1110.308913,2221.676944,9252.574275
4708.167575,666.185348,1225.752797,9252.574275
4708.167890,-518.144159,919.314598,7328.038826
4708.168204,-1036.288319,0.000000,7550.100608
4708.168518,-2294.638420,1685.410096,9474.636058
4708.168832,-1702.473667,1072.533697,9178.553681
4708.169147,-1110.308913,229.828649,9474.636058
4708.169461,-740.205942,-229.828649,10436.903782
4708.169775,-1184.329507,0.000000,10436.903782
4708.170089,-1110.308913,1072.533697,9400.615463
4708.170404,74.020594,995.924147,8512.368333
4708.170718,74.020594,1455.581446,9918.759623
4708.171032,296.082377,1532.190996,9622.677246
4708.171346,370.102971,2145.067394,9252.574275
4708.171661,296.082377,2528.115143,9548.656652
4708.171975,666.185348,995.924147,9548.656652
4708.172289,1924.535449,1532.190996,10066.800811
4708.172603,1554.432478,1685.410096,10066.800811
4708.172917,74.020594,1532.190996,9992.780217
4708.173232,518.144159,842.705048,8512.368333
4708.173546,296.082377,919.314598,7772.162391
4708.173860,-1184.329507,1302.362347,8068.244768
4708.174174,-2146.597232,1915.238745,7846.182985
4708.174489,-1406.391290,919.314598,8364.327145
4708.174803,222.061783,689.485948,9474.636058
4708.175117,1406.391290,919.314598,9844.739029
4708.175431,1036.288319,689.485948,9844.739029
4708.175746,444.123565,153.219100,9326.594869
4708.176060,666.185348,766.095498,8438.347739
4708.176374,888.247130,1532.190996,9326.594869
4708.176688,592.164754,153.219100,9770.718434
4708.177003,-1184.329507,229.828649,9622.677246
4708.177317,-1332.370696,0.000000,10362.883188
4708.177631,-666.185348,-306.438199,10362.883188
4708.177945,-592.164754,-1532.190996,10066.800811
4708.178260,-1258.350101,-2834.553343,9622.677246
4708.178574,-1850.514855,-1225.752797,10658.965565
4708.178888,-1924.535449,153.219100,9474.636058
4708.179202,-2072.576638,-306.438199,8586.388927
4708.179517,-2590.720797,-1302.362347,8660.409521
4708.179831,-2516.700203,-919.314598,9178.553681
4708.180145,-1406.391290,-229.828649,8956.491898
4708.180459,0.000000,-536.266849,8364.327145
4708.180774,666.185348,-536.266849,9252.574275
4708.181088,518.144159,0.000000,10732.986159
4708.181402,888.247130,766.095498,10436.903782
4708.181716,1998.556043,842.705048,9326.594869
4708.182031,1924.535449,0.000000,7920.203579
4708.182345,1258.350101,229.828649,8364.327145
4708.182659,1036.288319,1225.752797,9918.759623
4708.182973,2146.597232,1762.019645,9548.656652
4708.183288,2738.761985,1685.410096,8956.491898
4708.183602,2886.803174,76.609550,9252.574275
4708.183916,2072.576638,2528.115143,9992.780217
4708.184230,2442.679609,2757.943793,9548.656652
4708.184545,2368.659014,1991.848295,9252.574275
4708.184859,1184.329507,459.657299,9326.594869
4708.185173,-592.164754,0.000000,9474.636058
4708.185487,-1702.473667,919.314598,8660.409521
4708.185802,-2220.617826,2528.115143,8290.306550
4708.186116,-2146.597232,1302.362347,9178.553681
4708.186430,-1258.350101,612.876398,10140.821405
4708.186744,-1332.370696,536.266849,9548.656652
4708.187059,-1554.432478,612.876398,9326.594869
4708.187373,-2146.597232,1302.362347,8364.327145
4708.187687,-1702.473667,1532.190996,8216.285956
4708.188001,-1554.432478,2221.676944,9104.533087
4708.188316,-1850.514855,2528.115143,9992.780217
4708.188630,-518.144159,1608.800546,10066.800811
4708.188944,370.102971,1149.143247,9992.780217
4708.189258,1036.288319,1455.581446,9400.615463
4708.189573,1776.494261,1532.190996,8808.450710
4708.189887,1480.411884,2528.115143,9474.636058
4708.190201,1850.514855,2221.676944,10140.821405
4708.190515,3108.864956,2911.162892,9104.533087
4708.190830,2442.679609,2451.505594,8660.409521
4708.191144,962.267725,1608.800546,8512.368333
4708.191458,814.226536,2298.286494,7698.141797
4708.191772,1406.391290,2068.457845,8438.347739
4708.192087,1850.514855,1532.190996,10732.986159
4708.192401,1406.391290,536.266849,10658.965565
4708.192715,1036.288319,-383.047749,9844.739029
4708.193029,814.226536,1455.581446,9104.533087
4708.193344,222.061783,2298.286494,7698.141797
4708.193658,-962.267725,1302.362347,8586.388927
4708.193972,-1776.494261,-842.705048,9178.553681
4708.194286,-1258.350101,0.000000,10288.862594
4708.194601,-444.123565,459.657299,10510.924376
4708.194915,-962.267725,-842.705048,9770.718434
4708.195229,-1628.453072,-766.095498,10214.842000
4708.195543,-1628.453072,-1225.752797,10362.883188
4708.195858,-814.226536,153.219100,9844.739029
4708.196172,-444.123565,-1225.752797,8364.327145
4708.196486,-1850.514855,-1915.238745,8364.327145
4708.196800,-1998.556043,0.000000,10140.821405
4708.197115,-1406.391290,995.924147,9844.739029
4708.197429,592.164754,1225.752797,9030.512492
4708.197743,1258.350101,-383.047749,9474.636058
4708.198057,962.267725,-689.485948,9844.739029
4708.198372,1036.288319,612.876398,8438.347739
4708.198686,888.247130,689.485948,7920.203579
4708.199000,-370.102971,153.219100,8142.265362
4708.199314,-1258.350101,-153.219100,9104.533087
4708.199629,-1554.432478,1302.362347,9696.697840
4708.199943,-518.144159,612.876398,8512.368333
4708.200257,296.082377,0.000000,9252.574275
4708.200571,740.205942,-383.047749,9474.636058
4708.200886,222.061783,-459.657299,9030.512492
4708.201200,0.000000,612.876398,8808.450710
4708.201514,0.000000,995.924147,9030.512492
4708.201828,0.000000,612.876398,9030.512492
4708.202143,-296.082377,229.828649,9104.533087
4708.202457,-962.267725,919.314598,9696.697840
4708.202771,148.041188,459.657299,9252.574275
4708.203085,1110.308913,919.314598,10584.944971
4708.203400,1332.370696,-766.095498,10436.903782
4708.203714,1110.308913,919.314598,10881.027347
4708.204028,518.144159,1608.800546,10288.862594
4708.204342,962.267725,1149.143247,9696.697840
4708.204657,592.164754,229.828649,9474.636058
4708.204971,-148.041188,0.000000,8438.347739
4708.205285,-1406.391290,536.266849,8882.471304
4708.205599,-888.247130,689.485948,9030.512492
4708.205914,-592.164754,689.485948,9696.697840
4708.206228,-666.185348,1225.752797,10066.800811
4708.206542,592.164754,1685.410096,8068.244768
4708.206856,296.082377,2068.457845,7920.203579
4708.207171,-666.185348,1149.143247,8734.430116
4708.207485,-296.082377,766.095498,7328.038826
4708.207799,-592.164754,1225.752797,7328.038826
4708.208113,-1406.391290,383.047749,8882.471304
4708.208428,-370.102971,842.705048,9474.636058
4708.208742,814.226536,2068.457845,10214.842000
4708.209056,2220.617826,2451.505594,10955.047942
4708.209370,1776.494261,3217.601092,10955.047942
4708.209685,814.226536,919.314598,9474.636058
4708.209999,2368.659014,766.095498,7772.162391
4708.210313,2516.700203,2298.286494,8068.244768
4708.210627,444.123565,3064.381992,9622.677246
4708.210942,-1184.329507,2221.676944,10214.842000
4708.211256,-518.144159,1378.971896,9770.718434
4708.211570,0.000000,1915.238745,11473.192101
4708.211884,148.041188,76.609550,9844.739029
4708.212199,-666.185348,-689.485948,8142.265362
4708.212513,-666.185348,0.000000,7846.182985
4708.212827,-74.020594,2604.724693,10362.883188
4708.213141,444.123565,2145.067394,9474.636058
4708.213456,74.020594,689.485948,8068.244768
4708.213770,-1258.350101,689.485948,8438.347739
4708.214084,-666.185348,2528.115143,9252.574275
4708.214398,1036.288319,3064.381992,9474.636058
4708.214713,2516.700203,689.485948,9104.533087
4708.215027,1406.391290,153.219100,11325.150913
4708.215341,888.247130,766.095498,10807.006753
4708.215655,1110.308913,1762.019645,8956.491898
4708.215970,666.185348,1378.971896,7624.121203
4708.216284,-740.205942,612.876398,9030.512492
4708.216598,-518.144159,1072.533697,9696.697840
4708.216912,1184.329507,1455.581446,9918.759623
4708.217227,1406.391290,0.000000,9474.636058
4708.217541,296.082377,0.000000,9992.780217
4708.217855,-962.267725,153.219100,9844.739029
4708.218169,-962.267725,842.705048,8142.265362
4708.218484,-444.123565,536.266849,8512.368333
4708.218798,74.020594,-612.876398,7772.162391
4708.219112,-1036.288319,153.219100,7105.977043
4708.219426,-1776.494261,1225.752797,7476.080014
4708.219741,-814.226536,1378.971896,9104.533087
4708.220055,666.185348,229.828649,10807.006753
4708.220369,2294.638420,-689.485948,11177.109724
4708.220683,1184.329507,-842.705048,10807.006753
4708.220998,444.123565,-536.266849,10362.883188
4708.221312,1110.308913,153.219100,8808.450710
4708.221626,1184.329507,842.705048,8808.450710
4708.221940,296.082377,229.828649,8364.327145
4708.222255,-666.185348,536.266849,9400.615463
4708.222569,-1332.370696,995.924147,10140.821405
4708.222883,-1110.308913,306.438199,10584.944971
4708.223197,-1036.288319,-383.047749,9770.718434
4708.223512,-1702.473667,-1378.971896,8882.471304
4708.223826,-1554.432478,-1302.362347,9400.615463
4708.224140,-148.041188,536.266849,9622.677246
4708.224454,-888.247130,383.047749,8512.368333
4708.224769,-1998.556043,536.266849,8068.244768
4708.225083,-2960.823768,612.876398,8586.388927
4708.225397,-1554.432478,919.314598,8364.327145
4708.225711,-518.144159,1072.533697,9252.574275
4708.226026,296.082377,-1072.533697,9326.594869
4708.226340,518.144159,76.609550,10288.862594
4708.226654,666.185348,1072.533697,11251.130318
4708.226968,1184.329507,1378.971896,9622.677246
4708.227283,1258.350101,0.000000,7624.121203
4708.227597,296.082377,-153.219100,7846.182985
4708.227911,-592.164754,2374.896044,9178.553681
4708.228225,444.123565,2757.943793,9326.594869
4708.228540,2146.597232,2145.067394,10288.862594
4708.228854,2738.761985,0.000000,10214.842000
4708.229168,1776.494261,383.047749,9992.780217
4708.229482,592.164754,1685.410096,9104.533087
4708.229797,148.041188,1455.581446,8290.306550
4708.230111,-222.061783,689.485948,8438.347739
4708.230425,-444.123565,306.438199,8586.388927
4708.230739,-1554.432478,1225.752797,9992.780217
4708.231054,-1406.391290,459.657299,9104.533087
4708.231368,74.020594,995.924147,10288.862594
4708.231682,518.144159,383.047749,10214.842000
4708.231996,518.144159,536.266849,9844.739029
4708.232311,962.267725,1072.533697,9326.594869
4708.232625,518.144159,1225.752797,9104.533087
4708.232939,296.082377,2068.457845,8586.388927
4708.233253,518.144159,2528.115143,8068.244768
4708.233568,-222.061783,2374.896044,8808.450710
4708.233882,296.082377,1838.629195,9252.574275
4708.234196,1480.411884,1302.362347,9844.739029
4708.234510,1554.432478,1608.800546,9918.759623
4708.234825,1554.432478,2145.067394,10214.842000
4708.235139,814.226536,1685.410096,9326.594869
4708.235453,370.102971,1608.800546,9252.574275
4708.235767,666.185348,1685.410096,8068.244768
4708.236082,-370.102971,1532.190996,8290.306550
4708.236396,-962.267725,2298.286494,9326.594869
4708.236710,222.061783,1838.629195,7476.080014
4708.237024,370.102971,2374.896044,8808.450710
4708.237339,444.123565,1685.410096,10066.800811
4708.237653,0.000000,1378.971896,9770.718434
4708.237967,-222.061783,689.485948,8438.347739
4708.238281,-148.041188,536.266849,9104.533087
4708.238596,-444.123565,612.876398,8956.491898
4708.238910,-518.144159,-766.095498,8290.306550
4708.239224,-1184.329507,995.924147,9918.759623
4708.239538,-1110.308913,2068.457845,11325.150913
4708.239853,740.205942,1072.533697,10732.986159
4708.240167,888.247130,76.609550,10436.903782
4708.240481,148.041188,-1072.533697,8808.450710
4708.240795,222.061783,1149.143247,9178.553681
4708.241110,-370.102971,1838.629195,8956.491898
4708.241424,-962.267725,0.000000,9030.512492
4708.241738,-1702.473667,-306.438199,9474.636058
4708.242052,-3108.864956,-995.924147,9622.677246
4708.242367,-3404.947333,-1302.362347,9104.533087
4708.242681,-1850.514855,-536.266849,8438.347739
4708.242995,-592.164754,-1225.752797,8512.368333
4708.243309,296.082377,0.000000,9548.656652
4708.243624,444.123565,459.657299,8586.388927
4708.243938,0.000000,995.924147,9104.533087
4708.244252,592.164754,612.876398,7624.121203
4708.244566,740.205942,1302.362347,7846.182985
4708.244881,1036.288319,842.705048,9548.656652
4708.245195,1776.494261,536.266849,10362.883188
4708.245509,2664.741391,995.924147,11843.295072
4708.245823,3182.885551,-612.876398,9622.677246
4708.246138,1998.556043,0.000000,9326.594869
4708.246452,518.144159,306.438199,9252.574275
4708.246766,518.144159,1225.752797,9178.553681
4708.247080,444.123565,1225.752797,9474.636058
4708.247395,-740.205942,-306.438199,9548.656652
4708.247709,-1480.411884,-842.705048,10436.903782
4708.248023,-1184.329507,-612.876398,9992.780217
4708.248337,0.000000,-612.876398,9252.574275
4708.248652,-222.061783,-153.219100,9326.594869
4708.248966,0.000000,306.438199,9548.656652
4708.249280,-148.041188,689.485948,9326.594869
4708.249594,888.247130,1762.019645,9622.677246
4708.249909,1184.329507,1838.629195,7550.100608
4708.250223,74.020594,1455.581446,8364.327145
4708.250537,-740.205942,1149.143247,8068.244768
4708.250851,-592.164754,1762.019645,9918.759623
4708.251166,666.185348,919.314598,10732.986159
4708.251480,1480.411884,0.000000,10584.944971
4708.251794,666.185348,842.705048,10140.821405
4708.252108,-222.061783,1149.143247,9770.718434
4708.252423,740.205942,2528.115143,8660.409521
4708.252737,962.267725,2145.067394,7402.059420
4708.253051,0.000000,995.924147,8216.285956
4708.253365,-592.164754,2757.943793,9400.615463
4708.253680,-148.041188,2834.553343,9400.615463
4708.253994,518.144159,2451.505594,9400.615463
4708.254308,814.226536,919.314598,9104.533087
4708.254622,148.041188,1149.143247,9622.677246
4708.254937,370.102971,1378.971896,8364.327145
4708.255251,370.102971,1685.410096,8216.285956
4708.255565,0.000000,0.000000,9474.636058
4708.255879,-444.123565,1225.752797,10140.821405
4708.256194,-1184.329507,1455.581446,9770.718434
4708.256508,-814.226536,1072.533697,9770.718434
4708.256822,0.000000,842.705048,9622.677246
4708.257136,888.247130,76.609550,9770.718434
4708.257451,666.185348,536.266849,9992.780217
4708.257765,148.041188,1455.581446,9696.697840
4708.258079,-444.123565,1149.143247,9104.533087
4708.258393,-740.205942,1225.752797,8956.491898
4708.258709,-888.247130,306.438199,8586.388927
4708.259023,-1258.350101,229.828649,8734.430116
4708.259337,-962.267725,0.000000,9696.697840
4708.259651,0.000000,76.609550,10288.862594
4708.259965,1036.288319,306.438199,10510.924376
4708.260280,370.102971,153.219100,10066.800811
4708.260594,592.164754,383.047749,9474.636058
4708.260908,814.226536,1302.362347,8808.450710
4708.261222,1036.288319,1378.971896,8586.388927
4708.261536,1554.432478,1225.752797,8068.244768
4708.261850,814.226536,919.314598,7994.224174
4708.262165,444.123565,689.485948,9326.594869
4708.262479,740.205942,1225.752797,9030.512492
4708.262793,1036.288319,689.485948,9030.512492
4708.263107,888.247130,306.438199,10140.821405
4708.263421,814.226536,76.609550,10510.924376
4708.263735,74.020594,306.438199,9622.677246
4708.264050,0.000000,-1378.971896,7031.956449
4708.264364,-592.164754,-229.828649,7179.997637
4708.264678,-814.226536,1685.410096,10140.821405
4708.264992,0.000000,1072.533697,9918.759623
4708.265306,1776.494261,1072.533697,10436.903782
4708.265621,2146.597232,0.000000,11399.171507
4708.265935,1480.411884,0.000000,10658.965565
4708.266249,1110.308913,919.314598,9770.718434
4708.266563,962.267725,842.705048,9474.636058
4708.266877,814.226536,1149.143247,9844.739029
4708.267191,222.061783,229.828649,9770.718434
4708.267506,-444.123565,1149.143247,10214.842000
4708.267820,-296.082377,2068.457845,9252.574275
4708.268134,-444.123565,612.876398,8660.409521
4708.268448,-740.205942,842.705048,9992.780217
4708.268762,-1184.329507,995.924147,11029.068536
4708.269077,-1110.308913,689.485948,10140.821405
4708.269391,-1998.556043,-536.266849,8216.285956
4708.269705,-1554.432478,-689.485948,6957.935855
4708.270019,-2516.700203,1991.848295,7179.997637
4708.270333,-2368.659014,2987.772442,7476.080014
4708.270647,-740.205942,3064.381992,7772.162391
4708.270962,666.185348,1838.629195,7550.100608
4708.271276,666.185348,2528.115143,9326.594869
4708.271590,0.000000,2451.505594,9104.533087
4708.271904,-370.102971,1762.019645,8734.430116
4708.272218,0.000000,919.314598,9326.594869
4708.272533,74.020594,306.438199,9696.697840
4708.272847,962.267725,-995.924147,9400.615463
4708.273161,0.000000,-612.876398,9474.636058
4708.273475,444.123565,1608.800546,10214.842000
4708.273789,1850.514855,2681.334243,10436.903782
4708.274103,2886.803174,2757.943793,11399.171507
4708.274418,2960.823768,766.095498,9844.739029
4708.274732,2516.700203,153.219100,9178.553681
4708.275046,1480.411884,995.924147,10140.821405
4708.275360,148.041188,919.314598,9844.739029
4708.275674,-1554.432478,-306.438199,9178.553681
4708.275989,-2664.741391,-1225.752797,10214.842000
4708.276303,-2590.720797,-842.705048,10214.842000
4708.276617,-1924.535449,-612.876398,9326.594869
4708.276931,-3256.906145,-1685.410096,8882.471304
4708.277245,-3404.947333,-2528.115143,8660.409521
4708.277559,-2072.576638,383.047749,9030.512492
4708.277874,-1776.494261,842.705048,8364.327145
4708.278188,74.020594,-536.266849,7105.977043
4708.278502,-444.123565,-229.828649,7254.018232
4708.278816,-222.061783,1378.971896,8512.368333
4708.279130,888.247130,1838.629195,9844.739029
4708.279445,3701.029710,1072.533697,8956.491898
4708.279759,2664.741391,-766.095498,9474.636058
4708.280073,3034.844362,229.828649,10732.986159
4708.280387,2960.823768,1991.848295,10140.821405
4708.280701,2590.720797,536.266849,9696.697840
4708.281015,2960.823768,-229.828649,9104.533087
4708.281330,2072.576638,1072.533697,9400.615463
4708.281644,1702.473667,842.705048,9548.656652
4708.281958,1110.308913,1685.410096,9474.636058
4708.282272,222.061783,1149.143247,10436.903782
4708.282586,740.205942,536.266849,11103.089130
4708.282901,444.123565,1455.581446,10066.800811
4708.283215,-370.102971,-842.705048,8808.450710
4708.283529,-1850.514855,-612.876398,8438.347739
4708.283843,-2368.659014,919.314598,8512.368333
4708.284157,-3330.926739,766.095498,7920.203579
4708.284471,-3330.926739,1149.143247,7994.224174
4708.284786,-1924.535449,153.219100,9696.697840
4708.285100,-1184.329507,842.705048,10732.986159
4708.285414,148.041188,1608.800546,9326.594869
4708.285728,-222.061783,1378.971896,9918.759623
4708.286042,0.000000,1072.533697,9918.759623
4708.286357,444.123565,1532.190996,9252.574275
4708.286671,1110.308913,1991.848295,7994.224174
4708.286985,222.061783,2221.676944,7994.224174
4708.287299,-1110.308913,3370.820191,9474.636058
4708.287613,222.061783,2451.505594,9548.656652
4708.287927,1998.556043,2298.286494,8956.491898
4708.288242,2368.659014,1762.019645,8882.471304
4708.288556,740.205942,1532.190996,9326.594869
4708.288870,148.041188,2604.724693,9178.553681
4708.289184,666.185348,2451.505594,8142.265362
4708.289498,296.082377,1685.410096,8586.388927
4708.289813,-1036.288319,229.828649,9104.533087
4708.290127,-2516.700203,229.828649,9104.533087
4708.290441,-1850.514855,842.705048,8586.388927
4708.290755,-740.205942,766.095498,9326.594869
4708.291069,444.123565,0.000000,11029.068536
4708.291383,148.041188,0.000000,10807.006753
4708.291698,148.041188,459.657299,10362.883188
4708.292012,0.000000,919.314598,9252.574275
4708.292326,-444.123565,612.876398,8882.471304
4708.292640,-370.102971,383.047749,9474.636058
4708.292954,-666.185348,1072.533697,9844.739029
4708.293269,74.020594,536.266849,10066.800811
4708.293583,-518.144159,0.000000,10807.006753
4708.293897,444.123565,-1149.143247,9548.656652
4708.294211,1036.288319,0.000000,8586.388927
4708.294525,-296.082377,306.438199,8956.491898
4708.294839,-1258.350101,459.657299,9844.739029
4708.295154,-1406.391290,-229.828649,9104.533087
4708.295468,-888.247130,-919.314598,7624.121203
4708.295782,-1184.329507,-229.828649,8364.327145
4708.296096,-740.205942,-995.924147,8142.265362
4708.296410,740.205942,-153.219100,8660.409521
4708.296725,2294.638420,1455.581446,9992.780217
4708.297039,2220.617826,1455.581446,10510.924376
4708.297353,1850.514855,459.657299,9326.594869
4708.297667,1406.391290,842.705048,8956.491898
4708.297981,1998.556043,1225.752797,7402.059420
4708.298295,592.164754,1378.971896,8808.450710
4708.298610,-666.185348,-229.828649,9770.718434
4708.298924,74.020594,-689.485948,10732.986159
4708.299238,1110.308913,-229.828649,10436.903782
4708.299552,888.247130,-1225.752797,9548.656652
4708.299866,-962.267725,-612.876398,9918.759623
4708.300181,-962.267725,766.095498,10140.821405
4708.300495,222.061783,1532.190996,10288.862594
4708.300809,1258.350101,612.876398,9104.533087
4708.301123,-296.082377,-995.924147,7698.141797
4708.301437,-1998.556043,536.266849,9622.677246
4708.301751,-518.144159,2221.676944,9178.553681
4708.302066,666.185348,2911.162892,9400.615463
4708.302380,1924.535449,229.828649,10214.842000
4708.302694,1554.432478,1072.533697,11547.212695
4708.303008,2146.597232,2681.334243,9770.718434
4708.303322,962.267725,2451.505594,7920.203579
4708.303637,0.000000,2145.067394,7476.080014
4708.303951,-1480.411884,612.876398,8956.491898
4708.304265,-1776.494261,2451.505594,9992.780217
4708.304579,-962.267725,2068.457845,8956.491898
4708.304893,-222.061783,689.485948,9030.512492
4708.305207,-740.205942,459.657299,8364.327145
4708.305522,-962.267725,2068.457845,8882.471304
4708.305836,-370.102971,2987.772442,9474.636058
4708.306150,-148.041188,1991.848295,8660.409521
4708.306464,-370.102971,1149.143247,8068.244768
4708.306778,-444.123565,1608.800546,7846.182985
4708.307093,0.000000,2451.505594,8734.430116
4708.307407,888.247130,2451.505594,9770.718434
4708.307721,3108.864956,2221.676944,10658.965565
4708.308035,4145.153275,1685.410096,10436.903782
4708.308349,2664.741391,1532.190996,10732.986159
4708.308663,1628.453072,1608.800546,9548.656652
4708.308978,666.185348,1608.800546,9474.636058
4708.309292,-592.164754,766.095498,9548.656652
4708.309606,0.000000,459.657299,9030.512492
4708.309920,-518.144159,1685.410096,9622.677246
4708.310234,-1258.350101,229.828649,9770.718434
4708.310548,74.020594,0.000000,8808.450710
4708.310863,-296.082377,0.000000,8068.244768
4708.311177,-962.267725,-229.828649,9400.615463
4708.311491,-1110.308913,919.314598,8438.347739
4708.311805,-1850.514855,306.438199,8586.388927
4708.312119,-814.226536,-1455.581446,7772.162391
4708.312434,-1110.308913,536.266849,8364.327145
4708.312748,-2146.597232,-842.705048,8734.430116
4708.313062,-1998.556043,-612.876398,9992.780217
4708.313376,148.041188,-536.266849,8586.388927
4708.313690,2072.576638,-766.095498,10140.821405
4708.314004,1628.453072,612.876398,11103.089130
4708.314319,370.102971,919.314598,9770.718434
4708.314633,1110.308913,229.828649,8364.327145
4708.314947,2886.803174,1532.190996,8734.430116
4708.315261,2146.597232,459.657299,10066.800811
4708.315575,1036.288319,153.219100,10362.883188
4708.315890,814.226536,766.095498,9622.677246
4708.316204,666.185348,919.314598,10288.862594
4708.316518,1036.288319,-229.828649,8734.430116
4708.316832,518.144159,-995.924147,9030.512492
4708.317146,-1702.473667,-1302.362347,9770.718434
4708.317460,-1554.432478,0.000000,9474.636058
4708.317775,-1480.411884,459.657299,8808.450710
4708.318089,-1924.535449,-1608.800546,8512.368333
4708.318403,-2368.659014,-612.876398,9474.636058
4708.318717,-1850.514855,0.000000,9918.759623
4708.319031,-666.185348,0.000000,8808.450710
4708.319346,296.082377,383.047749,9326.594869
4708.319660,518.144159,689.485948,10807.006753
4708.319974,814.226536,1225.752797,10362.883188
4708.320288,1850.514855,2451.505594,9030.512492
4708.320602,1776.494261,995.924147,7402.059420
4708.320916,666.185348,1072.533697,9178.553681
4708.321231,-666.185348,2451.505594,10732.986159
4708.321545,-518.144159,1991.848295,10362.883188
4708.321859,666.185348,1455.581446,10436.903782
4708.322173,1332.370696,0.000000,8808.450710
4708.322487,0.000000,919.314598,8808.450710
4708.322802,-1850.514855,1072.533697,8734.430116
4708.323116,-1184.329507,2987.772442,9252.574275
4708.323430,74.020594,3140.991542,8068.244768
4708.323744,222.061783,1762.019645,7105.977043
4708.324058,-962.267725,1991.848295,8660.409521
4708.324372,-592.164754,1608.800546,7031.956449
4708.324687,592.164754,2221.676944,7550.100608
4708.325001,1628.453072,2068.457845,9918.759623
4708.325315,518.144159,1915.238745,11843.295072
4708.325629,592.164754,842.705048,10658.965565
4708.325943,1702.473667,919.314598,9030.512492
4708.326258,222.061783,1378.971896,9030.512492
4708.326572,-962.267725,-306.438199,9770.718434
4708.326886,0.000000,689.485948,7846.182985
4708.327200,1184.329507,2221.676944,9400.615463
4708.327514,1480.411884,2068.457845,12065.356855
4708.327828,1850.514855,842.705048,10436.903782
4708.328143,1036.288319,536.266849,8808.450710
4708.328457,666.185348,1225.752797,9252.574275
4708.328771,222.061783,1838.629195,9918.759623
4708.329085,518.144159,-153.219100,9326.594869
4708.329399,-296.082377,-459.657299,9474.636058
4708.329714,-1776.494261,459.657299,9474.636058
4708.330028,-2442.679609,383.047749,9178.553681
4708.330342,-1406.391290,842.705048,9030.512492
4708.330656,148.041188,-306.438199,8808.450710
4708.330970,518.144159,459.657299,9992.780217
4708.331284,0.000000,76.609550,8956.491898
4708.331599,0.000000,229.828649,8142.265362
4708.331913,74.020594,1302.362347,7772.162391
4708.332227,-740.205942,919.314598,8364.327145
4708.332541,-1776.494261,536.266849,9696.697840
4708.332855,-1036.288319,-842.705048,8956.491898
4708.333170,518.144159,-383.047749,9696.697840
4708.333484,1554.432478,-1225.752797,10214.842000
4708.333798,444.123565,-689.485948,9178.553681
4708.334112,-518.144159,229.828649,9252.574275
4708.334426,-888.247130,153.219100,9252.574275
4708.334740,-1332.370696,229.828649,9326.594869
4708.335055,-1554.432478,-2451.505594,8364.327145
4708.335369,-2072.576638,-1685.410096,9474.636058
4708.335683,-2516.700203,-1072.533697,9474.636058
4708.335997,-3034.844362,-919.314598,10066.800811
4708.336311,-1628.453072,-1685.410096,10732.986159
4708.336626,-962.267725,-1532.190996,11029.068536
4708.336940,-1554.432478,-1378.971896,9474.636058
4708.337254,-1406.391290,-2145.067394,8438.347739
4708.337568,-1850.514855,-689.485948,8068.244768
4708.337882,-2664.741391,-612.876398,8290.306550
4708.338196,-3478.967927,0.000000,10066.800811
4708.338511,-2516.700203,-1455.581446,9400.615463
4708.338825,-1480.411884,-2681.334243,9770.718434
4708.339139,-666.185348,-1608.800546,9844.739029
4708.339453,-1776.494261,-2298.286494,7846.182985
4708.339767,-2738.761985,-919.314598,8808.450710
4708.340082,-2590.720797,-612.876398,9178.553681
4708.340396,-2516.700203,-153.219100,10807.006753
4708.340710,-1554.432478,-1838.629195,9326.594869
4708.341024,-1998.556043,-2757.943793,8956.491898
4708.341338,-2664.741391,-1225.752797,10066.800811
4708.341652,-1998.556043,-1915.238745,9622.677246
4708.341967,-2516.700203,-1991.848295,9548.656652
4708.342281,-2516.700203,-3217.601092,9030.512492
4708.342595,-2516.700203,-1072.533697,9844.739029
4708.342909,-1702.473667,306.438199,8660.409521
4708.343223,-666.185348,-153.219100,8956.491898
4708.343538,-2220.617826,153.219100,11325.150913
4708.343852,-1332.370696,-2298.286494,8660.409521
4708.344166,-1332.370696,-612.876398,7920.203579
4708.344480,-3182.885551,-153.219100,9474.636058
4708.344794,-3404.947333,-2145.067394,10658.965565
4708.345108,-3478.967927,-2374.896044,9252.574275
4708.345423,-3627.009116,-3370.820191,8956.491898
4708.345737,-2664.741391,-1378.971896,9178.553681
4708.346051,-2072.576638,0.000000,7476.080014
4708.346365,-888.247130,-1532.190996,7772.162391
4708.346679,222.061783,383.047749,9474.636058
4708.346994,-518.144159,1378.971896,10658.965565
4708.347308,-2146.597232,-1225.752797,10140.821405
4708.347622,-2072.576638,-2221.676944,7402.059420
4708.347936,-1554.432478,-919.314598,7994.224174
4708.348250,-962.267725,-1838.629195,10584.944971
4708.348564,-1776.494261,-766.095498,11473.192101
4708.348879,-3034.844362,-3677.258390,9918.759623
4708.349193,-3034.844362,-3753.867940,8438.347739
4708.349507,-2368.659014,-919.314598,8438.347739
4708.349821,-1332.370696,-995.924147,9030.512492
4708.350135,148.041188,0.000000,9178.553681
4708.350450,0.000000,-383.047749,10584.944971
4708.350764,-888.247130,-536.266849,11325.150913
4708.351078,-1036.288319,-689.485948,10362.883188
4708.351392,-740.205942,-2145.067394,9474.636058
4708.351706,-1036.288319,-2145.067394,8512.368333
4708.352020,-2368.659014,-2068.457845,8068.244768
4708.352335,-2516.700203,-1762.019645,9400.615463
4708.352649,-1924.535449,-612.876398,9400.615463
4708.352963,-1628.453072,-1149.143247,8956.491898
4708.353277,-962.267725,-766.095498,8512.368333
4708.353591,-1998.556043,-459.657299,8364.327145
4708.353906,-1258.350101,612.876398,9178.553681
4708.354220,222.061783,459.657299,9918.759623
4708.354534,740.205942,536.266849,11029.068536
4708.354848,-518.144159,-306.438199,11177.109724
4708.355162,-2442.679609,0.000000,9474.636058
4708.355476,-4441.235652,-689.485948,8216.285956
4708.355791,-5255.462188,-1915.238745,7920.203579
4708.356105,-4441.235652,-2987.772442,8882.471304
4708.356419,-3849.070898,-2451.505594,9178.553681
4708.356733,-3701.029710,-1532.190996,9400.615463
4708.357047,-4145.153275,-766.095498,9104.533087
4708.357361,-3108.864956,-766.095498,7772.162391
4708.357676,-888.247130,-229.828649,8142.265362
4708.357990,0.000000,536.266849,9622.677246
4708.358304,444.123565,459.657299,8956.491898
4708.358618,222.061783,766.095498,8882.471304
4708.358932,-888.247130,1532.190996,9770.718434
4708.359247,-1924.535449,536.266849,9400.615463
4708.359561,-2664.741391,-1149.143247,8364.327145
4708.359875,-2960.823768,-2451.505594,8142.265362
4708.360189,-4219.173869,-2987.772442,9474.636058
4708.360503,-5107.421000,-3830.477490,10066.800811
4708.360817,-5181.441594,-4749.792088,8808.450710
4708.361132,-5107.421000,-4749.792088,8068.244768
4708.361446,-4219.173869,-2834.553343,9400.615463
4708.361760,-2516.700203,-1455.581446,10584.944971
4708.362074,-592.164754,-1378.971896,10807.006753
4708.362388,814.226536,-1685.410096,10881.027347
4708.362703,1554.432478,-842.705048,11325.150913
4708.363017,1406.391290,-76.609550,10658.965565
4708.363331,444.123565,-612.876398,9474.636058
4708.363645,-1258.350101,-1149.143247,9252.574275
4708.363960,-2516.700203,-2221.676944,9400.615463
4708.364274,-3330.926739,-3217.601092,9104.533087
4708.364588,-4367.215058,-3983.696590,7846.182985
4708.364902,-5033.400406,-3524.039291,8068.244768
4708.365216,-4219.173869,-2451.505594,8956.491898
4708.365531,-3701.029710,-2911.162892,9104.533087
4708.365845,-2516.700203,-2834.553343,9696.697840
4708.366159,-1406.391290,-2528.115143,10288.862594
4708.366473,-370.102971,-1378.971896,10066.800811
4708.366787,962.267725,-766.095498,9696.697840
4708.367102,1406.391290,-229.828649,9770.718434
4708.367416,1406.391290,-153.219100,10214.842000
4708.367730,2220.617826,459.657299,11029.068536
4708.368044,1998.556043,536.266849,9844.739029
4708.368359,740.205942,76.609550,9548.656652
4708.368673,-1998.556043,-842.705048,8586.388927
4708.368987,-3923.091493,-1455.581446,6883.915261
4708.369301,-5551.544565,-1685.410096,6291.750507
4708.369615,-6587.832884,-2068.457845,6957.935855
4708.369930,-6957.935855,-2911.162892,8364.327145
4708.370244,-7846.182985,-3983.696590,9474.636058
4708.370558,-7179.997637,-4443.353888,9918.759623
4708.370872,-6217.729913,-4443.353888,10066.800811
4708.371187,-4071.132681,-4443.353888,10066.800811
4708.371501,-1110.308913,-2145.067394,10584.944971
4708.371815,1702.473667,76.609550,10881.027347
4708.372129,3256.906145,1685.410096,10584.944971
4708.372443,4959.379811,3140.991542,10807.006753
4708.372758,6365.771101,3753.867940,10584.944971
4708.373072,5921.647536,3753.867940,9696.697840
4708.373386,4589.276840,3447.429741,9474.636058
4708.373700,2220.617826,2451.505594,9474.636058
4708.374014,0.000000,766.095498,9252.574275
4708.374329,-2590.720797,-1302.362347,8512.368333
4708.374643,-5403.503377,-2681.334243,8142.265362
4708.374957,-7550.100608,-3140.991542,7920.203579
4708.375271,-9030.512492,-3600.648841,7624.121203
4708.375586,-9400.615463,-4290.134789,7698.141797
4708.375900,-8364.327145,-3830.477490,7994.224174
4708.376214,-6883.915261,-2528.115143,7994.224174
4708.376528,-5033.400406,-1608.800546,7476.080014
4708.376842,-3182.885551,-689.485948,7846.182985
4708.377157,-1924.535449,-153.219100,9030.512492
4708.377471,0.000000,1225.752797,9770.718434
4708.377785,1258.350101,1302.362347,9844.739029
4708.378099,1406.391290,536.266849,9918.759623
4708.378414,518.144159,0.000000,10140.821405
4708.378728,-444.123565,-1225.752797,10066.800811
4708.379042,-2294.638420,-1991.848295,9474.636058
4708.379356,-2960.823768,-2911.162892,10140.821405
4708.379670,-3627.009116,-4136.915689,10658.965565
4708.379985,-3404.947333,-4290.134789,10732.986159
4708.380299,-3182.885551,-3907.087040,10807.006753
4708.380613,-2664.741391,-3370.820191,10807.006753
4708.380927,-1554.432478,-2681.334243,10214.842000
4708.381241,-222.061783,-1685.410096,9770.718434
4708.381556,296.082377,-1378.971896,9104.533087
4708.381870,1036.288319,229.828649,8882.471304
4708.382184,814.226536,536.266849,8660.409521
4708.382498,222.061783,766.095498,8364.327145
4708.382813,-296.082377,153.219100,8438.347739
4708.383127,-1480.411884,-689.485948,8660.409521
4708.383441,-2590.720797,-2145.067394,9030.512492
4708.383755,-3701.029710,-2221.676944,8586.388927
4708.384069,-4811.338623,-2987.772442,8512.368333
4708.384384,-5477.523971,-3140.991542,7994.224174
4708.384698,-5699.585753,-2911.162892,8512.368333
4708.385012,-5255.462188,-2604.724693,9104.533087
4708.385326,-4219.173869,-2528.115143,9252.574275
4708.385641,-3182.885551,-1915.238745,9326.594869
4708.385955,-1628.453072,-1991.848295,9326.594869
4708.386269,-518.144159,-766.095498,8956.491898
4708.386583,962.267725,229.828649,9474.636058
4708.386897,1480.411884,612.876398,9548.656652
4708.387212,1628.453072,842.705048,9622.677246
4708.387526,1702.473667,1149.143247,9770.718434
4708.387840,1628.453072,919.314598,9992.780217
4708.388154,1702.473667,536.266849,10288.862594
4708.388468,370.102971,76.609550,10807.006753
4708.388783,-518.144159,-383.047749,10658.965565
4708.389097,-1184.329507,-1685.410096,10362.883188
4708.389411,-1628.453072,-1685.410096,9622.677246
4708.389725,-2220.617826,-1378.971896,9474.636058
4708.390040,-2590.720797,-612.876398,9474.636058
4708.390354,-2442.679609,76.609550,9030.512492
4708.390668,-1924.535449,229.828649,8364.327145
4708.390982,-1184.329507,306.438199,8216.285956
4708.391296,-592.164754,842.705048,8142.265362
4708.391611,-148.041188,1608.800546,8364.327145
4708.391925,0.000000,2374.896044,8142.265362
4708.392239,0.000000,1915.238745,8216.285956
4708.392553,74.020594,1915.238745,8660.409521
4708.392868,-222.061783,1455.581446,8438.347739
4708.393182,-296.082377,1225.752797,9104.533087
4708.393496,-1110.308913,842.705048,9252.574275
4708.393810,-1776.494261,0.000000,9918.759623
4708.394124,-2516.700203,-612.876398,9770.718434
4708.394439,-3034.844362,-1378.971896,9548.656652
4708.394753,-3849.070898,-1608.800546,9400.615463
4708.395067,-4737.318029,-1455.581446,8956.491898
4708.395381,-4589.276840,-1225.752797,8734.430116
4708.395695,-4811.338623,-1455.581446,8734.430116
4708.396010,-4737.318029,-1838.629195,8956.491898
4708.396324,-4811.338623,-2221.676944,9030.512492
4708.396638,-4737.318029,-2604.724693,9104.533087
4708.396952,-4885.359217,-3064.381992,9178.553681
4708.397267,-4737.318029,-3064.381992,9548.656652
4708.397581,-4367.215058,-3217.601092,9918.759623
4708.397895,-3849.070898,-3447.429741,10140.821405
4708.398209,-3108.864956,-3907.087040,10584.944971
4708.398523,-3034.844362,-4213.525239,10066.800811
4708.398838,-2294.638420,-3447.429741,10214.842000
4708.399152,-1776.494261,-3140.991542,10362.883188
4708.399466,-814.226536,-3064.381992,10510.924376
4708.399780,-296.082377,-2451.505594,10436.903782
4708.400095,222.061783,-1762.019645,10436.903782
4708.400409,148.041188,-1915.238745,9548.656652
4708.400723,0.000000,-2298.286494,9252.574275
4708.401037,-518.144159,-2374.896044,9400.615463
4708.401351,-962.267725,-2451.505594,9474.636058
4708.401666,-1258.350101,-2834.553343,9400.615463
4708.401980,-2294.638420,-2757.943793,9030.512492
4708.402294,-3108.864956,-3447.429741,8882.471304
4708.402608,-3849.070898,-3294.210641,8364.327145
4708.402922,-4293.194464,-3217.601092,8216.285956
4708.403237,-4293.194464,-2987.772442,8364.327145
4708.403551,-4589.276840,-3064.381992,8956.491898
4708.403865,-4441.235652,-2987.772442,8734.430116
4708.404179,-4219.173869,-2451.505594,8364.327145
4708.404494,-4219.173869,-2451.505594,8364.327145
4708.404808,-3478.967927,-1838.629195,8512.368333
4708.405122,-2886.803174,-1685.410096,8882.471304
4708.405436,-2368.659014,-1225.752797,9326.594869
4708.405750,-1776.494261,-1685.410096,9474.636058
4708.406065,-1406.391290,-1225.752797,10288.862594
4708.406379,-518.144159,-1378.971896,10881.027347
4708.406693,222.061783,-1072.533697,11103.089130
4708.407007,148.041188,-766.095498,10807.006753
4708.407322,1036.288319,-995.924147,10658.965565
4708.407636,1924.535449,0.000000,10807.006753
4708.407950,2294.638420,1225.752797,10436.903782
4708.408264,2072.576638,1608.800546,10732.986159
4708.408578,1628.453072,1378.971896,10362.883188
4708.408893,1628.453072,1762.019645,10214.842000
4708.409207,1110.308913,2374.896044,9696.697840
4708.409521,296.082377,2374.896044,8734.430116
4708.409835,-1332.370696,1378.971896,8068.244768
4708.410149,-2442.679609,1685.410096,7698.141797
4708.410464,-4071.132681,1149.143247,7772.162391
4708.410778,-5551.544565,383.047749,7179.997637
4708.411092,-6661.853478,-766.095498,6735.874072
4708.411406,-6957.935855,-1072.533697,7105.977043
4708.411721,-6957.935855,-612.876398,7550.100608
4708.412035,-5625.565159,-459.657299,7846.182985
4708.412349,-4737.318029,-1225.752797,7846.182985
4708.412663,-3108.864956,-842.705048,8586.388927
4708.412977,-888.247130,995.924147,9326.594869
4708.413292,1184.329507,2068.457845,9844.739029
4708.413606,1628.453072,2374.896044,10658.965565
4708.413920,1702.473667,1455.581446,10881.027347
4708.414234,1480.411884,536.266849,10288.862594
4708.414549,518.144159,0.000000,10214.842000
4708.414863,0.000000,-995.924147,10140.821405
4708.415177,-1110.308913,-1991.848295,10214.842000
4708.415491,-1406.391290,-2604.724693,10584.944971
4708.415805,-1702.473667,-2757.943793,10881.027347
4708.416120,-2368.659014,-2528.115143,10732.986159
4708.416434,-2368.659014,-2757.943793,10140.821405
4708.416748,-2812.782580,-2681.334243,9844.739029
4708.417062,-2368.659014,-2757.943793,9844.739029
4708.417377,-3034.844362,-2451.505594,10214.842000
4708.417691,-3256.906145,-2757.943793,9622.677246
4708.418005,-3478.967927,-2451.505594,9622.677246
4708.418319,-3701.029710,-2451.505594,9252.574275
4708.418633,-4293.194464,-2681.334243,8216.285956
4708.418948,-5477.523971,-3907.087040,7402.059420
4708.419262,-5477.523971,-3677.258390,7254.018232
4708.419576,-4959.379811,-2604.724693,6365.771101
4708.419890,-5477.523971,-3140.991542,6883.915261
4708.420204,-5033.400406,-3830.477490,7105.977043
4708.420519,-4145.153275,-3524.039291,7624.121203
4708.420833,-2590.720797,-3447.429741,8586.388927
4708.421147,-740.205942,-3447.429741,10288.862594
4708.421461,814.226536,-4060.306139,11029.068536
4708.421776,1998.556043,-3370.820191,11251.130318
4708.422090,3256.906145,-1762.019645,11399.171507
4708.422404,3182.885551,-919.314598,12435.459826
4708.422718,3552.988522,-1455.581446,11695.253884
4708.423032,3775.050304,-995.924147,10807.006753
4708.423347,1998.556043,76.609550,12435.459826
4708.423661,-518.144159,-459.657299,12213.398043
4708.423975,-2886.803174,-1532.190996,10658.965565
4708.424289,-5181.441594,-2834.553343,9252.574275
4708.424604,-6661.853478,-4136.915689,7550.100608
4708.424918,-8882.471304,-3524.039291,7920.203579
4708.425232,-10288.862594,-4366.744339,7476.080014
4708.425546,-10584.944971,-3907.087040,7624.121203
4708.425860,-9992.780217,-3370.820191,7402.059420
4708.426175,-8882.471304,-4903.011187,6291.750507
4708.426489,-6365.771101,-3140.991542,7179.997637
4708.426803,-3034.844362,-995.924147,7920.203579
4708.427117,888.247130,1378.971896,9178.553681
4708.427431,5773.606348,2681.334243,10066.800811
4708.427746,7105.977043,3677.258390,11399.171507
4708.428060,7402.059420,3983.696590,11547.212695
4708.428374,8068.244768,5056.230287,9474.636058
4708.428688,6735.874072,4903.011187,8660.409521
4708.429003,4515.256246,3753.867940,11325.150913
4708.429317,148.041188,1685.410096,12065.356855
4708.429631,-3256.906145,-1302.362347,9030.512492
4708.429945,-5995.668130,-2528.115143,6957.935855
4708.430259,-9030.512492,-3677.258390,6661.853478
4708.430574,-10436.903782,-5362.668486,5995.668130
4708.430888,-10362.883188,-3830.477490,7105.977043
4708.431202,-8734.430116,-1915.238745,9326.594869
4708.431516,-6587.832884,-2221.676944,10658.965565
4708.431831,-2812.782580,-2451.505594,9104.533087
4708.432145,518.144159,-1685.410096,8216.285956
4708.432459,3034.844362,1685.410096,10807.006753
4708.432773,3849.070898,4136.915689,12435.459826
4708.433087,5033.400406,3524.039291,12435.459826
4708.433402,5255.462188,1685.410096,11473.192101
4708.433716,4219.173869,1072.533697,10658.965565
4708.434030,2590.720797,689.485948,9844.739029
4708.434344,0.000000,0.000000,8808.450710
4708.434658,-1776.494261,-995.924147,8660.409521
4708.434973,-2960.823768,-1991.848295,7624.121203
4708.435287,-4071.132681,-919.314598,7254.018232
4708.435601,-4737.318029,-1532.190996,7031.956449
4708.435915,-6291.750507,-1302.362347,7994.224174
4708.436230,-7105.977043,-1915.238745,7105.977043
4708.436544,-6735.874072,-3983.696590,7402.059420
4708.436858,-5477.523971,-3600.648841,8586.388927
4708.437172,-3404.947333,-3830.477490,9178.553681
4708.437486,-2072.576638,-1455.581446,10881.027347
4708.437801,-518.144159,-612.876398,10362.883188
4708.438115,518.144159,-536.266849,9770.718434
4708.438429,3256.906145,0.000000,10214.842000
4708.438743,4663.297435,766.095498,10288.862594
4708.439058,3923.091493,2604.724693,11843.295072
4708.439372,2590.720797,919.314598,11177.109724
4708.439686,666.185348,-612.876398,10584.944971
4708.440000,-1406.391290,-2451.505594,9844.739029
4708.440314,-3256.906145,-3140.991542,10214.842000
4708.440629,-5107.421000,-2374.896044,9770.718434
4708.440943,-5921.647536,-3753.867940,8364.327145
4708.441257,-6809.894666,-3600.648841,8438.347739
4708.441571,-6439.791695,-3370.820191,8586.388927
4708.441885,-5477.523971,-3217.601092,7624.121203
4708.442200,-4145.153275,-1455.581446,7031.956449
4708.442514,-2442.679609,-459.657299,7402.059420
4708.442828,-518.144159,459.657299,8882.471304
4708.443142,1628.453072,1991.848295,9400.615463
4708.443457,2812.782580,1149.143247,8586.388927
4708.443771,3256.906145,2834.553343,10807.006753
4708.444085,3775.050304,2604.724693,10732.986159
4708.444399,4145.153275,2374.896044,10658.965565
4708.444713,2664.741391,919.314598,10362.883188
4708.445028,1258.350101,306.438199,10066.800811
4708.445342,-148.041188,-153.219100,9252.574275
4708.445656,-1554.432478,-536.266849,9326.594869
4708.445970,-2886.803174,-919.314598,9918.759623
4708.446285,-4737.318029,-1608.800546,9770.718434
4708.446599,-3627.009116,-1915.238745,8734.430116
4708.446913,-1998.556043,-1072.533697,6809.894666
4708.447227,518.144159,536.266849,7254.018232
4708.447541,888.247130,1608.800546,7920.203579
4708.447856,518.144159,3370.820191,9178.553681
4708.448170,1036.288319,3830.477490,9400.615463
4708.448484,2294.638420,2987.772442,9844.739029
4708.448798,3256.906145,1838.629195,10066.800811
4708.449112,2960.823768,995.924147,10066.800811
4708.449427,2442.679609,2068.457845,11029.068536
4708.449741,2220.617826,1685.410096,10214.842000
4708.450055,1776.494261,1838.629195,11325.150913
4708.450369,296.082377,1225.752797,11251.130318
4708.450684,0.000000,459.657299,9178.553681
4708.450998,-1258.350101,995.924147,7254.018232
4708.451312,-1776.494261,689.485948,7328.038826
4708.451626,-2146.597232,766.095498,7846.182985
4708.451940,-1702.473667,842.705048,7994.224174
4708.452255,-592.164754,919.314598,9548.656652
4708.452569,296.082377,2987.772442,10807.006753
4708.452883,1924.535449,2221.676944,10066.800811
4708.453197,2590.720797,1608.800546,9474.636058
4708.453512,3552.988522,2451.505594,9400.615463
4708.453826,3997.112087,2298.286494,9696.697840
4708.454140,3849.070898,3294.210641,9030.512492
4708.454454,2664.741391,2911.162892,7254.018232
4708.454768,666.185348,3217.601092,9696.697840
4708.455083,-962.267725,4136.915689,10955.047942
4708.455397,74.020594,1455.581446,9252.574275
4708.455711,444.123565,76.609550,8660.409521
4708.456025,-1702.473667,-1149.143247,7698.141797
4708.456339,-3330.926739,-76.609550,7772.162391
4708.456654,-3330.926739,995.924147,7179.997637
4708.456968,-2442.679609,919.314598,7698.141797
4708.457282,-2516.700203,919.314598,9474.636058
4708.457596,-2960.823768,229.828649,9548.656652
4708.457911,-2072.576638,536.266849,9474.636058
4708.458225,518.144159,919.314598,9474.636058
4708.458539,2516.700203,536.266849,9622.677246
4708.458853,3034.844362,1302.362347,11621.233289
4708.459167,3108.864956,2068.457845,11103.089130
4708.459482,2590.720797,3140.991542,10807.006753
4708.459796,3256.906145,1685.410096,8808.450710
4708.460110,1110.308913,842.705048,8808.450710
4708.460424,-1110.308913,995.924147,9622.677246
4708.460739,-1184.329507,689.485948,9770.718434
4708.461053,-370.102971,76.609550,10066.800811
4708.461367,-962.267725,-1762.019645,10066.800811
4708.461681,-1406.391290,-1455.581446,9622.677246
4708.461996,-2960.823768,-919.314598,8956.491898
4708.462310,-2590.720797,-919.314598,7624.121203
4708.462624,-1850.514855,-536.266849,7846.182985
4708.462938,-1332.370696,-1532.190996,8586.388927
4708.463252,-1924.535449,-1072.533697,8586.388927
4708.463567,-1036.288319,612.876398,9178.553681
4708.463881,962.267725,1455.581446,9178.553681
4708.464195,1998.556043,1378.971896,9326.594869
4708.464509,1998.556043,0.000000,8512.368333
4708.464824,1554.432478,153.219100,8882.471304
4708.465138,1406.391290,1302.362347,8734.430116
4708.465452,740.205942,459.657299,8586.388927
4708.465766,148.041188,-76.609550,9030.512492
4708.466081,-740.205942,-1072.533697,9992.780217
4708.466395,-444.123565,-612.876398,10881.027347
4708.466709,74.020594,-1072.533697,11251.130318
4708.467023,962.267725,-1149.143247,10732.986159
4708.467338,1258.350101,-1149.143247,9548.656652
4708.467652,666.185348,-995.924147,9252.574275
4708.467966,1184.329507,1149.143247,9770.718434
4708.468280,1628.453072,1455.581446,9474.636058
4708.468594,888.247130,1532.190996,9400.615463
4708.468909,-518.144159,842.705048,8364.327145
4708.469223,-962.267725,1149.143247,8290.306550
4708.469537,148.041188,842.705048,8290.306550
4708.469851,1184.329507,1149.143247,9178.553681
4708.470166,740.205942,1225.752797,10140.821405
4708.470480,370.102971,1302.362347,10288.862594
4708.470794,-370.102971,2374.896044,8956.491898
4708.471108,518.144159,1838.629195,7179.997637
4708.471423,296.082377,1762.019645,6735.874072
4708.471737,-962.267725,1455.581446,7772.162391
4708.472051,592.164754,2451.505594,9104.533087
4708.472365,1406.391290,3677.258390,10584.944971
4708.472680,1776.494261,1378.971896,11473.192101
4708.472994,1998.556043,76.609550,10140.821405
4708.473308,1480.411884,1685.410096,9622.677246
4708.473622,1406.391290,2987.772442,9696.697840
4708.473936,1184.329507,3370.820191,8882.471304
4708.474251,592.164754,2451.505594,9178.553681
4708.474565,-296.082377,1608.800546,9400.615463
4708.474879,-814.226536,3370.820191,9474.636058
4708.475193,-666.185348,2987.772442,8512.368333
4708.475508,-148.041188,1915.238745,8956.491898
4708.475822,666.185348,1762.019645,9696.697840
4708.476136,-296.082377,1149.143247,9030.512492
4708.476450,-740.205942,1991.848295,7920.203579
4708.476765,-2294.638420,1685.410096,7179.997637
4708.477079,-2886.803174,1762.019645,8216.285956
4708.477393,-2590.720797,2068.457845,9622.677246
4708.477707,-2294.638420,919.314598,10288.862594
4708.478022,-518.144159,-612.876398,9474.636058
4708.478336,1258.350101,383.047749,9474.636058
4708.478650,962.267725,766.095498,9474.636058
4708.478964,1184.329507,1072.533697,8808.450710
4708.479278,1702.473667,1608.800546,9548.656652
4708.479593,1850.514855,1608.800546,11547.212695
4708.479907,1998.556043,1991.848295,11325.150913
4708.480221,2220.617826,76.609550,8512.368333
4708.480535,1184.329507,919.314598,9918.759623
4708.480850,1036.288319,306.438199,9548.656652
4708.481164,1850.514855,229.828649,9326.594869
4708.481478,-370.102971,-306.438199,9474.636058
4708.481792,-2146.597232,-1149.143247,10658.965565
4708.482107,-2812.782580,-459.657299,9770.718434
4708.482421,-2442.679609,-2681.334243,7846.182985
4708.482735,-2368.659014,-2298.286494,7105.977043
4708.483049,-3330.926739,-2451.505594,7846.182985
4708.483364,-3108.864956,-1532.190996,9252.574275
4708.483678,-444.123565,766.095498,9770.718434
4708.483992,1184.329507,-766.095498,9104.533087
4708.484306,666.185348,-383.047749,9992.780217
4708.484620,1036.288319,0.000000,9474.636058
4708.484935,1776.494261,-229.828649,7920.203579
4708.485249,3330.926739,995.924147,9474.636058
4708.485563,3034.844362,153.219100,10510.924376
4708.485877,1998.556043,612.876398,11029.068536
4708.486192,1998.556043,689.485948,9918.759623
4708.486506,1628.453072,383.047749,9696.697840
4708.486820,1998.556043,536.266849,10288.862594
4708.487134,1628.453072,0.000000,10214.842000
4708.487449,296.082377,-229.828649,9178.553681
4708.487763,0.000000,76.609550,9030.512492
4708.488077,-814.226536,459.657299,9178.553681
4708.488391,-1258.350101,766.095498,9326.594869
4708.488706,-1702.473667,306.438199,9474.636058
4708.489020,-1850.514855,1608.800546,9474.636058
4708.489334,-888.247130,1225.752797,9326.594869
4708.489648,222.061783,1378.971896,9178.553681
4708.489962,0.000000,766.095498,8586.388927
4708.490277,-1036.288319,1072.533697,8364.327145
4708.490591,-1258.350101,3983.696590,9918.759623
4708.490905,-370.102971,3370.820191,10066.800811
4708.491219,-444.123565,2451.505594,10066.800811
4708.491534,-1110.308913,229.828649,8808.450710
