#time,accel_x,accel_y,accel_z
87208.047063,-1406.391290,1532.190996,10436.903782
87208.047392,0.000000,153.219100,7772.162391
87208.047722,518.144159,1149.143247,6143.709319
87208.048051,1406.391290,3753.867940,6143.709319
87208.048380,2368.659014,5132.839837,6661.853478
87208.048710,2590.720797,3753.867940,5699.585753
87208.049039,3034.844362,3600.648841,6217.729913
87208.049369,3404.947333,3447.429741,7105.977043
87208.049698,3034.844362,4060.306139,8216.285956
87208.050028,2294.638420,2451.505594,8882.471304
87208.050357,1702.473667,-536.266849,9844.739029
87208.050686,740.205942,-1838.629195,10510.924376
87208.051016,148.041188,-306.438199,10214.842000
87208.051345,222.061783,-612.876398,10881.027347
87208.051675,-148.041188,-919.314598,11399.171507
87208.052004,-666.185348,-2068.457845,11843.295072
87208.052334,-444.123565,-1915.238745,11547.212695
87208.052663,0.000000,-536.266849,10362.883188
87208.052992,592.164754,689.485948,9104.533087
87208.053322,1406.391290,229.828649,9548.656652
87208.053651,1998.556043,306.438199,8808.450710
87208.053981,1480.411884,1455.581446,8882.471304
87208.054310,1702.473667,1685.410096,9030.512492
87208.054640,2146.597232,689.485948,8956.491898
87208.054969,1998.556043,229.828649,9178.553681
87208.055298,1850.514855,153.219100,10066.800811
87208.055628,1998.556043,1378.971896,10066.800811
87208.055957,2738.761985,1378.971896,9844.739029
87208.056287,4589.276840,1608.800546,10140.821405
87208.056616,4737.318029,3064.381992,9474.636058
87208.056946,5329.482782,5132.839837,8660.409521
87208.057275,6143.709319,6588.421283,8364.327145
87208.057604,7031.956449,7890.783629,8068.244768
87208.057934,6513.812290,7431.126331,7476.080014
87208.058263,5551.544565,7584.345430,7105.977043
87208.058593,4737.318029,7354.516781,7254.018232
87208.058922,3997.112087,6818.249932,8068.244768
87208.059252,2516.700203,5898.935335,8290.306550
87208.059581,1924.535449,5592.497135,9030.512492
87208.059910,2368.659014,5592.497135,9474.636058
87208.060240,2294.638420,5745.716235,10362.883188
87208.060569,2146.597232,5975.544884,9992.780217
87208.060899,1998.556043,5822.325785,9918.759623
87208.061228,2590.720797,6052.154434,9622.677246
87208.061558,3552.988522,6435.202183,9992.780217
87208.061887,3330.926739,6588.421283,9844.739029
87208.062217,2812.782580,7124.688131,9474.636058
87208.062546,2664.741391,6511.811733,8586.388927
87208.062875,2442.679609,5439.278036,9252.574275
87208.063205,1258.350101,4903.011187,8808.450710
87208.063534,296.082377,4749.792088,9178.553681
87208.063864,0.000000,4290.134789,9104.533087
87208.064193,-222.061783,3600.648841,8808.450710
87208.064523,0.000000,2911.162892,9548.656652
87208.064852,-296.082377,2221.676944,9770.718434
87208.065181,-74.020594,2145.067394,9622.677246
87208.065511,740.205942,1455.581446,10732.986159
87208.065840,666.185348,995.924147,10732.986159
87208.066170,666.185348,383.047749,10214.842000
87208.066499,1110.308913,-459.657299,7698.141797
87208.066829,1776.494261,-306.438199,7698.141797
87208.067158,2738.761985,612.876398,7920.203579
87208.067487,3404.947333,1608.800546,7624.121203
87208.067817,3775.050304,1915.238745,7550.100608
87208.068146,3552.988522,1149.143247,7328.038826
87208.068476,2442.679609,536.266849,7476.080014
87208.068805,1554.432478,383.047749,7994.224174
87208.069135,518.144159,-2451.505594,9400.615463
87208.069464,-814.226536,-3600.648841,11251.130318
87208.069793,-2664.741391,-5515.887586,13101.645173
87208.070123,-4515.256246,-6894.859482,14211.954086
87208.070452,-5107.421000,-7660.954980,14137.933492
87208.070782,-4441.235652,-8580.269578,12361.439231
87208.071111,-2886.803174,-7124.688131,11547.212695
87208.071440,0.000000,-4290.134789,10288.862594
87208.071770,2886.803174,0.000000,8068.244768
87208.072099,5773.606348,2451.505594,7105.977043
87208.072428,7550.100608,4060.306139,6439.791695
87208.072757,8364.327145,6435.202183,5847.626942
87208.073087,8438.347739,7354.516781,5921.647536
87208.073416,7031.956449,6052.154434,7846.182985
87208.073745,3849.070898,2374.896044,9030.512492
87208.074075,0.000000,-536.266849,9770.718434
87208.074404,-2516.700203,-1991.848295,10214.842000
87208.074733,-3256.906145,-3140.991542,10362.883188
87208.075063,-3997.112087,-1915.238745,11547.212695
87208.075392,-3034.844362,0.000000,10436.903782
87208.075721,-814.226536,2604.724693,7624.121203
87208.076051,1258.350101,4136.915689,5921.647536
87208.076380,2368.659014,6894.859482,5033.400406
87208.076709,2812.782580,9729.412825,4515.256246
87208.077039,3182.885551,10648.727422,6217.729913
87208.077368,2220.617826,8197.221829,7994.224174
87208.077697,-962.267725,4596.572988,9178.553681
87208.078026,-3404.947333,1915.238745,10436.903782
87208.078356,-4885.359217,0.000000,11621.233289
87208.078685,-4737.318029,-1532.190996,13471.748144
87208.079014,-4737.318029,-1838.629195,14582.057057
87208.079344,-3701.029710,-459.657299,14211.954086
87208.079673,-2072.576638,1302.362347,12953.603985
87208.080002,0.000000,2681.334243,10658.965565
87208.080332,1554.432478,4290.134789,7624.121203
87208.080661,2738.761985,4979.620737,6957.935855
87208.080990,3775.050304,6358.592633,6661.853478
87208.081320,3923.091493,6971.469032,6587.832884
87208.081649,3997.112087,5822.325785,7179.997637
87208.081978,2886.803174,4519.963438,7328.038826
87208.082307,2220.617826,2681.334243,7031.956449
87208.082637,1110.308913,1532.190996,7402.059420
87208.082966,-1184.329507,-766.095498,8438.347739
87208.083295,-2664.741391,-689.485948,8956.491898
87208.083625,-3552.988522,-1991.848295,9696.697840
87208.083954,-4663.297435,-3140.991542,9918.759623
87208.084283,-4515.256246,-4596.572988,9844.739029
87208.084613,-3552.988522,-4979.620737,10510.924376
87208.084942,-1850.514855,-3753.867940,11769.274478
87208.085271,0.000000,-2604.724693,12287.418637
87208.085601,2738.761985,-1991.848295,11991.336260
87208.085930,4441.235652,-919.314598,11399.171507
87208.086259,4811.338623,-536.266849,10807.006753
87208.086588,4219.173869,76.609550,10140.821405
87208.086918,3627.009116,76.609550,10807.006753
87208.087247,2664.741391,-1149.143247,9992.780217
87208.087576,-148.041188,-2451.505594,8956.491898
87208.087906,-962.267725,-2987.772442,8660.409521
87208.088235,-1110.308913,-2451.505594,8956.491898
87208.088564,-1184.329507,-1991.848295,9252.574275
87208.088894,-1924.535449,-1685.410096,8956.491898
87208.089223,-1554.432478,-1991.848295,7698.141797
87208.089552,-1036.288319,-2604.724693,7179.997637
87208.089882,-1332.370696,-536.266849,7698.141797
87208.090211,-2590.720797,612.876398,8512.368333
87208.090540,-2590.720797,-766.095498,8586.388927
87208.090870,-1850.514855,-2451.505594,9104.533087
87208.091199,-1924.535449,-2298.286494,9918.759623
87208.091528,-1036.288319,-612.876398,9474.636058
87208.091857,370.102971,306.438199,10584.944971
87208.092187,2368.659014,459.657299,10436.903782
87208.092516,2960.823768,1149.143247,9844.739029
87208.092845,2960.823768,2911.162892,9548.656652
87208.093175,2220.617826,4443.353888,8956.491898
87208.093504,1998.556043,4366.744339,8586.388927
87208.093833,962.267725,2681.334243,8142.265362
87208.094163,-962.267725,1991.848295,7920.203579
87208.094492,-1258.350101,2451.505594,8216.285956
87208.094821,-1406.391290,1838.629195,8808.450710
87208.095151,-2072.576638,1455.581446,8956.491898
87208.095480,-2664.741391,842.705048,8586.388927
87208.095809,-2812.782580,1838.629195,7772.162391
87208.096138,-2146.597232,2681.334243,7846.182985
87208.096468,-2294.638420,3217.601092,8364.327145
87208.096797,-2886.803174,2145.067394,8882.471304
87208.097126,-1850.514855,1302.362347,9104.533087
87208.097456,-962.267725,1072.533697,9696.697840
87208.097785,0.000000,689.485948,10584.944971
87208.098114,888.247130,1455.581446,11103.089130
87208.098444,3182.885551,1915.238745,11177.109724
87208.098773,4737.318029,2604.724693,10658.965565
87208.099102,4441.235652,3830.477490,9696.697840
87208.099432,3478.967927,3983.696590,8438.347739
87208.099761,3034.844362,3294.210641,7772.162391
87208.100090,2368.659014,2987.772442,7994.224174
87208.100420,1184.329507,2145.067394,7772.162391
87208.100749,-148.041188,1455.581446,8586.388927
87208.101078,-518.144159,766.095498,9400.615463
87208.101407,-518.144159,689.485948,9104.533087
87208.101737,-592.164754,0.000000,9030.512492
87208.102066,-1036.288319,-766.095498,8512.368333
87208.102395,-1258.350101,-153.219100,8882.471304
87208.102725,-370.102971,612.876398,9622.677246
87208.103054,-962.267725,-536.266849,10066.800811
87208.103383,-1998.556043,-1378.971896,9770.718434
87208.103713,-2220.617826,-3677.258390,9918.759623
87208.104042,-1702.473667,-3830.477490,10658.965565
87208.104371,-296.082377,-3064.381992,12065.356855
87208.104701,222.061783,-2068.457845,12805.562797
87208.105030,1184.329507,-2374.896044,11769.274478
87208.105359,1776.494261,-1915.238745,10362.883188
87208.105688,3404.947333,-612.876398,10288.862594
87208.106018,2220.617826,1532.190996,10140.821405
87208.106347,592.164754,1455.581446,8512.368333
87208.106676,518.144159,-766.095498,7920.203579
87208.107006,-370.102971,-2221.676944,7994.224174
87208.107335,-2072.576638,-1685.410096,7624.121203
87208.107664,-2738.761985,0.000000,7328.038826
87208.107994,-2516.700203,-766.095498,7179.997637
87208.108323,-2368.659014,-2298.286494,7550.100608
87208.108652,-2146.597232,-1532.190996,7994.224174
87208.108982,-2294.638420,-229.828649,8290.306550
87208.109311,-2220.617826,612.876398,8808.450710
87208.109640,-2220.617826,-689.485948,9178.553681
87208.109970,-1702.473667,-2451.505594,9474.636058
87208.110299,-2590.720797,-2451.505594,9992.780217
87208.110628,-1628.453072,-2221.676944,10658.965565
87208.110957,-222.061783,-1149.143247,11843.295072
87208.111287,740.205942,-1455.581446,11695.253884
87208.111616,1628.453072,-995.924147,10362.883188
87208.111945,2072.576638,995.924147,9178.553681
87208.112275,2590.720797,2987.772442,9104.533087
87208.112604,2516.700203,2911.162892,9178.553681
87208.112933,1332.370696,2834.553343,8142.265362
87208.113263,962.267725,2451.505594,7328.038826
87208.113592,-148.041188,2451.505594,7179.997637
87208.113921,0.000000,2451.505594,7624.121203
87208.114251,-148.041188,2528.115143,8364.327145
87208.114580,-296.082377,2451.505594,8068.244768
87208.114909,0.000000,1838.629195,7402.059420
87208.115238,370.102971,2451.505594,7105.977043
87208.115568,-518.144159,2834.553343,7772.162391
87208.115897,0.000000,2911.162892,8586.388927
87208.116226,-296.082377,2221.676944,9474.636058
87208.116556,-592.164754,689.485948,9844.739029
87208.116885,0.000000,76.609550,10288.862594
87208.117214,814.226536,383.047749,10140.821405
87208.117544,1850.514855,995.924147,11103.089130
87208.117873,2146.597232,1302.362347,11547.212695
87208.118202,2368.659014,2068.457845,10732.986159
87208.118532,2368.659014,2374.896044,10362.883188
87208.118861,1776.494261,2451.505594,9770.718434
87208.119190,888.247130,2834.553343,9030.512492
87208.119520,-296.082377,2221.676944,8512.368333
87208.119849,-1184.329507,306.438199,8290.306550
87208.120178,-1998.556043,-229.828649,8660.409521
87208.120507,-1998.556043,-306.438199,9252.574275
87208.120837,-2368.659014,536.266849,9844.739029
87208.121166,-2072.576638,612.876398,9474.636058
87208.121495,-888.247130,0.000000,9252.574275
87208.121825,296.082377,-766.095498,8734.430116
87208.122154,0.000000,689.485948,7846.182985
87208.122483,-666.185348,1072.533697,9252.574275
87208.122813,-740.205942,-229.828649,9622.677246
87208.123142,-962.267725,-2068.457845,10066.800811
87208.123471,-1258.350101,-2987.772442,9770.718434
87208.123801,-296.082377,-2681.334243,10732.986159
87208.124130,296.082377,-1915.238745,11621.233289
87208.124459,1036.288319,-1149.143247,10881.027347
87208.124788,1406.391290,-1072.533697,10436.903782
87208.125118,1184.329507,-459.657299,9844.739029
87208.125447,592.164754,689.485948,9104.533087
87208.125776,148.041188,766.095498,9400.615463
87208.126106,-814.226536,-689.485948,9770.718434
87208.126435,-1924.535449,-1455.581446,8882.471304
87208.126764,-2146.597232,-2145.067394,8438.347739
87208.127094,-1998.556043,-1608.800546,9252.574275
87208.127423,-1998.556043,-1302.362347,9474.636058
87208.127752,-1554.432478,-1225.752797,9104.533087
87208.128082,-814.226536,-689.485948,8512.368333
87208.128411,0.000000,0.000000,8216.285956
87208.128740,0.000000,1225.752797,8734.430116
87208.129070,222.061783,1225.752797,9030.512492
87208.129399,370.102971,76.609550,9178.553681
87208.129728,888.247130,-536.266849,10066.800811
87208.130057,1184.329507,-612.876398,10362.883188
87208.130387,1776.494261,229.828649,10214.842000
87208.130716,2368.659014,1532.190996,9918.759623
87208.131045,2368.659014,842.705048,9400.615463
87208.131375,2368.659014,995.924147,9548.656652
87208.131704,1184.329507,2374.896044,8808.450710
87208.132033,592.164754,2987.772442,8586.388927
87208.132363,74.020594,2298.286494,7846.182985
87208.132692,-592.164754,1685.410096,7698.141797
87208.133021,-1628.453072,1072.533697,7402.059420
87208.133351,-1332.370696,2221.676944,7920.203579
87208.133680,-888.247130,3370.820191,8364.327145
87208.134009,-222.061783,1991.848295,8142.265362
87208.134338,-296.082377,2298.286494,7402.059420
87208.134668,0.000000,2681.334243,7846.182985
87208.134997,666.185348,3217.601092,8808.450710
87208.135326,74.020594,3140.991542,9400.615463
87208.135656,-666.185348,2145.067394,9474.636058
87208.135985,-1332.370696,-306.438199,10066.800811
87208.136314,-666.185348,-995.924147,10362.883188
87208.136644,-148.041188,-306.438199,11029.068536
87208.136973,0.000000,919.314598,11621.233289
87208.137302,1850.514855,1455.581446,10732.986159
87208.137632,2590.720797,1685.410096,9918.759623
87208.137961,2516.700203,2451.505594,9474.636058
87208.138290,1184.329507,3753.867940,8216.285956
87208.138619,592.164754,3217.601092,8068.244768
87208.138949,-370.102971,1532.190996,7920.203579
87208.139278,-1184.329507,0.000000,7698.141797
87208.139607,-2294.638420,-153.219100,8216.285956
87208.139937,-2294.638420,0.000000,9474.636058
87208.140266,-1554.432478,76.609550,9696.697840
87208.140595,-1480.411884,-842.705048,8808.450710
87208.140925,-888.247130,-995.924147,8734.430116
87208.141254,0.000000,306.438199,8660.409521
87208.141583,814.226536,1762.019645,9030.512492
87208.141913,888.247130,612.876398,9918.759623
87208.142242,222.061783,0.000000,9474.636058
87208.142571,296.082377,-1685.410096,10732.986159
87208.142901,222.061783,-2451.505594,11251.130318
87208.143230,888.247130,-1685.410096,12657.521608
87208.143559,1258.350101,-1915.238745,12213.398043
87208.143888,1702.473667,-1991.848295,11547.212695
87208.144218,2146.597232,-995.924147,10584.944971
87208.144547,2072.576638,-229.828649,10140.821405
87208.144876,1406.391290,1455.581446,9548.656652
87208.145206,222.061783,1225.752797,9030.512492
87208.145535,-592.164754,0.000000,8512.368333
87208.145864,-962.267725,-612.876398,8290.306550
87208.146194,-1702.473667,0.000000,8512.368333
87208.146523,-1850.514855,-383.047749,8586.388927
87208.146852,-1776.494261,0.000000,7698.141797
87208.147182,-1036.288319,-1072.533697,8068.244768
87208.147511,-1480.411884,0.000000,8068.244768
87208.147840,-962.267725,689.485948,8142.265362
87208.148169,0.000000,1149.143247,8808.450710
87208.148499,-370.102971,306.438199,9178.553681
87208.148828,-962.267725,-383.047749,9400.615463
87208.149157,-666.185348,-536.266849,9770.718434
87208.149487,1036.288319,0.000000,10955.047942
87208.149816,1998.556043,383.047749,11547.212695
87208.150145,2146.597232,536.266849,11251.130318
87208.150475,2294.638420,1149.143247,10140.821405
87208.150804,2516.700203,2145.067394,9474.636058
87208.151133,2960.823768,3447.429741,9030.512492
87208.151463,1480.411884,3294.210641,8734.430116
87208.151792,-518.144159,2757.943793,7550.100608
87208.152121,-1036.288319,1608.800546,7328.038826
87208.152451,-1258.350101,1302.362347,7624.121203
87208.152780,-1850.514855,1762.019645,8586.388927
87208.153109,-2368.659014,2068.457845,8512.368333
87208.153438,-1628.453072,2298.286494,7698.141797
87208.153768,-370.102971,2604.724693,7920.203579
87208.154097,148.041188,1532.190996,7920.203579
87208.154426,0.000000,2681.334243,8142.265362
87208.154756,-296.082377,3677.258390,9030.512492
87208.155085,-370.102971,1838.629195,9474.636058
87208.155414,-370.102971,0.000000,9474.636058
87208.155744,-148.041188,-919.314598,9548.656652
87208.156073,518.144159,229.828649,10807.006753
87208.156402,1184.329507,1302.362347,10955.047942
87208.156732,2220.617826,1455.581446,10584.944971
87208.157061,2664.741391,1455.581446,10288.862594
87208.157390,2886.803174,2604.724693,9400.615463
87208.157719,2368.659014,4060.306139,8808.450710
87208.158049,1776.494261,3447.429741,8364.327145
87208.158378,592.164754,1838.629195,8364.327145
87208.158707,-444.123565,-306.438199,8660.409521
87208.159037,-2294.638420,-383.047749,8734.430116
87208.159366,-2886.803174,0.000000,9474.636058
87208.159695,-2738.761985,-919.314598,9992.780217
87208.160025,-2516.700203,-1915.238745,9622.677246
87208.160354,-1776.494261,-1608.800546,8882.471304
87208.160683,-592.164754,-383.047749,8956.491898
87208.161013,0.000000,536.266849,10584.944971
87208.161342,-444.123565,766.095498,9770.718434
87208.161671,0.000000,-1072.533697,9474.636058
87208.162001,222.061783,-2145.067394,9844.739029
87208.162330,74.020594,-1225.752797,11177.109724
87208.162659,370.102971,0.000000,11103.089130
87208.162988,1110.308913,-1608.800546,11769.274478
87208.163318,1628.453072,-2451.505594,10658.965565
87208.163647,592.164754,-1685.410096,10288.862594
87208.163976,0.000000,306.438199,9474.636058
87208.164306,-148.041188,689.485948,9474.636058
87208.164635,-740.205942,-612.876398,9252.574275
87208.164964,-1924.535449,-1455.581446,8586.388927
87208.165294,-2812.782580,-612.876398,7772.162391
87208.165623,-1702.473667,306.438199,8068.244768
87208.165952,-1332.370696,153.219100,8660.409521
87208.166282,-962.267725,0.000000,8586.388927
87208.166611,-444.123565,153.219100,8290.306550
87208.166940,74.020594,306.438199,7698.141797
87208.167269,296.082377,1302.362347,8438.347739
87208.167599,518.144159,1608.800546,9918.759623
87208.167928,0.000000,0.000000,9992.780217
87208.168257,-962.267725,-1072.533697,9918.759623
87208.168587,-518.144159,-2145.067394,10436.903782
87208.168916,296.082377,-1225.752797,11103.089130
87208.169245,666.185348,76.609550,11177.109724
87208.169575,2072.576638,1532.190996,10584.944971
87208.169904,2664.741391,1225.752797,9918.759623
87208.170234,2516.700203,2834.553343,9252.574275
87208.170563,1924.535449,3447.429741,8512.368333
87208.170892,666.185348,3983.696590,7698.141797
87208.171221,0.000000,2451.505594,7105.977043
87208.171551,-962.267725,1455.581446,7105.977043
87208.171880,-1480.411884,766.095498,7105.977043
87208.172209,-1554.432478,1532.190996,7254.018232
87208.172538,-1480.411884,2528.115143,7624.121203
87208.172868,-1036.288319,1378.971896,8068.244768
87208.173197,-666.185348,1532.190996,7920.203579
87208.173526,370.102971,2528.115143,8216.285956
87208.173855,1036.288319,3064.381992,8808.450710
87208.174185,666.185348,1838.629195,9104.533087
87208.174514,148.041188,1149.143247,8956.491898
87208.174843,-222.061783,536.266849,9474.636058
87208.175173,0.000000,76.609550,10362.883188
87208.175502,148.041188,0.000000,11103.089130
87208.175831,444.123565,153.219100,11769.274478
87208.176160,814.226536,76.609550,10881.027347
87208.176490,1628.453072,0.000000,9918.759623
87208.176819,1480.411884,1072.533697,8660.409521
87208.177148,444.123565,2068.457845,8512.368333
87208.177477,-148.041188,2604.724693,8586.388927
87208.177807,-148.041188,1532.190996,8364.327145
87208.178136,-740.205942,229.828649,8438.347739
87208.178465,-1554.432478,0.000000,8364.327145
87208.178794,-1258.350101,76.609550,8660.409521
87208.179124,-1406.391290,153.219100,8882.471304
87208.179453,-1406.391290,-383.047749,8216.285956
87208.179782,-1110.308913,-1149.143247,8660.409521
87208.180112,-666.185348,-306.438199,8882.471304
87208.180441,-148.041188,306.438199,9474.636058
87208.180770,-370.102971,76.609550,9992.780217
87208.181099,-1406.391290,-689.485948,10288.862594
87208.181429,-666.185348,-2374.896044,10140.821405
87208.181758,222.061783,-2451.505594,10140.821405
87208.182087,888.247130,-1302.362347,11547.212695
87208.182416,1258.350101,-689.485948,11843.295072
87208.182746,1554.432478,0.000000,11621.233289
87208.183075,1998.556043,-766.095498,10066.800811
87208.183404,1406.391290,-306.438199,9400.615463
87208.183733,-222.061783,0.000000,8660.409521
87208.184063,-666.185348,689.485948,8586.388927
87208.184392,-444.123565,-383.047749,9104.533087
87208.184721,-1406.391290,-919.314598,9400.615463
87208.185050,-1998.556043,-1149.143247,8808.450710
87208.185380,-1628.453072,306.438199,8290.306550
87208.185709,-518.144159,1072.533697,8512.368333
87208.186038,888.247130,536.266849,9548.656652
87208.186368,370.102971,919.314598,8586.388927
87208.186697,518.144159,1302.362347,8660.409521
87208.187026,148.041188,1608.800546,8586.388927
87208.187355,-592.164754,383.047749,9104.533087
87208.187685,-1406.391290,-919.314598,9548.656652
87208.188014,-2072.576638,-1302.362347,9548.656652
87208.188343,-1110.308913,-1225.752797,10510.924376
87208.188672,370.102971,-383.047749,11399.171507
87208.189002,666.185348,0.000000,10140.821405
87208.189331,1110.308913,612.876398,9548.656652
87208.189660,2072.576638,1838.629195,9252.574275
87208.189989,2368.659014,3294.210641,8438.347739
87208.190319,2146.597232,3677.258390,8956.491898
87208.190648,518.144159,2451.505594,8290.306550
87208.190977,0.000000,1455.581446,7698.141797
87208.191307,0.000000,1149.143247,6957.935855
87208.191636,-222.061783,1838.629195,8290.306550
87208.191965,-370.102971,1762.019645,8068.244768
87208.192294,-444.123565,1532.190996,7772.162391
87208.192624,-296.082377,1378.971896,7402.059420
87208.192953,222.061783,2068.457845,7994.224174
87208.193282,0.000000,2757.943793,8660.409521
87208.193611,0.000000,1838.629195,8956.491898
87208.193941,-666.185348,536.266849,9474.636058
87208.194270,-1332.370696,-689.485948,10288.862594
87208.194599,-1924.535449,-842.705048,10214.842000
87208.194928,-1036.288319,-383.047749,11251.130318
87208.195258,148.041188,-612.876398,10807.006753
87208.195587,740.205942,0.000000,10658.965565
87208.195916,1258.350101,766.095498,10362.883188
87208.196246,1110.308913,2068.457845,9474.636058
87208.196575,1480.411884,2298.286494,9104.533087
87208.196904,1036.288319,1149.143247,8808.450710
87208.197233,0.000000,459.657299,8586.388927
87208.197563,-1110.308913,689.485948,8142.265362
87208.197892,-592.164754,1072.533697,9104.533087
87208.198221,-814.226536,0.000000,9030.512492
87208.198550,-814.226536,-229.828649,8956.491898
87208.198880,-1110.308913,229.828649,8216.285956
87208.199209,-592.164754,459.657299,8290.306550
87208.199538,-296.082377,153.219100,8290.306550
87208.199867,-1110.308913,-306.438199,9474.636058
87208.200197,-1554.432478,-536.266849,9474.636058
87208.200526,-2146.597232,-1378.971896,9474.636058
87208.200855,-1776.494261,-2757.943793,9992.780217
87208.201185,-1258.350101,-2451.505594,11251.130318
87208.201514,0.000000,-1608.800546,11843.295072
87208.201843,1628.453072,-536.266849,11473.192101
87208.202172,2368.659014,-766.095498,11399.171507
87208.202502,2886.803174,76.609550,10732.986159
87208.202831,2220.617826,1072.533697,9474.636058
87208.203160,1850.514855,1378.971896,9696.697840
87208.203489,666.185348,842.705048,9474.636058
87208.203819,-814.226536,-689.485948,8512.368333
87208.204148,-1776.494261,-842.705048,8142.265362
87208.204477,-1110.308913,229.828649,8438.347739
87208.204806,-962.267725,229.828649,8956.491898
87208.205136,-888.247130,383.047749,8956.491898
87208.205465,-740.205942,0.000000,8216.285956
87208.205794,-296.082377,919.314598,8290.306550
87208.206124,518.144159,2298.286494,8586.388927
87208.206453,0.000000,2145.067394,9104.533087
87208.206782,-1406.391290,842.705048,8290.306550
87208.207111,-1332.370696,-1225.752797,8956.491898
87208.207441,-888.247130,-1225.752797,9918.759623
87208.207770,-592.164754,0.000000,11177.109724
87208.208099,-222.061783,0.000000,11177.109724
87208.208428,1110.308913,-306.438199,10658.965565
87208.208758,1702.473667,306.438199,9770.718434
87208.209087,3256.906145,2298.286494,10140.821405
87208.209416,2368.659014,3524.039291,9178.553681
87208.209745,2220.617826,3753.867940,8808.450710
87208.210075,1554.432478,2911.162892,8364.327145
87208.210404,296.082377,1608.800546,7476.080014
87208.210733,-740.205942,1685.410096,7920.203579
87208.211062,-592.164754,2374.896044,7772.162391
87208.211392,-222.061783,1838.629195,8438.347739
87208.211721,-1332.370696,306.438199,7698.141797
87208.212050,-1776.494261,689.485948,7476.080014
87208.212380,-1480.411884,1225.752797,7772.162391
87208.212709,-814.226536,1838.629195,8586.388927
87208.213038,-1258.350101,1532.190996,9474.636058
87208.213367,-1776.494261,383.047749,8586.388927
87208.213697,-962.267725,-919.314598,9104.533087
87208.214026,74.020594,-229.828649,9918.759623
87208.214355,592.164754,229.828649,11325.150913
87208.214684,1110.308913,229.828649,11251.130318
87208.215014,1998.556043,153.219100,10658.965565
87208.215343,2664.741391,842.705048,10066.800811
87208.215672,2886.803174,1072.533697,9992.780217
87208.216001,1628.453072,2298.286494,9252.574275
87208.216331,296.082377,1915.238745,8586.388927
87208.216660,-370.102971,383.047749,8364.327145
87208.216989,-1036.288319,-306.438199,8216.285956
87208.217319,-1702.473667,383.047749,8290.306550
87208.217648,-1702.473667,1532.190996,8660.409521
87208.217977,-1480.411884,919.314598,8290.306550
87208.218306,-592.164754,-689.485948,8882.471304
87208.218636,-740.205942,0.000000,8216.285956
87208.218965,-518.144159,1072.533697,8438.347739
87208.219294,0.000000,1149.143247,9252.574275
87208.219623,-444.123565,76.609550,10362.883188
87208.219953,-1480.411884,-1915.238745,10140.821405
87208.220282,-1258.350101,-2145.067394,10658.965565
87208.220611,-518.144159,-1915.238745,10584.944971
87208.220940,740.205942,-1608.800546,12287.418637
87208.221270,1628.453072,-995.924147,12361.439231
87208.221599,2220.617826,0.000000,11621.233289
87208.221928,2590.720797,1225.752797,10140.821405
87208.222258,2812.782580,2221.676944,9992.780217
87208.222587,1406.391290,2528.115143,9400.615463
87208.222916,0.000000,1762.019645,7402.059420
87208.223245,-1036.288319,612.876398,7698.141797
87208.223575,-2072.576638,-229.828649,8290.306550
87208.223904,-2664.741391,0.000000,8142.265362
87208.224233,-2812.782580,0.000000,8364.327145
87208.224562,-2294.638420,-383.047749,8364.327145
87208.224892,-1332.370696,-383.047749,8438.347739
87208.225221,74.020594,689.485948,8882.471304
87208.225550,444.123565,2068.457845,8734.430116
87208.225879,888.247130,2374.896044,8956.491898
87208.226209,962.267725,1149.143247,9474.636058
87208.226538,666.185348,153.219100,9918.759623
87208.226867,1628.453072,153.219100,10066.800811
87208.227197,2072.576638,0.000000,10807.006753
87208.227526,1702.473667,76.609550,11991.336260
87208.227855,2220.617826,229.828649,11621.233289
87208.228184,1924.535449,842.705048,10140.821405
87208.228514,1850.514855,1072.533697,8882.471304
87208.228843,814.226536,2298.286494,8438.347739
87208.229172,-296.082377,3064.381992,8068.244768
87208.229501,-1850.514855,2221.676944,7550.100608
87208.229831,-2368.659014,459.657299,7031.956449
87208.230160,-2738.761985,229.828649,6957.935855
87208.230489,-2516.700203,766.095498,7846.182985
87208.230818,-2294.638420,1532.190996,7624.121203
87208.231148,-666.185348,919.314598,7846.182985
87208.231477,74.020594,689.485948,8142.265362
87208.231806,222.061783,919.314598,8068.244768
87208.232136,222.061783,2221.676944,8586.388927
87208.232465,888.247130,2451.505594,8586.388927
87208.232794,814.226536,229.828649,9474.636058
87208.233123,0.000000,-612.876398,9992.780217
87208.233453,148.041188,-612.876398,10955.047942
87208.233782,1110.308913,919.314598,11695.253884
87208.234111,1998.556043,995.924147,11103.089130
87208.234440,2368.659014,0.000000,10362.883188
87208.234770,2812.782580,995.924147,9474.636058
87208.235099,1998.556043,2298.286494,9252.574275
87208.235428,1036.288319,2987.772442,9252.574275
87208.235757,-666.185348,1378.971896,8660.409521
87208.236087,-2072.576638,-766.095498,7994.224174
87208.236416,-3034.844362,-842.705048,8068.244768
87208.236745,-2442.679609,76.609550,8142.265362
87208.237074,-2220.617826,-383.047749,9030.512492
87208.237404,-1998.556043,-612.876398,9252.574275
87208.237733,-814.226536,-842.705048,8882.471304
87208.238062,0.000000,919.314598,8512.368333
87208.238392,592.164754,2068.457845,8882.471304
87208.238721,888.247130,2298.286494,9474.636058
87208.239050,74.020594,689.485948,9104.533087
87208.239379,-518.144159,-1455.581446,9400.615463
87208.239709,-888.247130,-1685.410096,10066.800811
87208.240038,-444.123565,-612.876398,11325.150913
87208.240367,-148.041188,-995.924147,11769.274478
87208.240696,444.123565,-1685.410096,11473.192101
87208.241026,1258.350101,-1225.752797,10955.047942
87208.241355,1184.329507,459.657299,11251.130318
87208.241684,1036.288319,2604.724693,10362.883188
87208.242013,1628.453072,2374.896044,8586.388927
87208.242343,1036.288319,919.314598,8068.244768
87208.242672,-592.164754,689.485948,8068.244768
87208.243001,-1184.329507,1149.143247,8290.306550
87208.243331,-962.267725,1149.143247,8586.388927
87208.243660,-814.226536,0.000000,9326.594869
87208.243989,-1776.494261,-306.438199,8290.306550
87208.244318,-1258.350101,0.000000,7846.182985
87208.244648,-370.102971,766.095498,8586.388927
87208.244977,-518.144159,1072.533697,9326.594869
87208.245306,-962.267725,459.657299,9548.656652
87208.245635,-1184.329507,-153.219100,9622.677246
87208.245965,-1258.350101,-536.266849,9474.636058
87208.246294,-222.061783,-306.438199,9844.739029
87208.246623,444.123565,229.828649,10510.924376
87208.246952,740.205942,153.219100,10362.883188
87208.247282,1850.514855,0.000000,9918.759623
87208.247611,2442.679609,766.095498,9844.739029
87208.247940,2368.659014,2068.457845,9622.677246
87208.248270,1480.411884,2987.772442,8586.388927
87208.248599,962.267725,1915.238745,8068.244768
87208.248928,0.000000,842.705048,7698.141797
87208.249257,-888.247130,306.438199,7105.977043
87208.249587,-740.205942,1149.143247,7624.121203
87208.249916,-592.164754,1838.629195,8438.347739
87208.250245,-666.185348,1302.362347,8364.327145
87208.250574,-296.082377,689.485948,7994.224174
87208.250904,0.000000,1838.629195,7772.162391
87208.251233,222.061783,2145.067394,8290.306550
87208.251562,0.000000,1838.629195,8882.471304
87208.251891,-1258.350101,612.876398,8808.450710
87208.252221,-1702.473667,-612.876398,9178.553681
87208.252550,-1554.432478,-1225.752797,9400.615463
87208.252879,-814.226536,-766.095498,10140.821405
87208.253209,-370.102971,-306.438199,10436.903782
87208.253538,148.041188,0.000000,11399.171507
87208.253867,814.226536,-153.219100,10362.883188
87208.254196,2220.617826,689.485948,10214.842000
87208.254526,1998.556043,1302.362347,9474.636058
87208.254855,1258.350101,1838.629195,8956.491898
87208.255184,370.102971,1838.629195,8660.409521
87208.255513,148.041188,995.924147,8290.306550
87208.255843,0.000000,306.438199,8734.430116
87208.256172,-1702.473667,0.000000,8660.409521
87208.256501,-1480.411884,459.657299,8956.491898
87208.256830,-592.164754,766.095498,8734.430116
87208.257160,0.000000,0.000000,8290.306550
87208.257489,-296.082377,229.828649,7994.224174
87208.257818,148.041188,612.876398,8808.450710
87208.258148,0.000000,1225.752797,9178.553681
87208.258477,-370.102971,689.485948,9548.656652
87208.258806,-1406.391290,-1225.752797,9992.780217
87208.259135,-1628.453072,-1915.238745,10214.842000
87208.259465,-888.247130,-1608.800546,11177.109724
87208.259794,0.000000,-1302.362347,12213.398043
87208.260123,444.123565,-766.095498,11547.212695
87208.260452,740.205942,-1685.410096,10436.903782
87208.260782,1924.535449,153.219100,10362.883188
87208.261111,1924.535449,1915.238745,10140.821405
87208.261440,1258.350101,2604.724693,9622.677246
87208.261769,148.041188,1455.581446,8882.471304
87208.262099,148.041188,612.876398,7920.203579
87208.262428,-74.020594,766.095498,8364.327145
87208.262757,-296.082377,1532.190996,9252.574275
87208.263086,-296.082377,1762.019645,8882.471304
87208.263416,0.000000,1072.533697,8512.368333
87208.263745,0.000000,153.219100,8438.347739
87208.264074,-518.144159,612.876398,8068.244768
87208.264404,-222.061783,1455.581446,8068.244768
87208.264733,148.041188,1915.238745,8512.368333
87208.265062,-1406.391290,383.047749,8586.388927
87208.265391,-1776.494261,-766.095498,9252.574275
87208.265721,-962.267725,-536.266849,10214.842000
87208.266050,222.061783,0.000000,10732.986159
87208.266379,1036.288319,229.828649,11103.089130
87208.266708,1924.535449,383.047749,10881.027347
87208.267038,1998.556043,1072.533697,10140.821405
87208.267367,1998.556043,1608.800546,8882.471304
87208.267696,1406.391290,1991.848295,9104.533087
87208.268025,-222.061783,1455.581446,8586.388927
87208.268355,-1110.308913,383.047749,7846.182985
87208.268684,-1480.411884,536.266849,7846.182985
87208.269013,-1776.494261,766.095498,8068.244768
87208.269343,-1554.432478,842.705048,8882.471304
87208.269672,-1480.411884,229.828649,8068.244768
87208.270001,-814.226536,306.438199,8438.347739
87208.270330,148.041188,995.924147,8438.347739
87208.270660,814.226536,1608.800546,8142.265362
87208.270989,888.247130,1991.848295,8808.450710
87208.271318,148.041188,919.314598,8660.409521
87208.271647,-518.144159,306.438199,8068.244768
87208.271976,0.000000,-1455.581446,9770.718434
87208.272306,0.000000,-1838.629195,10436.903782
87208.272635,370.102971,-766.095498,11399.171507
87208.272964,592.164754,-306.438199,10732.986159
87208.273293,1850.514855,-383.047749,10288.862594
87208.273622,1850.514855,306.438199,9992.780217
87208.273951,1998.556043,842.705048,9104.533087
87208.274280,1332.370696,2757.943793,8882.471304
87208.274610,222.061783,2374.896044,8290.306550
87208.274939,-1480.411884,153.219100,7698.141797
87208.275268,-2442.679609,-612.876398,7698.141797
87208.275597,-2368.659014,-459.657299,8438.347739
87208.275926,-2516.700203,-459.657299,9178.553681
87208.276255,-2072.576638,-459.657299,9474.636058
87208.276585,-1850.514855,-689.485948,9474.636058
87208.276914,-1406.391290,-919.314598,8734.430116
87208.277243,814.226536,76.609550,8956.491898
87208.277572,592.164754,1532.190996,10436.903782
87208.277901,444.123565,1455.581446,10214.842000
87208.278230,1110.308913,919.314598,9992.780217
87208.278559,1702.473667,-842.705048,10732.986159
87208.278889,1036.288319,-536.266849,11473.192101
87208.279218,1184.329507,306.438199,11029.068536
87208.279547,2368.659014,229.828649,11029.068536
87208.279876,2294.638420,383.047749,11029.068536
87208.280205,666.185348,766.095498,10362.883188
87208.280534,0.000000,1225.752797,9400.615463
87208.280863,-666.185348,1149.143247,8586.388927
87208.281193,-2072.576638,383.047749,7846.182985
87208.281522,-2738.761985,-306.438199,7698.141797
87208.281851,-3330.926739,229.828649,8216.285956
87208.282180,-2442.679609,919.314598,8808.450710
87208.282509,-2146.597232,306.438199,8956.491898
87208.282838,-1406.391290,0.000000,7846.182985
87208.283167,-592.164754,306.438199,8586.388927
87208.283497,222.061783,2068.457845,8586.388927
87208.283826,814.226536,2221.676944,9622.677246
87208.284155,296.082377,919.314598,9622.677246
87208.284484,0.000000,-919.314598,9474.636058
87208.284813,518.144159,-459.657299,10362.883188
87208.285142,1480.411884,0.000000,10955.047942
87208.285472,2072.576638,536.266849,11695.253884
87208.285801,2886.803174,76.609550,12065.356855
87208.286130,3256.906145,0.000000,10881.027347
87208.286459,3849.070898,1149.143247,9918.759623
87208.286788,2960.823768,2987.772442,9178.553681
87208.287117,1702.473667,3370.820191,8142.265362
87208.287446,888.247130,2528.115143,7846.182985
87208.287776,-740.205942,612.876398,7328.038826
87208.288105,-2516.700203,-153.219100,7624.121203
87208.288434,-3182.885551,-229.828649,7698.141797
87208.288763,-2812.782580,0.000000,7624.121203
87208.289092,-2220.617826,0.000000,8290.306550
87208.289421,-1850.514855,-919.314598,7994.224174
87208.289750,-1332.370696,153.219100,7772.162391
87208.290080,-222.061783,2068.457845,7698.141797
87208.290409,814.226536,1838.629195,9326.594869
87208.290738,296.082377,995.924147,9326.594869
87208.291067,-444.123565,153.219100,9326.594869
87208.291396,148.041188,-612.876398,9844.739029
87208.291725,1702.473667,-612.876398,10955.047942
87208.292054,1628.453072,-1608.800546,11325.150913
87208.292384,1480.411884,0.000000,10881.027347
87208.292713,1850.514855,612.876398,9918.759623
87208.293042,2738.761985,842.705048,9992.780217
87208.293371,1924.535449,1302.362347,9400.615463
87208.293700,0.000000,2145.067394,8734.430116
87208.294029,-666.185348,1838.629195,7772.162391
87208.294359,-962.267725,1072.533697,7920.203579
87208.294688,-1850.514855,-536.266849,8808.450710
87208.295017,-3108.864956,-612.876398,8956.491898
87208.295346,-3034.844362,0.000000,8882.471304
87208.295675,-1776.494261,-689.485948,8808.450710
87208.296004,-1332.370696,-689.485948,9474.636058
87208.296333,-1628.453072,306.438199,8660.409521
87208.296663,-740.205942,1225.752797,8882.471304
87208.296992,-370.102971,1302.362347,8660.409521
87208.297321,-592.164754,0.000000,9326.594869
87208.297650,-592.164754,-536.266849,9770.718434
87208.297979,148.041188,-153.219100,10436.903782
87208.298308,1036.288319,306.438199,11621.233289
87208.298637,1702.473667,76.609550,11621.233289
87208.298967,2294.638420,0.000000,11177.109724
87208.299296,2886.803174,383.047749,9992.780217
87208.299625,3034.844362,1608.800546,10140.821405
87208.299954,2368.659014,2451.505594,9992.780217
87208.300283,666.185348,2145.067394,9474.636058
87208.300612,-666.185348,995.924147,8956.491898
87208.300941,-1480.411884,0.000000,8364.327145
87208.301271,-1702.473667,-306.438199,8882.471304
87208.301600,-1184.329507,76.609550,9252.574275
87208.301929,-1036.288319,1455.581446,9104.533087
87208.302258,148.041188,1378.971896,8216.285956
87208.302587,592.164754,1149.143247,8068.244768
87208.302916,518.144159,1915.238745,7920.203579
87208.303246,222.061783,2911.162892,7994.224174
87208.303575,-296.082377,1991.848295,8216.285956
87208.303904,-370.102971,-459.657299,9474.636058
87208.304233,-888.247130,-1455.581446,10140.821405
87208.304562,-814.226536,-1225.752797,10066.800811
87208.304891,518.144159,-766.095498,11695.253884
87208.305220,1110.308913,-536.266849,11177.109724
87208.305550,2738.761985,-612.876398,10436.903782
87208.305879,3182.885551,1378.971896,10362.883188
87208.306208,3775.050304,3370.820191,9474.636058
87208.306537,3108.864956,3753.867940,8808.450710
87208.306866,1850.514855,2681.334243,7698.141797
87208.307195,-148.041188,1455.581446,7254.018232
87208.307524,-1258.350101,1455.581446,7550.100608
87208.307854,-1184.329507,689.485948,8734.430116
87208.308183,-2294.638420,-919.314598,8660.409521
87208.308512,-3849.070898,-1225.752797,7994.224174
87208.308841,-3701.029710,-689.485948,7772.162391
87208.309170,-1776.494261,0.000000,7476.080014
87208.309499,-1406.391290,1455.581446,8660.409521
87208.309828,-2072.576638,1608.800546,8882.471304
87208.310158,-2516.700203,689.485948,7920.203579
87208.310487,-1036.288319,-1072.533697,8882.471304
87208.310816,-814.226536,-1072.533697,9844.739029
87208.311145,-888.247130,-919.314598,10955.047942
87208.311474,296.082377,-383.047749,11769.274478
87208.311803,1850.514855,-766.095498,11769.274478
87208.312133,2516.700203,-842.705048,10955.047942
87208.312462,2072.576638,689.485948,9844.739029
87208.312791,2072.576638,1685.410096,8068.244768
87208.313120,2072.576638,2374.896044,7994.224174
87208.313449,1184.329507,2068.457845,8216.285956
87208.313778,-296.082377,1915.238745,7698.141797
87208.314107,-1258.350101,1149.143247,7698.141797
87208.314437,-1480.411884,153.219100,8290.306550
87208.314766,-1628.453072,766.095498,8290.306550
87208.315095,-518.144159,383.047749,8808.450710
87208.315424,-1628.453072,153.219100,8734.430116
87208.315753,-1850.514855,0.000000,9104.533087
87208.316082,-962.267725,0.000000,9178.553681
87208.316411,-1184.329507,229.828649,9918.759623
87208.316741,-888.247130,0.000000,9622.677246
87208.317070,0.000000,-1149.143247,10732.986159
87208.317399,518.144159,-766.095498,10436.903782
87208.317728,1184.329507,-153.219100,11621.233289
87208.318057,2590.720797,0.000000,11621.233289
87208.318386,4219.173869,766.095498,10881.027347
87208.318715,4663.297435,1991.848295,10510.924376
87208.319045,3923.091493,3370.820191,10362.883188
87208.319374,2812.782580,3064.381992,9400.615463
87208.319703,1998.556043,2604.724693,9178.553681
87208.320032,148.041188,766.095498,8808.450710
87208.320361,-1628.453072,76.609550,7846.182985
87208.320690,-2072.576638,-229.828649,7846.182985
87208.321020,-2294.638420,76.609550,9326.594869
87208.321349,-2590.720797,0.000000,9548.656652
87208.321678,-2220.617826,306.438199,9030.512492
87208.322007,-1776.494261,536.266849,8364.327145
87208.322336,-888.247130,766.095498,8068.244768
87208.322665,-444.123565,1685.410096,8438.347739
87208.322994,-666.185348,1455.581446,9326.594869
87208.323324,-1036.288319,459.657299,9548.656652
87208.323653,-444.123565,-536.266849,9992.780217
87208.323982,518.144159,-1378.971896,11029.068536
87208.324311,370.102971,-459.657299,10510.924376
87208.324640,740.205942,383.047749,10658.965565
87208.324969,1036.288319,0.000000,10436.903782
87208.325298,962.267725,229.828649,10362.883188
87208.325628,740.205942,1072.533697,9474.636058
87208.325957,-222.061783,1991.848295,8808.450710
87208.326286,-518.144159,1991.848295,8068.244768
87208.326615,-1184.329507,229.828649,7772.162391
87208.326944,-1702.473667,0.000000,7254.018232
87208.327273,-2146.597232,229.828649,7920.203579
87208.327602,-2072.576638,919.314598,7846.182985
87208.327932,-1110.308913,-229.828649,7846.182985
87208.328261,-1184.329507,76.609550,7846.182985
87208.328590,-1480.411884,536.266849,7402.059420
87208.328919,-592.164754,1149.143247,8068.244768
87208.329248,296.082377,-76.609550,8734.430116
87208.329577,-222.061783,-306.438199,9770.718434
87208.329907,-740.205942,-1225.752797,9622.677246
87208.330236,0.000000,-1149.143247,10066.800811
87208.330565,1036.288319,-459.657299,11399.171507
87208.330894,1776.494261,-459.657299,11547.212695
87208.331223,2368.659014,-229.828649,10658.965565
87208.331552,3404.947333,229.828649,10066.800811
87208.331881,3108.864956,1378.971896,9474.636058
87208.332211,2368.659014,2451.505594,9474.636058
87208.332540,888.247130,1762.019645,8734.430116
87208.332869,-222.061783,689.485948,7254.018232
87208.333198,-740.205942,-536.266849,7179.997637
87208.333527,-1480.411884,-229.828649,7772.162391
87208.333856,-1702.473667,1455.581446,9178.553681
87208.334185,-1110.308913,1072.533697,9178.553681
87208.334515,-814.226536,383.047749,8882.471304
87208.334844,-740.205942,0.000000,8438.347739
87208.335173,74.020594,995.924147,8734.430116
87208.335502,370.102971,2298.286494,9474.636058
87208.335831,0.000000,1225.752797,9548.656652
87208.336160,-444.123565,-689.485948,10362.883188
87208.336489,-1110.308913,-1532.190996,10436.903782
87208.336819,-740.205942,-766.095498,11103.089130
87208.337148,-148.041188,0.000000,11621.233289
87208.337477,962.267725,0.000000,11029.068536
87208.337806,1850.514855,0.000000,10807.006753
87208.338135,2146.597232,2068.457845,10140.821405
87208.338464,2442.679609,3217.601092,9178.553681
87208.338793,2294.638420,4213.525239,8956.491898
87208.339123,592.164754,2757.943793,8660.409521
87208.339452,-1110.308913,1455.581446,7624.121203
87208.339781,-1554.432478,536.266849,7624.121203
87208.340110,-1924.535449,0.000000,9030.512492
87208.340439,-3552.988522,306.438199,9474.636058
87208.340768,-3034.844362,-153.219100,9252.574275
87208.341098,-1628.453072,-153.219100,9104.533087
87208.341427,-666.185348,0.000000,8512.368333
87208.341756,-740.205942,536.266849,8660.409521
87208.342085,-296.082377,2068.457845,8586.388927
87208.342414,666.185348,1991.848295,8956.491898
87208.342743,888.247130,919.314598,9622.677246
87208.343072,222.061783,0.000000,9992.780217
87208.343402,148.041188,-153.219100,10140.821405
87208.343731,740.205942,0.000000,10732.986159
87208.344060,1702.473667,-995.924147,11251.130318
87208.344389,1924.535449,-153.219100,10584.944971
87208.344718,1776.494261,76.609550,9844.739029
87208.345047,1258.350101,1685.410096,9474.636058
87208.345376,740.205942,1838.629195,8956.491898
87208.345706,-370.102971,842.705048,8734.430116
87208.346035,-1110.308913,0.000000,7550.100608
87208.346364,-666.185348,0.000000,7476.080014
87208.346693,0.000000,0.000000,8290.306550
87208.347022,-740.205942,459.657299,8882.471304
87208.347351,-1184.329507,689.485948,7772.162391
87208.347680,-592.164754,306.438199,7994.224174
87208.348010,444.123565,-229.828649,7698.141797
87208.348339,518.144159,766.095498,8734.430116
87208.348668,-74.020594,1685.410096,9104.533087
87208.348997,-740.205942,0.000000,9252.574275
87208.349326,-1184.329507,-1608.800546,9474.636058
87208.349655,-962.267725,-2145.067394,9178.553681
87208.349985,-370.102971,-1225.752797,10436.903782
87208.350314,740.205942,0.000000,10881.027347
87208.350643,1776.494261,0.000000,11325.150913
87208.350972,2072.576638,0.000000,10288.862594
87208.351301,1332.370696,1302.362347,9326.594869
87208.351630,1258.350101,2374.896044,8956.491898
87208.351959,1184.329507,2068.457845,8438.347739
87208.352289,-222.061783,766.095498,8586.388927
87208.352618,-1850.514855,-612.876398,8216.285956
87208.352947,-2442.679609,76.609550,8068.244768
87208.353276,-1258.350101,1302.362347,8808.450710
87208.353605,-518.144159,536.266849,8438.347739
87208.353934,-1480.411884,1072.533697,8290.306550
87208.354263,-666.185348,1838.629195,8734.430116
87208.354593,74.020594,2068.457845,8438.347739
87208.354922,592.164754,2145.067394,9030.512492
87208.355251,0.000000,1378.971896,9770.718434
87208.355580,-666.185348,1302.362347,9326.594869
87208.355909,-222.061783,229.828649,9844.739029
87208.356238,-370.102971,-919.314598,10807.006753
87208.356567,-370.102971,-612.876398,11399.171507
87208.356897,148.041188,-229.828649,11769.274478
87208.357226,2072.576638,76.609550,10732.986159
87208.357555,2072.576638,842.705048,10658.965565
87208.357884,1776.494261,1991.848295,9622.677246
87208.358213,666.185348,2604.724693,9326.594869
87208.358542,962.267725,2451.505594,8290.306550
87208.358872,148.041188,995.924147,8216.285956
87208.359201,-1110.308913,229.828649,7994.224174
87208.359530,-1184.329507,689.485948,8512.368333
87208.359859,-1480.411884,1225.752797,8956.491898
87208.360188,-1850.514855,306.438199,9696.697840
87208.360517,-1702.473667,-919.314598,9252.574275
87208.360846,-1480.411884,-536.266849,8586.388927
87208.361176,-74.020594,0.000000,9252.574275
87208.361505,222.061783,612.876398,9622.677246
87208.361834,0.000000,229.828649,9844.739029
87208.362163,0.000000,-306.438199,10140.821405
87208.362492,1036.288319,-766.095498,10140.821405
87208.362821,2590.720797,459.657299,11177.109724
87208.363150,2368.659014,153.219100,11473.192101
87208.363480,2220.617826,536.266849,10436.903782
87208.363809,3478.967927,-459.657299,10066.800811
87208.364138,2812.782580,229.828649,9548.656652
87208.364467,1850.514855,1455.581446,9474.636058
87208.364796,370.102971,2145.067394,8808.450710
87208.365125,-888.247130,1685.410096,7698.141797
87208.365454,-1554.432478,-612.876398,7031.956449
87208.365784,-2368.659014,-1302.362347,7846.182985
87208.366113,-2442.679609,-612.876398,7772.162391
87208.366442,-2294.638420,536.266849,8216.285956
87208.366771,-1702.473667,153.219100,8660.409521
87208.367100,-1406.391290,-153.219100,8438.347739
87208.367429,-592.164754,612.876398,8216.285956
87208.367759,-296.082377,1378.971896,7846.182985
87208.368088,0.000000,612.876398,8808.450710
87208.368417,-666.185348,-536.266849,9474.636058
87208.368746,-888.247130,-766.095498,9622.677246
87208.369075,-222.061783,-612.876398,10436.903782
87208.369404,444.123565,-153.219100,11325.150913
87208.369733,1110.308913,0.000000,11103.089130
87208.370063,1776.494261,306.438199,10362.883188
87208.370392,2072.576638,1225.752797,9992.780217
87208.370721,2590.720797,2145.067394,9770.718434
87208.371050,1406.391290,2834.553343,9178.553681
87208.371379,74.020594,2528.115143,8364.327145
87208.371709,-1110.308913,1608.800546,7698.141797
87208.372038,-2146.597232,459.657299,7179.997637
87208.372367,-2516.700203,306.438199,7698.141797
87208.372696,-2664.741391,689.485948,7846.182985
87208.373025,-2664.741391,689.485948,8142.265362
87208.373355,-1480.411884,229.828649,8216.285956
87208.373684,-1184.329507,842.705048,7994.224174
87208.374013,-444.123565,1762.019645,8660.409521
87208.374342,444.123565,2604.724693,8808.450710
87208.374672,740.205942,1455.581446,9474.636058
87208.375001,370.102971,-383.047749,10066.800811
87208.375330,0.000000,-842.705048,10955.047942
87208.375659,814.226536,-689.485948,11843.295072
87208.375988,1776.494261,-459.657299,12361.439231
87208.376318,2442.679609,-306.438199,12435.459826
87208.376647,2442.679609,76.609550,11029.068536
87208.376976,2886.803174,1685.410096,10732.986159
87208.377305,3108.864956,995.924147,10214.842000
87208.377634,2072.576638,2221.676944,9252.574275
87208.377964,1036.288319,1685.410096,8808.450710
87208.378293,222.061783,1378.971896,8660.409521
87208.378622,-148.041188,689.485948,8364.327145
87208.378951,-518.144159,536.266849,9474.636058
87208.379280,-1184.329507,76.609550,9252.574275
87208.379610,-2220.617826,153.219100,8216.285956
87208.379939,-1480.411884,-383.047749,8364.327145
87208.380268,-1184.329507,-153.219100,8660.409521
87208.380597,-1480.411884,842.705048,8882.471304
87208.380927,-1924.535449,995.924147,8956.491898
87208.381256,-1554.432478,-536.266849,8734.430116
87208.381585,-962.267725,-1455.581446,9548.656652
87208.381914,-518.144159,-1302.362347,10658.965565
87208.382243,0.000000,383.047749,10955.047942
87208.382573,888.247130,612.876398,10955.047942
87208.382902,2220.617826,0.000000,10807.006753
87208.383231,2886.803174,689.485948,10510.924376
87208.383560,2072.576638,2987.772442,9252.574275
87208.383889,2294.638420,3140.991542,8882.471304
87208.384219,962.267725,2298.286494,8660.409521
87208.384548,-814.226536,842.705048,8364.327145
87208.384877,-2294.638420,76.609550,7476.080014
87208.385206,-2368.659014,0.000000,7994.224174
87208.385535,-2368.659014,383.047749,8882.471304
87208.385865,-2590.720797,0.000000,9326.594869
87208.386194,-1850.514855,-842.705048,8216.285956
87208.386523,-1406.391290,306.438199,7994.224174
87208.386852,-370.102971,766.095498,8438.347739
87208.387182,0.000000,1455.581446,8808.450710
87208.387511,-296.082377,1532.190996,8734.430116
87208.387840,-592.164754,459.657299,8586.388927
87208.388169,-962.267725,-766.095498,8882.471304
87208.388498,370.102971,-1072.533697,9548.656652
87208.388828,222.061783,-612.876398,10732.986159
87208.389157,1258.350101,-76.609550,10214.842000
87208.389486,2072.576638,76.609550,10140.821405
87208.389815,2590.720797,459.657299,9622.677246
87208.390144,2368.659014,1838.629195,9252.574275
87208.390474,1628.453072,2298.286494,8142.265362
87208.390803,962.267725,2987.772442,7846.182985
87208.391132,370.102971,1532.190996,8512.368333
87208.391461,-962.267725,76.609550,7846.182985
87208.391790,-1702.473667,536.266849,9178.553681
87208.392120,-1406.391290,0.000000,8956.491898
87208.392449,-518.144159,-612.876398,9030.512492
87208.392778,-296.082377,-306.438199,9400.615463
87208.393107,0.000000,-153.219100,9252.574275
87208.393437,370.102971,1302.362347,8586.388927
87208.393766,962.267725,919.314598,9474.636058
87208.394095,-296.082377,689.485948,10140.821405
87208.394424,-370.102971,306.438199,9770.718434
87208.394753,1184.329507,0.000000,9696.697840
87208.395083,1776.494261,0.000000,11473.192101
87208.395412,814.226536,1072.533697,11621.233289
87208.395741,1480.411884,459.657299,11177.109724
87208.396070,2368.659014,459.657299,10288.862594
87208.396399,2368.659014,1608.800546,10288.862594
87208.396729,740.205942,2221.676944,9622.677246
87208.397058,74.020594,2451.505594,8734.430116
87208.397387,-1258.350101,1072.533697,7920.203579
87208.397716,-2664.741391,153.219100,8068.244768
87208.398046,-2590.720797,612.876398,8660.409521
87208.398375,-2146.597232,1455.581446,8956.491898
87208.398704,-1998.556043,1149.143247,8660.409521
87208.399033,-1406.391290,459.657299,8734.430116
87208.399362,-1036.288319,612.876398,8290.306550
87208.399692,0.000000,1915.238745,7846.182985
87208.400021,0.000000,2911.162892,8882.471304
87208.400350,-296.082377,1838.629195,9474.636058
87208.400679,-1036.288319,306.438199,9474.636058
87208.401008,-1184.329507,-919.314598,9844.739029
87208.401338,-962.267725,-1532.190996,10732.986159
87208.401667,-296.082377,-919.314598,11325.150913
87208.401996,444.123565,-459.657299,11769.274478
87208.402325,1406.391290,-229.828649,11621.233289
87208.402654,1998.556043,536.266849,10732.986159
87208.402984,2146.597232,1915.238745,10140.821405
87208.403313,1332.370696,2451.505594,9252.574275
87208.403642,370.102971,2068.457845,8364.327145
87208.403971,0.000000,689.485948,7476.080014
87208.404301,-740.205942,-229.828649,7402.059420
87208.404630,-2146.597232,-766.095498,7920.203579
87208.404959,-2368.659014,0.000000,8142.265362
87208.405288,-1924.535449,-153.219100,8512.368333
87208.405617,-1036.288319,-1225.752797,7698.141797
87208.405947,-592.164754,-766.095498,8068.244768
87208.406276,-222.061783,229.828649,7920.203579
87208.406605,444.123565,1685.410096,8290.306550
87208.406934,1036.288319,919.314598,9696.697840
87208.407263,592.164754,-306.438199,9844.739029
87208.407593,74.020594,-1072.533697,9400.615463
87208.407922,296.082377,-1608.800546,9622.677246
87208.408251,1110.308913,-995.924147,11029.068536
87208.408580,1406.391290,-459.657299,11917.315666
87208.408909,1258.350101,-689.485948,10732.986159
87208.409239,1258.350101,612.876398,9178.553681
87208.409568,1850.514855,459.657299,9474.636058
87208.409897,592.164754,1608.800546,9252.574275
87208.410226,-666.185348,2145.067394,8882.471304
87208.410556,-814.226536,612.876398,8364.327145
87208.410885,-1406.391290,0.000000,7994.224174
87208.411214,-1480.411884,0.000000,8142.265362
87208.411543,-1554.432478,612.876398,8068.244768
87208.411872,-1628.453072,1608.800546,8290.306550
87208.412202,-1184.329507,459.657299,8290.306550
87208.412531,-814.226536,459.657299,8290.306550
87208.412860,-370.102971,1685.410096,8290.306550
87208.413189,0.000000,2451.505594,8808.450710
87208.413518,-740.205942,1685.410096,8882.471304
87208.413848,-592.164754,0.000000,9622.677246
87208.414177,-444.123565,-229.828649,10066.800811
87208.414506,296.082377,536.266849,10881.027347
87208.414835,1406.391290,1225.752797,11177.109724
87208.415164,2294.638420,1149.143247,10955.047942
87208.415494,2960.823768,229.828649,10510.924376
87208.415823,2368.659014,1838.629195,9548.656652
87208.416152,2072.576638,3294.210641,9696.697840
87208.416481,888.247130,2298.286494,9622.677246
87208.416811,-888.247130,536.266849,8808.450710
87208.417140,-2220.617826,-383.047749,8660.409521
87208.417469,-2072.576638,0.000000,8660.409521
87208.417798,-2072.576638,842.705048,9770.718434
87208.418127,-1702.473667,-229.828649,10140.821405
87208.418457,-1850.514855,-766.095498,8734.430116
87208.418786,-518.144159,0.000000,7772.162391
87208.419115,222.061783,919.314598,8068.244768
87208.419444,518.144159,2145.067394,9252.574275
87208.419773,592.164754,1915.238745,9622.677246
87208.420103,666.185348,842.705048,9622.677246
87208.420432,518.144159,-1685.410096,10510.924376
87208.420761,74.020594,-2298.286494,10288.862594
87208.421090,1036.288319,-995.924147,10658.965565
87208.421419,2146.597232,-383.047749,11843.295072
87208.421749,2738.761985,0.000000,11843.295072
87208.422078,2812.782580,229.828649,10584.944971
87208.422407,2516.700203,766.095498,9474.636058
87208.422736,1628.453072,1915.238745,8290.306550
87208.423066,1480.411884,2298.286494,8586.388927
87208.423395,0.000000,1378.971896,8142.265362
87208.423724,-1332.370696,383.047749,8142.265362
87208.424053,-2220.617826,-459.657299,7624.121203
87208.424382,-2516.700203,-995.924147,7994.224174
87208.424712,-2590.720797,-612.876398,8290.306550
87208.425041,-2368.659014,-459.657299,8290.306550
87208.425370,-1924.535449,-766.095498,8512.368333
87208.425699,-666.185348,-383.047749,8808.450710
87208.426028,-518.144159,229.828649,8956.491898
87208.426358,-1110.308913,842.705048,9030.512492
87208.426687,222.061783,306.438199,9474.636058
87208.427016,888.247130,-689.485948,10066.800811
87208.427345,1480.411884,0.000000,10732.986159
87208.427674,1332.370696,0.000000,11325.150913
87208.428004,1628.453072,229.828649,10658.965565
87208.428333,2368.659014,-536.266849,10288.862594
87208.428662,1480.411884,0.000000,9918.759623
87208.428991,814.226536,1532.190996,9178.553681
87208.429321,296.082377,2681.334243,8734.430116
87208.429650,-592.164754,1762.019645,8586.388927
87208.429979,-2368.659014,-383.047749,7550.100608
87208.430308,-3182.885551,-536.266849,7031.956449
87208.430637,-2590.720797,306.438199,7105.977043
87208.430967,-2294.638420,1378.971896,8734.430116
87208.431296,-2146.597232,919.314598,8660.409521
87208.431625,-1702.473667,-306.438199,8660.409521
87208.431954,-1332.370696,306.438199,7476.080014
87208.432283,-148.041188,612.876398,8660.409521
87208.432613,-74.020594,995.924147,9326.594869
87208.432942,-592.164754,229.828649,9844.739029
87208.433271,-518.144159,-459.657299,10955.047942
87208.433600,666.185348,-306.438199,11621.233289
87208.433930,1998.556043,0.000000,10955.047942
87208.434259,2738.761985,0.000000,10732.986159
87208.434588,3849.070898,919.314598,9918.759623
87208.434917,4959.379811,2451.505594,10658.965565
87208.435246,5181.441594,3753.867940,11177.109724
87208.435576,3775.050304,4136.915689,10066.800811
87208.435905,2368.659014,3294.210641,7920.203579
87208.436234,1184.329507,1149.143247,8512.368333
87208.436563,-1406.391290,383.047749,8660.409521
87208.436892,-2886.803174,766.095498,9622.677246
87208.437222,-3775.050304,-306.438199,9918.759623
87208.437551,-4441.235652,-1685.410096,9474.636058
87208.437880,-4367.215058,-1302.362347,8438.347739
87208.438209,-3108.864956,-153.219100,8068.244768
87208.438538,-3182.885551,1838.629195,7994.224174
87208.438868,-1110.308913,2528.115143,8808.450710
87208.439197,740.205942,2451.505594,9252.574275
87208.439526,814.226536,1762.019645,8586.388927
87208.439855,740.205942,1685.410096,8438.347739
87208.440185,1850.514855,1608.800546,8660.409521
87208.440514,3182.885551,2298.286494,10955.047942
87208.440843,3552.988522,1685.410096,11473.192101
87208.441172,3478.967927,1225.752797,11251.130318
87208.441501,3182.885551,1378.971896,10510.924376
87208.441831,3182.885551,1455.581446,9992.780217
87208.442160,2072.576638,1762.019645,9622.677246
87208.442489,444.123565,1685.410096,9252.574275
87208.442818,-1110.308913,1225.752797,8142.265362
87208.443147,-1184.329507,383.047749,8216.285956
87208.443477,-2886.803174,-383.047749,8068.244768
87208.443806,-4219.173869,0.000000,7920.203579
87208.444135,-4145.153275,0.000000,7846.182985
87208.444464,-3182.885551,-995.924147,8290.306550
87208.444793,-2812.782580,-2451.505594,8438.347739
87208.445123,-3182.885551,-766.095498,7846.182985
87208.445452,-2664.741391,-612.876398,8438.347739
87208.445781,-1998.556043,76.609550,9400.615463
87208.446110,-1702.473667,-1225.752797,9770.718434
87208.446440,-740.205942,-2681.334243,10288.862594
87208.446769,592.164754,-1838.629195,10955.047942
87208.447098,1184.329507,229.828649,11325.150913
87208.447427,2812.782580,229.828649,11399.171507
87208.447756,3627.009116,-612.876398,10510.924376
87208.448086,4145.153275,153.219100,9548.656652
87208.448415,3775.050304,2145.067394,9104.533087
87208.448744,2368.659014,2604.724693,8586.388927
87208.449073,518.144159,1455.581446,8290.306550
87208.449402,-592.164754,-229.828649,7402.059420
87208.449732,-814.226536,-306.438199,6513.812290
87208.450061,-1850.514855,153.219100,7476.080014
87208.450390,-2368.659014,919.314598,8142.265362
87208.450719,-2220.617826,0.000000,8586.388927
87208.451048,-1776.494261,-383.047749,8956.491898
87208.451378,-1332.370696,-306.438199,8734.430116
87208.451707,-1110.308913,612.876398,8586.388927
87208.452036,-592.164754,689.485948,9178.553681
87208.452365,-1406.391290,536.266849,10362.883188
87208.452695,-1110.308913,-919.314598,10955.047942
87208.453024,-962.267725,-1608.800546,10881.027347
87208.453353,-222.061783,-536.266849,11769.274478
87208.453682,1036.288319,76.609550,12139.377449
87208.454011,2220.617826,1149.143247,11769.274478
87208.454341,2738.761985,1762.019645,10807.006753
87208.454670,3404.947333,2834.553343,9992.780217
87208.454999,2960.823768,3830.477490,9104.533087
87208.455328,2960.823768,4596.572988,8364.327145
87208.455657,1850.514855,4213.525239,7550.100608
87208.455987,592.164754,2681.334243,7476.080014
87208.456316,296.082377,2145.067394,7920.203579
87208.456645,74.020594,1838.629195,8068.244768
87208.456974,-518.144159,1915.238745,7772.162391
87208.457303,-740.205942,1762.019645,8290.306550
87208.457633,-888.247130,1072.533697,8364.327145
87208.457962,-518.144159,1149.143247,8512.368333
87208.458291,-888.247130,1455.581446,9474.636058
87208.458620,-1406.391290,1532.190996,9622.677246
87208.458950,-1406.391290,919.314598,9548.656652
87208.459279,-1850.514855,-229.828649,10140.821405
87208.459608,-1998.556043,-1762.019645,11029.068536
87208.459937,-2072.576638,-2145.067394,11547.212695
87208.460266,-518.144159,-1608.800546,11325.150913
87208.460596,296.082377,-1149.143247,11843.295072
87208.460925,592.164754,-766.095498,10510.924376
87208.461254,1332.370696,536.266849,9844.739029
87208.461583,1850.514855,1455.581446,9178.553681
87208.461912,1406.391290,1149.143247,9400.615463
87208.462242,888.247130,919.314598,8882.471304
87208.462571,518.144159,1302.362347,8956.491898
87208.462900,888.247130,842.705048,8808.450710
87208.463229,814.226536,76.609550,9252.574275
87208.463558,0.000000,306.438199,8142.265362
87208.463888,-814.226536,0.000000,7994.224174
87208.464217,-962.267725,-229.828649,7846.182985
87208.464546,-518.144159,-383.047749,8068.244768
87208.464875,-1702.473667,-536.266849,7920.203579
87208.465205,-2590.720797,-383.047749,7772.162391
87208.465534,-3404.947333,-919.314598,7328.038826
87208.465863,-1850.514855,-1915.238745,8364.327145
87208.466192,-740.205942,-1991.848295,9104.533087
87208.466521,-518.144159,0.000000,9770.718434
87208.466851,1036.288319,689.485948,9178.553681
87208.467180,2812.782580,612.876398,9844.739029
87208.467509,3256.906145,1225.752797,9770.718434
87208.467838,2368.659014,2221.676944,9474.636058
87208.468167,2146.597232,2834.553343,9400.615463
87208.468497,888.247130,1532.190996,9844.739029
87208.468826,-370.102971,0.000000,9696.697840
87208.469155,-1628.453072,-995.924147,9178.553681
87208.469484,-2146.597232,-306.438199,9104.533087
87208.469814,-1480.411884,919.314598,9400.615463
87208.470143,-1258.350101,766.095498,9474.636058
87208.470472,-888.247130,919.314598,8512.368333
87208.470801,-666.185348,1378.971896,7179.997637
87208.471130,0.000000,2451.505594,7698.141797
87208.471460,148.041188,3217.601092,9178.553681
87208.471789,-444.123565,2987.772442,9474.636058
87208.472118,-814.226536,689.485948,9030.512492
87208.472447,-814.226536,-1455.581446,9326.594869
87208.472777,-370.102971,-995.924147,10658.965565
87208.473106,0.000000,536.266849,10732.986159
87208.473435,1702.473667,689.485948,11177.109724
87208.473764,2664.741391,919.314598,10066.800811
87208.474094,2516.700203,1455.581446,9326.594869
87208.474423,2072.576638,3370.820191,8956.491898
87208.474752,2294.638420,3983.696590,8068.244768
87208.475081,1332.370696,3677.258390,7994.224174
87208.475411,-370.102971,1378.971896,7772.162391
87208.475740,-1332.370696,536.266849,8586.388927
87208.476069,-2072.576638,689.485948,9252.574275
87208.476399,-2368.659014,229.828649,9844.739029
87208.476728,-2516.700203,-612.876398,10214.842000
87208.477057,-2516.700203,-2451.505594,9474.636058
87208.477386,-1924.535449,-1225.752797,9770.718434
87208.477716,-1184.329507,0.000000,9770.718434
87208.478045,-962.267725,153.219100,10362.883188
87208.478374,-888.247130,-229.828649,10436.903782
87208.478704,-148.041188,-766.095498,10436.903782
87208.479033,1258.350101,-229.828649,10214.842000
87208.479362,2664.741391,383.047749,11251.130318
87208.479691,2812.782580,1149.143247,11769.274478
87208.480021,2960.823768,229.828649,11399.171507
87208.480350,3182.885551,919.314598,10066.800811
87208.480679,2886.803174,766.095498,9622.677246
87208.481008,1332.370696,1378.971896,8956.491898
87208.481338,-740.205942,995.924147,7994.224174
87208.481667,-1628.453072,153.219100,7402.059420
87208.481996,-2368.659014,-612.876398,6957.935855
87208.482326,-2960.823768,-919.314598,7846.182985
87208.482655,-2960.823768,0.000000,7846.182985
87208.482984,-2368.659014,0.000000,7698.141797
87208.483313,-1850.514855,0.000000,8142.265362
87208.483643,-888.247130,-229.828649,7920.203579
87208.483972,666.185348,0.000000,7698.141797
87208.484301,888.247130,1378.971896,8808.450710
87208.484631,518.144159,689.485948,9474.636058
87208.484960,0.000000,-689.485948,9474.636058
87208.485289,296.082377,-2221.676944,10066.800811
87208.485618,518.144159,-2145.067394,11695.253884
87208.485948,1332.370696,-766.095498,11769.274478
87208.486277,2368.659014,0.000000,11769.274478
87208.486606,2812.782580,-536.266849,11547.212695
87208.486935,2220.617826,0.000000,10658.965565
87208.487265,1332.370696,1378.971896,9696.697840
87208.487594,666.185348,2068.457845,8956.491898
87208.487923,-740.205942,1378.971896,8216.285956
87208.488253,-2294.638420,-306.438199,6809.894666
87208.488582,-2442.679609,-1072.533697,7031.956449
87208.488911,-3108.864956,0.000000,7254.018232
87208.489240,-3701.029710,0.000000,8290.306550
87208.489570,-3108.864956,-383.047749,7698.141797
87208.489899,-1776.494261,-995.924147,7402.059420
87208.490228,-1628.453072,229.828649,7920.203579
87208.490558,-740.205942,1915.238745,8586.388927
87208.490887,518.144159,2298.286494,9252.574275
87208.491216,740.205942,1149.143247,9770.718434
87208.491545,518.144159,0.000000,10362.883188
87208.491875,518.144159,0.000000,10214.842000
87208.492204,1258.350101,306.438199,11029.068536
87208.492533,1924.535449,306.438199,11843.295072
87208.492862,2368.659014,306.438199,11917.315666
87208.493192,2294.638420,1378.971896,10807.006753
87208.493521,2294.638420,1991.848295,10140.821405
87208.493850,962.267725,2451.505594,9548.656652
87208.494180,-222.061783,2451.505594,9252.574275
87208.494509,-1258.350101,2068.457845,9178.553681
87208.494838,-1998.556043,1302.362347,8142.265362
87208.495167,-2072.576638,766.095498,8290.306550
87208.495497,-1184.329507,1072.533697,9030.512492
87208.495826,-1480.411884,2298.286494,8882.471304
87208.496155,-1406.391290,1532.190996,8364.327145
87208.496485,-296.082377,1838.629195,9474.636058
87208.496814,444.123565,1991.848295,9474.636058
87208.497143,518.144159,2451.505594,9696.697840
87208.497472,444.123565,1915.238745,8438.347739
87208.497802,740.205942,76.609550,8660.409521
87208.498131,1110.308913,76.609550,10214.842000
87208.498460,1332.370696,612.876398,11029.068536
87208.498789,2072.576638,2451.505594,11177.109724
87208.499119,3404.947333,1685.410096,10140.821405
87208.499448,3775.050304,1225.752797,9992.780217
87208.499777,3627.009116,2681.334243,8956.491898
87208.500107,3034.844362,3677.258390,9030.512492
87208.500436,2294.638420,3677.258390,8290.306550
87208.500765,74.020594,1072.533697,8068.244768
87208.501094,-2072.576638,0.000000,7254.018232
87208.501424,-3478.967927,-612.876398,7550.100608
87208.501753,-3775.050304,-842.705048,8586.388927
87208.502082,-3478.967927,-1608.800546,9474.636058
87208.502412,-3552.988522,-2298.286494,9622.677246
87208.502741,-3478.967927,-1991.848295,9400.615463
87208.503070,-2146.597232,-919.314598,8660.409521
87208.503399,-740.205942,0.000000,9030.512492
87208.503729,-444.123565,383.047749,10066.800811
87208.504058,-444.123565,0.000000,10140.821405
87208.504387,296.082377,-536.266849,9474.636058
87208.504716,1184.329507,-2221.676944,9992.780217
87208.505046,74.020594,-1302.362347,9770.718434
87208.505375,444.123565,-995.924147,11029.068536
87208.505704,1702.473667,-229.828649,11399.171507
87208.506034,2368.659014,-842.705048,10732.986159
87208.506363,1036.288319,-842.705048,9696.697840
87208.506692,1332.370696,766.095498,8586.388927
87208.507021,296.082377,2221.676944,7624.121203
87208.507351,740.205942,842.705048,7994.224174
87208.507680,74.020594,76.609550,7254.018232
87208.508009,-1406.391290,0.000000,6957.935855
87208.508339,-2146.597232,689.485948,7550.100608
87208.508668,-1702.473667,459.657299,6957.935855
87208.508997,-2072.576638,-995.924147,8142.265362
87208.509326,-2442.679609,-1149.143247,7920.203579
87208.509656,-1184.329507,76.609550,8586.388927
87208.509985,-296.082377,1149.143247,8734.430116
87208.510314,-518.144159,306.438199,10214.842000
87208.510643,-1554.432478,-612.876398,9622.677246
87208.510973,-592.164754,-919.314598,9474.636058
87208.511302,592.164754,-1072.533697,10510.924376
87208.511631,962.267725,-689.485948,12139.377449
87208.511961,1110.308913,459.657299,12435.459826
87208.512290,1998.556043,842.705048,11917.315666
87208.512619,2368.659014,766.095498,11695.253884
87208.512948,2220.617826,1149.143247,11177.109724
87208.513278,1702.473667,1608.800546,9622.677246
87208.513607,1332.370696,2221.676944,8512.368333
87208.513936,222.061783,2145.067394,8734.430116
87208.514266,-148.041188,2068.457845,8660.409521
87208.514595,0.000000,3524.039291,8586.388927
87208.514924,222.061783,4060.306139,7550.100608
87208.515253,444.123565,2987.772442,7328.038826
87208.515583,592.164754,2451.505594,7105.977043
87208.515912,370.102971,3140.991542,7550.100608
87208.516241,740.205942,2987.772442,8512.368333
87208.516570,0.000000,3064.381992,9178.553681
87208.516900,-1480.411884,2221.676944,9918.759623
87208.517229,-2442.679609,383.047749,9474.636058
87208.517558,-1998.556043,-766.095498,9104.533087
87208.517888,-1110.308913,-1378.971896,9992.780217
87208.518217,0.000000,0.000000,10881.027347
87208.518546,592.164754,1991.848295,11473.192101
87208.518875,1480.411884,2298.286494,11547.212695
87208.519205,2368.659014,1915.238745,10288.862594
87208.519534,1998.556043,2145.067394,9474.636058
87208.519863,1332.370696,2451.505594,9030.512492
87208.520193,814.226536,2757.943793,9474.636058
87208.520522,296.082377,153.219100,8660.409521
87208.520851,-148.041188,-995.924147,8586.388927
87208.521180,-1628.453072,-612.876398,8438.347739
87208.521510,-2442.679609,229.828649,8290.306550
87208.521839,-1924.535449,459.657299,8808.450710
87208.522168,-444.123565,-612.876398,8956.491898
87208.522497,-370.102971,-689.485948,8290.306550
87208.522827,-222.061783,-536.266849,8290.306550
87208.523156,-370.102971,459.657299,8216.285956
87208.523485,-148.041188,0.000000,8956.491898
87208.523815,0.000000,-1762.019645,9844.739029
87208.524144,-888.247130,-2681.334243,9844.739029
87208.524473,-666.185348,-2145.067394,10140.821405
87208.524802,444.123565,-1991.848295,11399.171507
87208.525132,222.061783,-2374.896044,10955.047942
87208.525461,962.267725,-2221.676944,9400.615463
87208.525790,1110.308913,-1455.581446,9326.594869
87208.526120,1332.370696,76.609550,9844.739029
87208.526449,1184.329507,689.485948,9548.656652
87208.526778,0.000000,-229.828649,9030.512492
87208.527107,-1110.308913,-612.876398,7698.141797
87208.527437,-888.247130,-842.705048,7624.121203
87208.527766,-296.082377,306.438199,8290.306550
87208.528095,-370.102971,76.609550,8438.347739
87208.528424,-1332.370696,229.828649,8660.409521
87208.528754,-888.247130,-229.828649,8364.327145
87208.529083,-370.102971,306.438199,8808.450710
87208.529412,-518.144159,-459.657299,8734.430116
87208.529742,-888.247130,766.095498,9326.594869
87208.530071,-1036.288319,-153.219100,9104.533087
87208.530400,-962.267725,-842.705048,9622.677246
87208.530729,-370.102971,-995.924147,10288.862594
87208.531059,814.226536,842.705048,10658.965565
87208.531388,1480.411884,2068.457845,10807.006753
87208.531717,2886.803174,1991.848295,10955.047942
87208.532047,3108.864956,2145.067394,10436.903782
87208.532376,2072.576638,2681.334243,9178.553681
87208.532705,1406.391290,3600.648841,9104.533087
87208.533034,592.164754,3064.381992,8808.450710
87208.533364,-888.247130,1685.410096,8438.347739
87208.533693,-2368.659014,536.266849,8660.409521
87208.534022,-1554.432478,1838.629195,8734.430116
87208.534351,-1628.453072,2451.505594,8882.471304
87208.534681,-1776.494261,1455.581446,8882.471304
87208.535010,-1258.350101,1532.190996,8290.306550
87208.535339,0.000000,1915.238745,7994.224174
87208.535669,666.185348,3064.381992,8956.491898
87208.535998,74.020594,3370.820191,9474.636058
87208.536327,-222.061783,1991.848295,8956.491898
87208.536656,0.000000,306.438199,9178.553681
87208.536986,-222.061783,-536.266849,9992.780217
87208.537315,-296.082377,-536.266849,11029.068536
87208.537644,296.082377,-153.219100,11621.233289
87208.537974,1628.453072,0.000000,11695.253884
87208.538303,2442.679609,0.000000,10955.047942
87208.538632,3404.947333,1072.533697,10510.924376
87208.538961,2516.700203,3217.601092,9474.636058
87208.539291,2886.803174,2604.724693,8734.430116
87208.539620,1998.556043,1762.019645,8290.306550
87208.539949,0.000000,919.314598,7550.100608
87208.540278,-1184.329507,612.876398,7402.059420
87208.540608,-1628.453072,0.000000,7476.080014
87208.540937,-1924.535449,-612.876398,8586.388927
87208.541266,-2294.638420,-2374.896044,8956.491898
87208.541596,-2516.700203,-2451.505594,7698.141797
87208.541925,-1998.556043,-1762.019645,8142.265362
87208.542254,-1184.329507,-1685.410096,9030.512492
87208.542583,-1258.350101,-995.924147,9326.594869
87208.542913,-1110.308913,-842.705048,9252.574275
87208.543242,-666.185348,-1455.581446,9252.574275
87208.543571,888.247130,-1991.848295,9918.759623
87208.543901,1776.494261,-1915.238745,11029.068536
87208.544230,2220.617826,-536.266849,11251.130318
87208.544559,2886.803174,76.609550,10807.006753
87208.544888,3182.885551,-459.657299,10066.800811
87208.545218,2442.679609,-689.485948,9474.636058
87208.545547,888.247130,995.924147,9400.615463
87208.545876,-888.247130,1378.971896,8586.388927
87208.546205,-1702.473667,153.219100,8216.285956
87208.546535,-2516.700203,-1685.410096,8142.265362
87208.546864,-3701.029710,-1915.238745,7994.224174
87208.547193,-3923.091493,-383.047749,7772.162391
87208.547523,-2960.823768,612.876398,8290.306550
87208.547852,-2146.597232,306.438199,8142.265362
87208.548181,-2072.576638,-306.438199,7994.224174
87208.548510,-1480.411884,1225.752797,7772.162391
87208.548840,-296.082377,2451.505594,8586.388927
87208.549169,0.000000,2145.067394,8882.471304
87208.549498,74.020594,0.000000,8956.491898
87208.549828,74.020594,-612.876398,8808.450710
87208.550157,1184.329507,76.609550,9918.759623
87208.550486,2072.576638,1915.238745,11769.274478
87208.550815,2812.782580,2298.286494,11621.233289
87208.551145,3775.050304,1225.752797,10584.944971
87208.551474,4219.173869,2145.067394,10066.800811
87208.551803,3701.029710,4213.525239,9992.780217
87208.552132,2368.659014,4519.963438,9622.677246
87208.552462,1480.411884,2911.162892,9104.533087
87208.552791,148.041188,842.705048,8586.388927
87208.553120,-1480.411884,459.657299,8660.409521
87208.553450,-3034.844362,1225.752797,9030.512492
87208.553779,-3478.967927,919.314598,9178.553681
87208.554108,-2664.741391,0.000000,9770.718434
87208.554437,-2368.659014,-1225.752797,8956.491898
87208.554767,-2294.638420,76.609550,8364.327145
87208.555096,-1110.308913,2451.505594,7550.100608
87208.555425,-370.102971,2604.724693,9030.512492
87208.555755,0.000000,1455.581446,9178.553681
87208.556084,-296.082377,766.095498,9696.697840
87208.556413,666.185348,919.314598,10066.800811
87208.556742,1776.494261,1149.143247,10584.944971
87208.557072,1850.514855,536.266849,11547.212695
87208.557401,2220.617826,1149.143247,12139.377449
87208.557730,2664.741391,1149.143247,10807.006753
87208.558059,3478.967927,1225.752797,9252.574275
87208.558389,3552.988522,1608.800546,9622.677246
87208.558718,1998.556043,3600.648841,10140.821405
87208.559047,962.267725,4290.134789,8290.306550
87208.559377,1850.514855,2145.067394,7846.182985
87208.559706,444.123565,0.000000,7031.956449
87208.560035,-962.267725,229.828649,7402.059420
87208.560364,-1554.432478,2451.505594,8068.244768
87208.560694,-666.185348,919.314598,8882.471304
87208.561023,-1554.432478,-1225.752797,9030.512492
87208.561352,-2368.659014,-1378.971896,8438.347739
87208.561682,-2812.782580,229.828649,7402.059420
87208.562011,-2368.659014,766.095498,8956.491898
87208.562340,-2590.720797,-1302.362347,9992.780217
87208.562669,-2368.659014,-3370.820191,9844.739029
87208.562999,-2368.659014,-2911.162892,9326.594869
87208.563328,-1332.370696,-1915.238745,9918.759623
87208.563657,592.164754,-1455.581446,12139.377449
87208.563986,518.144159,-1915.238745,11621.233289
87208.564316,666.185348,-1149.143247,10658.965565
87208.564645,1702.473667,-612.876398,9474.636058
87208.564974,2294.638420,383.047749,9252.574275
87208.565304,740.205942,459.657299,9178.553681
87208.565633,-518.144159,306.438199,8660.409521
87208.565962,-740.205942,153.219100,8216.285956
87208.566291,-740.205942,153.219100,7994.224174
87208.566621,-518.144159,0.000000,8438.347739
87208.566950,-814.226536,229.828649,8068.244768
87208.567279,-666.185348,0.000000,7772.162391
87208.567609,-592.164754,383.047749,8586.388927
87208.567938,222.061783,612.876398,8808.450710
87208.568267,74.020594,1225.752797,8956.491898
87208.568596,-1406.391290,766.095498,8216.285956
87208.568926,-1628.453072,-229.828649,8586.388927
87208.569255,-1850.514855,-1685.410096,9400.615463
87208.569584,-888.247130,-1762.019645,10066.800811
87208.569913,-296.082377,-1149.143247,10362.883188
87208.570243,592.164754,0.000000,10436.903782
87208.570572,1850.514855,1149.143247,10584.944971
87208.570901,2812.782580,2068.457845,11103.089130
87208.571230,2664.741391,3140.991542,9696.697840
87208.571560,2812.782580,3524.039291,9326.594869
87208.571889,2072.576638,2987.772442,9030.512492
87208.572218,0.000000,2298.286494,9030.512492
87208.572547,-1702.473667,1915.238745,8734.430116
87208.572876,-1850.514855,1072.533697,8808.450710
87208.573205,-2368.659014,76.609550,9252.574275
87208.573535,-2220.617826,229.828649,8956.491898
87208.573864,-1998.556043,383.047749,8882.471304
87208.574193,-1702.473667,1072.533697,8734.430116
87208.574522,-962.267725,1762.019645,9030.512492
87208.574851,-444.123565,1838.629195,8660.409521
87208.575180,740.205942,2221.676944,9030.512492
87208.575509,1332.370696,2374.896044,8068.244768
87208.575839,2294.638420,1915.238745,9104.533087
87208.576168,2812.782580,2221.676944,10807.006753
87208.576497,2812.782580,2221.676944,11029.068536
87208.576826,3552.988522,1685.410096,10955.047942
87208.577155,3775.050304,1225.752797,10881.027347
87208.577484,3034.844362,1915.238745,10807.006753
87208.577813,2368.659014,2604.724693,10732.986159
87208.578143,518.144159,1149.143247,9770.718434
87208.578472,-814.226536,229.828649,8512.368333
87208.578801,-2368.659014,-306.438199,8216.285956
87208.579130,-3108.864956,306.438199,8438.347739
87208.579459,-2738.761985,919.314598,8290.306550
87208.579788,-2590.720797,1072.533697,7994.224174
87208.580117,-1924.535449,-612.876398,7624.121203
87208.580447,-2294.638420,-1149.143247,7328.038826
87208.580776,-1702.473667,383.047749,7846.182985
87208.581105,-962.267725,689.485948,9104.533087
87208.581434,-1850.514855,-153.219100,8882.471304
87208.581763,-2146.597232,-1915.238745,9252.574275
87208.582092,-1776.494261,-2451.505594,8660.409521
87208.582421,444.123565,-2528.115143,9770.718434
87208.582751,1702.473667,-766.095498,11843.295072
87208.583080,2220.617826,0.000000,12435.459826
87208.583409,2886.803174,0.000000,11621.233289
87208.583738,3997.112087,-306.438199,11177.109724
87208.584067,4071.132681,766.095498,10140.821405
87208.584396,2516.700203,1378.971896,9696.697840
87208.584725,1110.308913,1302.362347,8512.368333
87208.585055,370.102971,0.000000,8142.265362
87208.585384,-2220.617826,-1149.143247,7994.224174
87208.585713,-4293.194464,-842.705048,7846.182985
87208.586042,-4441.235652,-306.438199,7698.141797
87208.586371,-3627.009116,-153.219100,7402.059420
87208.586700,-3478.967927,-1608.800546,7476.080014
87208.587029,-2960.823768,-1455.581446,6883.915261
87208.587359,-1702.473667,1532.190996,7550.100608
87208.587688,-666.185348,2068.457845,8364.327145
87208.588017,-296.082377,1302.362347,9178.553681
87208.588346,74.020594,612.876398,9030.512492
87208.588675,814.226536,536.266849,9548.656652
87208.589004,2590.720797,-459.657299,11325.150913
87208.589334,3404.947333,229.828649,12065.356855
87208.589663,3849.070898,459.657299,12213.398043
87208.589992,4441.235652,1838.629195,11547.212695
87208.590321,4959.379811,3140.991542,10658.965565
87208.590650,4515.256246,3600.648841,10214.842000
87208.590979,3108.864956,3447.429741,9326.594869
87208.591308,1554.432478,3524.039291,8216.285956
87208.591638,0.000000,1762.019645,7846.182985
87208.591967,-1776.494261,1608.800546,7994.224174
87208.592296,-3256.906145,919.314598,7698.141797
87208.592625,-4441.235652,459.657299,8438.347739
87208.592954,-4737.318029,-229.828649,9030.512492
87208.593283,-4663.297435,-995.924147,8808.450710
87208.593612,-3923.091493,-995.924147,8586.388927
87208.593942,-3034.844362,-459.657299,8660.409521
87208.594271,-2072.576638,76.609550,9474.636058
87208.594600,-1110.308913,153.219100,9474.636058
87208.594929,0.000000,0.000000,10510.924376
87208.595258,1110.308913,0.000000,10955.047942
87208.595587,3330.926739,612.876398,11103.089130
87208.595916,4441.235652,842.705048,11843.295072
87208.596246,4959.379811,995.924147,11917.315666
87208.596575,4959.379811,2068.457845,10584.944971
87208.596904,5329.482782,2374.896044,10510.924376
87208.597233,4145.153275,2987.772442,10436.903782
87208.597562,1184.329507,2451.505594,9104.533087
87208.597891,-1554.432478,383.047749,7476.080014
87208.598220,-2738.761985,-1762.019645,7179.997637
87208.598550,-3404.947333,-1991.848295,8068.244768
87208.598879,-4515.256246,-1302.362347,8808.450710
87208.599208,-4515.256246,-229.828649,8660.409521
87208.599537,-3256.906145,-1149.143247,7994.224174
87208.599866,-2294.638420,-1762.019645,7846.182985
87208.600195,-1184.329507,0.000000,8290.306550
87208.600524,-962.267725,1225.752797,7920.203579
87208.600854,-740.205942,1532.190996,8216.285956
87208.601183,888.247130,-919.314598,9326.594869
87208.601512,444.123565,-1915.238745,10066.800811
87208.601841,222.061783,-995.924147,10214.842000
87208.602170,1480.411884,76.609550,11325.150913
87208.602499,2886.803174,-612.876398,11251.130318
87208.602828,3849.070898,-1225.752797,10807.006753
87208.603158,3552.988522,612.876398,10658.965565
87208.603487,2368.659014,2528.115143,9696.697840
87208.603816,1998.556043,2987.772442,9400.615463
87208.604145,1184.329507,1532.190996,8660.409521
87208.604474,-740.205942,306.438199,7772.162391
87208.604803,-1480.411884,459.657299,7846.182985
87208.605133,-2368.659014,0.000000,7624.121203
87208.605462,-3256.906145,-995.924147,7846.182985
87208.605791,-3627.009116,-766.095498,7402.059420
87208.606120,-2812.782580,-383.047749,7624.121203
87208.606449,-1850.514855,842.705048,8068.244768
87208.606778,-1258.350101,1149.143247,8956.491898
87208.607107,-1332.370696,1838.629195,9326.594869
87208.607437,-592.164754,1149.143247,8364.327145
87208.607766,148.041188,-842.705048,8586.388927
87208.608095,74.020594,0.000000,9178.553681
87208.608424,592.164754,306.438199,10732.986159
87208.608753,1184.329507,689.485948,11547.212695
87208.609082,1628.453072,536.266849,11473.192101
87208.609411,1628.453072,995.924147,10881.027347
87208.609741,1332.370696,842.705048,9548.656652
87208.610070,1258.350101,1072.533697,9622.677246
87208.610399,444.123565,1991.848295,9178.553681
87208.610728,-518.144159,1149.143247,8956.491898
87208.611057,-1924.535449,306.438199,8438.347739
87208.611386,-2368.659014,1149.143247,7920.203579
87208.611715,-1184.329507,1225.752797,8882.471304
87208.612045,-1702.473667,1685.410096,9178.553681
87208.612374,-1480.411884,1378.971896,9252.574275
87208.612703,-1480.411884,459.657299,8512.368333
87208.613032,-518.144159,612.876398,9104.533087
87208.613361,148.041188,766.095498,9400.615463
87208.613690,-296.082377,1608.800546,9770.718434
87208.614019,-222.061783,0.000000,9622.677246
87208.614349,74.020594,-689.485948,9548.656652
87208.614678,0.000000,-1532.190996,9992.780217
87208.615007,1036.288319,-153.219100,11103.089130
87208.615336,1998.556043,919.314598,10732.986159
87208.615665,3478.967927,766.095498,10140.821405
87208.615994,3701.029710,919.314598,10140.821405
87208.616323,3108.864956,3217.601092,9696.697840
87208.616653,1998.556043,3677.258390,8586.388927
87208.616982,962.267725,1762.019645,8660.409521
87208.617311,-370.102971,0.000000,9104.533087
87208.617640,-2812.782580,-842.705048,8882.471304
87208.617969,-3108.864956,-459.657299,9252.574275
87208.618298,-2812.782580,-612.876398,9474.636058
87208.618627,-2664.741391,-1915.238745,9030.512492
87208.618957,-2072.576638,-1225.752797,9030.512492
87208.619286,-370.102971,1072.533697,8660.409521
87208.619615,1110.308913,2681.334243,8438.347739
87208.619944,2442.679609,2604.724693,9178.553681
87208.620273,2220.617826,1991.848295,9400.615463
87208.620602,1776.494261,1532.190996,8216.285956
87208.620932,2072.576638,842.705048,8438.347739
87208.621261,2146.597232,1302.362347,9548.656652
87208.621590,1406.391290,536.266849,11029.068536
87208.621919,1110.308913,536.266849,10584.944971
87208.622248,1702.473667,306.438199,9770.718434
87208.622577,1110.308913,0.000000,9474.636058
87208.622906,148.041188,766.095498,9104.533087
87208.623236,-296.082377,1991.848295,8660.409521
87208.623565,-962.267725,1225.752797,7402.059420
87208.623894,-2368.659014,153.219100,7105.977043
87208.624223,-3182.885551,-842.705048,7402.059420
87208.624552,-3627.009116,229.828649,7402.059420
87208.624881,-3478.967927,612.876398,8142.265362
87208.625210,-2516.700203,0.000000,8956.491898
87208.625540,-1998.556043,-1225.752797,8660.409521
87208.625869,-1258.350101,-1378.971896,8142.265362
87208.626198,-296.082377,-153.219100,8734.430116
87208.626527,-296.082377,1072.533697,9252.574275
87208.626856,0.000000,76.609550,9844.739029
87208.627185,814.226536,-919.314598,10140.821405
87208.627514,1406.391290,-459.657299,10436.903782
87208.627844,1998.556043,536.266849,11325.150913
87208.628173,3182.885551,76.609550,12583.501014
87208.628502,3108.864956,153.219100,11473.192101
87208.628831,3775.050304,-612.876398,10584.944971
87208.629160,3552.988522,536.266849,10066.800811
87208.629489,2590.720797,1915.238745,10807.006753
87208.629818,962.267725,2145.067394,9918.759623
87208.630148,-814.226536,536.266849,8142.265362
87208.630477,-2368.659014,-1455.581446,7328.038826
87208.630806,-2590.720797,-1991.848295,7328.038826
87208.631135,-2960.823768,306.438199,8068.244768
87208.631464,-2516.700203,612.876398,8438.347739
87208.631793,-3034.844362,-536.266849,8882.471304
87208.632122,-2960.823768,-536.266849,8068.244768
87208.632452,-1702.473667,0.000000,8438.347739
87208.632781,-962.267725,1072.533697,8586.388927
87208.633110,-1702.473667,842.705048,9252.574275
87208.633439,-1702.473667,-689.485948,9844.739029
87208.633768,-962.267725,-1532.190996,10436.903782
87208.634097,0.000000,-1455.581446,11177.109724
87208.634426,518.144159,76.609550,11695.253884
87208.634756,1628.453072,1455.581446,12213.398043
87208.635085,2738.761985,1072.533697,11547.212695
87208.635414,4663.297435,2068.457845,10658.965565
87208.635743,5255.462188,3447.429741,9844.739029
87208.636072,4293.194464,5209.449386,9696.697840
87208.636401,2886.803174,4903.011187,8438.347739
87208.636731,2072.576638,3677.258390,8142.265362
87208.637060,592.164754,1685.410096,7846.182985
87208.637389,-1332.370696,766.095498,7328.038826
87208.637718,-2146.597232,2068.457845,7476.080014
87208.638047,-1776.494261,1149.143247,8216.285956
87208.638376,-2146.597232,76.609550,8438.347739
87208.638705,-2220.617826,0.000000,7994.224174
87208.639035,-1776.494261,919.314598,7328.038826
87208.639364,-1998.556043,2068.457845,8142.265362
87208.639693,-2368.659014,1225.752797,8882.471304
87208.640022,-1332.370696,0.000000,9474.636058
87208.640351,-1036.288319,-1072.533697,8882.471304
87208.640680,-1184.329507,-1378.971896,9474.636058
87208.641009,-296.082377,-153.219100,10436.903782
87208.641339,1924.535449,229.828649,10881.027347
87208.641668,2072.576638,0.000000,11251.130318
87208.641997,1776.494261,229.828649,10436.903782
87208.642326,2294.638420,995.924147,9770.718434
87208.642655,2146.597232,1149.143247,9474.636058
87208.642984,1406.391290,612.876398,9252.574275
87208.643313,0.000000,0.000000,8586.388927
87208.643643,-666.185348,-306.438199,8438.347739
87208.643972,-592.164754,536.266849,9696.697840
87208.644301,-740.205942,459.657299,9844.739029
87208.644630,-1406.391290,-383.047749,9252.574275
87208.644959,-1702.473667,-1378.971896,8216.285956
87208.645288,-1406.391290,-1455.581446,7920.203579
87208.645617,-962.267725,0.000000,8808.450710
87208.645947,-1036.288319,842.705048,8734.430116
87208.646276,-1628.453072,0.000000,8290.306550
87208.646605,-1554.432478,-1225.752797,7846.182985
87208.646934,-1332.370696,-1455.581446,8586.388927
87208.647263,-518.144159,-306.438199,9622.677246
87208.647592,814.226536,229.828649,10510.924376
87208.647921,2072.576638,459.657299,10288.862594
87208.648251,2886.803174,76.609550,10140.821405
87208.648580,2442.679609,1915.238745,9178.553681
87208.648909,2294.638420,2757.943793,8956.491898
87208.649238,1480.411884,2298.286494,8882.471304
87208.649567,0.000000,612.876398,9474.636058
87208.649896,-1480.411884,-306.438199,8882.471304
87208.650225,-1850.514855,-306.438199,8734.430116
87208.650555,-1628.453072,459.657299,9326.594869
87208.650884,-1258.350101,0.000000,9696.697840
87208.651213,-1776.494261,536.266849,9770.718434
87208.651542,-888.247130,689.485948,9326.594869
87208.651871,0.000000,1532.190996,9178.553681
87208.652200,148.041188,1838.629195,9622.677246
87208.652530,0.000000,1608.800546,9770.718434
87208.652859,-296.082377,459.657299,9326.594869
87208.653188,-370.102971,-306.438199,9252.574275
87208.653517,0.000000,-919.314598,10732.986159
87208.653846,296.082377,-689.485948,11547.212695
87208.654175,592.164754,-153.219100,10807.006753
87208.654504,1480.411884,-459.657299,11029.068536
87208.654834,2590.720797,306.438199,10288.862594
87208.655163,2442.679609,2681.334243,10436.903782
87208.655492,2294.638420,3447.429741,9770.718434
87208.655821,1332.370696,2834.553343,8216.285956
87208.656150,666.185348,1455.581446,7920.203579
87208.656479,-666.185348,689.485948,7994.224174
87208.656808,-1480.411884,1072.533697,8142.265362
87208.657138,-2146.597232,842.705048,8512.368333
87208.657467,-2368.659014,-383.047749,9030.512492
87208.657796,-1924.535449,-459.657299,8512.368333
87208.658125,-1628.453072,-459.657299,8216.285956
87208.658454,-1110.308913,-383.047749,8512.368333
87208.658783,-1184.329507,0.000000,8956.491898
87208.659112,-518.144159,0.000000,9770.718434
87208.659442,-518.144159,-459.657299,10214.842000
87208.659771,592.164754,-1149.143247,9622.677246
87208.660100,1776.494261,0.000000,10214.842000
87208.660429,2886.803174,0.000000,10881.027347
87208.660758,3108.864956,919.314598,11177.109724
87208.661087,3775.050304,1608.800546,10214.842000
87208.661416,3997.112087,1302.362347,10066.800811
87208.661746,2738.761985,1685.410096,9474.636058
87208.662075,1110.308913,2757.943793,8364.327145
87208.662404,0.000000,1915.238745,7254.018232
87208.662733,-1924.535449,0.000000,7624.121203
87208.663062,-2886.803174,-1149.143247,7994.224174
87208.663391,-3256.906145,0.000000,8290.306550
87208.663720,-2886.803174,383.047749,8586.388927
87208.664050,-2738.761985,153.219100,8512.368333
87208.664379,-2368.659014,-459.657299,7772.162391
87208.664708,-1554.432478,-612.876398,7179.997637
87208.665037,-814.226536,1455.581446,8068.244768
87208.665366,0.000000,2604.724693,8734.430116
87208.665695,0.000000,1072.533697,8438.347739
87208.666025,-222.061783,-766.095498,8364.327145
87208.666354,296.082377,-766.095498,9400.615463
87208.666683,1332.370696,842.705048,10362.883188
87208.667012,2368.659014,0.000000,11917.315666
87208.667341,2294.638420,689.485948,11029.068536
87208.667670,3256.906145,536.266849,10807.006753
87208.667999,3478.967927,1532.190996,10584.944971
87208.668329,2664.741391,2451.505594,10140.821405
87208.668658,888.247130,1915.238745,9252.574275
87208.668987,-962.267725,536.266849,8808.450710
87208.669316,-1184.329507,-842.705048,8660.409521
87208.669645,-1998.556043,-1532.190996,9104.533087
87208.669974,-3478.967927,-766.095498,8512.368333
87208.670303,-3923.091493,-612.876398,8586.388927
87208.670633,-2960.823768,-1608.800546,8512.368333
87208.670962,-2294.638420,-995.924147,8882.471304
87208.671291,-2220.617826,459.657299,8438.347739
87208.671620,-2146.597232,1685.410096,8734.430116
87208.671949,-740.205942,1072.533697,8882.471304
87208.672278,0.000000,-919.314598,9992.780217
87208.672607,-370.102971,-1225.752797,9844.739029
87208.672937,370.102971,-919.314598,10362.883188
87208.673266,1480.411884,-459.657299,11325.150913
87208.673595,2220.617826,0.000000,12065.356855
87208.673924,2294.638420,306.438199,11695.253884
87208.674253,2664.741391,1302.362347,10732.986159
87208.674582,3034.844362,2145.067394,9992.780217
87208.674911,2960.823768,2298.286494,9548.656652
87208.675241,1554.432478,2068.457845,9252.574275
87208.675570,-222.061783,2221.676944,8586.388927
87208.675899,-666.185348,2068.457845,7698.141797
87208.676228,-296.082377,1455.581446,7920.203579
87208.676557,-1036.288319,612.876398,7698.141797
87208.676886,-1924.535449,919.314598,7179.997637
87208.677215,-1184.329507,1608.800546,7476.080014
87208.677545,-1110.308913,1302.362347,8068.244768
87208.677874,-1332.370696,536.266849,8290.306550
87208.678203,-1184.329507,766.095498,8734.430116
87208.678532,-1628.453072,1455.581446,9474.636058
87208.678861,-1628.453072,0.000000,9178.553681
87208.679190,-1480.411884,-1685.410096,10066.800811
87208.679519,-740.205942,-1455.581446,10955.047942
87208.679849,296.082377,612.876398,11769.274478
87208.680178,2294.638420,1915.238745,11547.212695
87208.680507,2886.803174,1838.629195,9844.739029
87208.680836,2812.782580,1762.019645,9844.739029
87208.681165,2886.803174,3064.381992,8956.491898
87208.681494,2812.782580,3983.696590,8438.347739
87208.681823,1184.329507,3064.381992,8586.388927
87208.682153,-444.123565,919.314598,7402.059420
87208.682482,-888.247130,383.047749,7328.038826
87208.682811,-740.205942,1532.190996,7328.038826
87208.683140,-1184.329507,1915.238745,8438.347739
87208.683469,-962.267725,1455.581446,8216.285956
87208.683798,-518.144159,536.266849,7402.059420
87208.684127,-148.041188,689.485948,7402.059420
87208.684457,-518.144159,1455.581446,7476.080014
87208.684786,-1036.288319,1838.629195,8586.388927
87208.685115,-1998.556043,383.047749,9326.594869
87208.685444,-1406.391290,-2374.896044,9326.594869
87208.685773,-1480.411884,-2604.724693,9252.574275
87208.686102,-1776.494261,-2681.334243,10214.842000
87208.686431,-1258.350101,-1838.629195,10584.944971
87208.686761,296.082377,-766.095498,11325.150913
87208.687090,1332.370696,76.609550,11917.315666
87208.687419,1998.556043,995.924147,11325.150913
87208.687748,1554.432478,1302.362347,8882.471304
87208.688077,1110.308913,536.266849,8808.450710
87208.688406,888.247130,306.438199,9252.574275
87208.688735,-222.061783,0.000000,9252.574275
87208.689065,-370.102971,-689.485948,9400.615463
87208.689394,-740.205942,-306.438199,9770.718434
87208.689723,-1554.432478,-1225.752797,9030.512492
87208.690052,-1554.432478,-1378.971896,9474.636058
87208.690381,-1480.411884,-1225.752797,8734.430116
87208.690710,-962.267725,-919.314598,8438.347739
87208.691039,-518.144159,-153.219100,8956.491898
87208.691369,-666.185348,76.609550,9844.739029
87208.691698,-1110.308913,76.609550,9622.677246
87208.692027,-296.082377,0.000000,8956.491898
87208.692356,814.226536,-919.314598,9770.718434
87208.692685,740.205942,-919.314598,10732.986159
87208.693014,1258.350101,383.047749,11325.150913
87208.693343,1850.514855,1302.362347,11177.109724
87208.693673,1406.391290,995.924147,11325.150913
87208.694002,666.185348,689.485948,10658.965565
87208.694331,-222.061783,919.314598,9474.636058
87208.694660,-370.102971,1378.971896,8882.471304
87208.694989,-888.247130,689.485948,8660.409521
87208.695318,-1406.391290,459.657299,9400.615463
87208.695647,-1184.329507,1149.143247,8808.450710
87208.695977,-518.144159,2451.505594,7402.059420
87208.696306,592.164754,2681.334243,7698.141797
87208.696635,1332.370696,2451.505594,8142.265362
87208.696964,1258.350101,3600.648841,8364.327145
87208.697293,2072.576638,3907.087040,7920.203579
87208.697622,1850.514855,2987.772442,9030.512492
87208.697951,444.123565,1991.848295,8734.430116
87208.698281,-444.123565,1072.533697,8808.450710
87208.698610,74.020594,229.828649,9622.677246
87208.698939,148.041188,0.000000,10584.944971
87208.699268,740.205942,612.876398,11843.295072
87208.699597,1110.308913,689.485948,10658.965565
87208.699926,1480.411884,1302.362347,9474.636058
87208.700255,1924.535449,2145.067394,9252.574275
87208.700584,1184.329507,2987.772442,9400.615463
87208.700914,0.000000,3524.039291,8512.368333
87208.701243,-1258.350101,1991.848295,8068.244768
87208.701572,-2516.700203,0.000000,7179.997637
87208.701901,-2442.679609,-766.095498,8216.285956
87208.702230,-2886.803174,0.000000,8364.327145
87208.702559,-2516.700203,0.000000,8290.306550
87208.702888,-1480.411884,-612.876398,8882.471304
87208.703218,-296.082377,-612.876398,8956.491898
87208.703547,222.061783,1302.362347,8438.347739
87208.703876,888.247130,1685.410096,8660.409521
87208.704205,1036.288319,1149.143247,9326.594869
87208.704534,1850.514855,-612.876398,9548.656652
87208.704863,1332.370696,-995.924147,10436.903782
87208.705192,1110.308913,-306.438199,10955.047942
87208.705522,1480.411884,0.000000,11103.089130
87208.705851,1554.432478,-1072.533697,10955.047942
87208.706180,1702.473667,-1378.971896,10362.883188
87208.706509,1480.411884,0.000000,9548.656652
87208.706838,1480.411884,1685.410096,9548.656652
87208.707167,0.000000,2221.676944,9178.553681
87208.707496,-1702.473667,689.485948,7846.182985
87208.707826,-2442.679609,-612.876398,7550.100608
87208.708155,-3256.906145,-995.924147,7179.997637
87208.708484,-3849.070898,-1149.143247,8290.306550
87208.708813,-3108.864956,-306.438199,9548.656652
87208.709142,-2590.720797,-919.314598,9474.636058
87208.709471,-2220.617826,-1455.581446,8808.450710
87208.709800,-1258.350101,-1149.143247,8956.491898
87208.710130,-444.123565,919.314598,8216.285956
87208.710459,666.185348,1378.971896,9030.512492
87208.710788,1184.329507,1302.362347,10066.800811
87208.711117,888.247130,0.000000,10066.800811
87208.711446,814.226536,0.000000,10214.842000
87208.711775,1110.308913,0.000000,10807.006753
87208.712104,2960.823768,536.266849,11547.212695
87208.712434,3478.967927,0.000000,11917.315666
87208.712763,2886.803174,612.876398,11251.130318
87208.713092,3108.864956,1378.971896,10658.965565
87208.713421,1924.535449,2298.286494,10066.800811
87208.713750,296.082377,1455.581446,9474.636058
87208.714079,-1332.370696,536.266849,8290.306550
87208.714408,-2368.659014,-229.828649,8216.285956
87208.714738,-2812.782580,-306.438199,8290.306550
87208.715067,-2442.679609,-383.047749,9400.615463
87208.715396,-3034.844362,76.609550,9030.512492
87208.715725,-2664.741391,0.000000,7994.224174
87208.716054,-1406.391290,459.657299,7402.059420
87208.716383,0.000000,1302.362347,8216.285956
87208.716712,814.226536,2681.334243,8438.347739
87208.717042,370.102971,2451.505594,8734.430116
87208.717371,592.164754,1149.143247,8290.306550
87208.717700,1036.288319,-383.047749,9400.615463
87208.718029,740.205942,-459.657299,9252.574275
87208.718358,962.267725,383.047749,10436.903782
87208.718687,1702.473667,689.485948,11251.130318
87208.719016,2738.761985,536.266849,11177.109724
87208.719346,3108.864956,689.485948,10066.800811
87208.719675,3256.906145,2068.457845,9400.615463
87208.720004,2960.823768,3677.258390,8882.471304
87208.720333,2072.576638,3600.648841,8956.491898
87208.720662,592.164754,2145.067394,9178.553681
87208.720991,-814.226536,995.924147,8142.265362
87208.721320,-1332.370696,76.609550,7698.141797
87208.721650,-1628.453072,306.438199,8290.306550
87208.721979,-2664.741391,612.876398,8586.388927
87208.722308,-3330.926739,306.438199,7846.182985
87208.722637,-2220.617826,-229.828649,7994.224174
87208.722966,-1924.535449,383.047749,7624.121203
87208.723295,-1406.391290,1072.533697,7772.162391
87208.723624,-962.267725,1225.752797,7920.203579
87208.723954,-444.123565,766.095498,8290.306550
87208.724283,0.000000,-919.314598,10140.821405
87208.724612,222.061783,-536.266849,10066.800811
87208.724941,1110.308913,0.000000,10362.883188
87208.725270,1850.514855,229.828649,10510.924376
87208.725599,2812.782580,153.219100,10732.986159
87208.725928,2886.803174,766.095498,11399.171507
87208.726258,2146.597232,1149.143247,10362.883188
87208.726587,1554.432478,1149.143247,10362.883188
87208.726916,740.205942,689.485948,10066.800811
87208.727245,-888.247130,-536.266849,9104.533087
87208.727574,-1998.556043,-1072.533697,9178.553681
87208.727903,-2294.638420,-229.828649,9548.656652
87208.728232,-2368.659014,76.609550,9252.574275
87208.728562,-2590.720797,-536.266849,9178.553681
87208.728891,-2516.700203,-1991.848295,8438.347739
87208.729220,-3108.864956,-536.266849,8364.327145
87208.729549,-2368.659014,-153.219100,8808.450710
87208.729878,-1850.514855,-612.876398,8956.491898
87208.730207,-1924.535449,-1915.238745,9104.533087
87208.730536,-1554.432478,-2145.067394,9474.636058
87208.730866,-1406.391290,-1762.019645,9992.780217
87208.731195,148.041188,-1225.752797,10807.006753
87208.731524,1776.494261,-689.485948,10955.047942
87208.731853,3997.112087,-459.657299,10732.986159
87208.732182,5403.503377,995.924147,11103.089130
87208.732511,5403.503377,2987.772442,10362.883188
87208.732840,4959.379811,4213.525239,10214.842000
87208.733170,3775.050304,3217.601092,9030.512492
87208.733499,1702.473667,2068.457845,8586.388927
87208.733828,-518.144159,536.266849,7920.203579
87208.734157,-1702.473667,153.219100,8586.388927
87208.734486,-2738.761985,-536.266849,8660.409521
87208.734815,-3775.050304,-689.485948,9548.656652
87208.735144,-3627.009116,0.000000,9252.574275
87208.735474,-3034.844362,-689.485948,7772.162391
87208.735803,-2960.823768,1302.362347,7031.956449
87208.736132,-1776.494261,1455.581446,7994.224174
87208.736461,-666.185348,2451.505594,8734.430116
87208.736790,-444.123565,2911.162892,8586.388927
87208.737119,-740.205942,2298.286494,8808.450710
87208.737448,74.020594,536.266849,8956.491898
87208.737778,1628.453072,995.924147,10140.821405
87208.738107,1628.453072,2834.553343,10658.965565
87208.738436,2664.741391,2451.505594,10584.944971
87208.738765,3923.091493,2221.676944,10362.883188
87208.739094,4071.132681,2451.505594,10066.800811
87208.739423,2886.803174,4443.353888,8956.491898
87208.739752,1776.494261,5209.449386,8512.368333
87208.740082,1258.350101,2834.553343,8438.347739
87208.740411,74.020594,842.705048,7698.141797
87208.740740,-1110.308913,1378.971896,7994.224174
87208.741069,-1998.556043,2528.115143,8142.265362
87208.741398,-2738.761985,2681.334243,7476.080014
87208.741727,-2146.597232,0.000000,7846.182985
87208.742056,-2072.576638,-383.047749,6883.915261
87208.742386,-2146.597232,1225.752797,6513.812290
87208.742715,-1554.432478,2068.457845,7624.121203
87208.743044,-888.247130,536.266849,8290.306550
87208.743373,-888.247130,-842.705048,9252.574275
87208.743702,-1110.308913,-1302.362347,9252.574275
87208.744031,0.000000,-1072.533697,9770.718434
87208.744360,1850.514855,-1302.362347,11251.130318
87208.744690,2590.720797,-1072.533697,13101.645173
87208.745019,2738.761985,-153.219100,12879.583391
87208.745348,2368.659014,76.609550,11473.192101
87208.745677,2368.659014,-842.705048,10732.986159
87208.746006,1258.350101,-1838.629195,10955.047942
87208.746335,-222.061783,-919.314598,10436.903782
87208.746664,-1184.329507,-1225.752797,9104.533087
87208.746994,-1998.556043,-1915.238745,9178.553681
87208.747323,-2072.576638,-2374.896044,9178.553681
87208.747652,-2442.679609,-1608.800546,8956.491898
87208.747981,-2442.679609,-459.657299,7698.141797
87208.748310,-2072.576638,0.000000,8364.327145
87208.748639,-1480.411884,-612.876398,9474.636058
87208.748968,-222.061783,0.000000,9030.512492
87208.749298,-666.185348,0.000000,8142.265362
87208.749627,-1110.308913,-995.924147,8734.430116
87208.749956,-1258.350101,-2145.067394,9844.739029
87208.750285,-296.082377,-1915.238745,10066.800811
87208.750614,666.185348,-1532.190996,10732.986159
87208.750943,962.267725,-612.876398,10955.047942
87208.751272,2294.638420,459.657299,10510.924376
87208.751602,3849.070898,2145.067394,10288.862594
87208.751931,3775.050304,2221.676944,10214.842000
87208.752260,2812.782580,3064.381992,10288.862594
87208.752589,1332.370696,2987.772442,9252.574275
87208.752918,74.020594,1838.629195,8808.450710
87208.753247,-1480.411884,842.705048,9030.512492
87208.753576,-1998.556043,-689.485948,8586.388927
87208.753906,-2368.659014,229.828649,9030.512492
87208.754235,-3108.864956,1455.581446,8438.347739
87208.754564,-2812.782580,689.485948,8882.471304
87208.754893,-2294.638420,612.876398,8364.327145
87208.755222,-1406.391290,1838.629195,7846.182985
87208.755551,0.000000,2528.115143,7698.141797
87208.755880,1110.308913,3447.429741,8956.491898
87208.756210,1702.473667,1915.238745,8956.491898
87208.756539,1850.514855,2298.286494,8956.491898
87208.756868,2220.617826,1915.238745,9104.533087
87208.757197,2294.638420,2068.457845,9474.636058
87208.757526,2886.803174,2298.286494,9548.656652
87208.757855,3923.091493,2068.457845,10288.862594
87208.758184,3478.967927,2911.162892,9696.697840
87208.758513,1924.535449,3140.991542,8364.327145
87208.758843,1258.350101,2451.505594,8068.244768
87208.759172,370.102971,1915.238745,7772.162391
87208.759501,-740.205942,919.314598,8734.430116
87208.759830,-2368.659014,536.266849,8290.306550
87208.760159,-2812.782580,-229.828649,8068.244768
87208.760488,-2368.659014,153.219100,9178.553681
87208.760817,-1554.432478,612.876398,9326.594869
87208.761147,-1850.514855,383.047749,8364.327145
87208.761476,-1332.370696,-306.438199,9104.533087
87208.761805,-740.205942,-306.438199,9400.615463
87208.762134,-370.102971,76.609550,10140.821405
87208.762463,-962.267725,-383.047749,10140.821405
87208.762792,-1258.350101,-1455.581446,9622.677246
87208.763121,0.000000,-1378.971896,9770.718434
87208.763451,518.144159,-1838.629195,10732.986159
87208.763780,962.267725,-229.828649,10955.047942
87208.764109,1628.453072,229.828649,10510.924376
87208.764438,2442.679609,0.000000,10288.862594
87208.764767,2220.617826,153.219100,10066.800811
87208.765096,1480.411884,1302.362347,9400.615463
87208.765425,518.144159,1302.362347,9400.615463
87208.765755,-222.061783,0.000000,8364.327145
87208.766084,-2146.597232,-1915.238745,8882.471304
87208.766413,-2886.803174,-1991.848295,8660.409521
87208.766742,-2664.741391,-1838.629195,8364.327145
87208.767071,-2812.782580,-1225.752797,8660.409521
87208.767400,-2294.638420,-842.705048,9030.512492
87208.767729,-1850.514855,-383.047749,8882.471304
87208.768059,-814.226536,0.000000,8216.285956
87208.768388,296.082377,459.657299,8882.471304
87208.768717,518.144159,842.705048,9548.656652
87208.769046,74.020594,842.705048,9548.656652
87208.769375,370.102971,0.000000,9104.533087
87208.769704,1554.432478,-689.485948,10436.903782
87208.770033,888.247130,-766.095498,11029.068536
87208.770363,814.226536,0.000000,11251.130318
87208.770692,1776.494261,536.266849,10436.903782
87208.771021,2220.617826,306.438199,10584.944971
87208.771350,1998.556043,459.657299,10066.800811
87208.771679,1480.411884,2068.457845,9622.677246
87208.772008,740.205942,2221.676944,9474.636058
87208.772338,-74.020594,2374.896044,9104.533087
87208.772667,-296.082377,1225.752797,9474.636058
87208.772996,-1406.391290,306.438199,8364.327145
87208.773326,-1998.556043,919.314598,8068.244768
87208.773655,-1998.556043,1378.971896,7920.203579
87208.773984,-1628.453072,995.924147,7920.203579
87208.774313,-1258.350101,1302.362347,7920.203579
87208.774643,-1702.473667,1072.533697,7846.182985
87208.774972,-1110.308913,1762.019645,8364.327145
87208.775301,-518.144159,1225.752797,9326.594869
87208.775630,-296.082377,306.438199,9844.739029
87208.775960,-222.061783,0.000000,9770.718434
87208.776289,888.247130,-612.876398,9548.656652
87208.776618,2220.617826,306.438199,9992.780217
87208.776947,2812.782580,1838.629195,10881.027347
87208.777277,3997.112087,2451.505594,10732.986159
87208.777606,3775.050304,3370.820191,9104.533087
87208.777935,3552.988522,3064.381992,8586.388927
87208.778265,1998.556043,2528.115143,8586.388927
87208.778594,0.000000,2451.505594,7920.203579
87208.778923,-1406.391290,1225.752797,8142.265362
87208.779252,-2368.659014,-919.314598,8734.430116
87208.779582,-3108.864956,-2221.676944,8956.491898
87208.779911,-3849.070898,-306.438199,8808.450710
87208.780240,-2664.741391,0.000000,8438.347739
87208.780569,-1776.494261,306.438199,8512.368333
87208.780899,-814.226536,536.266849,8290.306550
87208.781228,0.000000,1455.581446,7402.059420
87208.781557,592.164754,1915.238745,7994.224174
87208.781886,518.144159,2451.505594,9400.615463
87208.782216,148.041188,0.000000,9548.656652
87208.782545,0.000000,-1532.190996,9770.718434
87208.782874,666.185348,-1762.019645,10584.944971
87208.783204,1554.432478,-612.876398,11103.089130
87208.783533,2072.576638,-306.438199,11177.109724
87208.783862,2590.720797,459.657299,11621.233289
87208.784191,3404.947333,842.705048,10955.047942
87208.784521,2960.823768,1455.581446,10140.821405
87208.784850,2146.597232,2068.457845,10214.842000
87208.785179,666.185348,1225.752797,9474.636058
87208.785508,-814.226536,-229.828649,8660.409521
87208.785838,-1628.453072,-1072.533697,8512.368333
87208.786167,-2220.617826,-1532.190996,9104.533087
87208.786496,-3256.906145,-995.924147,8956.491898
87208.786826,-3256.906145,-919.314598,8956.491898
87208.787155,-2960.823768,-1532.190996,8142.265362
87208.787484,-2368.659014,-842.705048,8364.327145
87208.787813,-1702.473667,612.876398,9178.553681
87208.788143,-1110.308913,1532.190996,8734.430116
87208.788472,-740.205942,0.000000,8734.430116
87208.788801,0.000000,-1685.410096,9548.656652
87208.789130,0.000000,-995.924147,10214.842000
87208.789460,444.123565,0.000000,10658.965565
87208.789789,1702.473667,0.000000,11177.109724
87208.790118,2812.782580,0.000000,11103.089130
87208.790447,2886.803174,612.876398,10436.903782
87208.790777,2590.720797,1915.238745,9474.636058
87208.791106,3182.885551,2145.067394,9770.718434
87208.791435,1998.556043,1685.410096,9622.677246
87208.791765,592.164754,1302.362347,9400.615463
87208.792094,-666.185348,919.314598,8660.409521
87208.792423,-1480.411884,1072.533697,8216.285956
87208.792752,-962.267725,1225.752797,8290.306550
87208.793082,-2146.597232,229.828649,8438.347739
87208.793411,-2738.761985,842.705048,7846.182985
87208.793740,-2442.679609,766.095498,7846.182985
87208.794069,-2146.597232,842.705048,7698.141797
87208.794399,-1776.494261,383.047749,8290.306550
87208.794728,-1702.473667,536.266849,8586.388927
87208.795057,-1554.432478,459.657299,8808.450710
87208.795386,-962.267725,229.828649,9622.677246
87208.795716,0.000000,-689.485948,9918.759623
87208.796045,1702.473667,229.828649,10214.842000
87208.796374,2812.782580,1378.971896,10362.883188
87208.796704,4515.256246,2681.334243,10881.027347
87208.797033,4885.359217,3524.039291,10732.986159
87208.797362,4589.276840,3677.258390,9770.718434
87208.797691,4367.215058,2604.724693,9326.594869
87208.798021,2886.803174,2604.724693,8512.368333
87208.798350,666.185348,2145.067394,8586.388927
87208.798679,-962.267725,995.924147,7994.224174
87208.799008,-1702.473667,306.438199,8142.265362
87208.799338,-2072.576638,459.657299,8364.327145
87208.799667,-2812.782580,842.705048,7328.038826
87208.799996,-3330.926739,1072.533697,7476.080014
87208.800325,-2664.741391,306.438199,7402.059420
87208.800655,-1850.514855,0.000000,8290.306550
87208.800984,-1924.535449,306.438199,9474.636058
87208.801313,-2442.679609,0.000000,9770.718434
87208.801643,-2146.597232,-1455.581446,9252.574275
87208.801972,-518.144159,-2757.943793,10214.842000
87208.802301,-444.123565,-2451.505594,11399.171507
87208.802630,518.144159,-995.924147,11769.274478
87208.802960,2294.638420,459.657299,11917.315666
87208.803289,3627.009116,229.828649,11769.274478
87208.803618,3923.091493,383.047749,11103.089130
87208.803947,3034.844362,2068.457845,10362.883188
87208.804277,2368.659014,2221.676944,9622.677246
87208.804606,1406.391290,842.705048,9030.512492
87208.804935,148.041188,-536.266849,9696.697840
87208.805264,-1628.453072,-612.876398,8808.450710
87208.805594,-2664.741391,0.000000,8734.430116
87208.805923,-2960.823768,-689.485948,8734.430116
87208.806252,-3182.885551,-1915.238745,8142.265362
87208.806582,-3330.926739,-2145.067394,7105.977043
87208.806911,-2146.597232,-995.924147,7624.121203
87208.807240,-2220.617826,612.876398,8364.327145
87208.807569,-1184.329507,306.438199,8586.388927
87208.807899,-518.144159,-306.438199,8808.450710
87208.808228,74.020594,-766.095498,9474.636058
87208.808557,1258.350101,-153.219100,9770.718434
87208.808886,1332.370696,0.000000,10955.047942
87208.809216,2590.720797,229.828649,12509.480420
87208.809545,2738.761985,76.609550,11917.315666
87208.809874,3034.844362,1072.533697,11325.150913
87208.810204,2590.720797,1225.752797,11177.109724
87208.810533,740.205942,1149.143247,10881.027347
87208.810862,-518.144159,919.314598,9474.636058
87208.811191,-1554.432478,766.095498,9030.512492
87208.811521,-3108.864956,76.609550,8290.306550
87208.811850,-3552.988522,459.657299,7624.121203
87208.812179,-2960.823768,1378.971896,7698.141797
87208.812508,-2146.597232,1685.410096,7179.997637
87208.812838,-1776.494261,1838.629195,6883.915261
87208.813167,-1110.308913,1838.629195,6735.874072
87208.813496,0.000000,1991.848295,6883.915261
87208.813825,370.102971,2451.505594,6735.874072
87208.814155,296.082377,1685.410096,8438.347739
87208.814484,0.000000,1225.752797,9252.574275
87208.814813,148.041188,153.219100,9474.636058
87208.815143,1480.411884,-689.485948,10214.842000
87208.815472,2368.659014,536.266849,11399.171507
87208.815801,2738.761985,1455.581446,11325.150913
87208.816130,3182.885551,1685.410096,10214.842000
87208.816460,4071.132681,1762.019645,10214.842000
87208.816789,3849.070898,2374.896044,9992.780217
87208.817118,2220.617826,3600.648841,10066.800811
87208.817447,888.247130,2987.772442,9326.594869
87208.817777,-592.164754,842.705048,8142.265362
87208.818106,-1776.494261,-842.705048,7550.100608
87208.818435,-2886.803174,-995.924147,8216.285956
87208.818764,-3627.009116,842.705048,8956.491898
87208.819094,-3478.967927,0.000000,8586.388927
87208.819423,-2886.803174,-1838.629195,8734.430116
87208.819752,-2294.638420,-1685.410096,8956.491898
87208.820082,-1036.288319,306.438199,8512.368333
87208.820411,222.061783,995.924147,9252.574275
87208.820740,740.205942,536.266849,9918.759623
87208.821069,1184.329507,-995.924147,9918.759623
87208.821399,1554.432478,-459.657299,9770.718434
87208.821728,2146.597232,612.876398,10214.842000
87208.822057,2368.659014,842.705048,10732.986159
87208.822386,3034.844362,383.047749,11029.068536
87208.822716,3552.988522,459.657299,10066.800811
87208.823045,2590.720797,1302.362347,9844.739029
87208.823374,1184.329507,1455.581446,9178.553681
87208.823703,296.082377,1149.143247,9252.574275
87208.824033,-962.267725,383.047749,9178.553681
87208.824362,-2294.638420,-536.266849,8808.450710
87208.824691,-3701.029710,-995.924147,8290.306550
87208.825021,-3478.967927,-689.485948,8586.388927
87208.825350,-3256.906145,-383.047749,9104.533087
87208.825679,-3478.967927,-229.828649,8734.430116
87208.826008,-2812.782580,-919.314598,8734.430116
87208.826338,-2146.597232,-995.924147,8734.430116
87208.826667,-1258.350101,229.828649,9474.636058
87208.826996,-296.082377,612.876398,9622.677246
87208.827325,-222.061783,153.219100,10066.800811
87208.827655,666.185348,-536.266849,9696.697840
87208.827984,1110.308913,-919.314598,9844.739029
87208.828313,2146.597232,612.876398,10881.027347
87208.828643,3775.050304,2604.724693,11473.192101
87208.828972,4441.235652,2221.676944,10955.047942
87208.829301,3997.112087,2451.505594,10288.862594
87208.829630,3034.844362,2681.334243,9178.553681
87208.829960,2146.597232,2911.162892,8068.244768
87208.830289,666.185348,1685.410096,8882.471304
87208.830618,-1110.308913,536.266849,8660.409521
87208.830947,-2664.741391,-919.314598,7698.141797
87208.831277,-3775.050304,-766.095498,7920.203579
87208.831606,-2812.782580,-306.438199,8290.306550
87208.831935,-2516.700203,536.266849,8216.285956
87208.832264,-2590.720797,383.047749,7698.141797
87208.832594,-1628.453072,612.876398,7698.141797
87208.832923,0.000000,1225.752797,7994.224174
87208.833252,0.000000,2068.457845,8216.285956
87208.833582,-222.061783,1225.752797,8512.368333
87208.833911,-592.164754,0.000000,8512.368333
87208.834240,666.185348,-689.485948,10140.821405
87208.834569,1480.411884,76.609550,11473.192101
87208.834899,1554.432478,229.828649,11621.233289
87208.835228,2072.576638,76.609550,11325.150913
87208.835557,2812.782580,536.266849,11103.089130
87208.835886,3182.885551,2145.067394,10732.986159
87208.836216,2368.659014,2451.505594,9844.739029
87208.836545,1924.535449,2451.505594,9400.615463
87208.836874,1184.329507,2298.286494,9030.512492
87208.837203,-444.123565,1685.410096,8068.244768
87208.837533,-1998.556043,995.924147,7994.224174
87208.837862,-2146.597232,766.095498,7624.121203
87208.838191,-2072.576638,-612.876398,7920.203579
87208.838521,-3404.947333,-306.438199,7698.141797
87208.838850,-3701.029710,0.000000,7846.182985
87208.839179,-3256.906145,-306.438199,7624.121203
87208.839508,-2072.576638,76.609550,8216.285956
87208.839838,-1406.391290,0.000000,8956.491898
87208.840167,-1184.329507,76.609550,9400.615463
87208.840496,148.041188,-153.219100,9030.512492
87208.840825,1480.411884,-536.266849,10510.924376
87208.841155,2220.617826,-306.438199,11325.150913
87208.841484,2738.761985,766.095498,11843.295072
87208.841813,3775.050304,1149.143247,11621.233289
87208.842142,4737.318029,1455.581446,11843.295072
87208.842472,3701.029710,1685.410096,11325.150913
87208.842801,2146.597232,1762.019645,10066.800811
87208.843130,962.267725,1225.752797,8956.491898
87208.843460,74.020594,383.047749,9326.594869
87208.843789,-1924.535449,0.000000,9104.533087
87208.844118,-3478.967927,0.000000,9104.533087
87208.844447,-3627.009116,-306.438199,8660.409521
87208.844777,-3108.864956,-383.047749,7994.224174
87208.845106,-2146.597232,-229.828649,8364.327145
87208.845435,-2368.659014,689.485948,8142.265362
87208.845764,-1406.391290,1072.533697,8216.285956
87208.846094,-740.205942,1378.971896,8290.306550
87208.846423,-370.102971,459.657299,9400.615463
87208.846752,-370.102971,76.609550,9030.512492
87208.847082,222.061783,-383.047749,9474.636058
87208.847411,814.226536,-536.266849,9844.739029
87208.847740,3034.844362,-383.047749,12139.377449
87208.848069,3552.988522,766.095498,12213.398043
87208.848399,3849.070898,1685.410096,11695.253884
87208.848728,4367.215058,1991.848295,10584.944971
87208.849057,3923.091493,2221.676944,10288.862594
87208.849386,2516.700203,2681.334243,10066.800811
87208.849716,1036.288319,2604.724693,9104.533087
87208.850045,74.020594,1915.238745,8290.306550
87208.850374,-1406.391290,-995.924147,8290.306550
87208.850703,-3552.988522,-995.924147,7772.162391
87208.851033,-3701.029710,-306.438199,7476.080014
87208.851362,-3478.967927,-153.219100,8216.285956
87208.851691,-3627.009116,-536.266849,8512.368333
87208.852021,-2812.782580,-766.095498,8216.285956
87208.852350,-2368.659014,612.876398,7105.977043
87208.852679,-1406.391290,1455.581446,7550.100608
87208.853008,-666.185348,1225.752797,7846.182985
87208.853338,-444.123565,229.828649,8808.450710
87208.853667,148.041188,0.000000,9400.615463
87208.853996,1480.411884,995.924147,10436.903782
87208.854325,2590.720797,0.000000,11177.109724
87208.854655,2664.741391,383.047749,11621.233289
87208.854984,2442.679609,612.876398,9918.759623
87208.855313,2886.803174,1225.752797,10214.842000
