#time,accel_x,accel_y,accel_z
5649.164183,-2146.597232,2604.724693,11325.150913
5649.164506,-222.061783,4136.915689,9992.780217
5649.164830,1332.370696,4979.620737,8142.265362
5649.165153,370.102971,4596.572988,7624.121203
5649.165477,222.061783,3677.258390,7402.059420
5649.165800,592.164754,3140.991542,7254.018232
5649.166124,518.144159,2987.772442,6291.750507
5649.166447,0.000000,2757.943793,7105.977043
5649.166770,-148.041188,2681.334243,8216.285956
5649.167094,296.082377,2451.505594,9474.636058
5649.167417,222.061783,2298.286494,9030.512492
5649.167741,-518.144159,2298.286494,9030.512492
5649.168064,-1480.411884,1685.410096,10658.965565
5649.168388,-1554.432478,1455.581446,11399.171507
5649.168711,-1998.556043,1838.629195,10955.047942
5649.169034,-2146.597232,1608.800546,9918.759623
5649.169358,-2886.803174,1225.752797,9548.656652
5649.169681,-3478.967927,995.924147,9400.615463
5649.170005,-3330.926739,995.924147,8364.327145
5649.170328,-3182.885551,1455.581446,8512.368333
5649.170652,-2516.700203,1532.190996,8660.409521
5649.170975,-2590.720797,1915.238745,9400.615463
5649.171299,-1776.494261,2451.505594,9622.677246
5649.171622,-1702.473667,3217.601092,9622.677246
5649.171945,-2590.720797,3677.258390,10436.903782
5649.172269,-2590.720797,3140.991542,12139.377449
5649.172592,-2368.659014,3217.601092,12361.439231
5649.172916,-2220.617826,3830.477490,11695.253884
5649.173239,-2368.659014,3447.429741,10807.006753
5649.173563,-3923.091493,2681.334243,10658.965565
5649.173886,-3478.967927,3294.210641,9844.739029
5649.174210,-4145.153275,2451.505594,8586.388927
5649.174533,-5255.462188,2834.553343,7476.080014
5649.174856,-6365.771101,2528.115143,7624.121203
5649.175180,-7105.977043,2757.943793,8068.244768
5649.175503,-6883.915261,3524.039291,7624.121203
5649.175827,-7105.977043,4290.134789,7254.018232
5649.176150,-7846.182985,4903.011187,9030.512492
5649.176474,-7254.018232,4903.011187,9474.636058
5649.176797,-6291.750507,5669.106685,8808.450710
5649.177120,-4737.318029,6894.859482,7476.080014
5649.177444,-3997.112087,6358.592633,7179.997637
5649.177767,-3849.070898,5209.449386,7402.059420
5649.178091,-2368.659014,4673.182538,7031.956449
5649.178414,-2072.576638,5132.839837,6365.771101
5649.178738,-2072.576638,4366.744339,6217.729913
5649.179061,-2664.741391,4213.525239,7476.080014
5649.179385,-2590.720797,3677.258390,8586.388927
5649.179708,-1036.288319,4060.306139,8734.430116
5649.180031,-296.082377,4826.401637,8660.409521
5649.180355,74.020594,4443.353888,9918.759623
5649.180678,1258.350101,5209.449386,10807.006753
5649.181002,1480.411884,4903.011187,10584.944971
5649.181325,1850.514855,5439.278036,9474.636058
5649.181649,148.041188,4519.963438,10214.842000
5649.181972,-740.205942,3217.601092,11177.109724
5649.182296,-444.123565,2604.724693,10510.924376
5649.182619,-444.123565,2451.505594,9400.615463
5649.182942,-592.164754,1915.238745,9474.636058
5649.183266,-740.205942,1532.190996,10658.965565
5649.183589,-888.247130,1072.533697,10140.821405
5649.183913,-592.164754,1149.143247,9918.759623
5649.184236,-444.123565,1532.190996,9992.780217
5649.184560,518.144159,919.314598,10066.800811
5649.184883,1258.350101,536.266849,9992.780217
5649.185206,1110.308913,766.095498,9400.615463
5649.185530,592.164754,229.828649,9252.574275
5649.185853,-1406.391290,-766.095498,10436.903782
5649.186177,-3478.967927,-1072.533697,10955.047942
5649.186500,-2590.720797,-842.705048,10955.047942
5649.186824,-3182.885551,-995.924147,9474.636058
5649.187147,-2886.803174,-536.266849,9400.615463
5649.187470,-2368.659014,-536.266849,9918.759623
5649.187793,-1554.432478,919.314598,9770.718434
5649.188116,-222.061783,1762.019645,8290.306550
5649.188439,0.000000,1378.971896,7698.141797
5649.188762,666.185348,919.314598,8142.265362
5649.189085,740.205942,689.485948,7402.059420
5649.189408,-370.102971,153.219100,7105.977043
5649.189731,-2072.576638,-229.828649,8068.244768
5649.190055,-4367.215058,-1608.800546,9918.759623
5649.190378,-4959.379811,-1685.410096,9992.780217
5649.190701,-5403.503377,-1149.143247,10214.842000
5649.191024,-5773.606348,-612.876398,9918.759623
5649.191347,-5329.482782,153.219100,11769.274478
5649.191670,-3552.988522,1302.362347,11769.274478
5649.191993,-740.205942,2604.724693,10732.986159
5649.192316,518.144159,3447.429741,8364.327145
5649.192639,444.123565,2834.553343,8142.265362
5649.192962,370.102971,2374.896044,7920.203579
5649.193285,518.144159,2528.115143,8512.368333
5649.193608,592.164754,1915.238745,7179.997637
5649.193931,-1110.308913,689.485948,8142.265362
5649.194255,-2960.823768,-842.705048,8956.491898
5649.194578,-2960.823768,-153.219100,9844.739029
5649.194901,-3256.906145,842.705048,10140.821405
5649.195224,-2294.638420,919.314598,11029.068536
5649.195547,-592.164754,2374.896044,11843.295072
5649.195870,1332.370696,2757.943793,11251.130318
5649.196193,3256.906145,4290.134789,9548.656652
5649.196516,3182.885551,4826.401637,8512.368333
5649.196839,3182.885551,5056.230287,9104.533087
5649.197162,3404.947333,3370.820191,8586.388927
5649.197485,2886.803174,3370.820191,7624.121203
5649.197808,2812.782580,3140.991542,6069.688724
5649.198132,1850.514855,1532.190996,6365.771101
5649.198455,1332.370696,1149.143247,7179.997637
5649.198778,1036.288319,1455.581446,7920.203579
5649.199101,74.020594,1149.143247,8290.306550
5649.199424,-814.226536,766.095498,9622.677246
5649.199747,-1110.308913,612.876398,10436.903782
5649.200070,-444.123565,1762.019645,11029.068536
5649.200393,518.144159,1915.238745,10658.965565
5649.200716,-814.226536,1685.410096,10807.006753
5649.201039,-1332.370696,842.705048,10807.006753
5649.201362,-592.164754,536.266849,9770.718434
5649.201685,-74.020594,0.000000,8068.244768
5649.202009,74.020594,0.000000,6513.812290
5649.202332,-370.102971,-1072.533697,7105.977043
5649.202655,-814.226536,-1608.800546,7698.141797
5649.202978,296.082377,-1225.752797,8438.347739
5649.203301,0.000000,-766.095498,8586.388927
5649.203624,0.000000,-995.924147,9844.739029
5649.203947,-1258.350101,-1455.581446,11473.192101
5649.204270,-296.082377,-383.047749,11991.336260
5649.204593,740.205942,306.438199,11325.150913
5649.204916,814.226536,383.047749,11695.253884
5649.205239,518.144159,-459.657299,12065.356855
5649.205562,0.000000,-766.095498,11103.089130
5649.205886,-370.102971,-536.266849,9474.636058
5649.206209,-444.123565,-612.876398,8142.265362
5649.206532,-1998.556043,-1608.800546,8216.285956
5649.206855,-1480.411884,-2298.286494,8290.306550
5649.207178,-2368.659014,-2451.505594,7772.162391
5649.207501,-3256.906145,-1915.238745,7846.182985
5649.207824,-2886.803174,-1838.629195,9030.512492
5649.208147,-2072.576638,-995.924147,9992.780217
5649.208470,-222.061783,-229.828649,9918.759623
5649.208793,0.000000,-689.485948,9474.636058
5649.209116,-370.102971,-383.047749,9696.697840
5649.209439,-296.082377,-229.828649,10140.821405
5649.209763,222.061783,0.000000,9622.677246
5649.210086,666.185348,153.219100,8808.450710
5649.210409,-370.102971,-229.828649,9474.636058
5649.210732,-740.205942,-306.438199,9622.677246
5649.211055,74.020594,153.219100,9474.636058
5649.211378,1998.556043,1072.533697,8512.368333
5649.211701,2664.741391,1149.143247,8290.306550
5649.212024,2368.659014,842.705048,9400.615463
5649.212347,2664.741391,1685.410096,9918.759623
5649.212670,2886.803174,2068.457845,8956.491898
5649.212993,2516.700203,2145.067394,8586.388927
5649.213316,1332.370696,1532.190996,9474.636058
5649.213640,814.226536,689.485948,9992.780217
5649.213963,0.000000,306.438199,9474.636058
5649.214286,592.164754,919.314598,9252.574275
5649.214609,-222.061783,1072.533697,9770.718434
5649.214932,-592.164754,383.047749,9918.759623
5649.215255,370.102971,229.828649,9252.574275
5649.215578,444.123565,229.828649,8216.285956
5649.215901,592.164754,1378.971896,7624.121203
5649.216224,1036.288319,1762.019645,9400.615463
5649.216547,444.123565,1762.019645,9474.636058
5649.216870,740.205942,2145.067394,9326.594869
5649.217193,-1258.350101,1762.019645,8956.491898
5649.217517,-814.226536,1608.800546,9548.656652
5649.217840,0.000000,1455.581446,9548.656652
5649.218163,518.144159,1378.971896,8956.491898
5649.218486,74.020594,1149.143247,7920.203579
5649.218809,-1850.514855,612.876398,8364.327145
5649.219132,-2072.576638,306.438199,8808.450710
5649.219455,-1480.411884,536.266849,8216.285956
5649.219778,-1924.535449,229.828649,8364.327145
5649.220101,-2368.659014,229.828649,9178.553681
5649.220424,-2368.659014,-153.219100,10362.883188
5649.220747,-1184.329507,536.266849,9622.677246
5649.221070,-296.082377,1455.581446,9104.533087
5649.221394,-962.267725,612.876398,8660.409521
5649.221717,-296.082377,153.219100,9770.718434
5649.222040,-518.144159,76.609550,9474.636058
5649.222363,-222.061783,995.924147,8956.491898
5649.222686,148.041188,459.657299,8438.347739
5649.223009,-1628.453072,-1072.533697,9770.718434
5649.223332,-2146.597232,-919.314598,10436.903782
5649.223655,-2294.638420,-536.266849,10436.903782
5649.223978,-1924.535449,0.000000,9548.656652
5649.224301,-444.123565,0.000000,9622.677246
5649.224624,666.185348,0.000000,9918.759623
5649.224947,1110.308913,919.314598,9030.512492
5649.225271,592.164754,76.609550,8586.388927
5649.225594,370.102971,689.485948,8734.430116
5649.225917,888.247130,0.000000,10066.800811
5649.226240,666.185348,-306.438199,9622.677246
5649.226563,518.144159,-306.438199,9696.697840
5649.226886,0.000000,-459.657299,9696.697840
5649.227209,222.061783,-842.705048,11029.068536
5649.227532,1702.473667,-1072.533697,10362.883188
5649.227855,1702.473667,0.000000,9844.739029
5649.228178,1480.411884,0.000000,9474.636058
5649.228501,1332.370696,0.000000,10288.862594
5649.228824,2072.576638,229.828649,9992.780217
5649.229148,2812.782580,919.314598,9030.512492
5649.229471,888.247130,459.657299,8734.430116
5649.229794,222.061783,0.000000,9030.512492
5649.230117,-592.164754,-689.485948,9474.636058
5649.230440,-592.164754,459.657299,8438.347739
5649.230763,518.144159,689.485948,7920.203579
5649.231086,-370.102971,0.000000,8808.450710
5649.231409,-1110.308913,-229.828649,9030.512492
5649.231732,-370.102971,0.000000,8808.450710
5649.232055,-740.205942,-153.219100,8808.450710
5649.232378,-1184.329507,1455.581446,8438.347739
5649.232701,-1480.411884,306.438199,9918.759623
5649.233025,-888.247130,229.828649,9622.677246
5649.233348,-740.205942,612.876398,9178.553681
5649.233671,-1110.308913,842.705048,8956.491898
5649.233994,-296.082377,842.705048,9844.739029
5649.234317,0.000000,995.924147,9474.636058
5649.234640,222.061783,1072.533697,9030.512492
5649.234963,666.185348,1455.581446,8882.471304
5649.235286,-962.267725,689.485948,9326.594869
5649.235609,-666.185348,536.266849,9548.656652
5649.235932,-592.164754,536.266849,10140.821405
5649.236255,-2220.617826,1149.143247,9918.759623
5649.236578,-2368.659014,1302.362347,10658.965565
5649.236902,-2960.823768,612.876398,10436.903782
5649.237225,-370.102971,1608.800546,10214.842000
5649.237548,148.041188,2068.457845,8438.347739
5649.237871,-1036.288319,1455.581446,8512.368333
5649.238194,-1110.308913,995.924147,8956.491898
5649.238517,-1332.370696,919.314598,9178.553681
5649.238840,-1332.370696,2528.115143,7994.224174
5649.239163,-888.247130,766.095498,8290.306550
5649.239486,-2590.720797,1072.533697,9252.574275
5649.239809,-1924.535449,689.485948,9474.636058
5649.240132,-1036.288319,1762.019645,8808.450710
5649.240455,-370.102971,2221.676944,8290.306550
5649.240779,74.020594,1991.848295,9326.594869
5649.241102,592.164754,612.876398,9178.553681
5649.241425,1110.308913,1991.848295,8364.327145
5649.241748,1258.350101,2451.505594,7772.162391
5649.242071,814.226536,1608.800546,8956.491898
5649.242394,740.205942,1455.581446,10066.800811
5649.242717,-222.061783,919.314598,9918.759623
5649.243040,-1036.288319,1378.971896,9030.512492
5649.243363,-962.267725,1532.190996,9326.594869
5649.243686,148.041188,689.485948,9548.656652
5649.244009,1110.308913,612.876398,9252.574275
5649.244332,740.205942,1225.752797,8512.368333
5649.244655,518.144159,383.047749,9178.553681
5649.244979,0.000000,766.095498,9696.697840
5649.245302,296.082377,919.314598,10066.800811
5649.245625,740.205942,306.438199,9326.594869
5649.245948,-888.247130,153.219100,9696.697840
5649.246271,-1702.473667,-612.876398,9992.780217
5649.246594,-148.041188,153.219100,9992.780217
5649.246917,0.000000,76.609550,9178.553681
5649.247240,592.164754,0.000000,8882.471304
5649.247563,-296.082377,-459.657299,9326.594869
5649.247886,-518.144159,-383.047749,9844.739029
5649.248209,666.185348,76.609550,9030.512492
5649.248532,296.082377,-229.828649,9178.553681
5649.248856,74.020594,229.828649,9696.697840
5649.249179,-1036.288319,-766.095498,10584.944971
5649.249502,-962.267725,-229.828649,10362.883188
5649.249825,222.061783,689.485948,9400.615463
5649.250148,148.041188,842.705048,9178.553681
5649.250471,444.123565,459.657299,9696.697840
5649.250794,444.123565,0.000000,9622.677246
5649.251117,518.144159,689.485948,8882.471304
5649.251440,518.144159,76.609550,8068.244768
5649.251763,-740.205942,0.000000,9178.553681
5649.252086,-814.226536,-383.047749,9770.718434
5649.252409,-666.185348,-459.657299,9622.677246
5649.252733,-1332.370696,153.219100,9178.553681
5649.253056,-1036.288319,0.000000,9400.615463
5649.253379,0.000000,612.876398,10288.862594
5649.253702,1480.411884,1072.533697,9400.615463
5649.254025,1258.350101,1378.971896,8586.388927
5649.254348,296.082377,689.485948,8808.450710
5649.254671,592.164754,612.876398,9770.718434
5649.254994,518.144159,919.314598,9400.615463
5649.255317,814.226536,1225.752797,8956.491898
5649.255640,-814.226536,919.314598,9400.615463
5649.255963,-2072.576638,0.000000,10362.883188
5649.256286,-1110.308913,536.266849,9992.780217
5649.256610,-592.164754,1072.533697,9104.533087
5649.256933,-518.144159,766.095498,8364.327145
5649.257256,-370.102971,459.657299,9178.553681
5649.257579,0.000000,536.266849,9474.636058
5649.257902,814.226536,1838.629195,8364.327145
5649.258225,296.082377,1608.800546,7994.224174
5649.258548,-444.123565,1225.752797,9326.594869
5649.258871,0.000000,919.314598,9918.759623
5649.259194,-370.102971,995.924147,9474.636058
5649.259517,518.144159,2145.067394,8882.471304
5649.259840,296.082377,1991.848295,9400.615463
5649.260163,0.000000,1608.800546,9770.718434
5649.260487,1332.370696,995.924147,9474.636058
5649.260810,814.226536,1225.752797,8364.327145
5649.261133,444.123565,1608.800546,8882.471304
5649.261456,-296.082377,1302.362347,9770.718434
5649.261779,-444.123565,1072.533697,10140.821405
5649.262102,0.000000,1532.190996,9400.615463
5649.262425,-1184.329507,1302.362347,8438.347739
5649.262748,-2072.576638,1072.533697,9400.615463
5649.263071,-1036.288319,842.705048,9474.636058
5649.263394,-814.226536,919.314598,8512.368333
5649.263717,0.000000,1149.143247,7994.224174
5649.264040,-1258.350101,536.266849,8438.347739
5649.264364,-1998.556043,-153.219100,8882.471304
5649.264687,-740.205942,1225.752797,8290.306550
5649.265010,-888.247130,76.609550,8438.347739
5649.265333,-444.123565,306.438199,9104.533087
5649.265656,-740.205942,0.000000,10436.903782
5649.265979,592.164754,229.828649,10510.924376
5649.266302,2368.659014,1072.533697,9474.636058
5649.266625,2072.576638,689.485948,9474.636058
5649.266948,1998.556043,0.000000,10066.800811
5649.267271,1998.556043,-689.485948,10807.006753
5649.267594,1332.370696,459.657299,9326.594869
5649.267917,1702.473667,76.609550,9770.718434
5649.268241,0.000000,-842.705048,9548.656652
5649.268564,-592.164754,-1225.752797,10288.862594
5649.268887,-1110.308913,-995.924147,9844.739029
5649.269210,-1332.370696,-306.438199,9030.512492
5649.269533,-518.144159,-153.219100,9326.594869
5649.269856,0.000000,-919.314598,9104.533087
5649.270179,148.041188,-612.876398,8734.430116
5649.270502,-444.123565,-229.828649,8364.327145
5649.270825,-814.226536,-919.314598,8882.471304
5649.271148,-444.123565,-919.314598,9178.553681
5649.271471,-888.247130,-459.657299,9400.615463
5649.271794,-296.082377,-383.047749,9696.697840
5649.272118,-1036.288319,-612.876398,9474.636058
5649.272441,-814.226536,-1378.971896,9992.780217
5649.272764,592.164754,0.000000,10066.800811
5649.273087,1850.514855,306.438199,9104.533087
5649.273410,1036.288319,76.609550,9104.533087
5649.273733,592.164754,383.047749,9474.636058
5649.274056,1776.494261,153.219100,9326.594869
5649.274379,1998.556043,306.438199,8660.409521
5649.274702,1110.308913,612.876398,8512.368333
5649.275025,-518.144159,-229.828649,10140.821405
5649.275348,-1036.288319,-76.609550,10732.986159
5649.275671,-1036.288319,306.438199,9696.697840
5649.275995,-370.102971,995.924147,8882.471304
5649.276318,-370.102971,766.095498,9474.636058
5649.276641,-1332.370696,-229.828649,9326.594869
5649.276964,-962.267725,459.657299,9548.656652
5649.277287,-1480.411884,1378.971896,8438.347739
5649.277610,-1406.391290,919.314598,8586.388927
5649.277933,-1924.535449,306.438199,9252.574275
5649.278256,-2072.576638,459.657299,9918.759623
5649.278579,-962.267725,1072.533697,9326.594869
5649.278902,-1850.514855,1149.143247,8438.347739
5649.279225,-1258.350101,1302.362347,9252.574275
5649.279548,0.000000,1072.533697,9622.677246
5649.279872,444.123565,1149.143247,8808.450710
5649.280195,962.267725,1762.019645,7994.224174
5649.280518,-296.082377,1685.410096,9030.512492
5649.280841,0.000000,919.314598,10066.800811
5649.281164,518.144159,995.924147,9474.636058
5649.281487,-518.144159,1838.629195,9326.594869
5649.281810,-296.082377,1762.019645,9770.718434
5649.282133,-740.205942,1608.800546,10288.862594
5649.282456,444.123565,1762.019645,9622.677246
5649.282779,962.267725,1608.800546,9104.533087
5649.283102,-444.123565,1225.752797,8438.347739
5649.283425,-1332.370696,689.485948,9030.512492
5649.283749,-1554.432478,1149.143247,9252.574275
5649.284072,-592.164754,995.924147,8808.450710
5649.284395,-518.144159,995.924147,8142.265362
5649.284718,-2442.679609,76.609550,9178.553681
5649.285041,-2664.741391,0.000000,9178.553681
5649.285364,-1480.411884,1149.143247,9030.512492
5649.285687,-962.267725,1378.971896,7328.038826
5649.286010,0.000000,1149.143247,8512.368333
5649.286333,444.123565,689.485948,8882.471304
5649.286656,1258.350101,689.485948,9252.574275
5649.286979,1036.288319,1378.971896,8216.285956
5649.287303,296.082377,995.924147,9178.553681
5649.287626,1110.308913,306.438199,10732.986159
5649.287949,592.164754,536.266849,10658.965565
5649.288272,888.247130,612.876398,10066.800811
5649.288595,592.164754,842.705048,9548.656652
5649.288918,148.041188,306.438199,10362.883188
5649.289242,666.185348,0.000000,10066.800811
5649.289565,962.267725,383.047749,9400.615463
5649.289888,74.020594,76.609550,8808.450710
5649.290211,-444.123565,0.000000,8956.491898
5649.290534,-518.144159,76.609550,9770.718434
5649.290858,444.123565,0.000000,9400.615463
5649.291181,-666.185348,0.000000,8956.491898
5649.291504,-2072.576638,-1072.533697,9548.656652
5649.291827,-1480.411884,-766.095498,10140.821405
5649.292150,-666.185348,-536.266849,9326.594869
5649.292474,444.123565,0.000000,8364.327145
5649.292797,-148.041188,-306.438199,8290.306550
5649.293120,-740.205942,-689.485948,9622.677246
5649.293443,222.061783,-536.266849,9844.739029
5649.293766,740.205942,459.657299,8956.491898
5649.294089,370.102971,0.000000,9400.615463
5649.294413,-296.082377,-229.828649,10510.924376
5649.294736,-296.082377,76.609550,11103.089130
5649.295059,1184.329507,612.876398,9400.615463
5649.295382,1036.288319,1455.581446,9252.574275
5649.295705,444.123565,766.095498,9178.553681
5649.296029,0.000000,0.000000,9548.656652
5649.296352,0.000000,153.219100,8956.491898
5649.296675,148.041188,1149.143247,8438.347739
5649.296998,-1110.308913,689.485948,9104.533087
5649.297321,-1406.391290,0.000000,9252.574275
5649.297644,-1332.370696,76.609550,9696.697840
5649.297968,-2442.679609,689.485948,9326.594869
5649.298291,-2072.576638,919.314598,9252.574275
5649.298614,-1554.432478,995.924147,10066.800811
5649.298937,370.102971,1302.362347,9844.739029
5649.299260,1258.350101,1455.581446,8956.491898
5649.299584,370.102971,1608.800546,8808.450710
5649.299907,518.144159,1532.190996,9474.636058
5649.300230,444.123565,1302.362347,9622.677246
5649.300553,370.102971,1762.019645,9622.677246
5649.300876,148.041188,1762.019645,8882.471304
5649.301200,-1850.514855,1149.143247,9474.636058
5649.301523,-1184.329507,1378.971896,9252.574275
5649.301846,370.102971,2145.067394,8956.491898
5649.302169,0.000000,2757.943793,7994.224174
5649.302492,74.020594,1762.019645,8734.430116
5649.302815,-962.267725,1991.848295,9030.512492
5649.303139,296.082377,1915.238745,8216.285956
5649.303462,296.082377,2374.896044,7402.059420
5649.303785,-444.123565,1915.238745,8364.327145
5649.304108,-1332.370696,1302.362347,9770.718434
5649.304431,-1924.535449,1149.143247,9030.512492
5649.304755,-740.205942,995.924147,8438.347739
5649.305078,-592.164754,1378.971896,8512.368333
5649.305401,-962.267725,919.314598,9474.636058
5649.305724,0.000000,766.095498,9844.739029
5649.306047,666.185348,995.924147,8956.491898
5649.306371,444.123565,1838.629195,8512.368333
5649.306694,666.185348,1378.971896,9400.615463
5649.307017,1110.308913,689.485948,10362.883188
5649.307340,1776.494261,766.095498,10214.842000
5649.307663,814.226536,1302.362347,9252.574275
5649.307986,370.102971,766.095498,10214.842000
5649.308310,1184.329507,536.266849,10510.924376
5649.308633,1406.391290,766.095498,9918.759623
5649.308956,1628.453072,-306.438199,9178.553681
5649.309279,592.164754,383.047749,9178.553681
5649.309602,-370.102971,-612.876398,9844.739029
5649.309926,370.102971,-229.828649,9474.636058
5649.310249,0.000000,-229.828649,9030.512492
5649.310572,-1406.391290,-536.266849,9252.574275
5649.310895,-1850.514855,-842.705048,10214.842000
5649.311218,-2146.597232,-995.924147,9918.759623
5649.311542,148.041188,-689.485948,8734.430116
5649.311865,222.061783,153.219100,7920.203579
5649.312188,0.000000,-1378.971896,8882.471304
5649.312511,-222.061783,-1225.752797,8956.491898
5649.312834,222.061783,-689.485948,8808.450710
5649.313157,518.144159,0.000000,8512.368333
5649.313481,-222.061783,-383.047749,9104.533087
5649.313804,-1332.370696,-1149.143247,9844.739029
5649.314127,-592.164754,-1302.362347,10140.821405
5649.314450,-370.102971,-306.438199,9326.594869
5649.314773,148.041188,229.828649,9770.718434
5649.315097,962.267725,383.047749,10362.883188
5649.315420,1332.370696,76.609550,10066.800811
5649.315743,2220.617826,306.438199,9400.615463
5649.316066,518.144159,536.266849,8512.368333
5649.316389,444.123565,306.438199,9548.656652
5649.316712,74.020594,76.609550,10066.800811
5649.317036,-592.164754,153.219100,9918.759623
5649.317359,-962.267725,0.000000,9474.636058
5649.317682,-1702.473667,0.000000,10066.800811
5649.318005,-962.267725,0.000000,9474.636058
5649.318328,0.000000,919.314598,9252.574275
5649.318652,-222.061783,842.705048,8512.368333
5649.318975,-444.123565,459.657299,9178.553681
5649.319298,-518.144159,995.924147,9770.718434
5649.319621,444.123565,1378.971896,9474.636058
5649.319944,370.102971,1838.629195,9178.553681
5649.320268,-1924.535449,1302.362347,9474.636058
5649.320591,-1258.350101,689.485948,10584.944971
5649.320914,-740.205942,1455.581446,9622.677246
5649.321237,296.082377,1991.848295,8512.368333
5649.321560,518.144159,1685.410096,7624.121203
5649.321883,-1036.288319,1072.533697,8586.388927
5649.322207,-962.267725,1225.752797,8438.347739
5649.322530,0.000000,1838.629195,8068.244768
5649.322853,148.041188,1685.410096,7476.080014
5649.323176,-740.205942,2298.286494,8364.327145
5649.323499,-1554.432478,842.705048,9548.656652
5649.323823,-296.082377,1532.190996,9104.533087
5649.324146,74.020594,2145.067394,7920.203579
5649.324469,-666.185348,1762.019645,8438.347739
5649.324792,444.123565,1532.190996,9474.636058
5649.325115,666.185348,1608.800546,8882.471304
5649.325439,592.164754,1838.629195,7920.203579
5649.325762,222.061783,1838.629195,8438.347739
5649.326085,-814.226536,383.047749,9770.718434
5649.326408,0.000000,536.266849,10066.800811
5649.326731,0.000000,766.095498,9696.697840
5649.327054,-1406.391290,306.438199,9400.615463
5649.327378,-1110.308913,842.705048,10140.821405
5649.327701,-148.041188,842.705048,10140.821405
5649.328024,1628.453072,1149.143247,9178.553681
5649.328347,592.164754,919.314598,8956.491898
5649.328670,74.020594,0.000000,9178.553681
5649.328994,148.041188,-306.438199,9696.697840
5649.329317,370.102971,153.219100,9252.574275
5649.329640,814.226536,612.876398,9104.533087
5649.329963,-370.102971,-612.876398,9992.780217
5649.330286,-1776.494261,-612.876398,10732.986159
5649.330609,-296.082377,-1225.752797,10214.842000
5649.330933,0.000000,0.000000,9326.594869
5649.331256,592.164754,153.219100,9030.512492
5649.331579,296.082377,-536.266849,9770.718434
5649.331902,518.144159,-766.095498,9548.656652
5649.332225,1110.308913,-612.876398,8660.409521
5649.332549,222.061783,-229.828649,8660.409521
5649.332872,-222.061783,-1072.533697,9400.615463
5649.333195,-592.164754,-995.924147,9992.780217
5649.333518,-1184.329507,-689.485948,9548.656652
5649.333841,0.000000,-229.828649,8586.388927
5649.334165,-962.267725,-229.828649,9252.574275
5649.334488,0.000000,-229.828649,9400.615463
5649.334811,666.185348,-995.924147,8956.491898
5649.335134,-222.061783,-383.047749,8364.327145
5649.335457,148.041188,0.000000,8068.244768
5649.335780,0.000000,-306.438199,9770.718434
5649.336104,666.185348,76.609550,10066.800811
5649.336427,296.082377,0.000000,9622.677246
5649.336750,-1480.411884,-229.828649,9770.718434
5649.337073,-1036.288319,0.000000,10510.924376
5649.337396,-888.247130,76.609550,10658.965565
5649.337720,296.082377,153.219100,10140.821405
5649.338043,148.041188,76.609550,9178.553681
5649.338366,-1036.288319,-536.266849,9622.677246
5649.338689,-666.185348,0.000000,9474.636058
5649.339012,-370.102971,612.876398,8956.491898
5649.339336,-518.144159,689.485948,9030.512492
5649.339659,-740.205942,383.047749,9622.677246
5649.339982,-1332.370696,1149.143247,9992.780217
5649.340305,0.000000,1302.362347,9252.574275
5649.340628,888.247130,1991.848295,8586.388927
5649.340951,740.205942,1838.629195,8660.409521
5649.341275,148.041188,1225.752797,9474.636058
5649.341598,666.185348,1608.800546,9474.636058
5649.341921,518.144159,2528.115143,8142.265362
5649.342244,222.061783,2145.067394,8364.327145
5649.342567,-814.226536,1378.971896,9622.677246
5649.342891,-592.164754,1149.143247,9548.656652
5649.343214,-1406.391290,1608.800546,9252.574275
5649.343537,-1554.432478,2068.457845,8882.471304
5649.343860,-592.164754,2145.067394,9252.574275
5649.344183,-444.123565,2145.067394,9178.553681
5649.344507,740.205942,2145.067394,8364.327145
5649.344830,592.164754,2528.115143,7772.162391
5649.345153,0.000000,1838.629195,8512.368333
5649.345476,148.041188,1685.410096,8808.450710
5649.345799,0.000000,1455.581446,9400.615463
5649.346122,-296.082377,1762.019645,9252.574275
5649.346446,-1850.514855,1225.752797,10066.800811
5649.346769,-2220.617826,153.219100,9844.739029
5649.347092,-518.144159,995.924147,9252.574275
5649.347415,296.082377,1302.362347,8956.491898
5649.347738,0.000000,1072.533697,8882.471304
5649.348062,-592.164754,842.705048,9770.718434
5649.348385,0.000000,766.095498,9252.574275
5649.348708,1406.391290,1225.752797,8216.285956
5649.349031,666.185348,1302.362347,8438.347739
5649.349354,222.061783,0.000000,9918.759623
5649.349677,-444.123565,0.000000,10214.842000
5649.350001,0.000000,76.609550,9326.594869
5649.350324,592.164754,536.266849,8734.430116
5649.350647,0.000000,0.000000,9474.636058
5649.350970,222.061783,-995.924147,9252.574275
5649.351293,814.226536,-766.095498,9474.636058
5649.351617,592.164754,0.000000,9104.533087
5649.351940,740.205942,-306.438199,9622.677246
5649.352263,222.061783,-766.095498,10510.924376
5649.352586,592.164754,-766.095498,10732.986159
5649.352909,148.041188,-383.047749,9918.759623
5649.353233,-1332.370696,-842.705048,10510.924376
5649.353556,0.000000,-1302.362347,9844.739029
5649.353879,592.164754,-995.924147,10362.883188
5649.354202,518.144159,-689.485948,9104.533087
5649.354525,0.000000,-1302.362347,9030.512492
5649.354848,-1110.308913,-1685.410096,9030.512492
5649.355172,-592.164754,-1455.581446,9770.718434
5649.355495,-296.082377,-612.876398,9474.636058
5649.355818,-1480.411884,-2068.457845,9622.677246
5649.356141,-2368.659014,-2374.896044,10436.903782
5649.356464,-1776.494261,-995.924147,10955.047942
5649.356788,0.000000,0.000000,9770.718434
5649.357111,740.205942,459.657299,8882.471304
5649.357434,296.082377,76.609550,9326.594869
5649.357757,444.123565,76.609550,9400.615463
5649.358080,666.185348,229.828649,8290.306550
5649.358404,1110.308913,1455.581446,8068.244768
5649.358727,296.082377,1302.362347,9252.574275
5649.359050,-1924.535449,383.047749,9844.739029
5649.359373,-1850.514855,612.876398,9696.697840
5649.359696,-1702.473667,1685.410096,8734.430116
5649.360019,-592.164754,1915.238745,8142.265362
5649.360343,-222.061783,1838.629195,8808.450710
5649.360666,-148.041188,1915.238745,8956.491898
5649.360989,666.185348,2068.457845,8364.327145
5649.361312,-222.061783,2068.457845,7624.121203
5649.361635,-370.102971,2145.067394,8808.450710
5649.361959,-370.102971,1762.019645,9696.697840
5649.362282,-1480.411884,1532.190996,9178.553681
5649.362605,-518.144159,2145.067394,9326.594869
5649.362928,-1850.514855,1991.848295,9474.636058
5649.363251,-1480.411884,2068.457845,9770.718434
5649.363574,-444.123565,1991.848295,9548.656652
5649.363898,-296.082377,2145.067394,8734.430116
5649.364221,-370.102971,2374.896044,8808.450710
5649.364544,-222.061783,2221.676944,9918.759623
5649.364867,148.041188,2604.724693,9030.512492
5649.365190,1110.308913,2374.896044,8068.244768
5649.365514,-148.041188,1762.019645,8586.388927
5649.365837,-888.247130,1532.190996,9400.615463
5649.366160,0.000000,1685.410096,9770.718434
5649.366483,962.267725,2451.505594,8882.471304
5649.366806,2072.576638,1838.629195,8216.285956
5649.367130,370.102971,1991.848295,8586.388927
5649.367453,518.144159,1149.143247,8956.491898
5649.367776,1332.370696,1455.581446,8808.450710
5649.368099,592.164754,1532.190996,9178.553681
5649.368422,962.267725,919.314598,8956.491898
5649.368745,-296.082377,76.609550,10436.903782
5649.369069,0.000000,842.705048,9696.697840
5649.369392,1036.288319,1072.533697,8882.471304
5649.369715,222.061783,-459.657299,8956.491898
5649.370038,222.061783,76.609550,9548.656652
5649.370361,148.041188,-919.314598,9400.615463
5649.370685,0.000000,-919.314598,8956.491898
5649.371008,-592.164754,-919.314598,8808.450710
5649.371331,-1554.432478,-1762.019645,9548.656652
5649.371654,-1184.329507,-1762.019645,9918.759623
5649.371977,-666.185348,-2298.286494,9770.718434
5649.372301,-1480.411884,-1608.800546,9548.656652
5649.372624,-1702.473667,-1455.581446,9918.759623
5649.372947,-370.102971,-1072.533697,10584.944971
5649.373270,1258.350101,-459.657299,9622.677246
5649.373593,1776.494261,-306.438199,9178.553681
5649.373916,666.185348,-1072.533697,9326.594869
5649.374240,888.247130,-766.095498,9918.759623
5649.374563,1332.370696,-153.219100,9622.677246
5649.374886,1258.350101,76.609550,8956.491898
5649.375209,0.000000,-1072.533697,9548.656652
5649.375532,-1184.329507,-1378.971896,10955.047942
5649.375856,-740.205942,-995.924147,10807.006753
5649.376179,370.102971,0.000000,9918.759623
5649.376502,74.020594,383.047749,9622.677246
5649.376825,-296.082377,-766.095498,9622.677246
5649.377148,0.000000,-536.266849,9548.656652
5649.377472,444.123565,459.657299,8808.450710
5649.377795,-370.102971,1072.533697,8364.327145
5649.378118,-592.164754,459.657299,9030.512492
5649.378441,-1332.370696,0.000000,9992.780217
5649.378764,-1850.514855,612.876398,9178.553681
5649.379087,-1480.411884,1838.629195,8364.327145
5649.379411,-1184.329507,1685.410096,8734.430116
5649.379734,-740.205942,1072.533697,10214.842000
5649.380057,0.000000,1225.752797,8956.491898
5649.380380,0.000000,1762.019645,8586.388927
5649.380703,0.000000,2145.067394,8290.306550
5649.381027,0.000000,2145.067394,9400.615463
5649.381350,444.123565,2145.067394,9474.636058
5649.381673,1258.350101,2451.505594,8660.409521
5649.381996,0.000000,2221.676944,8438.347739
5649.382319,-444.123565,2068.457845,9326.594869
5649.382642,0.000000,2298.286494,9548.656652
5649.382966,148.041188,2068.457845,8734.430116
5649.383289,444.123565,2298.286494,7994.224174
5649.383612,-1184.329507,1225.752797,8216.285956
5649.383935,-740.205942,1685.410096,9030.512492
5649.384258,222.061783,2145.067394,9104.533087
5649.384582,-148.041188,2298.286494,8586.388927
5649.384905,-518.144159,1762.019645,9252.574275
5649.385228,-1480.411884,1378.971896,10066.800811
5649.385551,-296.082377,1991.848295,10066.800811
5649.385874,1258.350101,2681.334243,9326.594869
5649.386198,1110.308913,2451.505594,8734.430116
5649.386521,962.267725,1455.581446,9770.718434
5649.386844,888.247130,919.314598,9918.759623
5649.387167,814.226536,1072.533697,8808.450710
5649.387490,592.164754,612.876398,8660.409521
5649.387814,-888.247130,-306.438199,9474.636058
5649.388137,-1332.370696,-536.266849,9992.780217
5649.388460,-1628.453072,-1302.362347,9474.636058
5649.388783,-1628.453072,229.828649,9178.553681
5649.389106,-1258.350101,0.000000,9326.594869
5649.389430,-592.164754,-536.266849,9770.718434
5649.389753,518.144159,0.000000,9252.574275
5649.390076,0.000000,-459.657299,8068.244768
5649.390399,-888.247130,-536.266849,8956.491898
5649.390723,0.000000,-1378.971896,9844.739029
5649.391046,-296.082377,-536.266849,9770.718434
5649.391369,-370.102971,-919.314598,9104.533087
5649.391692,-740.205942,-919.314598,9474.636058
5649.392015,-1554.432478,-1072.533697,10140.821405
5649.392339,444.123565,-689.485948,9844.739029
5649.392662,1480.411884,-689.485948,8808.450710
5649.392985,740.205942,-766.095498,8142.265362
5649.393308,666.185348,-766.095498,9844.739029
5649.393632,888.247130,-689.485948,9918.759623
5649.393955,2220.617826,-153.219100,9326.594869
5649.394278,1036.288319,-229.828649,8882.471304
5649.394601,-518.144159,-1302.362347,10362.883188
5649.394925,-1258.350101,-1302.362347,10658.965565
5649.395248,-814.226536,-995.924147,9696.697840
5649.395571,222.061783,0.000000,9474.636058
5649.395894,-888.247130,-995.924147,8956.491898
5649.396217,-1850.514855,-1302.362347,9992.780217
5649.396541,-1628.453072,-1378.971896,10066.800811
5649.396864,-1258.350101,-383.047749,8956.491898
5649.397187,-1110.308913,0.000000,8734.430116
5649.397510,-740.205942,153.219100,10288.862594
5649.397834,-1332.370696,0.000000,10288.862594
5649.398157,-740.205942,459.657299,9474.636058
5649.398480,-1036.288319,1149.143247,8956.491898
5649.398803,-296.082377,1072.533697,9474.636058
5649.399126,666.185348,1378.971896,9844.739029
5649.399450,888.247130,1685.410096,8808.450710
5649.399773,1702.473667,2068.457845,8216.285956
5649.400096,592.164754,1532.190996,8956.491898
5649.400419,370.102971,1225.752797,8882.471304
5649.400743,444.123565,1455.581446,9252.574275
5649.401066,-666.185348,1532.190996,8882.471304
5649.401389,-740.205942,1915.238745,9252.574275
5649.401712,-1332.370696,1838.629195,9622.677246
5649.402035,0.000000,2374.896044,9622.677246
5649.402359,592.164754,2451.505594,9030.512492
5649.402682,-222.061783,2681.334243,7994.224174
5649.403005,-592.164754,1685.410096,8734.430116
5649.403328,-962.267725,2221.676944,9178.553681
5649.403652,0.000000,2374.896044,8290.306550
5649.403975,-222.061783,1915.238745,8068.244768
5649.404298,-2664.741391,1149.143247,8956.491898
5649.404621,-2294.638420,536.266849,9992.780217
5649.404945,-1776.494261,1991.848295,9178.553681
5649.405268,-1036.288319,2604.724693,8216.285956
5649.405591,0.000000,2145.067394,9252.574275
5649.405914,296.082377,1378.971896,9548.656652
5649.406237,962.267725,1838.629195,9844.739029
5649.406561,1258.350101,2757.943793,8512.368333
5649.406884,444.123565,1991.848295,9326.594869
5649.407207,592.164754,1762.019645,9696.697840
5649.407530,296.082377,842.705048,10436.903782
5649.407854,0.000000,689.485948,9548.656652
5649.408177,-518.144159,689.485948,9474.636058
5649.408500,-1332.370696,0.000000,9844.739029
5649.408823,0.000000,0.000000,9548.656652
5649.409146,148.041188,0.000000,8882.471304
5649.409470,-370.102971,153.219100,8512.368333
5649.409793,-518.144159,-459.657299,9622.677246
5649.410116,-148.041188,-306.438199,9474.636058
5649.410439,444.123565,-306.438199,9252.574275
5649.410763,-370.102971,-306.438199,8734.430116
5649.411086,-2146.597232,-1149.143247,9992.780217
5649.411409,-666.185348,-536.266849,10510.924376
5649.411732,0.000000,229.828649,9474.636058
5649.412055,814.226536,-689.485948,8364.327145
5649.412379,74.020594,-536.266849,9252.574275
5649.412702,-370.102971,-1302.362347,9622.677246
5649.413025,444.123565,-1072.533697,9696.697840
5649.413348,888.247130,-153.219100,9104.533087
5649.413672,1036.288319,-995.924147,9474.636058
5649.413995,-740.205942,-1072.533697,10436.903782
5649.414318,-148.041188,-919.314598,10658.965565
5649.414641,888.247130,-612.876398,9474.636058
5649.414964,592.164754,153.219100,9030.512492
5649.415288,1110.308913,-153.219100,9622.677246
5649.415611,1110.308913,-536.266849,9992.780217
5649.415934,1184.329507,-536.266849,8956.491898
5649.416257,888.247130,0.000000,8364.327145
5649.416581,148.041188,-612.876398,9030.512492
5649.416904,-444.123565,-766.095498,9918.759623
5649.417227,-518.144159,-459.657299,10436.903782
5649.417550,-1406.391290,153.219100,9770.718434
5649.417874,-1184.329507,689.485948,9918.759623
5649.418197,-592.164754,536.266849,10140.821405
5649.418520,888.247130,1302.362347,9622.677246
5649.418843,1628.453072,1455.581446,9030.512492
5649.419166,370.102971,1225.752797,8734.430116
5649.419490,0.000000,1072.533697,9548.656652
5649.419813,0.000000,919.314598,9474.636058
5649.420136,-296.082377,1149.143247,9178.553681
5649.420459,-222.061783,1608.800546,8808.450710
5649.420783,-2368.659014,229.828649,9548.656652
5649.421106,-1776.494261,1225.752797,9844.739029
5649.421429,-222.061783,1838.629195,9178.553681
5649.421752,0.000000,1991.848295,8068.244768
5649.422075,-296.082377,1685.410096,8956.491898
5649.422399,0.000000,1915.238745,9252.574275
5649.422722,888.247130,2757.943793,8882.471304
5649.423045,1036.288319,2604.724693,7328.038826
5649.423368,0.000000,2374.896044,8364.327145
5649.423692,-740.205942,1838.629195,9696.697840
5649.424015,-1554.432478,1762.019645,9696.697840
5649.424338,-666.185348,2528.115143,8586.388927
5649.424661,-370.102971,2604.724693,7920.203579
5649.424984,-592.164754,2374.896044,8586.388927
5649.425308,296.082377,2298.286494,9104.533087
5649.425631,0.000000,2068.457845,8512.368333
5649.425954,-444.123565,2145.067394,8290.306550
5649.426277,-592.164754,1532.190996,8586.388927
5649.426601,0.000000,1072.533697,9252.574275
5649.426924,444.123565,1532.190996,9474.636058
5649.427247,-222.061783,1455.581446,9104.533087
5649.427570,-888.247130,612.876398,9474.636058
5649.427894,-740.205942,0.000000,9622.677246
5649.428217,666.185348,612.876398,9622.677246
5649.428540,740.205942,842.705048,9400.615463
5649.428863,222.061783,306.438199,9548.656652
5649.429186,0.000000,0.000000,10214.842000
5649.429510,1702.473667,766.095498,10066.800811
5649.429833,1702.473667,612.876398,10066.800811
5649.430156,370.102971,766.095498,9622.677246
5649.430479,-518.144159,0.000000,11177.109724
5649.430803,740.205942,0.000000,10436.903782
5649.431126,1702.473667,153.219100,9104.533087
5649.431449,962.267725,153.219100,8438.347739
5649.431772,518.144159,-842.705048,9178.553681
5649.432095,-370.102971,-1149.143247,9178.553681
5649.432419,-296.082377,-995.924147,7920.203579
5649.432742,-444.123565,-689.485948,7550.100608
5649.433065,-1554.432478,-1378.971896,9548.656652
5649.433388,-1924.535449,-1915.238745,10288.862594
5649.433712,-1332.370696,-1838.629195,10288.862594
5649.434035,-814.226536,-689.485948,9252.574275
5649.434358,222.061783,0.000000,9178.553681
5649.434681,592.164754,536.266849,10288.862594
5649.435004,1332.370696,-383.047749,9992.780217
5649.435328,1628.453072,-306.438199,8734.430116
5649.435651,148.041188,-536.266849,9030.512492
5649.435974,222.061783,-689.485948,9696.697840
5649.436297,0.000000,-995.924147,10214.842000
5649.436621,-518.144159,-383.047749,10066.800811
5649.436944,-962.267725,-1072.533697,9622.677246
5649.437267,-2590.720797,-306.438199,10362.883188
5649.437590,-1480.411884,153.219100,10140.821405
5649.437914,0.000000,536.266849,9992.780217
5649.438237,-666.185348,766.095498,8660.409521
5649.438560,-888.247130,612.876398,9474.636058
5649.438883,-1406.391290,689.485948,9696.697840
5649.439206,-148.041188,995.924147,9178.553681
5649.439530,-370.102971,1608.800546,8364.327145
5649.439853,-2590.720797,612.876398,8882.471304
5649.440176,-2442.679609,306.438199,9622.677246
5649.440499,-2368.659014,842.705048,9474.636058
5649.440823,-518.144159,1532.190996,8586.388927
5649.441146,-222.061783,919.314598,8586.388927
5649.441469,-1184.329507,1532.190996,8660.409521
5649.441792,0.000000,1225.752797,9474.636058
5649.442115,444.123565,1838.629195,8364.327145
5649.442439,666.185348,2451.505594,8364.327145
5649.442762,518.144159,2221.676944,9104.533087
5649.443085,370.102971,2068.457845,9844.739029
5649.443408,1036.288319,2604.724693,9104.533087
5649.443732,814.226536,2987.772442,8290.306550
5649.444055,592.164754,3064.381992,8808.450710
5649.444378,1628.453072,2068.457845,8586.388927
5649.444701,1332.370696,2145.067394,7920.203579
5649.445024,1554.432478,2298.286494,7179.997637
5649.445348,148.041188,2145.067394,8142.265362
5649.445671,-1184.329507,1455.581446,9104.533087
5649.445994,-148.041188,995.924147,9252.574275
5649.446317,-370.102971,842.705048,9474.636058
5649.446641,-1406.391290,842.705048,9548.656652
5649.446964,-1776.494261,536.266849,10584.944971
5649.447287,-444.123565,612.876398,10584.944971
5649.447610,814.226536,919.314598,9548.656652
5649.447934,222.061783,612.876398,8586.388927
5649.448257,-444.123565,153.219100,9622.677246
5649.448580,-222.061783,153.219100,11029.068536
5649.448903,370.102971,1072.533697,9400.615463
5649.449226,1110.308913,459.657299,8512.368333
5649.449550,-1036.288319,-612.876398,9622.677246
5649.449873,-1998.556043,-612.876398,10510.924376
5649.450196,-888.247130,0.000000,10362.883188
5649.450519,0.000000,306.438199,9104.533087
5649.450843,74.020594,306.438199,9474.636058
5649.451166,222.061783,-766.095498,10066.800811
5649.451489,518.144159,-459.657299,10214.842000
5649.451812,1036.288319,383.047749,8734.430116
5649.452135,222.061783,0.000000,8882.471304
5649.452459,370.102971,-919.314598,9770.718434
5649.452782,-592.164754,-1608.800546,9918.759623
5649.453105,-592.164754,-919.314598,9918.759623
5649.453428,-148.041188,-766.095498,9104.533087
5649.453752,-1332.370696,-1149.143247,8882.471304
5649.454075,0.000000,-1072.533697,9178.553681
5649.454398,0.000000,-919.314598,9252.574275
5649.454721,-592.164754,-689.485948,8660.409521
5649.455044,-592.164754,-766.095498,9326.594869
5649.455368,-592.164754,-995.924147,9548.656652
5649.455691,296.082377,-612.876398,9474.636058
5649.456014,518.144159,-229.828649,8734.430116
5649.456337,-1406.391290,-229.828649,9622.677246
5649.456661,-1184.329507,-306.438199,10732.986159
5649.456984,-222.061783,153.219100,10066.800811
5649.457307,740.205942,1072.533697,9400.615463
5649.457630,666.185348,383.047749,8512.368333
5649.457953,-962.267725,-536.266849,9548.656652
5649.458277,222.061783,459.657299,9400.615463
5649.458600,1258.350101,536.266849,8882.471304
5649.458923,370.102971,1149.143247,8438.347739
5649.459246,-740.205942,689.485948,9844.739029
5649.459570,-740.205942,689.485948,10288.862594
5649.459893,1110.308913,1532.190996,9326.594869
5649.460216,1332.370696,1838.629195,7772.162391
5649.460539,666.185348,2068.457845,9178.553681
5649.460863,666.185348,1149.143247,9770.718434
5649.461186,0.000000,1455.581446,9400.615463
5649.461509,444.123565,2068.457845,8290.306550
5649.461832,0.000000,1685.410096,8586.388927
5649.462155,-1406.391290,1225.752797,9252.574275
5649.462479,-1184.329507,995.924147,9548.656652
5649.462802,-2368.659014,1225.752797,8808.450710
5649.463125,-1850.514855,1915.238745,8660.409521
5649.463448,-1184.329507,2451.505594,8734.430116
5649.463772,0.000000,2145.067394,9326.594869
5649.464095,814.226536,2298.286494,8586.388927
5649.464418,-222.061783,2374.896044,8068.244768
5649.464741,-592.164754,1838.629195,7846.182985
5649.465064,-296.082377,1532.190996,8512.368333
5649.465388,0.000000,842.705048,8734.430116
5649.465711,-444.123565,1302.362347,8882.471304
5649.466034,-2146.597232,459.657299,9400.615463
5649.466357,-1628.453072,689.485948,9770.718434
5649.466681,296.082377,1072.533697,9474.636058
5649.467004,666.185348,2374.896044,9178.553681
5649.467327,962.267725,1149.143247,9252.574275
5649.467650,592.164754,1149.143247,9918.759623
5649.467973,1036.288319,1149.143247,9918.759623
5649.468297,1998.556043,1455.581446,8882.471304
5649.468620,444.123565,459.657299,9696.697840
5649.468943,-666.185348,0.000000,10881.027347
5649.469266,-1184.329507,0.000000,10658.965565
5649.469590,-518.144159,-842.705048,9548.656652
5649.469913,296.082377,306.438199,8660.409521
5649.470236,0.000000,-842.705048,9400.615463
5649.470559,-666.185348,-1149.143247,9030.512492
5649.470883,0.000000,-459.657299,8882.471304
5649.471206,-296.082377,-306.438199,8068.244768
5649.471529,-444.123565,0.000000,8882.471304
5649.471852,-666.185348,-1225.752797,9770.718434
5649.472175,0.000000,-842.705048,10066.800811
5649.472499,-148.041188,-383.047749,9252.574275
5649.472822,-740.205942,-689.485948,9178.553681
5649.473145,148.041188,-842.705048,10140.821405
5649.473468,1036.288319,-612.876398,9844.739029
5649.473792,1406.391290,-229.828649,8660.409521
5649.474115,1406.391290,-306.438199,8660.409521
5649.474438,518.144159,-229.828649,9622.677246
5649.474761,888.247130,-766.095498,9252.574275
5649.475084,740.205942,-536.266849,9474.636058
5649.475408,0.000000,-459.657299,9622.677246
5649.475731,-1258.350101,-612.876398,10955.047942
5649.476054,-1036.288319,-766.095498,10584.944971
5649.476377,666.185348,383.047749,9474.636058
5649.476701,888.247130,459.657299,8290.306550
5649.477024,0.000000,76.609550,8808.450710
5649.477347,-444.123565,-383.047749,9622.677246
5649.477670,-296.082377,-383.047749,9326.594869
5649.477993,444.123565,689.485948,9030.512492
5649.478317,-296.082377,76.609550,9326.594869
5649.478640,-1850.514855,-306.438199,10658.965565
5649.478963,-1036.288319,76.609550,10436.903782
5649.479286,-888.247130,459.657299,9622.677246
5649.479610,-370.102971,1149.143247,9104.533087
5649.479933,0.000000,1149.143247,10436.903782
5649.480256,666.185348,536.266849,9696.697840
5649.480579,1184.329507,1455.581446,8660.409521
5649.480903,592.164754,2145.067394,7994.224174
5649.481226,740.205942,2068.457845,9548.656652
5649.481549,370.102971,1378.971896,10066.800811
5649.481872,-740.205942,1762.019645,9474.636058
5649.482195,-962.267725,1378.971896,8364.327145
5649.482519,-2146.597232,1532.190996,9104.533087
5649.482842,-1628.453072,1915.238745,9030.512492
5649.483165,-592.164754,2451.505594,8882.471304
5649.483488,-962.267725,1991.848295,8586.388927
5649.483812,-1258.350101,1838.629195,8142.265362
5649.484135,-2294.638420,1838.629195,8364.327145
5649.484458,-740.205942,2068.457845,8808.450710
5649.484781,0.000000,2451.505594,8290.306550
5649.485104,-1184.329507,2221.676944,8438.347739
5649.485428,-1258.350101,1455.581446,9844.739029
5649.485751,-1332.370696,1915.238745,9104.533087
5649.486074,-296.082377,2221.676944,8734.430116
5649.486397,962.267725,2298.286494,8364.327145
5649.486721,-148.041188,1455.581446,9178.553681
5649.487044,222.061783,1225.752797,9104.533087
5649.487367,1332.370696,1455.581446,9104.533087
5649.487690,888.247130,2374.896044,8660.409521
5649.488013,740.205942,2298.286494,9326.594869
5649.488336,-222.061783,766.095498,10066.800811
5649.488659,962.267725,995.924147,9696.697840
5649.488982,1332.370696,1838.629195,9252.574275
5649.489305,370.102971,1225.752797,9474.636058
5649.489629,888.247130,536.266849,10362.883188
5649.489952,666.185348,383.047749,9918.759623
5649.490275,370.102971,153.219100,8956.491898
5649.490598,296.082377,0.000000,8660.409521
5649.490921,-1184.329507,-459.657299,9252.574275
5649.491244,-888.247130,-1072.533697,9770.718434
5649.491567,-962.267725,-1455.581446,9474.636058
5649.491890,-2146.597232,-1225.752797,9326.594869
5649.492213,-2368.659014,-1302.362347,9474.636058
5649.492536,-1184.329507,-766.095498,9844.739029
5649.492859,1184.329507,-612.876398,9400.615463
5649.493182,1258.350101,-995.924147,8216.285956
5649.493505,888.247130,-766.095498,9400.615463
5649.493829,518.144159,-1378.971896,9918.759623
5649.494152,518.144159,-995.924147,9548.656652
5649.494475,1480.411884,-689.485948,9104.533087
5649.494798,444.123565,-1149.143247,9844.739029
5649.495121,-1184.329507,-1762.019645,10881.027347
5649.495444,0.000000,-1302.362347,10658.965565
5649.495767,814.226536,-689.485948,9178.553681
5649.496090,888.247130,-153.219100,9252.574275
5649.496413,666.185348,-536.266849,9696.697840
5649.496736,666.185348,-612.876398,10362.883188
5649.497059,1036.288319,76.609550,8734.430116
5649.497382,148.041188,0.000000,8216.285956
5649.497705,-296.082377,-689.485948,9474.636058
5649.498028,-1924.535449,-919.314598,9992.780217
5649.498352,-2294.638420,-995.924147,9992.780217
5649.498675,-1776.494261,0.000000,9252.574275
5649.498998,-2220.617826,0.000000,9696.697840
5649.499321,-1480.411884,-76.609550,9844.739029
5649.499644,-222.061783,76.609550,9252.574275
5649.499967,-592.164754,459.657299,8364.327145
5649.500290,222.061783,1532.190996,8808.450710
5649.500613,0.000000,1149.143247,9400.615463
5649.500936,888.247130,1378.971896,9918.759623
5649.501259,814.226536,2068.457845,9400.615463
5649.501582,-888.247130,1762.019645,9548.656652
5649.501905,-592.164754,1838.629195,10140.821405
5649.502228,222.061783,2528.115143,9918.759623
5649.502552,814.226536,2757.943793,8660.409521
5649.502875,1036.288319,2757.943793,8142.265362
5649.503198,-888.247130,2298.286494,8512.368333
5649.503521,-740.205942,2374.896044,8364.327145
5649.503844,222.061783,2987.772442,7846.182985
5649.504167,-962.267725,2681.334243,7031.956449
5649.504490,-1406.391290,2604.724693,8586.388927
5649.504813,-2368.659014,1991.848295,9400.615463
5649.505136,-1480.411884,2451.505594,8808.450710
5649.505459,-296.082377,2528.115143,8068.244768
5649.505782,-518.144159,2374.896044,8438.347739
5649.506105,-296.082377,1532.190996,9030.512492
5649.506428,-518.144159,1225.752797,9622.677246
5649.506751,888.247130,2374.896044,7994.224174
5649.507075,592.164754,2604.724693,8660.409521
5649.507398,0.000000,1685.410096,9252.574275
5649.507721,370.102971,1302.362347,10658.965565
5649.508044,592.164754,1225.752797,9474.636058
5649.508367,0.000000,1762.019645,9326.594869
5649.508690,740.205942,1762.019645,9252.574275
5649.509013,592.164754,995.924147,9844.739029
5649.509336,2072.576638,842.705048,9548.656652
5649.509659,1110.308913,153.219100,8438.347739
5649.509982,-296.082377,0.000000,9252.574275
5649.510305,-370.102971,-306.438199,10140.821405
5649.510628,-888.247130,-919.314598,9474.636058
5649.510951,-740.205942,-842.705048,8660.409521
5649.511275,-1924.535449,-1072.533697,9326.594869
5649.511598,-3330.926739,-1455.581446,10362.883188
5649.511921,-1258.350101,-1532.190996,9992.780217
5649.512244,-518.144159,-1225.752797,9474.636058
5649.512567,-518.144159,-1378.971896,8808.450710
5649.512890,-666.185348,-1838.629195,9844.739029
5649.513213,0.000000,-1455.581446,10140.821405
5649.513536,814.226536,-919.314598,9474.636058
5649.513859,518.144159,-1149.143247,9030.512492
5649.514182,740.205942,-1378.971896,10584.944971
5649.514505,0.000000,-1685.410096,11177.109724
5649.514828,370.102971,-842.705048,10288.862594
5649.515151,1480.411884,-229.828649,9474.636058
5649.515474,814.226536,0.000000,9844.739029
5649.515798,592.164754,-459.657299,10066.800811
5649.516121,888.247130,229.828649,9696.697840
5649.516444,-370.102971,153.219100,8808.450710
5649.516767,-148.041188,0.000000,8586.388927
5649.517090,-444.123565,-842.705048,9252.574275
5649.517413,-740.205942,-536.266849,9400.615463
5649.517736,-222.061783,0.000000,9104.533087
5649.518059,-2294.638420,612.876398,8586.388927
5649.518382,-1036.288319,842.705048,9474.636058
5649.518705,0.000000,153.219100,9622.677246
5649.519028,0.000000,383.047749,9400.615463
5649.519351,444.123565,229.828649,8512.368333
5649.519674,-1184.329507,76.609550,9474.636058
5649.519998,-1036.288319,153.219100,9400.615463
5649.520321,74.020594,1225.752797,9400.615463
5649.520644,-518.144159,459.657299,8956.491898
5649.520967,-1110.308913,1608.800546,9474.636058
5649.521290,-1480.411884,1991.848295,9918.759623
5649.521613,592.164754,2145.067394,9474.636058
5649.521936,1998.556043,3064.381992,8216.285956
5649.522259,814.226536,2374.896044,8586.388927
5649.522582,666.185348,1991.848295,9400.615463
5649.522905,0.000000,1838.629195,9104.533087
5649.523228,814.226536,2298.286494,8364.327145
5649.523551,-222.061783,2374.896044,7846.182985
5649.523874,-2072.576638,689.485948,9326.594869
5649.524198,-2442.679609,459.657299,9696.697840
5649.524521,-1776.494261,1302.362347,9326.594869
5649.524844,-888.247130,1838.629195,8438.347739
5649.525167,-888.247130,1991.848295,8808.450710
5649.525490,0.000000,1991.848295,9400.615463
5649.525813,740.205942,1302.362347,8882.471304
5649.526136,518.144159,1991.848295,7772.162391
5649.526459,444.123565,1762.019645,8882.471304
5649.526782,296.082377,1532.190996,9622.677246
5649.527105,-518.144159,1149.143247,9622.677246
5649.527428,-444.123565,1608.800546,8808.450710
5649.527751,-962.267725,1762.019645,9400.615463
5649.528074,-1554.432478,766.095498,9918.759623
5649.528397,-148.041188,842.705048,9104.533087
5649.528721,0.000000,383.047749,8808.450710
5649.529044,-296.082377,612.876398,8290.306550
5649.529367,-666.185348,536.266849,9918.759623
5649.529690,0.000000,306.438199,9548.656652
5649.530013,888.247130,536.266849,9252.574275
5649.530336,74.020594,612.876398,8808.450710
5649.530659,-666.185348,-536.266849,10658.965565
5649.530982,-296.082377,-229.828649,10584.944971
5649.531305,0.000000,229.828649,9992.780217
5649.531628,1406.391290,536.266849,8956.491898
5649.531951,296.082377,0.000000,9474.636058
5649.532274,0.000000,-612.876398,8956.491898
5649.532597,592.164754,0.000000,9104.533087
5649.532921,1110.308913,229.828649,8660.409521
5649.533244,370.102971,153.219100,9696.697840
5649.533567,-888.247130,-766.095498,10658.965565
5649.533890,-888.247130,-766.095498,10881.027347
5649.534213,-296.082377,-306.438199,9400.615463
5649.534536,-814.226536,76.609550,8734.430116
5649.534859,74.020594,-459.657299,9474.636058
5649.535182,296.082377,-536.266849,9474.636058
5649.535505,222.061783,-536.266849,8512.368333
5649.535828,518.144159,-306.438199,7846.182985
5649.536151,-1036.288319,-919.314598,8216.285956
5649.536474,-740.205942,-306.438199,8956.491898
5649.536797,370.102971,-229.828649,9252.574275
5649.537120,-740.205942,153.219100,9400.615463
5649.537444,-296.082377,0.000000,9770.718434
5649.537767,0.000000,0.000000,9992.780217
5649.538090,1998.556043,459.657299,10214.842000
5649.538413,2442.679609,842.705048,9326.594869
5649.538736,666.185348,0.000000,10140.821405
5649.539059,296.082377,383.047749,10214.842000
5649.539382,296.082377,229.828649,10214.842000
5649.539705,1036.288319,842.705048,9252.574275
5649.540028,0.000000,229.828649,9548.656652
5649.540351,-2294.638420,-536.266849,10436.903782
5649.540674,-1776.494261,229.828649,10658.965565
5649.540997,-444.123565,1149.143247,9474.636058
5649.541320,-518.144159,1378.971896,8438.347739
5649.541644,-888.247130,1378.971896,9474.636058
5649.541967,-888.247130,919.314598,9474.636058
5649.542290,0.000000,2298.286494,8438.347739
5649.542613,444.123565,1915.238745,7698.141797
5649.542936,-444.123565,1838.629195,8808.450710
5649.543259,-1036.288319,1685.410096,9918.759623
5649.543582,-1776.494261,1072.533697,9178.553681
5649.543905,-814.226536,1532.190996,8142.265362
5649.544228,-740.205942,1838.629195,8142.265362
5649.544551,-592.164754,1149.143247,9326.594869
5649.544874,-370.102971,1762.019645,9178.553681
5649.545197,-296.082377,2145.067394,8142.265362
5649.545520,-296.082377,2221.676944,7846.182985
5649.545843,-444.123565,2068.457845,8512.368333
5649.546167,0.000000,1762.019645,9252.574275
5649.546490,222.061783,2298.286494,8586.388927
5649.546813,-592.164754,2145.067394,8364.327145
5649.547136,-962.267725,2068.457845,9770.718434
5649.547459,0.000000,1838.629195,9326.594869
5649.547782,296.082377,1838.629195,8882.471304
5649.548105,592.164754,1762.019645,7994.224174
5649.548428,-444.123565,1302.362347,8660.409521
5649.548751,-888.247130,919.314598,9326.594869
5649.549074,592.164754,1149.143247,9548.656652
5649.549397,-222.061783,1532.190996,9474.636058
5649.549720,-666.185348,612.876398,9918.759623
5649.550043,-888.247130,76.609550,10732.986159
5649.550367,-222.061783,76.609550,10288.862594
5649.550690,1776.494261,1302.362347,9474.636058
5649.551013,814.226536,919.314598,9326.594869
5649.551336,444.123565,-306.438199,9844.739029
5649.551659,740.205942,-612.876398,9696.697840
5649.551982,444.123565,0.000000,9178.553681
5649.552305,888.247130,0.000000,8734.430116
5649.552628,0.000000,-689.485948,9474.636058
5649.552951,-518.144159,-1302.362347,9992.780217
5649.553274,-592.164754,-1378.971896,9770.718434
5649.553597,-518.144159,76.609550,9548.656652
5649.553920,-444.123565,-306.438199,9548.656652
5649.554243,-296.082377,-536.266849,9992.780217
5649.554567,1184.329507,-306.438199,9474.636058
5649.554890,1110.308913,-459.657299,8660.409521
5649.555213,370.102971,-459.657299,8660.409521
5649.555536,814.226536,-995.924147,9252.574275
5649.555859,296.082377,-1838.629195,9252.574275
5649.556182,0.000000,-995.924147,9252.574275
5649.556505,-1036.288319,-1072.533697,8956.491898
5649.556828,-1628.453072,-1378.971896,10362.883188
5649.557151,-148.041188,-995.924147,9770.718434
5649.557474,666.185348,-536.266849,9326.594869
5649.557797,592.164754,76.609550,8586.388927
5649.558120,296.082377,-1302.362347,9992.780217
5649.558443,222.061783,-306.438199,9844.739029
5649.558766,1110.308913,76.609550,9548.656652
5649.559090,296.082377,0.000000,8586.388927
5649.559413,-1184.329507,-383.047749,9844.739029
5649.559736,-1628.453072,-153.219100,10881.027347
5649.560059,-2072.576638,459.657299,10214.842000
5649.560382,-814.226536,766.095498,8808.450710
5649.560705,-1036.288319,306.438199,9104.533087
5649.561028,-2294.638420,0.000000,9696.697840
5649.561351,-1702.473667,383.047749,10066.800811
5649.561674,-1258.350101,919.314598,9178.553681
5649.561997,-1332.370696,1149.143247,8808.450710
5649.562320,-1702.473667,1302.362347,9474.636058
5649.562643,-1258.350101,766.095498,9770.718434
5649.562966,-666.185348,1532.190996,8956.491898
5649.563290,-1406.391290,1991.848295,8290.306550
5649.563613,-962.267725,1915.238745,8882.471304
5649.563936,-148.041188,1685.410096,9474.636058
5649.564259,148.041188,2221.676944,7994.224174
5649.564582,1406.391290,2451.505594,7698.141797
5649.564905,518.144159,2757.943793,7476.080014
5649.565228,222.061783,2681.334243,8660.409521
5649.565551,1184.329507,2451.505594,8882.471304
5649.565874,222.061783,2681.334243,9030.512492
5649.566197,-518.144159,2374.896044,9030.512492
5649.566520,-1406.391290,2221.676944,9622.677246
5649.566843,296.082377,2451.505594,9178.553681
5649.567166,2220.617826,3064.381992,8142.265362
5649.567489,814.226536,2911.162892,8068.244768
5649.567813,222.061783,1838.629195,8808.450710
5649.568136,0.000000,1149.143247,8660.409521
5649.568459,74.020594,1532.190996,8438.347739
5649.568782,592.164754,1302.362347,8068.244768
5649.569105,-1406.391290,229.828649,9400.615463
5649.569428,-1702.473667,-383.047749,9474.636058
5649.569751,-962.267725,0.000000,9770.718434
5649.570074,-1036.288319,689.485948,8660.409521
5649.570397,222.061783,536.266849,9844.739029
5649.570720,296.082377,-229.828649,10584.944971
5649.571043,1406.391290,-229.828649,10140.821405
5649.571366,1258.350101,229.828649,9474.636058
5649.571689,1258.350101,76.609550,9844.739029
5649.572013,518.144159,229.828649,11029.068536
5649.572336,0.000000,-766.095498,11547.212695
5649.572659,-222.061783,0.000000,10066.800811
5649.572982,-518.144159,-383.047749,9548.656652
5649.573305,-962.267725,-766.095498,9992.780217
5649.573628,666.185348,-459.657299,9918.759623
5649.573951,962.267725,-383.047749,9474.636058
5649.574274,0.000000,-383.047749,7920.203579
5649.574597,0.000000,229.828649,8734.430116
5649.574920,-370.102971,-612.876398,9178.553681
5649.575243,1036.288319,-306.438199,9252.574275
5649.575566,-518.144159,-383.047749,8364.327145
5649.575889,-1480.411884,-1225.752797,9622.677246
5649.576212,-1332.370696,-766.095498,10658.965565
5649.576536,-1110.308913,-612.876398,9844.739029
5649.576859,592.164754,306.438199,9030.512492
5649.577182,-296.082377,-536.266849,8956.491898
5649.577505,-1258.350101,-1685.410096,9992.780217
5649.577828,-740.205942,-689.485948,9400.615463
5649.578151,-370.102971,-306.438199,8808.450710
5649.578474,-444.123565,229.828649,8734.430116
5649.578797,-1924.535449,-153.219100,10140.821405
5649.579120,-1036.288319,0.000000,10288.862594
5649.579443,0.000000,842.705048,8956.491898
5649.579766,74.020594,919.314598,8660.409521
5649.580089,-518.144159,536.266849,9326.594869
5649.580412,-74.020594,0.000000,9696.697840
5649.580736,0.000000,536.266849,8882.471304
5649.581059,1036.288319,1455.581446,7698.141797
5649.581382,-222.061783,1302.362347,8734.430116
5649.581705,-148.041188,1072.533697,9474.636058
5649.582028,148.041188,1072.533697,9548.656652
5649.582351,-148.041188,1455.581446,9474.636058
5649.582674,-296.082377,1685.410096,9474.636058
5649.582997,-148.041188,1608.800546,10436.903782
5649.583320,1110.308913,2528.115143,9696.697840
5649.583643,2368.659014,2374.896044,8586.388927
5649.583966,1406.391290,1685.410096,8882.471304
5649.584289,666.185348,1532.190996,9252.574275
5649.584612,0.000000,1532.190996,9474.636058
5649.584936,0.000000,1762.019645,9030.512492
5649.585259,0.000000,1685.410096,8808.450710
5649.585582,-2516.700203,766.095498,9252.574275
5649.585905,-2590.720797,842.705048,9474.636058
5649.586228,-740.205942,766.095498,8512.368333
5649.586551,-740.205942,2528.115143,7698.141797
5649.586874,-666.185348,2145.067394,8216.285956
5649.587197,-1332.370696,1532.190996,8956.491898
5649.587520,0.000000,1991.848295,8734.430116
5649.587843,518.144159,2681.334243,7846.182985
5649.588166,148.041188,2145.067394,8290.306550
5649.588490,296.082377,1455.581446,9474.636058
5649.588813,-444.123565,1302.362347,10066.800811
5649.589136,296.082377,1302.362347,9326.594869
5649.589459,814.226536,1685.410096,9104.533087
5649.589782,370.102971,1149.143247,9844.739029
5649.590105,962.267725,919.314598,9918.759623
5649.590428,1184.329507,995.924147,8956.491898
5649.590752,814.226536,1149.143247,8586.388927
5649.591075,592.164754,1225.752797,9400.615463
5649.591398,-296.082377,0.000000,10140.821405
5649.591721,222.061783,0.000000,9918.759623
5649.592044,-1258.350101,-153.219100,9326.594869
5649.592367,-2442.679609,-612.876398,9474.636058
5649.592690,-1332.370696,-995.924147,9992.780217
5649.593014,-592.164754,-995.924147,9178.553681
5649.593337,-1184.329507,-536.266849,8734.430116
5649.593660,-2146.597232,-995.924147,8882.471304
5649.593983,-2812.782580,-1991.848295,9844.739029
5649.594306,-888.247130,-1302.362347,9548.656652
5649.594629,-148.041188,-766.095498,9252.574275
5649.594952,-518.144159,-689.485948,9178.553681
5649.595276,-888.247130,-995.924147,11177.109724
5649.595599,370.102971,-689.485948,10658.965565
5649.595922,2220.617826,-383.047749,9622.677246
5649.596245,2516.700203,689.485948,8586.388927
5649.596568,2294.638420,-229.828649,9770.718434
5649.596891,1850.514855,-842.705048,9622.677246
5649.597215,1628.453072,-306.438199,9400.615463
5649.597538,2516.700203,0.000000,8068.244768
5649.597861,888.247130,-536.266849,9030.512492
5649.598184,-444.123565,-1225.752797,10732.986159
5649.598507,-1036.288319,-995.924147,10584.944971
5649.598830,-1036.288319,-229.828649,9696.697840
5649.599153,-740.205942,153.219100,9104.533087
5649.599477,-1184.329507,0.000000,10066.800811
5649.599800,-370.102971,-229.828649,9474.636058
5649.600123,0.000000,536.266849,8364.327145
5649.600446,-962.267725,689.485948,7550.100608
5649.600769,-370.102971,689.485948,8956.491898
5649.601092,-888.247130,76.609550,9548.656652
5649.601415,-1184.329507,153.219100,9104.533087
5649.601739,-222.061783,1072.533697,8882.471304
5649.602062,-1554.432478,536.266849,9252.574275
5649.602385,-370.102971,229.828649,9696.697840
5649.602708,888.247130,1532.190996,9992.780217
5649.603031,592.164754,1455.581446,9474.636058
5649.603354,370.102971,1378.971896,9548.656652
5649.603677,814.226536,1532.190996,9992.780217
5649.604001,1184.329507,2221.676944,9844.739029
5649.604324,962.267725,3064.381992,9030.512492
5649.604647,-370.102971,2451.505594,9622.677246
5649.604970,-1702.473667,1762.019645,10288.862594
5649.605293,-1628.453072,1762.019645,9992.780217
5649.605616,-1258.350101,2298.286494,8364.327145
5649.605939,-962.267725,2221.676944,7920.203579
5649.606263,-2072.576638,1378.971896,8290.306550
5649.606586,-2146.597232,1455.581446,8660.409521
5649.606909,-2146.597232,1378.971896,7698.141797
5649.607232,-2146.597232,2374.896044,6883.915261
5649.607555,-2664.741391,1455.581446,7846.182985
5649.607878,-2368.659014,1378.971896,9326.594869
5649.608202,-1332.370696,1378.971896,8660.409521
5649.608525,-1184.329507,1915.238745,8142.265362
5649.608848,-1406.391290,1762.019645,9178.553681
5649.609171,74.020594,1532.190996,9992.780217
5649.609494,1110.308913,1455.581446,9474.636058
5649.609817,1554.432478,1532.190996,8364.327145
5649.610140,1480.411884,1302.362347,9030.512492
5649.610464,814.226536,919.314598,9992.780217
5649.610787,1480.411884,1149.143247,10288.862594
5649.611110,1184.329507,689.485948,9992.780217
5649.611433,0.000000,1225.752797,10066.800811
5649.611756,0.000000,612.876398,10510.924376
5649.612079,888.247130,536.266849,10362.883188
5649.612402,2368.659014,1072.533697,9252.574275
5649.612726,1554.432478,153.219100,8586.388927
5649.613049,370.102971,-306.438199,9104.533087
5649.613372,0.000000,-919.314598,9696.697840
5649.613695,370.102971,-306.438199,8882.471304
5649.614018,518.144159,-153.219100,8512.368333
5649.614341,-740.205942,-1302.362347,9474.636058
5649.614664,-2072.576638,-1685.410096,10510.924376
5649.614988,-1110.308913,-689.485948,10288.862594
5649.615311,-296.082377,-383.047749,9622.677246
5649.615634,740.205942,0.000000,8808.450710
5649.615957,518.144159,-1225.752797,9400.615463
5649.616280,814.226536,-919.314598,9400.615463
5649.616603,1110.308913,-459.657299,8290.306550
5649.616926,666.185348,-153.219100,8808.450710
5649.617250,592.164754,-689.485948,9918.759623
5649.617573,0.000000,-1378.971896,10140.821405
5649.617896,-518.144159,-919.314598,9770.718434
5649.618219,0.000000,-383.047749,9548.656652
5649.618542,-518.144159,-306.438199,9918.759623
5649.618865,444.123565,-306.438199,9770.718434
5649.619189,666.185348,-459.657299,9400.615463
5649.619512,-370.102971,-306.438199,9104.533087
5649.619835,-296.082377,229.828649,9178.553681
5649.620158,-518.144159,-229.828649,9770.718434
5649.620481,518.144159,306.438199,9992.780217
5649.620804,148.041188,459.657299,8808.450710
5649.621127,-1850.514855,612.876398,9770.718434
5649.621451,-1332.370696,76.609550,10436.903782
5649.621774,-814.226536,689.485948,10584.944971
5649.622097,-518.144159,995.924147,9326.594869
5649.622420,-148.041188,612.876398,8956.491898
5649.622743,-1924.535449,459.657299,8956.491898
5649.623066,-962.267725,919.314598,9400.615463
5649.623389,-444.123565,1225.752797,9252.574275
5649.623713,-666.185348,1762.019645,8290.306550
5649.624036,-1628.453072,1378.971896,9326.594869
5649.624359,-2146.597232,1225.752797,9770.718434
5649.624682,-666.185348,1915.238745,9104.533087
5649.625005,0.000000,2298.286494,7254.018232
5649.625328,-296.082377,2068.457845,8216.285956
5649.625651,222.061783,1991.848295,8808.450710
5649.625975,0.000000,1685.410096,9030.512492
5649.626298,518.144159,2528.115143,8068.244768
5649.626621,148.041188,2604.724693,8290.306550
5649.626944,-592.164754,1915.238745,9178.553681
5649.627267,-148.041188,1991.848295,9474.636058
5649.627590,-296.082377,1762.019645,8882.471304
5649.627913,-518.144159,1685.410096,8364.327145
5649.628237,-296.082377,1532.190996,9104.533087
5649.628560,592.164754,1838.629195,9326.594869
5649.628883,1628.453072,1915.238745,8882.471304
5649.629206,1110.308913,2068.457845,8290.306550
5649.629529,518.144159,1225.752797,9178.553681
5649.629852,148.041188,919.314598,9548.656652
5649.630176,148.041188,1149.143247,9178.553681
5649.630499,370.102971,1302.362347,8438.347739
5649.630822,-1184.329507,383.047749,9622.677246
5649.631145,-1554.432478,459.657299,10140.821405
5649.631468,-296.082377,612.876398,9548.656652
5649.631791,222.061783,995.924147,8660.409521
5649.632114,222.061783,459.657299,8808.450710
5649.632438,0.000000,306.438199,9474.636058
5649.632761,518.144159,0.000000,9326.594869
5649.633084,1258.350101,536.266849,8364.327145
5649.633407,370.102971,306.438199,8956.491898
5649.633730,222.061783,-612.876398,10214.842000
5649.634053,-740.205942,-1072.533697,10288.862594
5649.634376,-296.082377,-689.485948,9770.718434
5649.634700,814.226536,-306.438199,9252.574275
5649.635023,-296.082377,-1149.143247,9326.594869
5649.635346,-222.061783,-1072.533697,10066.800811
5649.635669,148.041188,-1532.190996,9252.574275
5649.635992,0.000000,-1149.143247,8882.471304
5649.636315,-222.061783,-919.314598,9178.553681
5649.636638,0.000000,-1378.971896,10214.842000
5649.636962,814.226536,-842.705048,10436.903782
5649.637285,0.000000,-306.438199,9326.594869
5649.637608,-666.185348,-536.266849,10140.821405
5649.637931,-592.164754,-383.047749,10584.944971
5649.638254,0.000000,-766.095498,9992.780217
5649.638577,518.144159,-689.485948,8956.491898
5649.638900,-296.082377,-766.095498,8586.388927
5649.639224,-1332.370696,-1225.752797,9178.553681
5649.639547,-518.144159,-1302.362347,9252.574275
5649.639870,-740.205942,-612.876398,8660.409521
5649.640193,-1036.288319,-1225.752797,8808.450710
5649.640516,-2294.638420,-459.657299,9918.759623
5649.640839,-1628.453072,-153.219100,10436.903782
5649.641163,518.144159,919.314598,10214.842000
5649.641486,1036.288319,842.705048,8512.368333
5649.641809,814.226536,842.705048,9622.677246
5649.642132,666.185348,229.828649,9844.739029
5649.642455,814.226536,919.314598,9918.759623
5649.642778,518.144159,1532.190996,8882.471304
5649.643101,222.061783,1302.362347,9252.574275
5649.643425,-1628.453072,459.657299,9918.759623
5649.643748,-1110.308913,1225.752797,9622.677246
5649.644071,0.000000,1608.800546,9104.533087
5649.644394,0.000000,2834.553343,8808.450710
5649.644717,-296.082377,2068.457845,9474.636058
5649.645040,74.020594,1991.848295,9622.677246
5649.645363,444.123565,2221.676944,8660.409521
5649.645687,0.000000,2451.505594,7402.059420
5649.646010,-370.102971,2068.457845,8290.306550
5649.646333,-518.144159,1915.238745,8956.491898
5649.646656,-888.247130,2145.067394,8734.430116
5649.646979,-1332.370696,2451.505594,8586.388927
5649.647302,-1998.556043,1915.238745,9474.636058
5649.647625,-1332.370696,1915.238745,9400.615463
5649.647949,148.041188,2068.457845,8956.491898
5649.648272,814.226536,1991.848295,8438.347739
5649.648595,222.061783,2451.505594,8142.265362
5649.648918,296.082377,1685.410096,9696.697840
5649.649241,888.247130,2298.286494,9474.636058
5649.649564,888.247130,1991.848295,9474.636058
5649.649887,74.020594,1608.800546,9030.512492
5649.650211,-666.185348,1072.533697,9844.739029
5649.650534,-444.123565,1225.752797,9770.718434
5649.650857,296.082377,1685.410096,9326.594869
5649.651180,666.185348,919.314598,8512.368333
5649.651503,-666.185348,1149.143247,8586.388927
5649.651826,-1110.308913,306.438199,9252.574275
5649.652149,-296.082377,536.266849,8734.430116
5649.652473,148.041188,1149.143247,8290.306550
5649.652796,-296.082377,459.657299,9326.594869
5649.653119,-370.102971,0.000000,10658.965565
5649.653442,-592.164754,-153.219100,10955.047942
5649.653765,-370.102971,459.657299,9252.574275
5649.654088,-888.247130,0.000000,9400.615463
5649.654412,74.020594,-459.657299,9992.780217
5649.654735,74.020594,-689.485948,10140.821405
5649.655058,370.102971,-766.095498,9030.512492
5649.655381,222.061783,-612.876398,8364.327145
5649.655704,-1406.391290,-1455.581446,9326.594869
5649.656027,-1110.308913,-1532.190996,9770.718434
5649.656350,-1258.350101,-1685.410096,9474.636058
5649.656674,-1776.494261,-1149.143247,9548.656652
5649.656997,-1776.494261,-842.705048,9992.780217
5649.657320,-888.247130,-919.314598,10362.883188
5649.657643,1554.432478,-1225.752797,9474.636058
5649.657966,1406.391290,306.438199,8586.388927
5649.658289,-148.041188,-1072.533697,8808.450710
5649.658612,370.102971,-1072.533697,10288.862594
5649.658936,1110.308913,-612.876398,9770.718434
5649.659259,2368.659014,-459.657299,8882.471304
5649.659582,740.205942,-842.705048,9474.636058
5649.659905,-1998.556043,-1532.190996,11843.295072
5649.660228,148.041188,-612.876398,11177.109724
5649.660551,296.082377,0.000000,10436.903782
5649.660874,1110.308913,153.219100,8956.491898
5649.661198,740.205942,0.000000,10584.944971
5649.661521,518.144159,0.000000,9474.636058
5649.661844,1184.329507,766.095498,8882.471304
5649.662167,444.123565,612.876398,7698.141797
5649.662490,-74.020594,1149.143247,9030.512492
5649.662813,-962.267725,229.828649,9548.656652
5649.663136,-1924.535449,1072.533697,9474.636058
5649.663460,-1776.494261,1225.752797,8808.450710
5649.663783,-1406.391290,842.705048,8290.306550
5649.664106,-1332.370696,919.314598,9030.512492
5649.664429,-370.102971,1302.362347,8734.430116
5649.664752,-518.144159,2221.676944,8586.388927
5649.665075,-444.123565,2757.943793,8660.409521
5649.665399,518.144159,2374.896044,8956.491898
5649.665722,962.267725,2145.067394,9178.553681
5649.666045,1036.288319,2298.286494,9030.512492
5649.666368,0.000000,2374.896044,8808.450710
5649.666691,-222.061783,2145.067394,10214.842000
5649.667014,0.000000,2221.676944,10066.800811
5649.667337,444.123565,2757.943793,9030.512492
5649.667661,888.247130,2145.067394,7994.224174
5649.667984,-74.020594,1991.848295,8882.471304
5649.668307,-296.082377,1838.629195,8956.491898
5649.668630,148.041188,2374.896044,8882.471304
5649.668953,-814.226536,2068.457845,8364.327145
5649.669276,-1332.370696,1532.190996,8808.450710
5649.669599,-2664.741391,1149.143247,9326.594869
5649.669923,-1406.391290,1608.800546,9252.574275
5649.670246,-444.123565,1762.019645,7550.100608
5649.670569,-1258.350101,1532.190996,8734.430116
5649.670892,-962.267725,842.705048,9474.636058
5649.671215,-666.185348,306.438199,9548.656652
5649.671538,-740.205942,766.095498,8438.347739
5649.671861,74.020594,842.705048,8808.450710
5649.672185,-370.102971,-459.657299,9548.656652
5649.672508,148.041188,306.438199,10288.862594
5649.672831,592.164754,0.000000,9918.759623
5649.673154,148.041188,153.219100,9548.656652
5649.673477,148.041188,612.876398,9992.780217
5649.673800,1628.453072,0.000000,10288.862594
5649.674123,2664.741391,306.438199,9030.512492
5649.674447,2294.638420,0.000000,7772.162391
5649.674770,740.205942,-383.047749,8956.491898
5649.675093,1036.288319,-612.876398,9770.718434
5649.675416,222.061783,-919.314598,9474.636058
5649.675739,-148.041188,-919.314598,9400.615463
5649.676062,-962.267725,-1378.971896,9178.553681
5649.676386,-2442.679609,-1991.848295,9918.759623
5649.676709,-888.247130,-995.924147,9474.636058
5649.677032,0.000000,-1302.362347,9178.553681
5649.677355,0.000000,-919.314598,9178.553681
5649.677678,-592.164754,-1532.190996,10066.800811
5649.678001,-666.185348,-1455.581446,9992.780217
5649.678324,814.226536,-766.095498,8808.450710
5649.678648,296.082377,-536.266849,9030.512492
5649.678971,-296.082377,-1072.533697,10140.821405
5649.679294,-1184.329507,-1608.800546,10584.944971
5649.679617,-740.205942,-689.485948,9844.739029
5649.679940,222.061783,306.438199,9104.533087
5649.680263,-296.082377,0.000000,9474.636058
5649.680586,-666.185348,-612.876398,9918.759623
5649.680910,148.041188,-919.314598,9474.636058
5649.681233,0.000000,153.219100,8290.306550
5649.681556,-370.102971,306.438199,8734.430116
5649.681879,-814.226536,306.438199,9992.780217
5649.682202,-1036.288319,383.047749,10584.944971
5649.682525,-222.061783,766.095498,9474.636058
5649.682848,-1258.350101,1149.143247,9178.553681
5649.683172,-740.205942,766.095498,9548.656652
5649.683495,0.000000,1378.971896,9696.697840
5649.683818,148.041188,1838.629195,9326.594869
5649.684141,296.082377,1302.362347,8216.285956
5649.684464,-962.267725,1149.143247,8438.347739
5649.684787,-1036.288319,1072.533697,8364.327145
5649.685110,-296.082377,1378.971896,8660.409521
5649.685434,-1184.329507,1455.581446,8364.327145
5649.685757,-1776.494261,1762.019645,8956.491898
5649.686080,-1850.514855,1762.019645,9474.636058
5649.686403,-592.164754,1991.848295,9326.594869
5649.686726,444.123565,2451.505594,8512.368333
5649.687049,296.082377,2145.067394,8586.388927
5649.687373,0.000000,1915.238745,9474.636058
5649.687696,296.082377,1991.848295,9474.636058
5649.688019,1110.308913,2374.896044,8734.430116
5649.688342,370.102971,2068.457845,8068.244768
5649.688665,-740.205942,2145.067394,9104.533087
5649.688988,-1406.391290,1532.190996,9770.718434
5649.689311,-740.205942,1838.629195,9178.553681
5649.689634,-296.082377,2298.286494,8364.327145
5649.689957,518.144159,2451.505594,8734.430116
5649.690281,1110.308913,1302.362347,9400.615463
5649.690604,1406.391290,2068.457845,9252.574275
5649.690927,888.247130,1915.238745,8142.265362
5649.691250,296.082377,995.924147,9252.574275
5649.691573,296.082377,919.314598,9770.718434
5649.691896,-296.082377,383.047749,10214.842000
5649.692219,-370.102971,536.266849,9548.656652
5649.692542,-1110.308913,229.828649,9622.677246
5649.692865,-1554.432478,229.828649,9918.759623
5649.693188,0.000000,-229.828649,9992.780217
5649.693511,-148.041188,153.219100,8956.491898
5649.693835,-370.102971,-229.828649,8660.409521
5649.694158,-592.164754,-306.438199,9252.574275
5649.694481,0.000000,0.000000,9104.533087
5649.694804,814.226536,306.438199,9252.574275
5649.695127,-222.061783,0.000000,8142.265362
5649.695450,-1184.329507,-842.705048,10066.800811
5649.695773,-962.267725,-306.438199,9770.718434
5649.696096,148.041188,-306.438199,9326.594869
5649.696419,1258.350101,229.828649,8512.368333
5649.696742,0.000000,-459.657299,9474.636058
5649.697066,-222.061783,-1302.362347,9992.780217
5649.697389,74.020594,-1225.752797,9474.636058
5649.697712,0.000000,-306.438199,8808.450710
5649.698035,518.144159,-306.438199,9548.656652
5649.698358,0.000000,-1225.752797,10584.944971
5649.698681,0.000000,-1149.143247,11399.171507
5649.699004,666.185348,0.000000,9992.780217
5649.699327,-222.061783,0.000000,9104.533087
5649.699650,222.061783,-1072.533697,10510.924376
5649.699973,148.041188,-995.924147,10066.800811
5649.700296,592.164754,-536.266849,9252.574275
5649.700620,740.205942,-229.828649,8586.388927
5649.700943,-962.267725,-459.657299,9474.636058
5649.701266,-814.226536,-842.705048,9844.739029
5649.701589,-592.164754,-766.095498,9474.636058
5649.701912,-1628.453072,153.219100,9474.636058
5649.702235,-1110.308913,689.485948,9622.677246
5649.702558,-444.123565,-306.438199,10214.842000
5649.702881,1110.308913,1225.752797,9622.677246
5649.703204,1628.453072,1608.800546,8734.430116
5649.703527,666.185348,919.314598,8882.471304
5649.703850,518.144159,1072.533697,9474.636058
5649.704174,370.102971,1991.848295,9548.656652
5649.704497,592.164754,1302.362347,8660.409521
5649.704820,740.205942,1762.019645,8364.327145
5649.705143,-1998.556043,689.485948,9622.677246
5649.705466,-1776.494261,842.705048,9918.759623
5649.705789,-592.164754,1532.190996,8660.409521
5649.706112,-518.144159,2451.505594,8068.244768
5649.706435,-962.267725,1762.019645,8882.471304
5649.706758,296.082377,2145.067394,9030.512492
5649.707081,888.247130,2528.115143,8364.327145
5649.707404,296.082377,2604.724693,7179.997637
5649.707728,0.000000,2298.286494,8142.265362
5649.708051,-962.267725,1838.629195,9474.636058
5649.708374,-1258.350101,2068.457845,9474.636058
5649.708697,-814.226536,2451.505594,9178.553681
5649.709020,-888.247130,2145.067394,8438.347739
5649.709343,-814.226536,1915.238745,9178.553681
5649.709666,0.000000,1685.410096,9474.636058
5649.709989,-592.164754,2068.457845,9104.533087
5649.710312,-518.144159,1838.629195,8734.430116
5649.710635,-518.144159,1762.019645,9548.656652
5649.710958,148.041188,1225.752797,9770.718434
5649.711282,740.205942,766.095498,9178.553681
5649.711605,-444.123565,1378.971896,9178.553681
5649.711928,-1036.288319,995.924147,10140.821405
5649.712251,-222.061783,459.657299,9770.718434
5649.712574,148.041188,536.266849,9400.615463
5649.712897,666.185348,919.314598,8364.327145
5649.713220,-222.061783,0.000000,9178.553681
5649.713543,-222.061783,-536.266849,9252.574275
5649.713866,518.144159,0.000000,8660.409521
5649.714189,296.082377,0.000000,8882.471304
5649.714512,-740.205942,-383.047749,9548.656652
5649.714836,-2072.576638,-995.924147,10881.027347
5649.715159,-888.247130,-919.314598,10658.965565
5649.715482,518.144159,-153.219100,8956.491898
5649.715805,518.144159,0.000000,8808.450710
5649.716128,1036.288319,-766.095498,9400.615463
5649.716451,888.247130,-1225.752797,9844.739029
5649.716774,1036.288319,-383.047749,9030.512492
5649.717097,1554.432478,-153.219100,8438.347739
5649.717420,222.061783,-842.705048,9548.656652
5649.717743,74.020594,-1149.143247,10510.924376
5649.718066,370.102971,-1302.362347,10510.924376
5649.718390,-148.041188,-536.266849,9770.718434
5649.718713,222.061783,-612.876398,9918.759623
5649.719036,222.061783,-689.485948,11103.089130
5649.719359,1110.308913,-766.095498,10658.965565
5649.719682,1036.288319,-459.657299,9252.574275
5649.720005,-148.041188,-153.219100,9400.615463
5649.720328,-740.205942,-919.314598,9844.739029
5649.720651,-296.082377,-459.657299,9918.759623
5649.720974,-444.123565,-306.438199,9622.677246
5649.721297,-1924.535449,-536.266849,9252.574275
5649.721621,-2960.823768,-612.876398,10140.821405
5649.721944,-1998.556043,-229.828649,9918.759623
5649.722267,-814.226536,383.047749,8956.491898
5649.722590,-1036.288319,612.876398,8068.244768
5649.722913,-444.123565,919.314598,9474.636058
5649.723236,-296.082377,612.876398,9474.636058
5649.723559,740.205942,1378.971896,8216.285956
5649.723882,592.164754,1608.800546,7624.121203
5649.724205,-370.102971,1149.143247,9030.512492
5649.724528,-518.144159,1225.752797,10066.800811
5649.724851,-518.144159,1838.629195,9252.574275
5649.725175,0.000000,1991.848295,9104.533087
5649.725498,962.267725,1991.848295,8586.388927
5649.725821,74.020594,1225.752797,9474.636058
5649.726144,592.164754,1915.238745,9326.594869
5649.726467,222.061783,2451.505594,8956.491898
5649.726790,0.000000,2298.286494,7846.182985
5649.727113,-444.123565,2145.067394,8660.409521
5649.727436,-370.102971,2145.067394,9104.533087
5649.727759,0.000000,2451.505594,9178.553681
5649.728082,-1628.453072,2145.067394,8512.368333
5649.728405,-1628.453072,2221.676944,9400.615463
5649.728729,-666.185348,1685.410096,9622.677246
5649.729052,-592.164754,1532.190996,8660.409521
5649.729375,-592.164754,1378.971896,8142.265362
5649.729698,-1702.473667,1302.362347,8586.388927
5649.730021,-1406.391290,1149.143247,9030.512492
5649.730344,-222.061783,1378.971896,8734.430116
5649.730667,-518.144159,1608.800546,8808.450710
5649.730990,-1480.411884,1225.752797,9474.636058
5649.731313,-1776.494261,766.095498,10658.965565
5649.731636,518.144159,1838.629195,9844.739029
5649.731959,2146.597232,2451.505594,9104.533087
5649.732283,1776.494261,1225.752797,8512.368333
5649.732606,1480.411884,612.876398,9770.718434
5649.732929,1406.391290,1072.533697,9696.697840
5649.733252,2220.617826,1608.800546,8438.347739
5649.733575,1924.535449,1149.143247,8882.471304
5649.733898,74.020594,-229.828649,9178.553681
5649.734221,-1258.350101,-536.266849,9918.759623
5649.734544,0.000000,0.000000,9474.636058
5649.734867,74.020594,383.047749,9104.533087
5649.735190,-148.041188,306.438199,8882.471304
5649.735513,-370.102971,-383.047749,10214.842000
5649.735837,74.020594,-842.705048,9400.615463
5649.736160,-740.205942,-459.657299,8364.327145
5649.736483,-814.226536,-459.657299,8142.265362
5649.736806,-592.164754,-2068.457845,9770.718434
5649.737129,-1110.308913,-1378.971896,9622.677246
5649.737452,-1850.514855,-1149.143247,9474.636058
5649.737775,-1850.514855,-1608.800546,9474.636058
5649.738098,-2368.659014,-1685.410096,10066.800811
5649.738421,-444.123565,-1149.143247,10140.821405
5649.738744,518.144159,-919.314598,9770.718434
5649.739067,296.082377,-536.266849,9104.533087
5649.739391,666.185348,-919.314598,9252.574275
5649.739714,1628.453072,-306.438199,10362.883188
5649.740037,2590.720797,153.219100,9548.656652
5649.740360,1776.494261,306.438199,9992.780217
5649.740683,222.061783,76.609550,10807.006753
5649.741006,592.164754,0.000000,11177.109724
5649.741329,1258.350101,689.485948,10436.903782
5649.741652,1776.494261,1608.800546,9252.574275
5649.741975,888.247130,383.047749,9400.615463
5649.742298,-1036.288319,-383.047749,9844.739029
5649.742622,-962.267725,306.438199,9400.615463
5649.742945,-518.144159,689.485948,8438.347739
5649.743268,-1480.411884,459.657299,8216.285956
5649.743591,-2368.659014,383.047749,9548.656652
5649.743914,-2442.679609,-229.828649,10140.821405
5649.744237,-1480.411884,459.657299,9104.533087
5649.744560,-1554.432478,1225.752797,7920.203579
5649.744883,-1480.411884,919.314598,9030.512492
5649.745206,-296.082377,766.095498,9326.594869
5649.745529,-296.082377,1225.752797,8586.388927
5649.745852,814.226536,2528.115143,8068.244768
5649.746176,74.020594,1608.800546,8882.471304
5649.746499,0.000000,919.314598,8734.430116
5649.746822,296.082377,1378.971896,9326.594869
5649.747145,-592.164754,2298.286494,9178.553681
5649.747468,-1036.288319,2298.286494,9548.656652
5649.747791,-296.082377,2374.896044,10140.821405
5649.748114,1036.288319,2221.676944,9474.636058
5649.748437,2294.638420,2757.943793,9030.512492
5649.748760,962.267725,2528.115143,8216.285956
5649.749083,518.144159,1685.410096,9326.594869
5649.749406,296.082377,1685.410096,9474.636058
5649.749730,370.102971,2145.067394,9104.533087
5649.750053,0.000000,1378.971896,8512.368333
5649.750376,-2072.576638,612.876398,9548.656652
5649.750699,-2516.700203,842.705048,9474.636058
5649.751022,-518.144159,1532.190996,8956.491898
5649.751345,-222.061783,1685.410096,8438.347739
5649.751668,222.061783,1225.752797,8808.450710
5649.751991,-296.082377,612.876398,9918.759623
5649.752314,74.020594,1225.752797,9326.594869
5649.752637,814.226536,2145.067394,8142.265362
5649.752960,444.123565,842.705048,8586.388927
5649.753284,370.102971,0.000000,10066.800811
5649.753607,-888.247130,0.000000,10807.006753
5649.753930,-296.082377,383.047749,9548.656652
5649.754253,-444.123565,229.828649,9474.636058
5649.754576,-222.061783,76.609550,9696.697840
5649.754899,518.144159,153.219100,10066.800811
5649.755222,592.164754,0.000000,9104.533087
5649.755545,592.164754,383.047749,8586.388927
5649.755868,370.102971,306.438199,9030.512492
5649.756191,740.205942,-306.438199,9474.636058
5649.756514,740.205942,-383.047749,8882.471304
5649.756838,-592.164754,-383.047749,8956.491898
5649.757161,-1036.288319,0.000000,9696.697840
5649.757484,-370.102971,-689.485948,9696.697840
5649.757807,296.082377,-1149.143247,9474.636058
5649.758130,666.185348,-1072.533697,8808.450710
5649.758453,-666.185348,-1378.971896,9326.594869
5649.758776,-1258.350101,-1608.800546,9844.739029
5649.759099,74.020594,-1302.362347,9918.759623
5649.759422,0.000000,-612.876398,9030.512492
5649.759745,-444.123565,-1072.533697,9770.718434
5649.760068,-1554.432478,-1225.752797,11029.068536
5649.760392,-1258.350101,-766.095498,11103.089130
5649.760715,370.102971,229.828649,9696.697840
5649.761038,222.061783,229.828649,8660.409521
5649.761361,0.000000,-383.047749,9770.718434
5649.761684,-444.123565,-459.657299,9622.677246
5649.762007,-740.205942,306.438199,8882.471304
5649.762330,666.185348,-76.609550,8216.285956
5649.762653,-666.185348,0.000000,9104.533087
5649.762976,-1702.473667,0.000000,10066.800811
5649.763299,-1036.288319,0.000000,10362.883188
5649.763622,-1702.473667,842.705048,9474.636058
5649.763946,-518.144159,995.924147,9696.697840
5649.764269,0.000000,919.314598,10362.883188
5649.764592,74.020594,1838.629195,9992.780217
5649.764915,1850.514855,1302.362347,8660.409521
5649.765238,518.144159,1608.800546,8068.244768
5649.765561,518.144159,1915.238745,8956.491898
5649.765884,370.102971,2145.067394,9474.636058
5649.766207,0.000000,1838.629195,9030.512492
5649.766530,-518.144159,1455.581446,8438.347739
5649.766853,-2294.638420,1532.190996,8808.450710
5649.767177,-1036.288319,1302.362347,8882.471304
5649.767500,-148.041188,2681.334243,8364.327145
5649.767823,-592.164754,2451.505594,7920.203579
5649.768146,-814.226536,1608.800546,8364.327145
5649.768469,-518.144159,1762.019645,8882.471304
5649.768792,370.102971,2757.943793,7994.224174
5649.769115,222.061783,2451.505594,7920.203579
5649.769438,-962.267725,2068.457845,8956.491898
5649.769761,-1332.370696,1225.752797,10362.883188
5649.770084,-1258.350101,1532.190996,9844.739029
5649.770407,-296.082377,2145.067394,9178.553681
5649.770731,444.123565,1915.238745,9030.512492
5649.771054,74.020594,1072.533697,9474.636058
5649.771377,666.185348,1378.971896,9104.533087
5649.771700,1110.308913,1302.362347,8882.471304
5649.772023,666.185348,1149.143247,8660.409521
5649.772346,222.061783,995.924147,10288.862594
5649.772669,0.000000,766.095498,10584.944971
5649.772992,740.205942,689.485948,10066.800811
5649.773315,0.000000,1149.143247,8734.430116
5649.773638,0.000000,383.047749,9992.780217
5649.773961,814.226536,76.609550,10436.903782
5649.774285,592.164754,229.828649,8808.450710
5649.774608,814.226536,766.095498,8586.388927
5649.774931,-740.205942,0.000000,8808.450710
5649.775254,-1258.350101,-383.047749,9770.718434
5649.775577,-666.185348,-459.657299,8956.491898
5649.775900,-370.102971,76.609550,9178.553681
5649.776223,-1924.535449,-689.485948,9030.512492
5649.776546,-2368.659014,-1072.533697,10584.944971
5649.776869,-1110.308913,-766.095498,10140.821405
5649.777192,666.185348,-306.438199,8882.471304
5649.777515,296.082377,-229.828649,8290.306550
5649.777839,-296.082377,-766.095498,9548.656652
5649.778162,-296.082377,-689.485948,9992.780217
5649.778485,-370.102971,-612.876398,8734.430116
5649.778808,1258.350101,-612.876398,7772.162391
5649.779131,-296.082377,-842.705048,9474.636058
5649.779454,-1110.308913,-1302.362347,9992.780217
5649.779777,-444.123565,-689.485948,10362.883188
5649.780100,-296.082377,153.219100,9178.553681
5649.780423,740.205942,76.609550,8956.491898
5649.780746,592.164754,-229.828649,9622.677246
5649.781069,814.226536,-459.657299,9844.739029
5649.781393,592.164754,229.828649,9474.636058
5649.781716,296.082377,383.047749,9178.553681
5649.782039,592.164754,0.000000,10066.800811
5649.782362,0.000000,-229.828649,10436.903782
5649.782685,-962.267725,0.000000,10214.842000
5649.783008,-518.144159,-536.266849,9400.615463
5649.783331,-1998.556043,76.609550,9770.718434
5649.783654,-592.164754,383.047749,8956.491898
5649.783977,148.041188,306.438199,9326.594869
5649.784300,-740.205942,383.047749,8364.327145
5649.784623,-370.102971,689.485948,9030.512492
5649.784947,0.000000,1225.752797,9474.636058
5649.785270,1406.391290,995.924147,9252.574275
5649.785593,74.020594,1762.019645,8512.368333
5649.785916,-1406.391290,1378.971896,9104.533087
5649.786239,-814.226536,1302.362347,10436.903782
5649.786562,-740.205942,1762.019645,9844.739029
5649.786885,666.185348,2374.896044,8512.368333
5649.787208,74.020594,2068.457845,8808.450710
5649.787531,-444.123565,1838.629195,9030.512492
5649.787854,222.061783,2374.896044,9252.574275
5649.788178,148.041188,2221.676944,7994.224174
5649.788501,-740.205942,2145.067394,8364.327145
5649.788824,-1036.288319,1685.410096,9104.533087
5649.789147,-1110.308913,995.924147,9474.636058
5649.789470,-370.102971,2298.286494,8660.409521
5649.789793,-222.061783,3064.381992,7698.141797
5649.790116,0.000000,1838.629195,8290.306550
5649.790440,296.082377,1991.848295,8882.471304
5649.790763,518.144159,1685.410096,8216.285956
5649.791086,666.185348,1685.410096,7846.182985
5649.791409,-296.082377,1608.800546,8734.430116
5649.791732,-740.205942,1149.143247,9622.677246
5649.792055,0.000000,383.047749,9400.615463
5649.792378,-370.102971,1149.143247,9844.739029
5649.792702,-1480.411884,1762.019645,9474.636058
5649.793025,-1110.308913,536.266849,10214.842000
5649.793348,962.267725,766.095498,9696.697840
5649.793671,1998.556043,1149.143247,8882.471304
5649.793994,962.267725,612.876398,8734.430116
5649.794317,0.000000,76.609550,9844.739029
5649.794640,148.041188,-306.438199,9622.677246
5649.794964,296.082377,229.828649,9178.553681
5649.795287,370.102971,-383.047749,9474.636058
5649.795610,-1480.411884,-995.924147,10214.842000
5649.795933,-1110.308913,-1225.752797,10584.944971
5649.796256,0.000000,-842.705048,10140.821405
5649.796579,0.000000,-612.876398,9030.512492
5649.796902,0.000000,-766.095498,9474.636058
5649.797226,518.144159,-689.485948,10510.924376
5649.797549,370.102971,-612.876398,10436.903782
5649.797872,1184.329507,153.219100,8364.327145
5649.798195,518.144159,-612.876398,9400.615463
5649.798518,-222.061783,-1225.752797,10288.862594
5649.798841,-1036.288319,-1532.190996,10436.903782
5649.799164,-962.267725,-995.924147,9696.697840
5649.799488,-740.205942,0.000000,8808.450710
5649.799811,-1258.350101,-689.485948,9030.512492
5649.800134,-222.061783,-1455.581446,9474.636058
5649.800457,0.000000,-766.095498,8882.471304
5649.800780,74.020594,-459.657299,8364.327145
5649.801103,0.000000,-536.266849,9104.533087
5649.801427,0.000000,-306.438199,9918.759623
5649.801750,888.247130,689.485948,10436.903782
5649.802073,-444.123565,153.219100,9178.553681
5649.802396,-888.247130,-229.828649,10510.924376
5649.802719,-148.041188,153.219100,10362.883188
5649.803042,962.267725,383.047749,10066.800811
5649.803365,1110.308913,842.705048,9178.553681
5649.803689,666.185348,383.047749,9326.594869
5649.804012,-444.123565,306.438199,10140.821405
5649.804335,-148.041188,766.095498,9770.718434
5649.804658,0.000000,1455.581446,9104.533087
5649.804981,-592.164754,1378.971896,8586.388927
5649.805304,-2146.597232,766.095498,10288.862594
5649.805627,-2220.617826,1378.971896,10214.842000
5649.805951,-888.247130,1532.190996,9326.594869
5649.806274,-666.185348,2221.676944,8142.265362
5649.806597,-1184.329507,1685.410096,8142.265362
5649.806920,-1554.432478,1532.190996,8808.450710
5649.807243,-888.247130,1762.019645,8068.244768
5649.807566,74.020594,2451.505594,7254.018232
5649.807889,-666.185348,2068.457845,7994.224174
5649.808213,-1702.473667,1455.581446,9030.512492
5649.808536,-1554.432478,1225.752797,9400.615463
5649.808859,-1480.411884,2374.896044,8808.450710
5649.809182,-814.226536,2987.772442,8586.388927
5649.809505,518.144159,2145.067394,9548.656652
5649.809828,1924.535449,2298.286494,9400.615463
5649.810151,2072.576638,2451.505594,8364.327145
5649.810475,592.164754,2451.505594,8290.306550
5649.810798,1184.329507,2374.896044,9326.594869
5649.811121,1406.391290,2298.286494,8660.409521
5649.811444,1184.329507,1685.410096,8956.491898
5649.811767,666.185348,995.924147,9474.636058
5649.812090,-1406.391290,1072.533697,9918.759623
5649.812413,-1036.288319,995.924147,9770.718434
5649.812737,222.061783,842.705048,9400.615463
5649.813060,0.000000,842.705048,8808.450710
5649.813383,-444.123565,-153.219100,8956.491898
5649.813706,-370.102971,306.438199,10066.800811
5649.814029,296.082377,612.876398,9844.739029
5649.814352,666.185348,306.438199,8512.368333
5649.814675,-444.123565,-306.438199,9696.697840
5649.814999,-1036.288319,-612.876398,10807.006753
5649.815322,-1184.329507,-383.047749,10510.924376
5649.815645,370.102971,-229.828649,8956.491898
5649.815968,518.144159,-459.657299,8808.450710
5649.816291,-1110.308913,-1532.190996,10362.883188
5649.816614,370.102971,-1455.581446,9400.615463
5649.816937,296.082377,-995.924147,9696.697840
5649.817261,222.061783,-383.047749,8142.265362
5649.817584,74.020594,-1072.533697,9770.718434
5649.817907,-370.102971,-919.314598,10214.842000
5649.818230,0.000000,-459.657299,9918.759623
5649.818553,-444.123565,-536.266849,8734.430116
5649.818876,-962.267725,-306.438199,9770.718434
5649.819199,296.082377,-229.828649,10584.944971
5649.819523,370.102971,-153.219100,9474.636058
5649.819846,222.061783,-229.828649,8660.409521
5649.820169,-222.061783,-306.438199,8142.265362
5649.820492,-1480.411884,-842.705048,8734.430116
5649.820815,-518.144159,-229.828649,8808.450710
5649.821138,-1480.411884,-459.657299,8660.409521
5649.821462,-2664.741391,0.000000,8956.491898
5649.821785,-2664.741391,-306.438199,9844.739029
5649.822108,-1924.535449,-306.438199,10140.821405
5649.822431,296.082377,766.095498,8808.450710
5649.822754,74.020594,1225.752797,8438.347739
5649.823077,370.102971,76.609550,9548.656652
5649.823400,222.061783,459.657299,10214.842000
5649.823724,518.144159,1225.752797,9474.636058
5649.824047,1406.391290,1838.629195,8882.471304
5649.824370,222.061783,1072.533697,9770.718434
5649.824693,-1332.370696,1225.752797,10436.903782
5649.825016,0.000000,1302.362347,11177.109724
5649.825339,148.041188,1991.848295,9474.636058
5649.825662,-296.082377,2145.067394,8956.491898
5649.825986,0.000000,1838.629195,9474.636058
5649.826309,74.020594,1378.971896,9696.697840
5649.826632,518.144159,1838.629195,7550.100608
5649.826955,148.041188,2451.505594,7698.141797
5649.827278,0.000000,1685.410096,8438.347739
5649.827601,-222.061783,919.314598,9252.574275
5649.827924,-962.267725,1532.190996,8734.430116
5649.828248,-814.226536,1455.581446,8364.327145
5649.828571,-1258.350101,1302.362347,8734.430116
5649.828894,0.000000,1455.581446,8512.368333
5649.829217,1110.308913,1302.362347,8512.368333
5649.829540,74.020594,1915.238745,8216.285956
5649.829863,222.061783,1149.143247,8586.388927
5649.830186,962.267725,1608.800546,8882.471304
5649.830510,1924.535449,2298.286494,9400.615463
5649.830833,1702.473667,2374.896044,8586.388927
5649.831156,0.000000,1225.752797,9400.615463
5649.831479,-666.185348,995.924147,10214.842000
5649.831802,222.061783,1532.190996,9918.759623
5649.832125,1184.329507,1762.019645,8364.327145
5649.832448,666.185348,612.876398,9030.512492
5649.832772,-1406.391290,-459.657299,9548.656652
5649.833095,-814.226536,-766.095498,9696.697840
5649.833418,-444.123565,76.609550,9104.533087
5649.833741,-814.226536,459.657299,8808.450710
5649.834064,-1924.535449,0.000000,10214.842000
5649.834387,-1702.473667,-536.266849,11103.089130
5649.834710,-296.082377,0.000000,10288.862594
5649.835034,74.020594,0.000000,8882.471304
5649.835357,0.000000,0.000000,9918.759623
5649.835680,592.164754,-459.657299,9992.780217
5649.836003,74.020594,-766.095498,9474.636058
5649.836326,1184.329507,76.609550,8808.450710
5649.836649,74.020594,0.000000,8660.409521
5649.836972,-1036.288319,-766.095498,9326.594869
5649.837296,-444.123565,-1149.143247,9844.739029
5649.837619,-740.205942,-1149.143247,9400.615463
5649.837942,-1332.370696,-612.876398,8882.471304
5649.838265,-962.267725,-383.047749,9770.718434
5649.838588,0.000000,-689.485948,9400.615463
5649.838911,1406.391290,0.000000,8734.430116
5649.839235,0.000000,-383.047749,8364.327145
5649.839558,148.041188,-536.266849,9252.574275
5649.839881,296.082377,-919.314598,9326.594869
5649.840204,592.164754,-612.876398,8882.471304
5649.840527,888.247130,-229.828649,8734.430116
5649.840850,-814.226536,-612.876398,10066.800811
5649.841173,-1480.411884,-383.047749,10510.924376
5649.841497,-370.102971,-612.876398,9770.718434
5649.841820,444.123565,306.438199,9622.677246
5649.842143,814.226536,306.438199,9918.759623
5649.842466,518.144159,-612.876398,10658.965565
5649.842789,814.226536,-153.219100,10214.842000
5649.843112,592.164754,1455.581446,9548.656652
5649.843435,-370.102971,76.609550,9326.594869
5649.843759,-296.082377,0.000000,10436.903782
5649.844082,-1628.453072,229.828649,10288.862594
5649.844405,-1480.411884,689.485948,9548.656652
5649.844728,-962.267725,1225.752797,8808.450710
5649.845051,-1554.432478,1149.143247,9178.553681
5649.845374,-888.247130,2068.457845,9178.553681
5649.845697,-740.205942,995.924147,8290.306550
5649.846021,-1110.308913,1532.190996,7476.080014
5649.846344,-1110.308913,2221.676944,8290.306550
5649.846667,-592.164754,1302.362347,8808.450710
5649.846990,222.061783,1838.629195,8734.430116
5649.847313,-444.123565,2145.067394,8216.285956
5649.847636,-1406.391290,2068.457845,8734.430116
5649.847959,-740.205942,2068.457845,9696.697840
5649.848283,148.041188,2604.724693,8808.450710
5649.848606,1406.391290,2528.115143,8290.306550
5649.848929,1036.288319,2221.676944,7698.141797
5649.849252,-296.082377,1685.410096,8808.450710
5649.849575,222.061783,1991.848295,9104.533087
5649.849898,370.102971,2298.286494,8438.347739
5649.850221,-370.102971,1762.019645,7846.182985
5649.850545,-1332.370696,2068.457845,9474.636058
5649.850868,-1184.329507,1225.752797,9548.656652
5649.851191,0.000000,2068.457845,9400.615463
5649.851514,0.000000,1762.019645,7994.224174
5649.851837,-518.144159,995.924147,8660.409521
5649.852160,-592.164754,306.438199,9622.677246
5649.852483,-888.247130,153.219100,9326.594869
5649.852807,0.000000,1149.143247,8882.471304
5649.853130,-444.123565,76.609550,9622.677246
5649.853453,-1332.370696,-306.438199,10732.986159
5649.853776,-888.247130,-536.266849,11251.130318
5649.854099,-1332.370696,0.000000,11029.068536
5649.854422,-370.102971,306.438199,10140.821405
5649.854745,444.123565,0.000000,10732.986159
5649.855069,2220.617826,-459.657299,9918.759623
5649.855392,2516.700203,0.000000,9030.512492
5649.855715,1036.288319,459.657299,8734.430116
5649.856038,740.205942,-229.828649,9474.636058
5649.856361,888.247130,-383.047749,9326.594869
5649.856684,370.102971,-459.657299,9104.533087
5649.857007,74.020594,0.000000,8882.471304
5649.857331,-2072.576638,-919.314598,9622.677246
5649.857654,-1702.473667,-1149.143247,9622.677246
5649.857977,148.041188,-612.876398,8956.491898
5649.858300,-74.020594,-536.266849,8438.347739
5649.858623,-888.247130,-612.876398,8586.388927
5649.858946,-888.247130,-689.485948,9474.636058
5649.859270,370.102971,-153.219100,9326.594869
5649.859593,1406.391290,0.000000,8438.347739
5649.859916,-148.041188,0.000000,8734.430116
5649.860239,-1332.370696,-842.705048,9918.759623
5649.860562,-1258.350101,-1072.533697,10436.903782
5649.860885,0.000000,0.000000,9548.656652
5649.861208,592.164754,-76.609550,9030.512492
5649.861532,0.000000,-383.047749,9474.636058
5649.861855,518.144159,-842.705048,9474.636058
5649.862178,518.144159,0.000000,9178.553681
5649.862501,0.000000,536.266849,8586.388927
5649.862824,-296.082377,459.657299,9252.574275
5649.863147,-592.164754,0.000000,10510.924376
5649.863470,-222.061783,306.438199,10955.047942
5649.863794,-370.102971,1378.971896,9696.697840
5649.864117,-296.082377,1072.533697,9178.553681
5649.864440,74.020594,1302.362347,10066.800811
5649.864763,148.041188,1762.019645,9770.718434
5649.865086,518.144159,919.314598,8808.450710
5649.865409,-148.041188,1378.971896,8512.368333
5649.865732,-1332.370696,995.924147,8956.491898
5649.866056,-518.144159,919.314598,9252.574275
5649.866379,-888.247130,1685.410096,8512.368333
5649.866702,-1850.514855,2068.457845,8216.285956
5649.867025,-1702.473667,1455.581446,9474.636058
5649.867348,-740.205942,842.705048,9770.718434
5649.867671,962.267725,2451.505594,8734.430116
5649.867994,740.205942,2374.896044,7846.182985
5649.868318,0.000000,1455.581446,8734.430116
5649.868641,148.041188,1838.629195,8956.491898
5649.868964,814.226536,2987.772442,8068.244768
5649.869287,962.267725,2528.115143,7550.100608
5649.869610,74.020594,2298.286494,8438.347739
5649.869933,-1406.391290,842.705048,9992.780217
5649.870256,-1332.370696,1378.971896,9696.697840
5649.870580,-518.144159,1762.019645,8882.471304
5649.870903,74.020594,2374.896044,8290.306550
5649.871226,0.000000,1149.143247,9992.780217
5649.871549,1110.308913,1608.800546,9548.656652
5649.871872,1184.329507,1532.190996,9178.553681
5649.872195,0.000000,1149.143247,8290.306550
5649.872518,222.061783,153.219100,9400.615463
5649.872842,-148.041188,0.000000,10140.821405
5649.873165,-1036.288319,76.609550,9918.759623
5649.873488,-1184.329507,689.485948,9474.636058
5649.873811,-1480.411884,0.000000,9400.615463
5649.874134,-592.164754,-459.657299,9474.636058
5649.874457,370.102971,-306.438199,9474.636058
5649.874780,222.061783,-306.438199,8956.491898
5649.875104,296.082377,76.609550,9548.656652
5649.875427,370.102971,-153.219100,10288.862594
5649.875750,1554.432478,229.828649,10140.821405
5649.876073,962.267725,0.000000,9844.739029
5649.876396,-666.185348,0.000000,9844.739029
5649.876719,-814.226536,-689.485948,11251.130318
5649.877043,-74.020594,0.000000,10214.842000
5649.877366,740.205942,229.828649,9178.553681
5649.877689,518.144159,-229.828649,8512.368333
5649.878012,-1110.308913,-995.924147,9178.553681
5649.878335,-518.144159,-995.924147,9030.512492
5649.878658,74.020594,-76.609550,7994.224174
5649.878981,74.020594,766.095498,7920.203579
5649.879305,-740.205942,-612.876398,9178.553681
5649.879628,-1628.453072,-919.314598,10362.883188
5649.879951,-444.123565,-689.485948,9770.718434
5649.880274,0.000000,0.000000,8364.327145
5649.880597,-148.041188,-153.219100,8956.491898
5649.880920,666.185348,-459.657299,9992.780217
5649.881243,222.061783,76.609550,9622.677246
5649.881567,888.247130,153.219100,9474.636058
5649.881890,-444.123565,0.000000,8734.430116
5649.882213,-1406.391290,-612.876398,9770.718434
5649.882536,-1110.308913,-459.657299,10436.903782
5649.882859,-1332.370696,-153.219100,10584.944971
5649.883182,-1184.329507,536.266849,9992.780217
5649.883505,-1110.308913,153.219100,10140.821405
5649.883829,-444.123565,689.485948,10658.965565
5649.884152,666.185348,1149.143247,9252.574275
5649.884475,740.205942,995.924147,8586.388927
5649.884798,0.000000,842.705048,9178.553681
5649.885121,518.144159,1225.752797,9548.656652
5649.885444,740.205942,1302.362347,9252.574275
5649.885767,962.267725,1455.581446,8586.388927
5649.886091,-592.164754,995.924147,10066.800811
5649.886414,-1850.514855,459.657299,10436.903782
5649.886737,-592.164754,1225.752797,10140.821405
5649.887060,148.041188,1685.410096,8956.491898
5649.887383,444.123565,1685.410096,8734.430116
5649.887706,-444.123565,1455.581446,9400.615463
5649.888029,888.247130,2451.505594,9030.512492
5649.888353,888.247130,2221.676944,7698.141797
5649.888676,74.020594,2068.457845,7698.141797
5649.888999,-370.102971,1149.143247,8734.430116
5649.889322,-1554.432478,1225.752797,9474.636058
5649.889645,-1924.535449,1608.800546,9104.533087
5649.889968,-1258.350101,1838.629195,7920.203579
5649.890292,-888.247130,1532.190996,7994.224174
5649.890615,-1184.329507,1915.238745,9030.512492
5649.890938,-666.185348,689.485948,9326.594869
5649.891261,-962.267725,1149.143247,8364.327145
5649.891584,-666.185348,1532.190996,9178.553681
5649.891907,222.061783,1072.533697,9104.533087
5649.892230,592.164754,1685.410096,10140.821405
5649.892554,1184.329507,1455.581446,9030.512492
5649.892877,-74.020594,1455.581446,10510.924376
5649.893200,444.123565,1072.533697,9622.677246
5649.893523,1184.329507,689.485948,9622.677246
5649.893846,1776.494261,689.485948,9400.615463
5649.894169,740.205942,536.266849,9326.594869
5649.894493,-740.205942,0.000000,9844.739029
5649.894816,-518.144159,-229.828649,10214.842000
5649.895139,0.000000,383.047749,9030.512492
5649.895462,-888.247130,-689.485948,9030.512492
5649.895785,-1776.494261,-536.266849,9992.780217
5649.896108,-1776.494261,-383.047749,10584.944971
5649.896431,222.061783,689.485948,9252.574275
5649.896755,740.205942,919.314598,7920.203579
5649.897078,444.123565,612.876398,8586.388927
5649.897401,222.061783,-306.438199,8882.471304
5649.897724,0.000000,76.609550,9622.677246
5649.898047,888.247130,383.047749,8660.409521
5649.898370,592.164754,-229.828649,9104.533087
5649.898694,-1406.391290,-1455.581446,10214.842000
5649.899017,-1480.411884,-1532.190996,10658.965565
5649.899340,-1628.453072,-1532.190996,10214.842000
5649.899663,-1036.288319,-1072.533697,9400.615463
5649.899986,-370.102971,-766.095498,10362.883188
5649.900309,370.102971,-766.095498,10362.883188
5649.900632,1406.391290,-306.438199,9252.574275
5649.900956,888.247130,153.219100,7994.224174
5649.901279,370.102971,0.000000,9252.574275
5649.901602,666.185348,-536.266849,9326.594869
5649.901925,0.000000,-306.438199,9400.615463
5649.902248,74.020594,306.438199,8660.409521
5649.902571,-1258.350101,153.219100,9474.636058
5649.902895,-1924.535449,76.609550,9696.697840
5649.903218,0.000000,536.266849,9474.636058
5649.903541,74.020594,536.266849,9030.512492
5649.903864,0.000000,536.266849,8734.430116
5649.904187,-370.102971,383.047749,9992.780217
5649.904510,74.020594,766.095498,9474.636058
5649.904833,1110.308913,1378.971896,9326.594869
5649.905157,0.000000,842.705048,9326.594869
5649.905480,-444.123565,536.266849,10436.903782
5649.905803,-814.226536,689.485948,10214.842000
5649.906126,0.000000,1608.800546,9474.636058
5649.906449,740.205942,2757.943793,8734.430116
5649.906772,-222.061783,1149.143247,9030.512492
5649.907096,-444.123565,459.657299,9252.574275
5649.907419,0.000000,919.314598,8586.388927
5649.907742,0.000000,1838.629195,8216.285956
5649.908065,-518.144159,1915.238745,8734.430116
5649.908388,-888.247130,1072.533697,9992.780217
5649.908711,-740.205942,1608.800546,9696.697840
5649.909034,-592.164754,2145.067394,8956.491898
5649.909358,-740.205942,1991.848295,9474.636058
5649.909681,296.082377,1838.629195,9844.739029
5649.910004,592.164754,1838.629195,9474.636058
5649.910327,518.144159,1915.238745,8364.327145
5649.910650,296.082377,2451.505594,8290.306550
5649.910973,-1110.308913,1378.971896,8512.368333
5649.911297,222.061783,1302.362347,8660.409521
5649.911620,296.082377,995.924147,8586.388927
5649.911943,-814.226536,1302.362347,8956.491898
5649.912266,-1554.432478,919.314598,9474.636058
5649.912589,-814.226536,766.095498,10140.821405
5649.912912,1480.411884,612.876398,8956.491898
5649.913235,888.247130,2068.457845,8216.285956
5649.913559,0.000000,612.876398,8808.450710
5649.913882,222.061783,459.657299,10066.800811
5649.914205,74.020594,689.485948,9696.697840
5649.914528,1036.288319,842.705048,8808.450710
5649.914851,-518.144159,0.000000,9178.553681
5649.915174,-2072.576638,-536.266849,10140.821405
5649.915498,-1776.494261,-153.219100,10658.965565
5649.915821,-592.164754,229.828649,9178.553681
5649.916144,0.000000,612.876398,8882.471304
5649.916467,0.000000,0.000000,9622.677246
5649.916790,370.102971,-536.266849,9696.697840
5649.917113,1036.288319,0.000000,8660.409521
5649.917436,444.123565,459.657299,7846.182985
5649.917760,592.164754,-612.876398,8734.430116
5649.918083,0.000000,-612.876398,9992.780217
5649.918406,-814.226536,-536.266849,9918.759623
5649.918729,0.000000,-842.705048,9548.656652
5649.919052,-814.226536,-995.924147,9178.553681
5649.919375,-296.082377,-383.047749,9992.780217
5649.919699,1110.308913,-383.047749,9622.677246
5649.920022,592.164754,-306.438199,9474.636058
5649.920345,222.061783,153.219100,8438.347739
5649.920668,740.205942,0.000000,9474.636058
5649.920991,1480.411884,0.000000,9474.636058
5649.921314,592.164754,-306.438199,9696.697840
5649.921637,-666.185348,-306.438199,9326.594869
5649.921961,-1036.288319,-995.924147,10881.027347
5649.922284,-296.082377,-76.609550,9696.697840
5649.922607,148.041188,0.000000,9474.636058
5649.922930,518.144159,0.000000,9178.553681
5649.923253,-1480.411884,-689.485948,9474.636058
5649.923576,-1258.350101,-919.314598,9844.739029
5649.923900,-222.061783,0.000000,9252.574275
5649.924223,-962.267725,0.000000,8586.388927
5649.924546,-888.247130,-383.047749,9400.615463
5649.924869,-1850.514855,-229.828649,10807.006753
5649.925192,-888.247130,306.438199,9844.739029
5649.925515,296.082377,1608.800546,9178.553681
5649.925838,-444.123565,1225.752797,9474.636058
5649.926162,222.061783,689.485948,9696.697840
5649.926485,370.102971,459.657299,9474.636058
5649.926808,1036.288319,1762.019645,8068.244768
5649.927131,814.226536,1455.581446,7846.182985
5649.927454,-740.205942,689.485948,9474.636058
5649.927777,-148.041188,1378.971896,9548.656652
5649.928101,-592.164754,1915.238745,9474.636058
5649.928424,-1258.350101,2451.505594,8734.430116
5649.928747,-962.267725,1991.848295,9178.553681
5649.929070,0.000000,1915.238745,9030.512492
5649.929393,1258.350101,2145.067394,8364.327145
5649.929716,444.123565,2681.334243,7402.059420
5649.930039,-1184.329507,1685.410096,8660.409521
5649.930363,-814.226536,1685.410096,9030.512492
5649.930686,-444.123565,1685.410096,8660.409521
5649.931009,-296.082377,1838.629195,7994.224174
5649.931332,-1924.535449,1532.190996,9252.574275
5649.931655,-2664.741391,842.705048,10288.862594
5649.931978,-1480.411884,1685.410096,9918.759623
5649.932302,-444.123565,1455.581446,8586.388927
5649.932625,-518.144159,1915.238745,8438.347739
5649.932948,-740.205942,1225.752797,9474.636058
5649.933271,74.020594,1149.143247,9622.677246
5649.933594,1184.329507,1532.190996,8512.368333
5649.933917,888.247130,1915.238745,8068.244768
5649.934240,370.102971,1072.533697,9696.697840
5649.934564,-666.185348,459.657299,10584.944971
5649.934887,-518.144159,919.314598,9770.718434
5649.935210,592.164754,1149.143247,8882.471304
5649.935533,518.144159,919.314598,8660.409521
5649.935856,592.164754,0.000000,9844.739029
5649.936179,888.247130,76.609550,9178.553681
5649.936503,74.020594,995.924147,8956.491898
5649.936826,74.020594,229.828649,8586.388927
5649.937149,296.082377,-306.438199,9622.677246
5649.937472,740.205942,0.000000,10140.821405
5649.937795,148.041188,-306.438199,9696.697840
5649.938118,-888.247130,-689.485948,9474.636058
5649.938441,-222.061783,-1225.752797,9770.718434
5649.938765,0.000000,-689.485948,9474.636058
5649.939088,518.144159,-536.266849,9622.677246
5649.939411,592.164754,-995.924147,9178.553681
5649.939734,-1184.329507,-1762.019645,8956.491898
5649.940057,-518.144159,-1838.629195,9400.615463
5649.940380,148.041188,-1072.533697,9326.594869
5649.940704,-1036.288319,-689.485948,8882.471304
5649.941027,-1628.453072,-1225.752797,9844.739029
5649.941350,-1776.494261,-766.095498,10214.842000
5649.941673,370.102971,-612.876398,9770.718434
5649.941996,1258.350101,383.047749,8734.430116
5649.942319,592.164754,0.000000,9400.615463
5649.942642,518.144159,-306.438199,10288.862594
5649.942966,296.082377,0.000000,9400.615463
5649.943289,740.205942,459.657299,8808.450710
5649.943612,1332.370696,612.876398,8882.471304
5649.943935,-148.041188,-1378.971896,9844.739029
5649.944258,-962.267725,-842.705048,10140.821405
5649.944581,-888.247130,229.828649,10214.842000
5649.944905,-1036.288319,842.705048,9252.574275
5649.945228,-962.267725,153.219100,10214.842000
5649.945551,-222.061783,153.219100,9178.553681
5649.945874,666.185348,0.000000,8216.285956
5649.946197,0.000000,1225.752797,7402.059420
5649.946520,-444.123565,842.705048,9104.533087
5649.946843,-666.185348,766.095498,9844.739029
5649.947167,-1406.391290,612.876398,9030.512492
5649.947490,-1258.350101,1149.143247,8438.347739
5649.947813,-2368.659014,1072.533697,8956.491898
5649.948136,-2072.576638,1302.362347,9400.615463
5649.948459,148.041188,1532.190996,9252.574275
5649.948782,296.082377,1838.629195,8290.306550
5649.949106,0.000000,2298.286494,8216.285956
5649.949429,-148.041188,1991.848295,9474.636058
5649.949752,444.123565,2068.457845,9030.512492
5649.950075,1628.453072,2681.334243,8142.265362
5649.950398,1184.329507,2528.115143,8438.347739
5649.950721,148.041188,1838.629195,10066.800811
5649.951044,0.000000,1225.752797,10362.883188
5649.951368,148.041188,1838.629195,9474.636058
5649.951691,1628.453072,2298.286494,8364.327145
5649.952014,296.082377,1608.800546,8882.471304
5649.952337,-296.082377,1685.410096,9622.677246
5649.952660,592.164754,1762.019645,9252.574275
5649.952983,-222.061783,1838.629195,8068.244768
5649.953307,296.082377,1378.971896,8660.409521
5649.953630,-1036.288319,995.924147,10288.862594
5649.953953,-1110.308913,842.705048,10436.903782
5649.954276,-1036.288319,1455.581446,9326.594869
5649.954599,-1332.370696,1378.971896,8734.430116
5649.954922,-370.102971,1532.190996,9030.512492
5649.955245,-444.123565,612.876398,9030.512492
5649.955569,0.000000,459.657299,8364.327145
5649.955892,148.041188,383.047749,8290.306550
5649.956215,-1036.288319,459.657299,8586.388927
5649.956538,0.000000,306.438199,9400.615463
5649.956861,148.041188,766.095498,9178.553681
5649.957184,-1036.288319,-153.219100,8586.388927
5649.957508,-888.247130,-306.438199,9474.636058
5649.957831,0.000000,-689.485948,9696.697840
5649.958154,1628.453072,-229.828649,9326.594869
5649.958477,1776.494261,0.000000,8586.388927
5649.958800,888.247130,-612.876398,9252.574275
5649.959123,888.247130,-1225.752797,10214.842000
5649.959446,962.267725,-766.095498,9326.594869
5649.959770,1036.288319,-383.047749,9252.574275
5649.960093,-148.041188,-1378.971896,9252.574275
5649.960416,-1924.535449,-1762.019645,11029.068536
5649.960739,-1258.350101,-1455.581446,10584.944971
5649.961062,-666.185348,-1072.533697,9548.656652
5649.961385,-592.164754,-536.266849,8734.430116
5649.961709,0.000000,-766.095498,9770.718434
5649.962032,-370.102971,-1149.143247,10214.842000
5649.962355,592.164754,-766.095498,8438.347739
5649.962678,518.144159,-153.219100,8290.306550
5649.963001,74.020594,-766.095498,9622.677246
5649.963324,0.000000,-1302.362347,10658.965565
5649.963647,-518.144159,-995.924147,10140.821405
5649.963971,-222.061783,-459.657299,9918.759623
5649.964294,-740.205942,-383.047749,9622.677246
5649.964617,-518.144159,-383.047749,10140.821405
5649.964940,0.000000,0.000000,10436.903782
5649.965263,222.061783,76.609550,8808.450710
5649.965586,-592.164754,76.609550,9474.636058
5649.965910,-296.082377,383.047749,9474.636058
5649.966233,148.041188,612.876398,10362.883188
5649.966556,666.185348,1225.752797,8586.388927
5649.966879,-1332.370696,536.266849,9252.574275
5649.967202,-1554.432478,1072.533697,9252.574275
5649.967525,-1406.391290,1149.143247,9104.533087
5649.967848,0.000000,2221.676944,7920.203579
5649.968172,592.164754,1762.019645,7624.121203
5649.968495,-1628.453072,1072.533697,8586.388927
5649.968818,-2146.597232,842.705048,8586.388927
5649.969141,444.123565,1532.190996,8512.368333
5649.969464,-962.267725,1991.848295,7920.203579
5649.969787,-518.144159,2145.067394,9104.533087
5649.970111,-1406.391290,1302.362347,10955.047942
5649.970434,-370.102971,2145.067394,10214.842000
5649.970757,666.185348,2987.772442,9400.615463
5649.971080,518.144159,3447.429741,8512.368333
5649.971403,814.226536,2987.772442,9400.615463
5649.971726,1184.329507,2681.334243,9326.594869
5649.972049,740.205942,2528.115143,8290.306550
5649.972373,1036.288319,2757.943793,7772.162391
5649.972696,-814.226536,2068.457845,8438.347739
5649.973019,-592.164754,1762.019645,8956.491898
5649.973342,-1258.350101,2145.067394,9178.553681
5649.973665,-1702.473667,2528.115143,8438.347739
5649.973988,-1480.411884,1915.238745,9030.512492
5649.974312,-666.185348,919.314598,8882.471304
5649.974635,666.185348,1762.019645,8956.491898
5649.974958,296.082377,1838.629195,8068.244768
5649.975281,-666.185348,1225.752797,8808.450710
5649.975604,0.000000,536.266849,9622.677246
5649.975927,222.061783,1685.410096,9400.615463
5649.976250,370.102971,919.314598,9178.553681
5649.976574,-888.247130,536.266849,9548.656652
5649.976897,-1554.432478,-383.047749,10436.903782
5649.977220,296.082377,-76.609550,9992.780217
5649.977543,740.205942,306.438199,9474.636058
5649.977866,666.185348,0.000000,8956.491898
5649.978189,-148.041188,-153.219100,10214.842000
5649.978513,-740.205942,-995.924147,10436.903782
5649.978836,1184.329507,-919.314598,8290.306550
5649.979159,740.205942,-689.485948,8290.306550
5649.979482,-370.102971,-1302.362347,10066.800811
5649.979805,-1110.308913,-1762.019645,10955.047942
5649.980128,-1406.391290,-1302.362347,10436.903782
5649.980451,-222.061783,-842.705048,9104.533087
5649.980775,-370.102971,-995.924147,9326.594869
5649.981098,222.061783,-1915.238745,9844.739029
5649.981421,814.226536,-1532.190996,10066.800811
5649.981744,814.226536,-995.924147,9252.574275
5649.982067,666.185348,-383.047749,9252.574275
5649.982390,592.164754,-766.095498,9918.759623
