#time,accel_x,accel_y,accel_z
28657.321082,1628.453072,766.095498,9992.780217
28657.321411,0.000000,1302.362347,9474.636058
28657.321739,518.144159,919.314598,9030.512492
28657.322068,1776.494261,76.609550,9548.656652
28657.322396,0.000000,612.876398,9548.656652
28657.322725,-740.205942,536.266849,9178.553681
28657.323054,0.000000,383.047749,9326.594869
28657.323382,0.000000,153.219100,8956.491898
28657.323711,-222.061783,0.000000,9326.594869
28657.324039,0.000000,536.266849,9252.574275
28657.324368,0.000000,1072.533697,8660.409521
28657.324696,814.226536,919.314598,8956.491898
28657.325025,370.102971,842.705048,9326.594869
28657.325353,-962.267725,766.095498,9474.636058
28657.325682,-888.247130,842.705048,9400.615463
28657.326010,296.082377,153.219100,9696.697840
28657.326339,-444.123565,76.609550,9918.759623
28657.326667,-1480.411884,-153.219100,8808.450710
28657.326996,-148.041188,383.047749,9474.636058
28657.327324,0.000000,766.095498,9104.533087
28657.327653,370.102971,919.314598,9474.636058
28657.327981,666.185348,842.705048,9548.656652
28657.328310,1184.329507,1149.143247,8956.491898
28657.328638,2294.638420,1302.362347,8882.471304
28657.328967,2220.617826,2374.896044,9844.739029
28657.329295,1036.288319,1455.581446,9400.615463
28657.329624,1036.288319,1149.143247,8734.430116
28657.329952,2072.576638,919.314598,9400.615463
28657.330281,1258.350101,1532.190996,9622.677246
28657.330609,0.000000,1455.581446,8882.471304
28657.330938,740.205942,1455.581446,8438.347739
28657.331266,1406.391290,766.095498,8956.491898
28657.331595,1036.288319,1608.800546,9252.574275
28657.331923,1184.329507,2221.676944,10066.800811
28657.332252,1850.514855,1915.238745,9326.594869
28657.332581,2960.823768,1915.238745,9400.615463
28657.332909,2960.823768,2374.896044,9696.697840
28657.333238,1850.514855,3294.210641,9474.636058
28657.333566,2590.720797,3294.210641,9030.512492
28657.333895,3404.947333,2298.286494,8956.491898
28657.334223,3552.988522,3217.601092,9474.636058
28657.334552,2368.659014,4290.134789,8808.450710
28657.334880,3404.947333,3830.477490,8808.450710
28657.335209,4219.173869,3370.820191,8956.491898
28657.335537,3627.009116,3983.696590,9030.512492
28657.335866,3034.844362,4519.963438,9178.553681
28657.336194,3330.926739,4903.011187,8438.347739
28657.336523,4293.194464,4290.134789,8660.409521
28657.336851,4145.153275,4443.353888,9030.512492
28657.337180,2590.720797,5056.230287,8956.491898
28657.337508,1998.556043,5056.230287,7846.182985
28657.337837,2220.617826,3294.210641,7698.141797
28657.338165,1776.494261,3294.210641,7698.141797
28657.338494,0.000000,3140.991542,8142.265362
28657.338822,-222.061783,3370.820191,7994.224174
28657.339151,0.000000,2298.286494,8290.306550
28657.339479,-222.061783,1685.410096,8882.471304
28657.339808,-518.144159,2374.896044,9474.636058
28657.340136,666.185348,2604.724693,9252.574275
28657.340465,1480.411884,2911.162892,9252.574275
28657.340793,2664.741391,2374.896044,10066.800811
28657.341122,2368.659014,2757.943793,11103.089130
28657.341450,2294.638420,2757.943793,10066.800811
28657.341779,3182.885551,1685.410096,10362.883188
28657.342108,3182.885551,995.924147,11029.068536
28657.342436,2664.741391,1072.533697,11547.212695
28657.342765,2960.823768,2604.724693,10214.842000
28657.343093,4071.132681,1608.800546,10362.883188
28657.343422,3552.988522,1532.190996,9844.739029
28657.343750,3034.844362,2834.553343,8882.471304
28657.344079,3256.906145,3217.601092,7476.080014
28657.344407,3923.091493,3447.429741,6587.832884
28657.344736,3701.029710,3370.820191,6661.853478
28657.345064,2368.659014,3217.601092,7402.059420
28657.345393,1036.288319,3524.039291,6069.688724
28657.345721,814.226536,1378.971896,6661.853478
28657.346050,-148.041188,536.266849,7846.182985
28657.346378,-2146.597232,536.266849,9178.553681
28657.346707,-2664.741391,-612.876398,9992.780217
28657.347035,-2146.597232,-2145.067394,11251.130318
28657.347364,-2146.597232,-3370.820191,13101.645173
28657.347692,-1924.535449,-3370.820191,14063.912898
28657.348021,-1554.432478,-1915.238745,13175.665768
28657.348349,592.164754,-1225.752797,13397.727550
28657.348678,2368.659014,-1072.533697,12805.562797
28657.349006,2886.803174,689.485948,11399.171507
28657.349335,3849.070898,2451.505594,9474.636058
28657.349663,6365.771101,3447.429741,7846.182985
28657.349992,7994.224174,5362.668486,7254.018232
28657.350320,7624.121203,6588.421283,7179.997637
28657.350649,7328.038826,7507.735880,6957.935855
28657.350977,7105.977043,6511.811733,7105.977043
28657.351306,6439.791695,5132.839837,8438.347739
28657.351635,4663.297435,4290.134789,10288.862594
28657.351963,1406.391290,3907.087040,11103.089130
28657.352292,444.123565,1685.410096,10955.047942
28657.352620,74.020594,-689.485948,11251.130318
28657.352949,-814.226536,-612.876398,11177.109724
28657.353277,-592.164754,2221.676944,10140.821405
28657.353606,1776.494261,4519.963438,8216.285956
28657.353934,4145.153275,5132.839837,6883.915261
28657.354263,5033.400406,7048.078582,5403.503377
28657.354591,4885.359217,9806.022374,3775.050304
28657.354920,4885.359217,9806.022374,3849.070898
28657.355248,3404.947333,8120.612279,4737.318029
28657.355577,1110.308913,5822.325785,6883.915261
28657.355905,-296.082377,3140.991542,9474.636058
28657.356234,-1406.391290,1915.238745,11843.295072
28657.356562,-1998.556043,-612.876398,14211.954086
28657.356891,-2072.576638,-1685.410096,16210.510130
28657.357219,-1702.473667,-1455.581446,16580.613101
28657.357548,74.020594,-536.266849,15914.427753
28657.357876,1776.494261,459.657299,15100.201217
28657.358205,1702.473667,1991.848295,12953.603985
28657.358533,3404.947333,3753.867940,8142.265362
28657.358862,6291.750507,4903.011187,6809.894666
28657.359190,7550.100608,7507.735880,5847.626942
28657.359519,7105.977043,9882.631924,4515.256246
28657.359847,7920.203579,9193.145976,4367.215058
28657.360176,7105.977043,7354.516781,4219.173869
28657.360504,3923.091493,6588.421283,3775.050304
28657.360833,1850.514855,3830.477490,4811.338623
28657.361162,148.041188,1532.190996,6661.853478
28657.361490,-2294.638420,76.609550,8882.471304
28657.361819,-3404.947333,-1608.800546,11621.233289
28657.362147,-3627.009116,-3064.381992,12287.418637
28657.362476,-4071.132681,-4366.744339,12805.562797
28657.362804,-3923.091493,-5056.230287,12953.603985
28657.363133,-2442.679609,-4060.306139,11991.336260
28657.363461,-592.164754,-3294.210641,11843.295072
28657.363790,1480.411884,-1072.533697,11473.192101
28657.364118,5107.421000,1991.848295,10584.944971
28657.364447,7402.059420,3830.477490,8956.491898
28657.364775,7476.080014,4903.011187,7328.038826
28657.365104,7254.018232,5745.716235,6069.688724
28657.365432,8068.244768,5515.887586,5033.400406
28657.365761,7920.203579,4826.401637,6217.729913
28657.366089,5477.523971,4903.011187,8068.244768
28657.366418,1036.288319,3600.648841,9696.697840
28657.366746,-962.267725,-766.095498,10658.965565
28657.367075,-2738.761985,-4366.744339,13175.665768
28657.367403,-5995.668130,-5515.887586,14211.954086
28657.367732,-6439.791695,-5056.230287,13915.871710
28657.368060,-4145.153275,-4979.620737,14063.912898
28657.368389,-1480.411884,-2911.162892,13175.665768
28657.368717,74.020594,306.438199,10066.800811
28657.369046,1924.535449,3600.648841,5625.565159
28657.369374,5773.606348,6511.811733,2590.720797
28657.369703,9474.636058,9346.365076,666.185348
28657.370031,9844.739029,12640.575717,1036.288319
28657.370360,9252.574275,12870.404366,296.082377
28657.370689,7920.203579,10342.289223,1776.494261
28657.371017,3775.050304,7354.516781,6217.729913
28657.371346,-962.267725,2757.943793,9474.636058
28657.371674,-4811.338623,-2298.286494,12435.459826
28657.372003,-8438.347739,-5362.668486,16136.489536
28657.372331,-8438.347739,-7277.907231,17024.736666
28657.372660,-6883.915261,-7354.516781,18431.127956
28657.372988,-6143.709319,-4596.572988,17024.736666
28657.373317,-1480.411884,-1225.752797,12139.377449
28657.373645,4293.194464,2757.943793,9252.574275
28657.373974,7179.997637,7737.564530,8142.265362
28657.374302,9104.533087,11644.651570,4589.276840
28657.374631,8068.244768,12180.918418,3108.864956
28657.374959,6143.709319,7431.126331,2738.761985
28657.375288,2886.803174,4749.792088,2960.823768
28657.375616,666.185348,3600.648841,7328.038826
28657.375945,-1628.453072,1915.238745,10584.944971
28657.376273,-5033.400406,-2145.067394,11177.109724
28657.376602,-7402.059420,-6818.249932,12213.398043
28657.376930,-6587.832884,-8044.002729,12065.356855
28657.377258,-5403.503377,-3370.820191,11473.192101
28657.377587,-2516.700203,689.485948,10955.047942
28657.377915,0.000000,1685.410096,8364.327145
28657.378244,0.000000,919.314598,7402.059420
28657.378572,888.247130,1532.190996,7402.059420
28657.378901,2072.576638,2374.896044,7476.080014
28657.379229,-370.102971,1455.581446,9030.512492
28657.379557,370.102971,-1149.143247,9474.636058
28657.379886,2590.720797,-2374.896044,10658.965565
28657.380214,1924.535449,-2221.676944,12065.356855
28657.380543,1406.391290,-1302.362347,10214.842000
28657.380871,2738.761985,-1838.629195,9548.656652
28657.381200,4071.132681,-536.266849,10584.944971
28657.381528,5403.503377,2528.115143,10214.842000
28657.381856,3108.864956,4136.915689,9474.636058
28657.382185,-962.267725,229.828649,8660.409521
28657.382513,-2886.803174,-3064.381992,7031.956449
28657.382842,-4071.132681,-3370.820191,10510.924376
28657.383170,-4737.318029,-2528.115143,14137.933492
28657.383499,-6069.688724,-3524.039291,13989.892304
28657.383827,-4885.359217,-6588.421283,13027.624579
28657.384156,-1332.370696,-6358.592633,12213.398043
28657.384484,296.082377,0.000000,10140.821405
28657.384812,2516.700203,5362.668486,7402.059420
28657.385141,6217.729913,5515.887586,4811.338623
28657.385469,5921.647536,5132.839837,5329.482782
28657.385798,3478.967927,6128.763984,5329.482782
28657.386126,1628.453072,4903.011187,4885.359217
28657.386455,-1184.329507,1991.848295,6439.791695
28657.386783,-3330.926739,-995.924147,8586.388927
28657.387111,-4293.194464,-2681.334243,11177.109724
28657.387440,-5403.503377,-3370.820191,13471.748144
28657.387768,-5773.606348,-3370.820191,12213.398043
28657.388097,-3478.967927,-3983.696590,11843.295072
28657.388425,-666.185348,0.000000,12509.480420
28657.388754,1406.391290,4519.963438,11103.089130
28657.389082,518.144159,5592.497135,10214.842000
28657.389410,962.267725,1991.848295,8512.368333
28657.389739,1036.288319,919.314598,7698.141797
28657.390067,-444.123565,2604.724693,9104.533087
28657.390396,-666.185348,3140.991542,7698.141797
28657.390724,370.102971,0.000000,7328.038826
28657.391053,-296.082377,-2757.943793,9918.759623
28657.391381,-370.102971,0.000000,10436.903782
28657.391710,1184.329507,2528.115143,8512.368333
28657.392038,2960.823768,2298.286494,8882.471304
28657.392366,3627.009116,1915.238745,8956.491898
28657.392695,2590.720797,3983.696590,9548.656652
28657.393023,1258.350101,3294.210641,9104.533087
28657.393352,-518.144159,76.609550,8734.430116
28657.393680,-2516.700203,-2604.724693,9770.718434
28657.394009,-2590.720797,-2374.896044,10584.944971
28657.394337,-1776.494261,-995.924147,10955.047942
28657.394665,-1776.494261,-1915.238745,11029.068536
28657.394994,0.000000,-2911.162892,8586.388927
28657.395322,2368.659014,-536.266849,8512.368333
28657.395651,4219.173869,4673.182538,8290.306550
28657.395979,7031.956449,6665.030833,6957.935855
28657.396308,6069.688724,4213.525239,7624.121203
28657.396636,3701.029710,995.924147,7402.059420
28657.396964,1554.432478,919.314598,7920.203579
28657.397293,-1110.308913,689.485948,9474.636058
28657.397621,-2812.782580,-1838.629195,11029.068536
28657.397950,-4441.235652,-4903.011187,11029.068536
28657.398278,-5551.544565,-6281.983084,12213.398043
28657.398607,-3627.009116,-4673.182538,11103.089130
28657.398935,-2146.597232,-2221.676944,11325.150913
28657.399264,-962.267725,536.266849,10732.986159
28657.399592,1850.514855,2681.334243,8660.409521
28657.399920,2886.803174,3140.991542,7402.059420
28657.400249,2220.617826,2911.162892,7254.018232
28657.400577,2294.638420,2911.162892,7031.956449
28657.400906,814.226536,1991.848295,7179.997637
28657.401234,814.226536,0.000000,7994.224174
28657.401563,1110.308913,-1455.581446,9474.636058
28657.401891,-370.102971,-919.314598,11251.130318
28657.402219,-1776.494261,-1378.971896,9252.574275
28657.402548,-1480.411884,-1455.581446,7179.997637
28657.402876,222.061783,-689.485948,8808.450710
28657.403205,370.102971,2911.162892,9844.739029
28657.403533,-1702.473667,3907.087040,8364.327145
28657.403862,-3627.009116,153.219100,8512.368333
28657.404190,-4219.173869,-2987.772442,7698.141797
28657.404518,-4885.359217,-1991.848295,9918.759623
28657.404847,-5403.503377,0.000000,9548.656652
28657.405175,-4071.132681,-1915.238745,8956.491898
28657.405504,-2220.617826,-4213.525239,10066.800811
28657.405832,-666.185348,-2145.067394,9992.780217
28657.406161,814.226536,2145.067394,7772.162391
28657.406489,4219.173869,4213.525239,6809.894666
28657.406818,6587.832884,3217.601092,7105.977043
28657.407146,5181.441594,4596.572988,7624.121203
28657.407474,3627.009116,4519.963438,9178.553681
28657.407803,1924.535449,2298.286494,9178.553681
28657.408131,444.123565,-995.924147,10658.965565
28657.408460,-370.102971,-2987.772442,11695.253884
28657.408788,-2146.597232,-2681.334243,12139.377449
28657.409117,-3256.906145,-1915.238745,12213.398043
28657.409445,-888.247130,-3217.601092,10584.944971
28657.409773,222.061783,-2298.286494,9548.656652
28657.410102,1258.350101,1991.848295,8586.388927
28657.410430,2294.638420,6052.154434,7105.977043
28657.410759,1850.514855,4673.182538,6069.688724
28657.411087,1184.329507,1455.581446,6439.791695
28657.411416,0.000000,842.705048,6883.915261
28657.411744,-2220.617826,2374.896044,8364.327145
28657.412072,-1480.411884,153.219100,8068.244768
28657.412401,-814.226536,-3064.381992,9992.780217
28657.412729,-1776.494261,-3753.867940,12435.459826
28657.413058,-1702.473667,-1149.143247,11103.089130
28657.413386,1110.308913,995.924147,10214.842000
28657.413715,3404.947333,1455.581446,10140.821405
28657.414043,2590.720797,3217.601092,9252.574275
28657.414372,1110.308913,4290.134789,8068.244768
28657.414700,1258.350101,2221.676944,8216.285956
28657.415028,148.041188,0.000000,9844.739029
28657.415357,-2664.741391,76.609550,11177.109724
28657.415685,-2590.720797,0.000000,9474.636058
28657.416014,-296.082377,-995.924147,9770.718434
28657.416342,-888.247130,-1991.848295,10732.986159
28657.416671,-1554.432478,-383.047749,9992.780217
28657.416999,296.082377,1685.410096,9178.553681
28657.417327,3404.947333,3447.429741,8586.388927
28657.417656,2960.823768,4213.525239,8290.306550
28657.417984,666.185348,3064.381992,6735.874072
28657.418313,0.000000,2451.505594,7698.141797
28657.418641,-1332.370696,153.219100,8660.409521
28657.418970,-2590.720797,-919.314598,10658.965565
28657.419298,-3404.947333,-2145.067394,10658.965565
28657.419626,-2516.700203,-2451.505594,11695.253884
28657.419955,-1554.432478,-1762.019645,11399.171507
28657.420283,222.061783,-995.924147,9844.739029
28657.420612,2812.782580,1149.143247,9474.636058
28657.420940,3997.112087,4443.353888,8142.265362
28657.421269,5551.544565,5669.106685,6809.894666
28657.421597,4959.379811,4366.744339,7920.203579
28657.421926,1554.432478,2911.162892,7994.224174
28657.422254,-666.185348,1532.190996,8956.491898
28657.422582,-740.205942,0.000000,9918.759623
28657.422911,-2072.576638,-2681.334243,11177.109724
28657.423239,-3330.926739,-3370.820191,12361.439231
28657.423568,-3627.009116,-2757.943793,13175.665768
28657.423896,-1924.535449,-2757.943793,11103.089130
28657.424225,1036.288319,-1608.800546,10214.842000
28657.424553,2960.823768,1532.190996,10214.842000
28657.424881,2590.720797,6435.202183,8808.450710
28657.425210,1628.453072,4903.011187,7105.977043
28657.425538,1628.453072,919.314598,6957.935855
28657.425867,-1480.411884,-536.266849,7624.121203
28657.426195,-3849.070898,229.828649,8660.409521
28657.426524,-2442.679609,-612.876398,9918.759623
28657.426852,-1628.453072,-2298.286494,11399.171507
28657.427180,-2664.741391,-3370.820191,10732.986159
28657.427509,-962.267725,-2298.286494,9844.739029
28657.427837,2220.617826,459.657299,8142.265362
28657.428166,4737.318029,4366.744339,8956.491898
28657.428494,4589.276840,5669.106685,9400.615463
28657.428823,2442.679609,4060.306139,8142.265362
28657.429151,1924.535449,1685.410096,7476.080014
28657.429480,666.185348,-459.657299,8956.491898
28657.429808,-1850.514855,-919.314598,10436.903782
28657.430136,-2960.823768,-1532.190996,10658.965565
28657.430465,-3034.844362,-2451.505594,11473.192101
28657.430793,-2146.597232,-3370.820191,11251.130318
28657.431122,-888.247130,-2221.676944,9992.780217
28657.431450,888.247130,612.876398,8808.450710
28657.431779,2886.803174,4060.306139,7772.162391
28657.432107,2960.823768,5209.449386,7476.080014
28657.432435,1406.391290,3524.039291,8068.244768
28657.432764,-740.205942,1378.971896,7846.182985
28657.433092,-962.267725,-383.047749,7624.121203
28657.433421,-2664.741391,-383.047749,9918.759623
28657.433749,-3627.009116,-459.657299,10658.965565
28657.434078,-4515.256246,-3524.039291,10066.800811
28657.434406,-3256.906145,-5362.668486,9326.594869
28657.434734,-666.185348,-3217.601092,10362.883188
28657.435063,1406.391290,2451.505594,10288.862594
28657.435391,3552.988522,6435.202183,9104.533087
28657.435720,5181.441594,5592.497135,6957.935855
28657.436048,4663.297435,3600.648841,6513.812290
28657.436377,3478.967927,2604.724693,6883.915261
28657.436705,1480.411884,2987.772442,7328.038826
28657.437033,-296.082377,1378.971896,8364.327145
28657.437362,-1258.350101,-1149.143247,10584.944971
28657.437690,-1924.535449,-2298.286494,11917.315666
28657.438019,-2294.638420,-2757.943793,9844.739029
28657.438347,-2294.638420,-2604.724693,8512.368333
28657.438676,0.000000,-1072.533697,8512.368333
28657.439004,1406.391290,2681.334243,8586.388927
28657.439333,1406.391290,4596.572988,8660.409521
28657.439661,0.000000,2528.115143,9252.574275
28657.439989,-888.247130,-306.438199,8142.265362
28657.440318,-1628.453072,-383.047749,9030.512492
28657.440646,-2368.659014,76.609550,9918.759623
28657.440975,-1998.556043,-1225.752797,9844.739029
28657.441303,-1184.329507,-2757.943793,11029.068536
28657.441632,-444.123565,-3064.381992,10807.006753
28657.441960,444.123565,-612.876398,9696.697840
28657.442288,1776.494261,2374.896044,9474.636058
28657.442617,4145.153275,4749.792088,7920.203579
28657.442945,4145.153275,4519.963438,7031.956449
28657.443274,3256.906145,2451.505594,7254.018232
28657.443602,962.267725,1378.971896,6809.894666
28657.443931,-888.247130,1072.533697,8364.327145
28657.444259,-1184.329507,459.657299,10140.821405
28657.444587,-2146.597232,-689.485948,10510.924376
28657.444916,-3552.988522,-2145.067394,10807.006753
28657.445244,-2220.617826,-4060.306139,9918.759623
28657.445573,-592.164754,-2298.286494,10214.842000
28657.445901,222.061783,2298.286494,9844.739029
28657.446230,2146.597232,4366.744339,9326.594869
28657.446558,2220.617826,3370.820191,7402.059420
28657.446887,1258.350101,919.314598,7846.182985
28657.447215,74.020594,383.047749,9770.718434
28657.447543,-1110.308913,1838.629195,9918.759623
28657.447872,370.102971,-536.266849,9474.636058
28657.448200,0.000000,-1838.629195,10288.862594
28657.448529,-1924.535449,-2528.115143,10436.903782
28657.448857,-2368.659014,-995.924147,9474.636058
28657.449186,666.185348,-919.314598,10140.821405
28657.449514,2368.659014,842.705048,10807.006753
28657.449842,1776.494261,3753.867940,8956.491898
28657.450171,2294.638420,4213.525239,8364.327145
28657.450499,2220.617826,2068.457845,7920.203579
28657.450828,-222.061783,689.485948,9030.512492
28657.451156,-2220.617826,306.438199,9844.739029
28657.451485,-2146.597232,0.000000,8956.491898
28657.451813,-1554.432478,-1608.800546,8586.388927
28657.452141,-888.247130,-1762.019645,10732.986159
28657.452470,-1332.370696,-689.485948,10436.903782
28657.452798,-962.267725,383.047749,8882.471304
28657.453127,814.226536,766.095498,8956.491898
28657.453455,2294.638420,2451.505594,9252.574275
28657.453784,370.102971,3524.039291,8956.491898
28657.454112,-592.164754,1225.752797,7846.182985
28657.454441,-1258.350101,-1302.362347,8438.347739
28657.454769,-3034.844362,-2221.676944,10066.800811
28657.455097,-3775.050304,-1608.800546,10510.924376
28657.455426,-2664.741391,-1532.190996,11251.130318
28657.455754,-2368.659014,-2298.286494,11991.336260
28657.456083,-296.082377,-2757.943793,11547.212695
28657.456411,1554.432478,-1378.971896,10510.924376
28657.456740,2738.761985,3524.039291,8808.450710
28657.457068,3775.050304,3983.696590,8512.368333
28657.457396,3775.050304,3064.381992,8660.409521
28657.457725,2368.659014,1378.971896,8586.388927
28657.458053,148.041188,766.095498,8734.430116
28657.458382,-1480.411884,-306.438199,9104.533087
28657.458710,-1924.535449,-612.876398,8142.265362
28657.459039,-2146.597232,-2374.896044,9770.718434
28657.459367,-2590.720797,-2834.553343,11547.212695
28657.459695,-2146.597232,-2068.457845,9326.594869
28657.460024,1258.350101,-995.924147,8808.450710
28657.460352,2886.803174,2068.457845,9992.780217
28657.460681,2146.597232,5439.278036,9548.656652
28657.461009,2886.803174,4213.525239,7402.059420
28657.461338,3330.926739,536.266849,7179.997637
28657.461666,1184.329507,-689.485948,8512.368333
28657.461995,-2220.617826,1762.019645,9474.636058
28657.462323,-740.205942,1302.362347,9252.574275
28657.462651,0.000000,-1838.629195,10732.986159
28657.462980,-1554.432478,-3217.601092,11843.295072
28657.463308,-888.247130,-1762.019645,10658.965565
28657.463637,888.247130,1302.362347,8660.409521
28657.463965,3627.009116,2528.115143,8586.388927
28657.464294,3034.844362,4060.306139,9178.553681
28657.464622,666.185348,4060.306139,8290.306550
28657.464950,74.020594,2374.896044,7031.956449
28657.465279,-296.082377,0.000000,8364.327145
28657.465607,-3552.988522,-1149.143247,9400.615463
28657.465936,-4515.256246,-383.047749,8660.409521
28657.466264,-3034.844362,-1378.971896,10066.800811
28657.466593,-2516.700203,-3064.381992,10584.944971
28657.466921,-1184.329507,-3294.210641,8882.471304
28657.467249,0.000000,383.047749,9770.718434
28657.467578,2072.576638,4903.011187,9474.636058
28657.467906,3997.112087,4903.011187,7031.956449
28657.468235,3256.906145,1991.848295,7698.141797
28657.468563,1184.329507,766.095498,8142.265362
28657.468892,-740.205942,2528.115143,8142.265362
28657.469220,-1036.288319,1225.752797,9252.574275
28657.469549,-1702.473667,-2528.115143,9474.636058
28657.469877,-3627.009116,-3983.696590,10066.800811
28657.470205,-3330.926739,-3753.867940,10288.862594
28657.470534,-222.061783,-1455.581446,8808.450710
28657.470862,740.205942,-995.924147,9326.594869
28657.471191,1850.514855,1762.019645,9252.574275
28657.471519,2368.659014,3983.696590,7772.162391
28657.471848,1776.494261,3983.696590,7846.182985
28657.472176,1850.514855,689.485948,7920.203579
28657.472504,-296.082377,-1072.533697,8660.409521
28657.472833,-2146.597232,-536.266849,10288.862594
28657.473161,0.000000,-689.485948,10807.006753
28657.473490,-740.205942,-2145.067394,11325.150913
28657.473818,-2442.679609,-3907.087040,10732.986159
28657.474147,-666.185348,-3983.696590,9030.512492
28657.474475,1776.494261,306.438199,9474.636058
28657.474803,3552.988522,4826.401637,9474.636058
28657.475132,2294.638420,4903.011187,8808.450710
28657.475460,592.164754,1762.019645,8068.244768
28657.475789,1332.370696,-306.438199,6809.894666
28657.476117,0.000000,0.000000,8660.409521
28657.476446,-3997.112087,842.705048,11177.109724
28657.476774,-3997.112087,-919.314598,9696.697840
28657.477103,-2664.741391,-3370.820191,9918.759623
28657.477431,-2738.761985,-4136.915689,11843.295072
28657.477759,-2368.659014,-2528.115143,8956.491898
28657.478087,-1184.329507,1149.143247,8142.265362
28657.478416,2442.679609,2757.943793,9252.574275
28657.478744,3256.906145,4136.915689,8882.471304
28657.479072,1924.535449,3140.991542,8882.471304
28657.479401,962.267725,1455.581446,7772.162391
28657.479729,666.185348,842.705048,7624.121203
28657.480057,370.102971,1608.800546,10288.862594
28657.480386,518.144159,1608.800546,11473.192101
28657.480714,-888.247130,153.219100,10436.903782
28657.481042,-1924.535449,-2681.334243,10140.821405
28657.481371,-444.123565,-2528.115143,9474.636058
28657.481699,148.041188,1685.410096,9696.697840
28657.482027,1036.288319,4749.792088,9474.636058
28657.482355,1998.556043,3907.087040,8142.265362
28657.482684,666.185348,612.876398,8142.265362
28657.483012,-740.205942,459.657299,8734.430116
28657.483340,-1184.329507,612.876398,8956.491898
28657.483669,-1036.288319,919.314598,9474.636058
28657.483997,592.164754,0.000000,11177.109724
28657.484325,1184.329507,-306.438199,12657.521608
28657.484654,1332.370696,-229.828649,10807.006753
28657.484982,1998.556043,0.000000,9030.512492
28657.485310,3849.070898,1608.800546,9622.677246
28657.485639,3849.070898,4979.620737,8882.471304
28657.485967,3849.070898,5822.325785,8660.409521
28657.486295,2664.741391,2834.553343,8808.450710
28657.486623,0.000000,76.609550,8512.368333
28657.486952,-2886.803174,-842.705048,8586.388927
28657.487280,-3701.029710,-229.828649,9548.656652
28657.487608,-2886.803174,-383.047749,9770.718434
28657.487937,-2294.638420,-1762.019645,11251.130318
28657.488265,-2146.597232,-2987.772442,9844.739029
28657.488593,-1998.556043,-1072.533697,8068.244768
28657.488922,518.144159,2374.896044,8586.388927
28657.489250,3330.926739,4903.011187,9030.512492
28657.489578,3330.926739,4749.792088,8068.244768
28657.489907,888.247130,2221.676944,7994.224174
28657.490235,0.000000,0.000000,8216.285956
28657.490563,-1702.473667,-383.047749,8956.491898
28657.490891,-2072.576638,-612.876398,10658.965565
28657.491220,-1998.556043,-1991.848295,11843.295072
28657.491548,-1332.370696,-2221.676944,12139.377449
28657.491876,-222.061783,-1991.848295,12065.356855
28657.492205,1554.432478,-1532.190996,10658.965565
28657.492533,444.123565,1225.752797,9474.636058
28657.492861,1406.391290,3064.381992,7179.997637
28657.493190,2664.741391,2681.334243,7624.121203
28657.493518,1258.350101,1915.238745,8586.388927
28657.493846,-592.164754,766.095498,8068.244768
28657.494175,-2516.700203,0.000000,8290.306550
28657.494503,-2960.823768,-1608.800546,8586.388927
28657.494831,-2812.782580,-2987.772442,8808.450710
28657.495159,-2146.597232,-3064.381992,11029.068536
28657.495488,-888.247130,-1685.410096,10288.862594
28657.495816,1554.432478,0.000000,8364.327145
28657.496144,3182.885551,2451.505594,9178.553681
28657.496473,4441.235652,5592.497135,9252.574275
28657.496801,3404.947333,4903.011187,6587.832884
28657.497129,2590.720797,1072.533697,7105.977043
28657.497458,444.123565,-1072.533697,7920.203579
28657.497786,-2442.679609,842.705048,9844.739029
28657.498114,-2812.782580,0.000000,10362.883188
28657.498443,-2146.597232,-3064.381992,9622.677246
28657.498771,-2294.638420,-4673.182538,11325.150913
28657.499099,-2368.659014,-3217.601092,10214.842000
28657.499427,74.020594,383.047749,9770.718434
28657.499756,2738.761985,2911.162892,9326.594869
28657.500084,3404.947333,4443.353888,9326.594869
28657.500412,1924.535449,3907.087040,7476.080014
28657.500741,222.061783,2451.505594,6217.729913
28657.501069,0.000000,0.000000,7402.059420
28657.501397,-1776.494261,-229.828649,9622.677246
28657.501726,-3034.844362,0.000000,10214.842000
28657.502054,-3034.844362,-1915.238745,10066.800811
28657.502382,-2368.659014,-3830.477490,10955.047942
28657.502711,-1850.514855,-2987.772442,9918.759623
28657.503039,148.041188,536.266849,8586.388927
28657.503367,2220.617826,2604.724693,8808.450710
28657.503696,3849.070898,4673.182538,7698.141797
28657.504024,4145.153275,4673.182538,8660.409521
28657.504352,1776.494261,2451.505594,7624.121203
28657.504680,-666.185348,919.314598,7476.080014
28657.505009,-888.247130,0.000000,8364.327145
28657.505337,-962.267725,0.000000,9770.718434
28657.505665,-1850.514855,-1225.752797,9474.636058
28657.505994,-2442.679609,-2451.505594,9696.697840
28657.506322,-1776.494261,-2757.943793,10066.800811
28657.506650,0.000000,-536.266849,9474.636058
28657.506979,1702.473667,2757.943793,9918.759623
28657.507307,3256.906145,3907.087040,8808.450710
28657.507635,3330.926739,3907.087040,8216.285956
28657.507964,2294.638420,2145.067394,8882.471304
28657.508292,148.041188,766.095498,8808.450710
28657.508620,-2516.700203,-459.657299,9326.594869
28657.508948,-1480.411884,-1685.410096,9918.759623
28657.509277,-296.082377,-1685.410096,11843.295072
28657.509605,-1776.494261,-1149.143247,10955.047942
28657.509933,-1036.288319,-1225.752797,9696.697840
28657.510262,1332.370696,-1608.800546,8956.491898
28657.510590,1998.556043,2451.505594,9474.636058
28657.510918,3849.070898,5745.716235,8956.491898
28657.511247,3330.926739,5056.230287,8512.368333
28657.511575,1480.411884,1762.019645,8068.244768
28657.511903,592.164754,306.438199,8142.265362
28657.512232,-1850.514855,766.095498,9474.636058
28657.512560,-3701.029710,0.000000,9844.739029
28657.512888,-2368.659014,-1762.019645,9178.553681
28657.513216,-1332.370696,-3907.087040,10288.862594
28657.513545,-2072.576638,-1378.971896,10807.006753
28657.513873,-1258.350101,1302.362347,9030.512492
28657.514201,1480.411884,2374.896044,8290.306550
28657.514530,2368.659014,2604.724693,8586.388927
28657.514858,2220.617826,3447.429741,8660.409521
28657.515186,1184.329507,3294.210641,8512.368333
28657.515515,518.144159,1225.752797,8068.244768
28657.515843,-666.185348,-459.657299,10362.883188
28657.516171,-2812.782580,-766.095498,11325.150913
28657.516500,-2368.659014,-1455.581446,10214.842000
28657.516828,-1332.370696,-2604.724693,10881.027347
28657.517156,148.041188,-2451.505594,10955.047942
28657.517484,814.226536,0.000000,10362.883188
28657.517813,1480.411884,3217.601092,9770.718434
28657.518141,1924.535449,3447.429741,9030.512492
28657.518469,1850.514855,919.314598,7698.141797
28657.518798,-222.061783,919.314598,9326.594869
28657.519126,-1184.329507,842.705048,8882.471304
28657.519454,-2146.597232,612.876398,9030.512492
28657.519783,-1258.350101,-2451.505594,10362.883188
28657.520111,-1776.494261,-2987.772442,10881.027347
28657.520439,-2516.700203,-1225.752797,10140.821405
28657.520768,0.000000,-1302.362347,8882.471304
28657.521096,2516.700203,-306.438199,8216.285956
28657.521424,2960.823768,1915.238745,9104.533087
28657.521752,2072.576638,4366.744339,8512.368333
28657.522081,2368.659014,3447.429741,8068.244768
28657.522409,1110.308913,229.828649,9474.636058
28657.522737,-592.164754,-1608.800546,9030.512492
28657.523066,-2072.576638,-1225.752797,10066.800811
28657.523394,-1036.288319,-1072.533697,10288.862594
28657.523722,-888.247130,-1455.581446,10214.842000
28657.524051,-444.123565,-2834.553343,11325.150913
28657.524379,222.061783,-1532.190996,9696.697840
28657.524707,1110.308913,1378.971896,9030.512492
28657.525036,2960.823768,3064.381992,9696.697840
28657.525364,3552.988522,3983.696590,8734.430116
28657.525692,1702.473667,3830.477490,7994.224174
28657.526020,518.144159,689.485948,7476.080014
28657.526349,-1850.514855,-689.485948,7031.956449
28657.526677,-3404.947333,-1838.629195,8882.471304
28657.527005,-3849.070898,-766.095498,11399.171507
28657.527334,-3701.029710,-1225.752797,11325.150913
28657.527662,-2368.659014,-3064.381992,10214.842000
28657.527990,74.020594,-2987.772442,9178.553681
28657.528319,814.226536,1149.143247,8438.347739
28657.528647,2146.597232,5132.839837,7328.038826
28657.528975,4515.256246,5822.325785,7698.141797
28657.529304,3330.926739,3524.039291,6735.874072
28657.529632,1554.432478,1532.190996,6291.750507
28657.529960,148.041188,1302.362347,7846.182985
28657.530288,-1406.391290,1532.190996,9622.677246
28657.530617,-666.185348,-229.828649,10066.800811
28657.530945,-1184.329507,-2911.162892,10658.965565
28657.531273,-2146.597232,-3064.381992,10881.027347
28657.531602,-296.082377,-689.485948,9252.574275
28657.531930,1628.453072,689.485948,9474.636058
28657.532258,1406.391290,2757.943793,10066.800811
28657.532587,1480.411884,3677.258390,7328.038826
28657.532915,2072.576638,2298.286494,6957.935855
28657.533243,444.123565,689.485948,6735.874072
28657.533572,-2738.761985,0.000000,8586.388927
28657.533900,-4441.235652,-459.657299,9992.780217
28657.534228,-3034.844362,-2374.896044,10214.842000
28657.534556,-3034.844362,-4596.572988,11325.150913
28657.534885,-3182.885551,-4826.401637,11177.109724
28657.535213,-666.185348,-2374.896044,8956.491898
28657.535541,3256.906145,1455.581446,9622.677246
28657.535870,4589.276840,3907.087040,10214.842000
28657.536198,4145.153275,4213.525239,8660.409521
28657.536526,2590.720797,3677.258390,8290.306550
28657.536855,2146.597232,1532.190996,8364.327145
28657.537183,740.205942,-306.438199,8216.285956
28657.537511,-1554.432478,-689.485948,9474.636058
28657.537840,-1776.494261,-1532.190996,9400.615463
28657.538168,-1850.514855,-1685.410096,11103.089130
28657.538496,-1184.329507,-2604.724693,11695.253884
28657.538824,0.000000,-2145.067394,10140.821405
28657.539153,1036.288319,536.266849,9178.553681
28657.539481,4071.132681,4749.792088,8438.347739
28657.539809,5921.647536,6052.154434,7550.100608
28657.540138,3404.947333,5286.058936,9252.574275
28657.540466,1184.329507,1838.629195,7254.018232
28657.540794,-740.205942,-229.828649,7624.121203
28657.541123,-1184.329507,-766.095498,10807.006753
28657.541451,-2590.720797,-229.828649,10955.047942
28657.541779,-4219.173869,-1608.800546,10881.027347
28657.542108,-3627.009116,-3830.477490,11473.192101
28657.542436,-1702.473667,-2604.724693,9252.574275
28657.542764,-1850.514855,1378.971896,9474.636058
28657.543092,0.000000,3447.429741,7846.182985
28657.543421,1628.453072,4443.353888,6957.935855
28657.543749,740.205942,3830.477490,9030.512492
28657.544077,148.041188,3064.381992,9474.636058
28657.544406,-1924.535449,1225.752797,7846.182985
28657.544734,-3330.926739,-995.924147,9326.594869
28657.545062,-2368.659014,-1991.848295,10658.965565
28657.545391,-1776.494261,-1608.800546,12065.356855
28657.545719,-1480.411884,-1225.752797,12361.439231
28657.546047,370.102971,-1762.019645,10362.883188
28657.546376,1998.556043,536.266849,9696.697840
28657.546704,3997.112087,4903.011187,9992.780217
28657.547032,4737.318029,7354.516781,8660.409521
28657.547361,3182.885551,4749.792088,7254.018232
28657.547689,1702.473667,1149.143247,6957.935855
28657.548017,0.000000,459.657299,7994.224174
28657.548345,-2664.741391,1302.362347,8882.471304
28657.548674,-3478.967927,-689.485948,9030.512492
28657.549002,-3034.844362,-4826.401637,9918.759623
28657.549330,-3552.988522,-5515.887586,10658.965565
28657.549659,-2738.761985,-1762.019645,10881.027347
28657.549987,148.041188,1608.800546,10658.965565
28657.550315,2368.659014,1991.848295,9178.553681
28657.550644,2590.720797,1378.971896,7698.141797
28657.550972,1924.535449,2451.505594,7476.080014
28657.551300,2368.659014,2604.724693,7920.203579
28657.551629,2072.576638,1608.800546,9992.780217
28657.551957,0.000000,0.000000,11843.295072
28657.552285,-740.205942,-1915.238745,10658.965565
28657.552613,0.000000,-3140.991542,9844.739029
28657.552942,1850.514855,-2757.943793,11103.089130
28657.553270,2368.659014,0.000000,10288.862594
28657.553598,2664.741391,2834.553343,9918.759623
28657.553927,4737.318029,4443.353888,8586.388927
28657.554255,4663.297435,3600.648841,6957.935855
28657.554583,1406.391290,2834.553343,6069.688724
28657.554912,-518.144159,1608.800546,6365.771101
28657.555240,-2368.659014,1378.971896,7698.141797
28657.555568,-3701.029710,306.438199,9548.656652
28657.555897,-3701.029710,-2298.286494,10658.965565
28657.556225,-4959.379811,-3830.477490,9548.656652
28657.556553,-4811.338623,-4290.134789,8808.450710
28657.556881,-1924.535449,-1838.629195,8808.450710
28657.557210,518.144159,1762.019645,9918.759623
28657.557538,2368.659014,4749.792088,8956.491898
28657.557866,2812.782580,4826.401637,7772.162391
28657.558195,1258.350101,2298.286494,7698.141797
28657.558523,-740.205942,1455.581446,7550.100608
28657.558851,-666.185348,766.095498,7994.224174
28657.559180,0.000000,995.924147,10362.883188
28657.559508,-444.123565,153.219100,10955.047942
28657.559836,-1332.370696,-2221.676944,10807.006753
28657.560165,-1924.535449,-2374.896044,9622.677246
28657.560493,-888.247130,-689.485948,9844.739029
28657.560821,1924.535449,1685.410096,9770.718434
28657.561149,3182.885551,3600.648841,9030.512492
28657.561478,2220.617826,4749.792088,8882.471304
28657.561806,666.185348,2528.115143,7698.141797
28657.562134,-370.102971,-842.705048,7105.977043
28657.562463,-2368.659014,-1532.190996,8364.327145
28657.562791,-2664.741391,-306.438199,9474.636058
28657.563119,-1332.370696,-459.657299,10140.821405
28657.563448,-666.185348,-1685.410096,10955.047942
28657.563776,444.123565,-1991.848295,10362.883188
28657.564104,814.226536,-306.438199,9030.512492
28657.564433,1036.288319,2528.115143,7550.100608
28657.564761,3849.070898,3600.648841,7105.977043
28657.565089,4219.173869,4060.306139,9252.574275
28657.565417,666.185348,3064.381992,9474.636058
28657.565746,-1628.453072,153.219100,8438.347739
28657.566074,-2812.782580,-2681.334243,9326.594869
28657.566402,-2368.659014,-2451.505594,10362.883188
28657.566731,-1850.514855,-919.314598,11325.150913
28657.567059,-2294.638420,-1225.752797,10658.965565
28657.567387,-666.185348,-1762.019645,10362.883188
28657.567716,2516.700203,-612.876398,9622.677246
28657.568044,2590.720797,3217.601092,9918.759623
28657.568372,3478.967927,5515.887586,8586.388927
28657.568701,3775.050304,4749.792088,8068.244768
28657.569029,2812.782580,1455.581446,9030.512492
28657.569357,74.020594,536.266849,8364.327145
28657.569685,-3701.029710,-536.266849,9178.553681
28657.570014,-3404.947333,-919.314598,10214.842000
28657.570342,-2812.782580,-3370.820191,10807.006753
28657.570670,-4219.173869,-4136.915689,11177.109724
28657.570999,-3404.947333,-3217.601092,10436.903782
28657.571327,-962.267725,76.609550,8438.347739
28657.571655,1776.494261,2145.067394,8734.430116
28657.571984,2960.823768,3677.258390,8956.491898
28657.572312,1998.556043,4290.134789,8364.327145
28657.572640,1998.556043,2451.505594,7994.224174
28657.572969,2664.741391,-536.266849,7994.224174
28657.573297,-740.205942,76.609550,10732.986159
28657.573625,-1924.535449,306.438199,10807.006753
28657.573953,-1184.329507,-1532.190996,9622.677246
28657.574282,-740.205942,-2834.553343,11325.150913
28657.574610,0.000000,-2528.115143,11325.150913
28657.574938,1036.288319,766.095498,9844.739029
28657.575267,3108.864956,2528.115143,8808.450710
28657.575595,3997.112087,4213.525239,9252.574275
28657.575923,2442.679609,4060.306139,9400.615463
28657.576252,222.061783,2681.334243,7994.224174
28657.576580,-444.123565,-536.266849,7105.977043
28657.576908,-3256.906145,-2451.505594,8660.409521
28657.577237,-4737.318029,-2298.286494,9548.656652
28657.577565,-4441.235652,-1608.800546,11029.068536
28657.577893,-2738.761985,-2987.772442,11917.315666
28657.578222,-1184.329507,-3524.039291,9474.636058
28657.578550,148.041188,-1225.752797,9104.533087
28657.578878,2146.597232,3753.867940,9770.718434
28657.579207,5255.462188,7201.297681,8586.388927
28657.579535,6439.791695,5132.839837,7846.182985
28657.579863,3849.070898,1685.410096,8068.244768
28657.580192,1184.329507,2068.457845,7772.162391
28657.580520,222.061783,3294.210641,8882.471304
28657.580848,0.000000,1072.533697,10066.800811
28657.581177,-1628.453072,-2604.724693,9696.697840
28657.581505,-3627.009116,-3064.381992,10584.944971
28657.581833,-1184.329507,-1685.410096,9178.553681
28657.582162,666.185348,1302.362347,9400.615463
28657.582490,518.144159,2911.162892,9104.533087
28657.582818,1258.350101,3677.258390,7179.997637
28657.583147,1702.473667,3677.258390,6365.771101
28657.583475,1184.329507,2987.772442,7402.059420
28657.583803,1184.329507,1532.190996,7846.182985
28657.584132,-2368.659014,612.876398,9030.512492
28657.584460,-3256.906145,-689.485948,9326.594869
28657.584788,-814.226536,-2757.943793,10436.903782
28657.585117,-518.144159,-3753.867940,11399.171507
28657.585445,-1184.329507,-2298.286494,11325.150913
28657.585773,666.185348,76.609550,10362.883188
28657.586102,3923.091493,1762.019645,9770.718434
28657.586430,3997.112087,3677.258390,9030.512492
28657.586758,1850.514855,3294.210641,8438.347739
28657.587087,222.061783,2145.067394,7105.977043
28657.587415,-296.082377,689.485948,7550.100608
28657.587743,-2368.659014,-842.705048,10066.800811
28657.588072,-4737.318029,-1532.190996,9474.636058
28657.588400,-4367.215058,-3294.210641,9104.533087
28657.588728,-3182.885551,-4366.744339,9474.636058
28657.589057,-2516.700203,-3677.258390,9770.718434
28657.589385,-1702.473667,-306.438199,9770.718434
28657.589713,962.267725,2298.286494,9030.512492
28657.590042,2072.576638,2451.505594,7476.080014
28657.590370,1776.494261,1072.533697,7624.121203
28657.590698,444.123565,383.047749,8364.327145
28657.591027,148.041188,1072.533697,9178.553681
28657.591355,-814.226536,383.047749,10807.006753
28657.591683,-592.164754,-3140.991542,10362.883188
28657.592012,-1184.329507,-3907.087040,10807.006753
28657.592340,-1850.514855,-2451.505594,11103.089130
28657.592668,370.102971,-995.924147,9918.759623
28657.592997,1628.453072,0.000000,10066.800811
28657.593325,962.267725,1915.238745,10066.800811
28657.593653,1110.308913,2528.115143,7476.080014
28657.593982,592.164754,1608.800546,7402.059420
28657.594310,-518.144159,0.000000,8660.409521
28657.594638,-1924.535449,-229.828649,9030.512492
28657.594967,-3034.844362,536.266849,9918.759623
28657.595295,-1036.288319,-1762.019645,10214.842000
28657.595623,518.144159,-2451.505594,10140.821405
28657.595952,0.000000,-1072.533697,10955.047942
28657.596280,1184.329507,1378.971896,9548.656652
28657.596608,3849.070898,2604.724693,7920.203579
28657.596937,5625.565159,4290.134789,10584.944971
28657.597265,4293.194464,4979.620737,9474.636058
28657.597593,2516.700203,4443.353888,8364.327145
28657.597922,2368.659014,1455.581446,7698.141797
28657.598250,444.123565,153.219100,9030.512492
28657.598578,-1924.535449,919.314598,10584.944971
28657.598907,-1850.514855,383.047749,10732.986159
28657.599235,-1850.514855,-766.095498,9474.636058
28657.599563,-1184.329507,-1838.629195,8882.471304
28657.599892,-740.205942,306.438199,9178.553681
28657.600220,148.041188,3830.477490,8660.409521
28657.600548,2368.659014,5439.278036,8882.471304
28657.600877,3034.844362,3830.477490,8956.491898
28657.601205,666.185348,2145.067394,8438.347739
28657.601533,-888.247130,1302.362347,7476.080014
28657.601862,-1480.411884,1302.362347,7772.162391
28657.602190,-1702.473667,-536.266849,10510.924376
28657.602518,-2368.659014,-1685.410096,11621.233289
28657.602847,-2812.782580,-2145.067394,11991.336260
28657.603175,-1480.411884,-1378.971896,10955.047942
28657.603503,1554.432478,-306.438199,9844.739029
28657.603832,2072.576638,1532.190996,10436.903782
28657.604160,2368.659014,4136.915689,9548.656652
28657.604488,2368.659014,4366.744339,8290.306550
28657.604817,1628.453072,1762.019645,7179.997637
28657.605145,-740.205942,-536.266849,7031.956449
28657.605473,-3256.906145,0.000000,7254.018232
28657.605802,-3701.029710,229.828649,9030.512492
28657.606130,-2960.823768,-995.924147,9992.780217
28657.606458,-2812.782580,-3983.696590,9548.656652
28657.606787,-2886.803174,-4213.525239,8734.430116
28657.607115,222.061783,-1532.190996,7698.141797
28657.607443,3108.864956,2451.505594,9622.677246
28657.607772,4589.276840,4519.963438,10288.862594
28657.608100,4589.276840,4136.915689,9474.636058
28657.608428,3108.864956,689.485948,8216.285956
28657.608757,1850.514855,-459.657299,7920.203579
28657.609085,148.041188,0.000000,9178.553681
28657.609413,-2146.597232,-383.047749,10066.800811
28657.609742,-1776.494261,-2834.553343,10066.800811
28657.610070,-1702.473667,-4060.306139,10807.006753
28657.610398,-2368.659014,-3294.210641,11325.150913
28657.610727,-1776.494261,-995.924147,9178.553681
28657.611055,296.082377,766.095498,8956.491898
28657.611383,2442.679609,1685.410096,8956.491898
28657.611712,2590.720797,3217.601092,9252.574275
28657.612040,740.205942,3064.381992,8142.265362
28657.612368,0.000000,536.266849,6439.791695
28657.612697,-1110.308913,-2451.505594,8438.347739
28657.613025,-1776.494261,-1915.238745,11029.068536
28657.613353,-1332.370696,-1149.143247,10732.986159
28657.613682,-1480.411884,-1762.019645,11621.233289
28657.614010,-740.205942,-2834.553343,10436.903782
28657.614338,370.102971,-612.876398,8956.491898
28657.614667,1406.391290,4290.134789,9252.574275
28657.614995,3923.091493,5592.497135,7254.018232
28657.615323,2886.803174,4979.620737,7550.100608
28657.615652,1776.494261,2911.162892,7846.182985
28657.615980,-518.144159,2451.505594,7328.038826
28657.616308,-3552.988522,1378.971896,8068.244768
28657.616637,-3849.070898,-1225.752797,9104.533087
28657.616965,-2960.823768,-2221.676944,9696.697840
28657.617293,-3478.967927,-1225.752797,10807.006753
28657.617622,-2220.617826,-1149.143247,10214.842000
28657.617950,0.000000,-459.657299,8734.430116
28657.618278,2146.597232,1762.019645,9992.780217
28657.618607,4145.153275,6128.763984,9400.615463
28657.618935,4219.173869,7354.516781,8438.347739
28657.619263,4589.276840,4213.525239,7328.038826
28657.619592,2960.823768,2681.334243,7846.182985
28657.619920,0.000000,2451.505594,9844.739029
28657.620248,-1850.514855,1838.629195,10288.862594
28657.620577,-1776.494261,-1302.362347,10140.821405
28657.620905,-2220.617826,-4979.620737,11547.212695
28657.621233,-2368.659014,-3447.429741,11177.109724
28657.621562,-1184.329507,0.000000,10362.883188
28657.621890,1110.308913,3140.991542,10066.800811
28657.622218,2960.823768,2681.334243,8364.327145
28657.622547,2812.782580,2604.724693,8216.285956
28657.622875,1554.432478,2757.943793,7402.059420
28657.623203,1110.308913,2681.334243,6809.894666
28657.623532,518.144159,1378.971896,9844.739029
28657.623860,-666.185348,-459.657299,10436.903782
28657.624188,-1702.473667,-2374.896044,9844.739029
28657.624517,-1036.288319,-3600.648841,10066.800811
28657.624845,1036.288319,-3447.429741,11029.068536
28657.625173,1036.288319,-383.047749,10510.924376
28657.625502,1776.494261,2528.115143,11621.233289
28657.625830,4145.153275,3140.991542,10140.821405
28657.626158,3478.967927,1532.190996,8438.347739
28657.626487,1258.350101,919.314598,7624.121203
28657.626815,-518.144159,689.485948,6735.874072
28657.627143,-2146.597232,919.314598,7698.141797
28657.627472,-2072.576638,-612.876398,10066.800811
28657.627800,-2368.659014,-2528.115143,10881.027347
28657.628128,-4811.338623,-3907.087040,10732.986159
28657.628457,-3775.050304,-4749.792088,10066.800811
28657.628785,-1258.350101,-2911.162892,9918.759623
28657.629113,148.041188,306.438199,10584.944971
28657.629442,1258.350101,2451.505594,10140.821405
28657.629770,1554.432478,1685.410096,9030.512492
28657.630098,1554.432478,306.438199,8068.244768
28657.630427,1184.329507,0.000000,8512.368333
28657.630755,-814.226536,1149.143247,10436.903782
28657.631083,-740.205942,1608.800546,10510.924376
28657.631412,666.185348,-995.924147,9326.594869
28657.631740,814.226536,-2145.067394,11325.150913
28657.632068,-592.164754,-919.314598,9770.718434
28657.632397,148.041188,1991.848295,7994.224174
28657.632725,2294.638420,2987.772442,8290.306550
28657.633053,1258.350101,3064.381992,7846.182985
28657.633382,-222.061783,2528.115143,7624.121203
28657.633710,-740.205942,1378.971896,7476.080014
28657.634038,-1850.514855,919.314598,7105.977043
28657.634367,-4145.153275,0.000000,8290.306550
28657.634695,-3701.029710,-1378.971896,8882.471304
28657.635023,-2664.741391,-1532.190996,9030.512492
28657.635352,-2368.659014,-689.485948,9992.780217
28657.635680,1554.432478,-1225.752797,11399.171507
28657.636008,888.247130,1302.362347,9992.780217
28657.636337,1850.514855,3524.039291,9474.636058
28657.636665,4145.153275,3830.477490,8808.450710
28657.636993,2960.823768,2834.553343,9918.759623
28657.637322,296.082377,1302.362347,8512.368333
28657.637650,-888.247130,-612.876398,7105.977043
28657.637978,-1554.432478,-1608.800546,9474.636058
28657.638307,-1850.514855,842.705048,10807.006753
28657.638635,-2516.700203,0.000000,10881.027347
28657.638963,-2368.659014,-2451.505594,10066.800811
28657.639292,-148.041188,-2528.115143,9104.533087
28657.639620,2590.720797,1225.752797,9252.574275
28657.639948,3775.050304,6128.763984,9178.553681
28657.640277,4885.359217,6435.202183,7846.182985
28657.640605,4145.153275,3753.867940,6809.894666
28657.640933,2886.803174,612.876398,6735.874072
28657.641262,962.267725,1608.800546,7031.956449
28657.641590,-740.205942,1991.848295,9474.636058
28657.641918,0.000000,612.876398,10066.800811
28657.642247,-592.164754,-919.314598,10584.944971
28657.642575,-2368.659014,-3907.087040,10658.965565
28657.642903,-1332.370696,-2911.162892,8734.430116
28657.643232,1184.329507,229.828649,7698.141797
28657.643560,2146.597232,4213.525239,10288.862594
28657.643888,1258.350101,4290.134789,9104.533087
28657.644217,-370.102971,2068.457845,8956.491898
28657.644545,-962.267725,-689.485948,8956.491898
28657.644873,-2812.782580,-3447.429741,8364.327145
28657.645202,-5773.606348,-2451.505594,9844.739029
28657.645530,-4367.215058,-2604.724693,11029.068536
28657.645858,-2738.761985,-2834.553343,11917.315666
28657.646187,-3034.844362,-4290.134789,13175.665768
28657.646515,-962.267725,-3677.258390,10584.944971
28657.646843,1480.411884,-229.828649,8586.388927
28657.647172,2738.761985,5132.839837,9696.697840
28657.647500,5921.647536,6052.154434,9548.656652
28657.647828,4737.318029,4060.306139,9474.636058
28657.648157,1480.411884,1455.581446,8586.388927
28657.648485,-814.226536,459.657299,7994.224174
28657.648813,-666.185348,-1072.533697,8586.388927
28657.649142,-1554.432478,-1532.190996,9770.718434
28657.649470,-2368.659014,-1225.752797,10214.842000
28657.649798,-2072.576638,-2604.724693,10881.027347
28657.650127,-222.061783,-1838.629195,9178.553681
28657.650455,148.041188,306.438199,8364.327145
28657.650783,296.082377,3447.429741,7328.038826
28657.651112,1998.556043,4596.572988,5995.668130
28657.651440,2886.803174,3907.087040,8364.327145
28657.651768,1110.308913,2451.505594,9474.636058
28657.652097,-1332.370696,0.000000,9474.636058
28657.652425,-1702.473667,-1915.238745,9030.512492
28657.652753,-1258.350101,-2528.115143,11399.171507
28657.653082,-1702.473667,-1915.238745,12509.480420
28657.653410,-1184.329507,-1225.752797,11843.295072
28657.653738,1258.350101,-1532.190996,10807.006753
28657.654067,2516.700203,76.609550,10955.047942
28657.654395,2960.823768,3830.477490,9400.615463
28657.654723,3552.988522,5362.668486,8586.388927
28657.655052,3182.885551,3907.087040,7698.141797
28657.655380,1776.494261,1225.752797,6957.935855
28657.655708,-296.082377,919.314598,8068.244768
28657.656037,-2146.597232,1685.410096,9474.636058
28657.656365,-2590.720797,-689.485948,8512.368333
28657.656693,-2146.597232,-2604.724693,9104.533087
28657.657022,-2146.597232,-3753.867940,9918.759623
28657.657350,-2072.576638,-612.876398,8512.368333
28657.657678,296.082377,2681.334243,8882.471304
28657.658007,2368.659014,3907.087040,8586.388927
28657.658335,2146.597232,2911.162892,8290.306550
28657.658663,296.082377,2834.553343,7476.080014
28657.658992,-962.267725,1685.410096,6587.832884
28657.659320,-1036.288319,153.219100,7402.059420
28657.659648,-1184.329507,0.000000,9992.780217
28657.659977,-3108.864956,459.657299,10955.047942
28657.660305,-3701.029710,-1378.971896,9770.718434
28657.660633,-1998.556043,-4673.182538,9252.574275
28657.660962,-814.226536,-3753.867940,10066.800811
28657.661290,-296.082377,1608.800546,10732.986159
28657.661618,1184.329507,3677.258390,9918.759623
28657.661947,2220.617826,1991.848295,9474.636058
28657.662275,1628.453072,-229.828649,8956.491898
28657.662603,0.000000,-1225.752797,8364.327145
28657.662932,-888.247130,-536.266849,8586.388927
28657.663260,518.144159,0.000000,8438.347739
28657.663588,518.144159,-306.438199,11103.089130
28657.663917,-962.267725,-766.095498,11769.274478
28657.664245,-814.226536,-1455.581446,9104.533087
28657.664573,1258.350101,-2987.772442,8068.244768
28657.664902,1850.514855,-766.095498,9474.636058
28657.665230,1332.370696,3677.258390,8586.388927
28657.665558,2220.617826,4136.915689,8290.306550
28657.665887,2146.597232,1225.752797,8068.244768
28657.666215,-814.226536,-1455.581446,8216.285956
28657.666543,-2590.720797,-1225.752797,8068.244768
28657.666872,-1332.370696,459.657299,7698.141797
28657.667200,-444.123565,689.485948,8512.368333
28657.667528,-888.247130,-1685.410096,9548.656652
28657.667857,-370.102971,-1608.800546,10658.965565
28657.668185,370.102971,459.657299,10362.883188
28657.668513,2664.741391,2145.067394,10140.821405
28657.668842,3701.029710,2374.896044,9844.739029
28657.669170,2220.617826,2834.553343,9178.553681
28657.669498,888.247130,2528.115143,9252.574275
28657.669827,814.226536,0.000000,8290.306550
28657.670155,-296.082377,-2604.724693,9030.512492
28657.670483,-2220.617826,-1225.752797,10066.800811
28657.670812,-1332.370696,1762.019645,10955.047942
28657.671140,0.000000,766.095498,9992.780217
28657.671468,962.267725,-1991.848295,10436.903782
28657.671797,1184.329507,-1455.581446,10140.821405
28657.672125,444.123565,3677.258390,9178.553681
28657.672453,1998.556043,5745.716235,9104.533087
28657.672782,1776.494261,3753.867940,9992.780217
28657.673110,-1480.411884,842.705048,9474.636058
28657.673438,-3256.906145,-1149.143247,7254.018232
28657.673767,-4515.256246,-1608.800546,7846.182985
28657.674095,-4589.276840,-1302.362347,9178.553681
28657.674423,-3034.844362,459.657299,10288.862594
28657.674752,-1998.556043,-383.047749,10584.944971
28657.675080,-148.041188,-612.876398,9178.553681
28657.675408,2368.659014,1378.971896,9178.553681
28657.675737,3552.988522,4826.401637,9400.615463
28657.676065,4663.297435,6358.592633,7550.100608
28657.676393,4811.338623,4213.525239,7624.121203
28657.676722,3034.844362,2145.067394,9030.512492
28657.677050,666.185348,1608.800546,9400.615463
28657.677378,-2590.720797,0.000000,9474.636058
28657.677707,-3627.009116,-2987.772442,10436.903782
28657.678035,-3775.050304,-4213.525239,11251.130318
28657.678363,-4885.359217,-2528.115143,12583.501014
28657.678692,-2368.659014,-3217.601092,10732.986159
28657.679020,0.000000,-2374.896044,8142.265362
28657.679348,444.123565,1225.752797,8882.471304
28657.679677,1036.288319,5362.668486,8808.450710
28657.680005,1554.432478,5898.935335,8216.285956
28657.680333,888.247130,1532.190996,7772.162391
28657.680662,148.041188,-2451.505594,8290.306550
28657.680990,-2146.597232,-1915.238745,9474.636058
28657.681318,-2442.679609,1072.533697,10140.821405
28657.681647,-1998.556043,-766.095498,10214.842000
28657.681975,0.000000,-4290.134789,10955.047942
28657.682303,888.247130,-2757.943793,11103.089130
28657.682632,3775.050304,2604.724693,9918.759623
28657.682960,5773.606348,6128.763984,8364.327145
28657.683288,6957.935855,5592.497135,7254.018232
28657.683617,6143.709319,4903.011187,7772.162391
28657.683945,2220.617826,4213.525239,5921.647536
28657.684273,-444.123565,2374.896044,6883.915261
28657.684602,-2072.576638,-1149.143247,8438.347739
28657.684930,-2516.700203,-3370.820191,9474.636058
28657.685258,-3849.070898,-1838.629195,10510.924376
28657.685587,-4219.173869,-2068.457845,9844.739029
28657.685915,-2368.659014,-4519.963438,9474.636058
28657.686243,-444.123565,-2145.067394,9548.656652
28657.686572,74.020594,2987.772442,10288.862594
28657.686900,1776.494261,5745.716235,7772.162391
28657.687228,2442.679609,3753.867940,7402.059420
28657.687557,1702.473667,306.438199,8364.327145
28657.687885,-1850.514855,-153.219100,8956.491898
28657.688213,-2294.638420,-1149.143247,9918.759623
28657.688542,-2146.597232,-1685.410096,11621.233289
28657.688870,-2294.638420,-2987.772442,11769.274478
28657.689198,-2664.741391,-3217.601092,11177.109724
28657.689527,-370.102971,-2757.943793,9400.615463
28657.689855,1480.411884,-229.828649,9252.574275
28657.690183,2442.679609,3907.087040,9622.677246
28657.690512,4589.276840,5362.668486,8068.244768
28657.690840,3849.070898,5515.887586,6661.853478
28657.691168,2294.638420,3447.429741,7328.038826
28657.691497,1480.411884,842.705048,7105.977043
28657.691825,-1480.411884,-1149.143247,8364.327145
28657.692153,-3478.967927,-2068.457845,10436.903782
28657.692482,-2590.720797,-2528.115143,11029.068536
28657.692810,-2220.617826,-3447.429741,11621.233289
28657.693138,-1258.350101,-3217.601092,10436.903782
28657.693467,-1480.411884,-1532.190996,9178.553681
28657.693795,518.144159,2068.457845,9326.594869
28657.694123,2590.720797,4060.306139,8808.450710
28657.694452,1332.370696,2987.772442,8882.471304
28657.694780,-592.164754,766.095498,8068.244768
28657.695108,-666.185348,76.609550,7772.162391
28657.695437,-370.102971,0.000000,9622.677246
28657.695765,-1406.391290,-689.485948,11399.171507
28657.696093,-2072.576638,-1685.410096,11621.233289
28657.696422,0.000000,-2834.553343,12435.459826
28657.696750,2812.782580,-2451.505594,11177.109724
28657.697078,2442.679609,689.485948,10881.027347
28657.697407,2812.782580,4366.744339,9992.780217
28657.697735,4367.215058,5132.839837,9178.553681
28657.698063,4145.153275,4673.182538,9252.574275
28657.698392,2220.617826,1915.238745,7402.059420
28657.698720,-666.185348,-306.438199,5995.668130
28657.699048,-2442.679609,0.000000,7402.059420
28657.699377,-1702.473667,1149.143247,9696.697840
28657.699705,-1702.473667,612.876398,10732.986159
28657.700033,-3701.029710,-2298.286494,10362.883188
28657.700362,-1332.370696,-3753.867940,7105.977043
28657.700690,1850.514855,229.828649,7920.203579
28657.701018,1480.411884,5822.325785,9844.739029
28657.701347,814.226536,6205.373534,8808.450710
28657.701675,592.164754,1838.629195,7476.080014
28657.702003,-370.102971,-1378.971896,8216.285956
28657.702332,-2590.720797,-383.047749,8364.327145
28657.702660,-4515.256246,383.047749,10066.800811
28657.702988,-4219.173869,-1225.752797,10140.821405
28657.703317,-3108.864956,-3677.258390,11029.068536
28657.703645,-2590.720797,-4826.401637,12361.439231
28657.703973,-1036.288319,-1378.971896,10658.965565
28657.704302,888.247130,1915.238745,9992.780217
28657.704630,3330.926739,3447.429741,9992.780217
28657.704958,3182.885551,3753.867940,9474.636058
28657.705287,1332.370696,3370.820191,8660.409521
28657.705615,222.061783,995.924147,7698.141797
28657.705943,-740.205942,-1225.752797,7550.100608
28657.706272,-3478.967927,-1685.410096,9252.574275
28657.706600,-3108.864956,0.000000,10214.842000
28657.706928,-1628.453072,-689.485948,9992.780217
28657.707257,0.000000,-3294.210641,8438.347739
28657.707585,1480.411884,-2374.896044,8068.244768
28657.707913,2812.782580,2757.943793,7476.080014
28657.708242,5329.482782,6818.249932,7402.059420
28657.708570,7031.956449,5898.935335,6661.853478
28657.708898,4885.359217,3294.210641,8290.306550
28657.709227,1628.453072,1072.533697,7994.224174
28657.709555,444.123565,0.000000,8290.306550
28657.709883,-1332.370696,-1149.143247,10807.006753
28657.710212,-2442.679609,-3140.991542,10881.027347
28657.710540,-3256.906145,-3447.429741,10807.006753
28657.710868,-2072.576638,-3677.258390,10436.903782
28657.711197,-370.102971,-2221.676944,10732.986159
28657.711525,444.123565,153.219100,11251.130318
28657.711853,666.185348,3753.867940,11547.212695
28657.712182,1628.453072,3830.477490,8068.244768
28657.712510,1332.370696,766.095498,7328.038826
28657.712838,-518.144159,-1302.362347,7105.977043
28657.713167,-3330.926739,1072.533697,8882.471304
28657.713495,-4589.276840,842.705048,10214.842000
28657.713823,-2072.576638,-1532.190996,10140.821405
28657.714152,-666.185348,-4596.572988,10140.821405
28657.714480,0.000000,-2834.553343,10436.903782
28657.714808,1406.391290,2374.896044,9400.615463
28657.715137,4737.318029,4903.011187,8586.388927
28657.715465,6587.832884,5286.058936,9474.636058
28657.715793,6513.812290,6052.154434,9326.594869
28657.716122,4441.235652,5515.887586,7698.141797
28657.716450,2516.700203,2681.334243,6735.874072
28657.716778,-740.205942,536.266849,8068.244768
28657.717107,-4293.194464,76.609550,10140.821405
28657.717435,-4441.235652,-1225.752797,8290.306550
28657.717763,-3775.050304,-3753.867940,8586.388927
28657.718092,-4885.359217,-3600.648841,9844.739029
28657.718420,-3701.029710,-536.266849,9918.759623
28657.718748,-1554.432478,2604.724693,9992.780217
28657.719077,962.267725,2451.505594,9400.615463
28657.719405,1850.514855,1685.410096,9178.553681
28657.719733,-370.102971,1378.971896,9400.615463
28657.720062,148.041188,1455.581446,8068.244768
28657.720390,-518.144159,536.266849,9030.512492
28657.720718,-1480.411884,-1838.629195,11843.295072
28657.721047,-1628.453072,-2145.067394,11251.130318
28657.721375,-888.247130,-2528.115143,10214.842000
28657.721703,148.041188,-2681.334243,10658.965565
28657.722032,1924.535449,-689.485948,10288.862594
28657.722360,3108.864956,2681.334243,11473.192101
28657.722688,4367.215058,4826.401637,9400.615463
28657.723017,4515.256246,3447.429741,8882.471304
28657.723345,2664.741391,1225.752797,9548.656652
28657.723673,1110.308913,1225.752797,8660.409521
28657.724002,-1332.370696,459.657299,7328.038826
28657.724330,-2368.659014,-1149.143247,7994.224174
28657.724658,-3256.906145,-2911.162892,9104.533087
28657.724986,-4959.379811,-2145.067394,9474.636058
28657.725315,-3775.050304,-2987.772442,9252.574275
28657.725643,-1998.556043,-2757.943793,8068.244768
28657.725971,-1036.288319,0.000000,9252.574275
28657.726300,888.247130,3217.601092,9474.636058
28657.726628,1924.535449,3524.039291,9326.594869
28657.726956,0.000000,995.924147,8882.471304
28657.727285,74.020594,-2068.457845,7402.059420
28657.727613,-962.267725,-1149.143247,9030.512492
28657.727941,-1998.556043,919.314598,10807.006753
28657.728270,-1258.350101,383.047749,11325.150913
28657.728598,-1184.329507,-3830.477490,11769.274478
28657.728926,-1036.288319,-4749.792088,11325.150913
28657.729255,370.102971,-2298.286494,9030.512492
28657.729583,1776.494261,2528.115143,9326.594869
28657.729911,4515.256246,4903.011187,9770.718434
28657.730240,5255.462188,4366.744339,9474.636058
28657.730568,2886.803174,2911.162892,9474.636058
28657.730896,1406.391290,1378.971896,5847.626942
28657.731225,1036.288319,1685.410096,5921.647536
28657.731553,0.000000,1532.190996,8882.471304
28657.731881,-1554.432478,1991.848295,8808.450710
28657.732210,-1480.411884,-229.828649,8586.388927
28657.732538,-296.082377,-2757.943793,9104.533087
28657.732866,0.000000,-766.095498,8808.450710
28657.733195,370.102971,3140.991542,8882.471304
28657.733523,2368.659014,5362.668486,8586.388927
28657.733851,2368.659014,3140.991542,8290.306550
28657.734180,444.123565,1608.800546,7846.182985
28657.734508,-592.164754,459.657299,7476.080014
28657.734836,-2368.659014,1532.190996,7846.182985
28657.735165,-2146.597232,153.219100,9104.533087
28657.735493,-1702.473667,-1915.238745,9622.677246
28657.735821,-2442.679609,-2528.115143,10584.944971
28657.736150,-1332.370696,-1149.143247,10955.047942
28657.736478,1184.329507,229.828649,10362.883188
28657.736806,2442.679609,1762.019645,11325.150913
28657.737135,2960.823768,2681.334243,10807.006753
28657.737463,2664.741391,2681.334243,10881.027347
28657.737791,2294.638420,1302.362347,10288.862594
28657.738120,1184.329507,229.828649,9326.594869
28657.738448,-1554.432478,-383.047749,10140.821405
28657.738776,-3034.844362,766.095498,9474.636058
28657.739105,-2294.638420,-459.657299,9622.677246
28657.739433,-1480.411884,-1838.629195,10066.800811
28657.739761,-2220.617826,-1915.238745,9252.574275
28657.740090,-1850.514855,-612.876398,7846.182985
28657.740418,888.247130,3524.039291,8956.491898
28657.740746,3627.009116,4290.134789,7772.162391
28657.741075,1776.494261,4060.306139,6735.874072
28657.741403,-370.102971,1072.533697,6291.750507
28657.741731,296.082377,536.266849,6587.832884
28657.742060,-296.082377,1762.019645,8142.265362
28657.742388,-1110.308913,612.876398,10140.821405
28657.742716,-962.267725,0.000000,10510.924376
28657.743045,-370.102971,-536.266849,11621.233289
28657.743373,1998.556043,0.000000,11399.171507
28657.743701,1036.288319,-689.485948,9326.594869
28657.744030,-296.082377,1302.362347,9696.697840
28657.744358,1998.556043,4366.744339,10140.821405
28657.744686,2294.638420,4749.792088,10066.800811
28657.745015,-1184.329507,0.000000,9252.574275
28657.745343,-3256.906145,-2221.676944,8068.244768
28657.745671,-4293.194464,-1378.971896,8956.491898
28657.746000,-3182.885551,-229.828649,10066.800811
28657.746328,-2368.659014,-1685.410096,11177.109724
28657.746656,-2294.638420,-3524.039291,10807.006753
28657.746985,-296.082377,-1915.238745,9178.553681
28657.747313,2442.679609,1915.238745,8956.491898
28657.747641,4589.276840,5515.887586,11399.171507
28657.747970,5033.400406,5898.935335,8586.388927
28657.748298,4071.132681,3370.820191,7476.080014
28657.748626,3404.947333,306.438199,7624.121203
28657.748955,0.000000,689.485948,7920.203579
28657.749283,-2738.761985,383.047749,8882.471304
28657.749611,-3256.906145,-3064.381992,8586.388927
28657.749940,-3627.009116,-3753.867940,8808.450710
28657.750268,-4737.318029,-4060.306139,11103.089130
28657.750596,-3182.885551,-2221.676944,9770.718434
28657.750925,-1332.370696,-995.924147,8068.244768
28657.751253,370.102971,383.047749,9252.574275
28657.751581,2146.597232,2451.505594,8956.491898
28657.751910,1406.391290,4290.134789,8956.491898
28657.752238,1850.514855,1225.752797,7920.203579
28657.752566,1924.535449,-2681.334243,8586.388927
28657.752895,-1110.308913,-1991.848295,9992.780217
28657.753223,-1702.473667,-612.876398,10140.821405
28657.753551,592.164754,-1608.800546,10881.027347
28657.753880,1184.329507,-3140.991542,12139.377449
28657.754208,1554.432478,-1608.800546,12065.356855
28657.754536,2368.659014,1378.971896,10658.965565
28657.754865,4219.173869,4290.134789,9548.656652
28657.755193,5699.585753,4290.134789,7772.162391
28657.755521,4589.276840,3064.381992,8068.244768
28657.755850,1036.288319,2757.943793,7476.080014
28657.756178,-962.267725,3064.381992,6587.832884
28657.756506,-1406.391290,306.438199,8142.265362
28657.756835,-4145.153275,-1915.238745,8216.285956
28657.757163,-4811.338623,-1532.190996,8512.368333
28657.757491,-4145.153275,-1378.971896,9326.594869
28657.757820,-2442.679609,-1915.238745,8734.430116
28657.758148,-962.267725,-459.657299,9030.512492
28657.758476,1554.432478,3370.820191,9326.594869
28657.758805,2442.679609,6128.763984,9104.533087
28657.759133,2516.700203,5898.935335,8142.265362
28657.759461,2812.782580,995.924147,8586.388927
28657.759790,962.267725,842.705048,9030.512492
28657.760118,-888.247130,2451.505594,9252.574275
28657.760446,-222.061783,1378.971896,10140.821405
28657.760775,-444.123565,-1302.362347,11103.089130
28657.761103,-1850.514855,-1378.971896,11621.233289
28657.761431,-1184.329507,-306.438199,10066.800811
28657.761760,740.205942,1378.971896,10214.842000
28657.762088,2294.638420,2834.553343,9770.718434
28657.762416,2442.679609,3983.696590,9992.780217
28657.762745,518.144159,3830.477490,8586.388927
28657.763073,-222.061783,1225.752797,5921.647536
28657.763401,-814.226536,-689.485948,7846.182985
28657.763730,-3404.947333,-306.438199,9474.636058
28657.764058,-3256.906145,0.000000,9326.594869
28657.764386,-1406.391290,-2068.457845,10584.944971
28657.764715,-1406.391290,-3370.820191,11621.233289
28657.765043,-1628.453072,-2298.286494,9326.594869
28657.765371,-370.102971,-229.828649,8734.430116
28657.765700,1998.556043,1915.238745,10510.924376
28657.766028,2442.679609,2834.553343,9326.594869
28657.766356,1776.494261,1838.629195,9770.718434
28657.766685,370.102971,383.047749,9030.512492
28657.767013,-1480.411884,-1072.533697,7846.182985
28657.767341,-1850.514855,-2451.505594,8660.409521
28657.767670,-1776.494261,-2834.553343,9696.697840
28657.767998,-2368.659014,-3140.991542,10214.842000
28657.768326,-1258.350101,-2145.067394,10807.006753
28657.768655,1110.308913,-2451.505594,10140.821405
28657.768983,592.164754,-919.314598,9622.677246
28657.769311,1184.329507,1302.362347,9844.739029
28657.769640,2442.679609,1991.848295,9326.594869
28657.769968,2516.700203,1608.800546,9326.594869
28657.770296,1036.288319,459.657299,10214.842000
28657.770625,-1702.473667,-919.314598,10807.006753
28657.770953,-3182.885551,-1838.629195,9918.759623
28657.771281,-1702.473667,-2681.334243,9252.574275
28657.771610,-1258.350101,-3217.601092,10140.821405
28657.771938,-1850.514855,-1455.581446,9918.759623
28657.772266,1036.288319,306.438199,7624.121203
28657.772595,2738.761985,2451.505594,9400.615463
28657.772923,2220.617826,4596.572988,8660.409521
28657.773251,1924.535449,4596.572988,6069.688724
28657.773580,1628.453072,3370.820191,6143.709319
28657.773908,1184.329507,1915.238745,7031.956449
28657.774236,-148.041188,919.314598,8586.388927
28657.774565,-1850.514855,306.438199,11103.089130
28657.774893,-1850.514855,0.000000,9548.656652
28657.775221,-1184.329507,-1838.629195,9770.718434
28657.775550,222.061783,-1608.800546,10807.006753
28657.775878,1184.329507,1455.581446,9474.636058
28657.776206,2368.659014,4366.744339,9696.697840
28657.776535,3997.112087,4673.182538,10140.821405
28657.776863,3182.885551,3983.696590,8290.306550
28657.777191,0.000000,3294.210641,8068.244768
28657.777520,-74.020594,1302.362347,7476.080014
28657.777848,-1776.494261,0.000000,8216.285956
28657.778176,-3849.070898,-995.924147,10066.800811
28657.778505,-3330.926739,-1915.238745,10658.965565
28657.778833,-2368.659014,-1838.629195,10140.821405
28657.779161,-740.205942,-1302.362347,9770.718434
28657.779490,2368.659014,-536.266849,9326.594869
28657.779818,2368.659014,3294.210641,9918.759623
28657.780146,3997.112087,6052.154434,9622.677246
28657.780474,5477.523971,5209.449386,8660.409521
28657.780803,2516.700203,1991.848295,8734.430116
28657.781131,-444.123565,689.485948,7105.977043
28657.781459,-1184.329507,536.266849,8068.244768
28657.781787,-1924.535449,-612.876398,9326.594869
28657.782116,-3997.112087,-1532.190996,11103.089130
28657.782444,-4293.194464,-3907.087040,10362.883188
28657.782772,-2886.803174,-3677.258390,9252.574275
28657.783100,-296.082377,-1378.971896,8956.491898
28657.783429,1776.494261,1762.019645,10140.821405
28657.783757,2220.617826,4749.792088,10658.965565
28657.784085,1406.391290,4749.792088,9030.512492
28657.784413,1554.432478,306.438199,8142.265362
28657.784742,888.247130,-2528.115143,7772.162391
28657.785070,-1480.411884,-306.438199,8438.347739
28657.785398,-2294.638420,689.485948,9622.677246
28657.785727,-1258.350101,-1991.848295,10807.006753
28657.786055,-1184.329507,-3753.867940,12583.501014
28657.786383,-518.144159,-2681.334243,11917.315666
28657.786711,592.164754,-153.219100,9326.594869
28657.787040,2368.659014,2145.067394,9178.553681
28657.787368,3997.112087,3294.210641,10288.862594
28657.787696,4071.132681,3370.820191,10066.800811
28657.788024,1406.391290,2451.505594,9326.594869
28657.788353,148.041188,76.609550,7402.059420
28657.788681,-1554.432478,-2068.457845,7846.182985
28657.789009,-3034.844362,-1608.800546,8660.409521
28657.789337,-2664.741391,-919.314598,9918.759623
28657.789666,-3256.906145,-2298.286494,10362.883188
28657.789994,-2738.761985,-3524.039291,9844.739029
28657.790322,-296.082377,-1915.238745,9326.594869
28657.790651,888.247130,2681.334243,9622.677246
28657.790979,2960.823768,5822.325785,8734.430116
28657.791307,3775.050304,4826.401637,8142.265362
28657.791635,2072.576638,2374.896044,9252.574275
28657.791964,-518.144159,1455.581446,8438.347739
28657.792292,-1924.535449,229.828649,7920.203579
28657.792620,-2590.720797,-1762.019645,9252.574275
28657.792948,-2960.823768,-2604.724693,9400.615463
28657.793277,-3404.947333,-1608.800546,10881.027347
28657.793605,-1628.453072,-1762.019645,10584.944971
28657.793933,74.020594,-995.924147,9844.739029
28657.794261,1332.370696,1302.362347,9918.759623
28657.794590,2368.659014,4596.572988,9400.615463
28657.794918,3034.844362,5286.058936,7994.224174
28657.795246,2738.761985,3600.648841,7402.059420
28657.795575,1998.556043,766.095498,7698.141797
28657.795903,-1776.494261,1302.362347,8364.327145
28657.796231,-2368.659014,995.924147,9474.636058
28657.796559,-740.205942,-1378.971896,9474.636058
28657.796888,-1628.453072,-2681.334243,10658.965565
28657.797216,-1850.514855,-1915.238745,9030.512492
28657.797544,370.102971,76.609550,8364.327145
28657.797872,1924.535449,2757.943793,9548.656652
28657.798201,2738.761985,4366.744339,9252.574275
28657.798529,2368.659014,4443.353888,8660.409521
28657.798857,1776.494261,2068.457845,7031.956449
28657.799185,1184.329507,459.657299,6291.750507
28657.799514,-666.185348,689.485948,9474.636058
28657.799842,-2146.597232,1455.581446,10658.965565
28657.800170,-1036.288319,-842.705048,9548.656652
28657.800498,-518.144159,-4596.572988,10510.924376
28657.800827,-962.267725,-3677.258390,10362.883188
28657.801155,-444.123565,0.000000,9178.553681
28657.801483,1554.432478,2451.505594,10066.800811
28657.801812,2368.659014,2451.505594,9992.780217
28657.802140,1332.370696,2451.505594,9178.553681
28657.802468,1110.308913,536.266849,8512.368333
28657.802796,0.000000,995.924147,6883.915261
28657.803125,-1184.329507,459.657299,8438.347739
28657.803453,-1554.432478,-536.266849,10881.027347
28657.803781,-2220.617826,-1378.971896,10732.986159
28657.804109,-3330.926739,-2374.896044,10584.944971
28657.804438,-1850.514855,-2834.553343,9622.677246
28657.804766,444.123565,-1685.410096,8956.491898
28657.805094,370.102971,2681.334243,9548.656652
28657.805422,1184.329507,3600.648841,9326.594869
28657.805751,1110.308913,1991.848295,8882.471304
28657.806079,296.082377,0.000000,8586.388927
28657.806407,74.020594,76.609550,8142.265362
28657.806736,-1480.411884,1072.533697,7920.203579
28657.807064,-1110.308913,1302.362347,8512.368333
28657.807392,666.185348,0.000000,10288.862594
28657.807720,-814.226536,-995.924147,11621.233289
28657.808049,-888.247130,-995.924147,10510.924376
28657.808377,1184.329507,-689.485948,9326.594869
28657.808705,3182.885551,2374.896044,10881.027347
28657.809033,3182.885551,4673.182538,9770.718434
28657.809362,1184.329507,2757.943793,8438.347739
28657.809690,148.041188,-995.924147,8364.327145
28657.810018,-518.144159,-995.924147,8586.388927
28657.810346,-1258.350101,383.047749,9622.677246
28657.810675,-2220.617826,1072.533697,10732.986159
28657.811003,-1184.329507,-153.219100,9622.677246
28657.811331,-740.205942,-1991.848295,9474.636058
28657.811659,148.041188,-3370.820191,9622.677246
28657.811988,74.020594,306.438199,8734.430116
28657.812316,1554.432478,3983.696590,9548.656652
28657.812644,3849.070898,4673.182538,10066.800811
28657.812973,2294.638420,2528.115143,8512.368333
28657.813301,0.000000,0.000000,7105.977043
28657.813629,-740.205942,0.000000,7179.997637
28657.813957,-1998.556043,1072.533697,7624.121203
28657.814286,-1628.453072,1149.143247,9844.739029
28657.814614,-1702.473667,-995.924147,10955.047942
28657.814942,-2590.720797,-1915.238745,10732.986159
28657.815270,-666.185348,-1915.238745,9178.553681
28657.815599,1110.308913,153.219100,9992.780217
28657.815927,740.205942,2834.553343,9844.739029
28657.816255,1184.329507,3907.087040,8068.244768
28657.816583,3108.864956,995.924147,9030.512492
28657.816912,1110.308913,536.266849,9252.574275
28657.817240,-2146.597232,1149.143247,7698.141797
28657.817568,-2294.638420,0.000000,7550.100608
28657.817897,-2072.576638,-1072.533697,8882.471304
28657.818225,-2072.576638,-1532.190996,9030.512492
28657.818553,-2220.617826,-1762.019645,10066.800811
28657.818881,-888.247130,-1455.581446,8660.409521
28657.819210,1184.329507,153.219100,8882.471304
28657.819538,2960.823768,2451.505594,11029.068536
28657.819866,2368.659014,4290.134789,10658.965565
28657.820194,1332.370696,2374.896044,8438.347739
28657.820523,2294.638420,-2068.457845,7179.997637
28657.820851,-370.102971,-2681.334243,8586.388927
28657.821179,-3108.864956,229.828649,8882.471304
28657.821507,-2294.638420,229.828649,9030.512492
28657.821836,-1480.411884,-2068.457845,10140.821405
28657.822164,-1480.411884,-3370.820191,10362.883188
28657.822492,-222.061783,-1532.190996,9326.594869
28657.822821,1554.432478,1915.238745,8586.388927
28657.823149,3182.885551,3983.696590,8882.471304
28657.823477,3997.112087,4213.525239,9992.780217
28657.823805,1628.453072,2911.162892,10288.862594
28657.824134,518.144159,1149.143247,8512.368333
28657.824462,0.000000,-842.705048,7550.100608
28657.824790,-1480.411884,-1072.533697,9104.533087
28657.825118,-2294.638420,0.000000,8808.450710
28657.825447,-1332.370696,0.000000,9474.636058
28657.825775,-740.205942,-1685.410096,10066.800811
28657.826103,74.020594,-1072.533697,9548.656652
28657.826431,740.205942,1991.848295,9474.636058
28657.826760,2072.576638,4903.011187,9252.574275
28657.827088,2812.782580,4749.792088,8660.409521
28657.827416,2590.720797,2451.505594,9400.615463
28657.827744,1406.391290,612.876398,8882.471304
28657.828073,-2220.617826,689.485948,7402.059420
28657.828401,-2886.803174,536.266849,9178.553681
28657.828729,-1406.391290,-842.705048,10732.986159
28657.829058,-2516.700203,-1378.971896,11547.212695
28657.829386,-2368.659014,-1991.848295,10510.924376
28657.829714,0.000000,-1378.971896,8734.430116
28657.830042,1480.411884,919.314598,8734.430116
28657.830371,1776.494261,3907.087040,10214.842000
28657.830699,2220.617826,4673.182538,9844.739029
28657.831027,1850.514855,3294.210641,9252.574275
28657.831355,2146.597232,919.314598,8216.285956
28657.831684,962.267725,0.000000,8438.347739
28657.832012,-1924.535449,689.485948,8956.491898
28657.832340,-1776.494261,842.705048,8734.430116
28657.832668,-888.247130,-1532.190996,10066.800811
28657.832997,-2146.597232,-2834.553343,10732.986159
28657.833325,-1924.535449,-1915.238745,8586.388927
28657.833653,222.061783,689.485948,9178.553681
28657.833982,1258.350101,2374.896044,10214.842000
28657.834310,1480.411884,1838.629195,9992.780217
28657.834638,296.082377,229.828649,8956.491898
28657.834966,-296.082377,-995.924147,7550.100608
28657.835295,-1554.432478,-383.047749,8216.285956
28657.835623,-2220.617826,-459.657299,9696.697840
28657.835951,-1924.535449,-612.876398,9918.759623
28657.836279,-1924.535449,-1915.238745,9696.697840
28657.836608,-296.082377,-3447.429741,10732.986159
28657.836936,1184.329507,-1685.410096,9696.697840
28657.837264,592.164754,1532.190996,10362.883188
28657.837592,1184.329507,2911.162892,9918.759623
28657.837921,2590.720797,2451.505594,8660.409521
28657.838249,1850.514855,306.438199,8586.388927
28657.838577,444.123565,-612.876398,8364.327145
28657.838906,-1258.350101,-383.047749,8068.244768
28657.839234,-1628.453072,383.047749,9030.512492
28657.839562,-1702.473667,-689.485948,9918.759623
28657.839890,-2368.659014,-919.314598,9474.636058
28657.840219,-1184.329507,-1762.019645,8142.265362
28657.840547,1554.432478,-1608.800546,8290.306550
28657.840875,1554.432478,1838.629195,9844.739029
28657.841203,444.123565,4596.572988,9844.739029
28657.841532,1258.350101,2987.772442,8512.368333
28657.841860,888.247130,-536.266849,7994.224174
28657.842188,-444.123565,-995.924147,7698.141797
28657.842516,-1036.288319,229.828649,8438.347739
28657.842845,-1480.411884,1225.752797,9326.594869
28657.843173,0.000000,76.609550,9104.533087
28657.843501,962.267725,-1915.238745,10658.965565
28657.843829,444.123565,-689.485948,10732.986159
28657.844158,888.247130,1991.848295,9030.512492
28657.844486,3552.988522,2987.772442,9622.677246
28657.844814,5033.400406,3600.648841,10214.842000
28657.845143,2442.679609,4519.963438,9178.553681
28657.845471,814.226536,2757.943793,7402.059420
28657.845799,0.000000,76.609550,8512.368333
28657.846127,-2516.700203,-612.876398,8364.327145
28657.846456,-3330.926739,536.266849,10140.821405
28657.846784,-2738.761985,0.000000,9548.656652
28657.847112,-2368.659014,-1072.533697,9474.636058
28657.847440,-592.164754,-1991.848295,10510.924376
28657.847769,148.041188,153.219100,10288.862594
28657.848097,1036.288319,3370.820191,9474.636058
28657.848425,2368.659014,3677.258390,8364.327145
28657.848753,2886.803174,2911.162892,9030.512492
28657.849082,888.247130,1838.629195,8882.471304
28657.849410,-740.205942,1225.752797,7994.224174
28657.849738,-1850.514855,459.657299,8216.285956
28657.850067,-2220.617826,-766.095498,9030.512492
28657.850395,-2442.679609,-459.657299,9770.718434
28657.850723,-1406.391290,-689.485948,9548.656652
28657.851051,-444.123565,-459.657299,10436.903782
28657.851380,1332.370696,0.000000,10362.883188
28657.851708,1776.494261,1378.971896,10140.821405
28657.852036,1480.411884,3600.648841,9474.636058
28657.852364,2368.659014,3753.867940,9030.512492
28657.852693,1998.556043,306.438199,8364.327145
28657.853021,-444.123565,-1302.362347,9252.574275
28657.853349,-2960.823768,-766.095498,9696.697840
28657.853677,-1998.556043,-1378.971896,9622.677246
28657.854006,-1184.329507,-2604.724693,9696.697840
28657.854334,-1258.350101,-3217.601092,10436.903782
28657.854662,-74.020594,-995.924147,9696.697840
28657.854990,2442.679609,459.657299,9252.574275
28657.855319,4515.256246,3830.477490,10584.944971
28657.855647,4219.173869,4290.134789,10362.883188
28657.855975,2072.576638,3217.601092,8586.388927
28657.856304,148.041188,229.828649,6587.832884
28657.856632,-518.144159,-1915.238745,6883.915261
28657.856960,-3552.988522,-766.095498,8660.409521
28657.857288,-4293.194464,-612.876398,9918.759623
28657.857617,-3108.864956,-2604.724693,10066.800811
28657.857945,-2738.761985,-4213.525239,10214.842000
28657.858273,-1702.473667,-3140.991542,9548.656652
28657.858601,444.123565,689.485948,9548.656652
28657.858930,2886.803174,4749.792088,9992.780217
28657.859258,4959.379811,5439.278036,9326.594869
28657.859586,4737.318029,2911.162892,9252.574275
28657.859914,1554.432478,2298.286494,8734.430116
28657.860243,444.123565,1225.752797,8364.327145
28657.860571,444.123565,229.828649,9770.718434
28657.860899,-814.226536,-1378.971896,10955.047942
28657.861228,-3034.844362,-2374.896044,10584.944971
28657.861556,-3330.926739,-1225.752797,10658.965565
28657.861884,-1480.411884,-1762.019645,9104.533087
28657.862212,-1110.308913,229.828649,8142.265362
28657.862541,-1184.329507,1225.752797,8882.471304
28657.862869,-148.041188,3983.696590,8734.430116
28657.863197,518.144159,4213.525239,8290.306550
28657.863525,-148.041188,1378.971896,9030.512492
28657.863854,-2812.782580,-1762.019645,6587.832884
28657.864182,-3923.091493,-536.266849,7328.038826
28657.864510,-1406.391290,229.828649,8364.327145
28657.864838,0.000000,0.000000,9770.718434
28657.865167,-1184.329507,-919.314598,10881.027347
28657.865495,222.061783,-766.095498,9918.759623
28657.865823,3627.009116,1532.190996,8956.491898
28657.866152,5477.523971,4596.572988,9252.574275
28657.866480,6143.709319,6435.202183,10658.965565
28657.866808,3923.091493,5592.497135,8956.491898
28657.867136,2294.638420,2145.067394,7402.059420
28657.867465,1480.411884,-1225.752797,7994.224174
28657.867793,-1776.494261,-383.047749,9400.615463
28657.868121,-2960.823768,919.314598,9696.697840
28657.868449,-2368.659014,-536.266849,9400.615463
28657.868778,-1850.514855,-4060.306139,11103.089130
28657.869106,-2368.659014,-3370.820191,9770.718434
28657.869434,-962.267725,459.657299,9178.553681
28657.869762,1776.494261,3524.039291,9474.636058
28657.870091,2442.679609,3753.867940,9326.594869
28657.870419,1776.494261,1991.848295,10584.944971
28657.870747,740.205942,383.047749,9548.656652
28657.871075,222.061783,-383.047749,7920.203579
28657.871404,444.123565,0.000000,9474.636058
28657.871732,444.123565,612.876398,11325.150913
28657.872060,-370.102971,1072.533697,10214.842000
28657.872389,296.082377,-1532.190996,8882.471304
28657.872717,1554.432478,-2681.334243,9104.533087
28657.873045,962.267725,919.314598,9622.677246
28657.873373,444.123565,5362.668486,9844.739029
28657.873702,2220.617826,4290.134789,9474.636058
28657.874030,1258.350101,306.438199,8734.430116
28657.874358,-1628.453072,-2221.676944,7698.141797
28657.874686,-2960.823768,-1762.019645,7105.977043
28657.875015,-2812.782580,229.828649,8142.265362
28657.875343,-2146.597232,536.266849,10066.800811
28657.875671,-1850.514855,-1532.190996,10881.027347
28657.875999,-2220.617826,-2604.724693,10436.903782
28657.876328,-444.123565,-2221.676944,8734.430116
28657.876656,1406.391290,306.438199,9696.697840
28657.876984,1924.535449,3753.867940,11177.109724
28657.877313,3108.864956,4213.525239,10066.800811
28657.877641,2368.659014,1532.190996,9548.656652
28657.877969,592.164754,-1991.848295,9030.512492
28657.878297,-1628.453072,-1838.629195,7624.121203
28657.878626,-3404.947333,306.438199,9770.718434
28657.878954,-2368.659014,536.266849,9474.636058
28657.879282,0.000000,-2374.896044,8586.388927
28657.879611,-296.082377,-2987.772442,9696.697840
28657.879939,-1036.288319,536.266849,9696.697840
28657.880267,0.000000,3677.258390,9548.656652
28657.880596,2664.741391,3600.648841,9474.636058
28657.880924,3701.029710,1455.581446,8660.409521
28657.881253,296.082377,1685.410096,8068.244768
28657.881581,-1850.514855,2145.067394,6883.915261
28657.881909,-1554.432478,919.314598,5995.668130
28657.882238,-3627.009116,-919.314598,8216.285956
28657.882566,-4515.256246,-2145.067394,9474.636058
28657.882894,-3701.029710,-766.095498,9178.553681
28657.883223,-962.267725,-995.924147,10140.821405
28657.883551,1036.288319,-1149.143247,10955.047942
28657.883879,444.123565,1072.533697,11029.068536
28657.884208,1554.432478,3983.696590,9104.533087
28657.884536,4959.379811,3753.867940,8734.430116
28657.884864,3108.864956,2451.505594,10066.800811
28657.885193,296.082377,536.266849,9252.574275
28657.885521,-888.247130,229.828649,7698.141797
28657.885849,-1406.391290,306.438199,9252.574275
28657.886178,-1184.329507,-1072.533697,9992.780217
28657.886506,-888.247130,-1532.190996,9474.636058
28657.886834,-740.205942,-1455.581446,9918.759623
28657.887163,1480.411884,766.095498,9326.594869
28657.887491,3923.091493,2604.724693,10436.903782
28657.887819,3775.050304,4443.353888,10881.027347
28657.888148,3701.029710,4519.963438,8660.409521
28657.888476,2590.720797,2374.896044,8290.306550
28657.888804,740.205942,-536.266849,9178.553681
28657.889133,-1628.453072,0.000000,7920.203579
28657.889461,-2886.803174,153.219100,8882.471304
28657.889789,-2072.576638,-919.314598,9178.553681
28657.890118,-1998.556043,-2374.896044,8586.388927
28657.890446,-2294.638420,-2834.553343,9992.780217
28657.890774,-962.267725,-766.095498,10362.883188
28657.891103,962.267725,3064.381992,10807.006753
28657.891431,3330.926739,3294.210641,9770.718434
28657.891759,2368.659014,3140.991542,9548.656652
28657.892088,592.164754,1838.629195,9326.594869
28657.892416,-1110.308913,919.314598,8068.244768
28657.892744,-1258.350101,-1608.800546,7179.997637
28657.893073,-2294.638420,-2604.724693,9252.574275
28657.893401,-3330.926739,-766.095498,10881.027347
28657.893729,-1924.535449,76.609550,10436.903782
28657.894058,-444.123565,-1608.800546,9104.533087
28657.894386,296.082377,-3753.867940,9844.739029
28657.894714,444.123565,689.485948,11399.171507
28657.895043,3256.906145,4443.353888,10584.944971
28657.895371,5329.482782,3370.820191,10955.047942
28657.895699,3182.885551,-383.047749,11547.212695
28657.896028,-148.041188,-1378.971896,10288.862594
28657.896356,-888.247130,306.438199,7105.977043
28657.896684,-666.185348,-689.485948,8364.327145
28657.897013,-1406.391290,-1378.971896,9474.636058
28657.897341,-2664.741391,-1225.752797,8734.430116
28657.897669,-1332.370696,-766.095498,7698.141797
28657.897998,592.164754,-306.438199,8660.409521
28657.898326,74.020594,2298.286494,9252.574275
28657.898654,1184.329507,3524.039291,9252.574275
28657.898983,2664.741391,3600.648841,8882.471304
28657.899311,1776.494261,1608.800546,8734.430116
28657.899639,0.000000,-536.266849,8660.409521
28657.899968,-2368.659014,-766.095498,7846.182985
28657.900296,-2146.597232,-612.876398,8808.450710
28657.900625,-1258.350101,-1149.143247,9104.533087
28657.900953,-1258.350101,-1532.190996,9622.677246
28657.901281,-1332.370696,-766.095498,9622.677246
28657.901610,814.226536,919.314598,9030.512492
28657.901938,3034.844362,2757.943793,9992.780217
28657.902266,4145.153275,4519.963438,10510.924376
28657.902595,3256.906145,4673.182538,10510.924376
28657.902923,2294.638420,2451.505594,9400.615463
28657.903251,1258.350101,842.705048,8512.368333
28657.903580,-296.082377,-383.047749,10214.842000
28657.903908,-3552.988522,0.000000,10732.986159
28657.904236,-3701.029710,-383.047749,9104.533087
28657.904565,-2960.823768,-2221.676944,9474.636058
28657.904893,-2664.741391,-3294.210641,9030.512492
28657.905221,-3182.885551,0.000000,7920.203579
28657.905550,-962.267725,2451.505594,7698.141797
28657.905878,1184.329507,3677.258390,9104.533087
28657.906206,1110.308913,3830.477490,9400.615463
28657.906535,-296.082377,2068.457845,8734.430116
28657.906863,-2146.597232,-229.828649,6365.771101
28657.907191,-2738.761985,-689.485948,6439.791695
28657.907520,-2072.576638,0.000000,8734.430116
28657.907848,-962.267725,689.485948,8956.491898
28657.908176,-1554.432478,-1608.800546,9992.780217
28657.908505,0.000000,-2451.505594,10140.821405
28657.908833,2220.617826,0.000000,11399.171507
28657.909161,2886.803174,3140.991542,11251.130318
28657.909490,3997.112087,3600.648841,9696.697840
28657.909818,4737.318029,2221.676944,9400.615463
28657.910146,3627.009116,1685.410096,10214.842000
28657.910475,1998.556043,1302.362347,9770.718434
28657.910803,296.082377,-612.876398,9474.636058
28657.911131,-1628.453072,-2068.457845,9770.718434
28657.911460,-1702.473667,-1762.019645,10436.903782
28657.911788,-1554.432478,-1991.848295,10732.986159
28657.912116,-666.185348,-2145.067394,10436.903782
28657.912445,222.061783,-1762.019645,9252.574275
28657.912773,1184.329507,689.485948,11325.150913
28657.913101,2072.576638,3217.601092,10658.965565
28657.913430,1036.288319,3370.820191,9844.739029
28657.913758,222.061783,-1302.362347,8290.306550
28657.914086,-444.123565,-3140.991542,6439.791695
28657.914415,-1554.432478,459.657299,7698.141797
28657.914743,-1628.453072,3753.867940,9400.615463
28657.915071,-666.185348,536.266849,7624.121203
28657.915400,-296.082377,-3064.381992,8512.368333
28657.915728,-370.102971,-1532.190996,9474.636058
28657.916056,0.000000,2221.676944,8660.409521
28657.916385,1776.494261,3524.039291,9770.718434
28657.916713,3552.988522,2757.943793,10955.047942
28657.917041,3108.864956,3064.381992,11473.192101
28657.917370,592.164754,1455.581446,7994.224174
28657.917698,0.000000,-383.047749,6735.874072
28657.918026,-1776.494261,-1225.752797,8290.306550
28657.918355,-3182.885551,689.485948,9844.739029
28657.918683,-2368.659014,536.266849,9992.780217
28657.919012,-2368.659014,-1608.800546,9400.615463
28657.919340,-962.267725,-3370.820191,9030.512492
28657.919668,74.020594,0.000000,9548.656652
28657.919997,222.061783,3217.601092,10658.965565
28657.920325,1332.370696,4519.963438,10584.944971
28657.920653,2368.659014,1608.800546,10214.842000
28657.920982,962.267725,-1455.581446,9326.594869
28657.921310,-1110.308913,-995.924147,6735.874072
28657.921638,-2368.659014,1225.752797,7105.977043
28657.921967,-888.247130,766.095498,8216.285956
28657.922295,-148.041188,-1225.752797,8956.491898
28657.922623,-962.267725,-1685.410096,9918.759623
28657.922952,0.000000,459.657299,9252.574275
28657.923280,2516.700203,1838.629195,8216.285956
28657.923608,3552.988522,2911.162892,9844.739029
28657.923937,3627.009116,3140.991542,9992.780217
28657.924265,2146.597232,4060.306139,9178.553681
28657.924593,1776.494261,1225.752797,8216.285956
28657.924922,-296.082377,-1378.971896,7994.224174
28657.925250,-3775.050304,-842.705048,9252.574275
28657.925578,-4145.153275,-383.047749,8438.347739
28657.925907,-3108.864956,-1378.971896,8068.244768
28657.926235,-2516.700203,-3600.648841,9474.636058
28657.926563,-2146.597232,-2068.457845,10436.903782
28657.926892,-666.185348,1608.800546,10066.800811
28657.927220,1850.514855,3830.477490,10807.006753
28657.927548,3923.091493,3064.381992,9918.759623
28657.927877,1480.411884,1532.190996,10214.842000
28657.928205,0.000000,536.266849,7994.224174
28657.928533,1258.350101,153.219100,8512.368333
28657.928862,-962.267725,229.828649,10510.924376
28657.929190,-2738.761985,-306.438199,9622.677246
28657.929518,-2294.638420,-1225.752797,8808.450710
28657.929847,-1332.370696,-2604.724693,9474.636058
28657.930175,-370.102971,-1532.190996,8216.285956
28657.930503,1332.370696,1149.143247,9030.512492
28657.930832,1184.329507,4136.915689,10807.006753
28657.931160,3034.844362,4596.572988,9918.759623
28657.931488,2368.659014,1685.410096,8956.491898
28657.931817,444.123565,-1149.143247,9104.533087
28657.932145,-1258.350101,-229.828649,7698.141797
28657.932473,-1850.514855,1378.971896,8808.450710
28657.932802,-518.144159,-1225.752797,9474.636058
28657.933130,-1702.473667,-2681.334243,9030.512492
28657.933458,-2368.659014,-2374.896044,9918.759623
28657.933787,-888.247130,-153.219100,9844.739029
28657.934115,1110.308913,1378.971896,9400.615463
28657.934443,1480.411884,2068.457845,10436.903782
28657.934772,2516.700203,1838.629195,11325.150913
28657.935100,2516.700203,1685.410096,9548.656652
28657.935428,1998.556043,383.047749,8956.491898
28657.935757,518.144159,-766.095498,9992.780217
28657.936085,-1702.473667,229.828649,9474.636058
28657.936413,-814.226536,0.000000,8660.409521
28657.936742,444.123565,-1762.019645,9844.739029
28657.937070,-1332.370696,-1685.410096,10658.965565
28657.937398,-962.267725,-306.438199,8512.368333
28657.937727,1184.329507,1072.533697,8438.347739
28657.938055,2738.761985,1685.410096,9770.718434
28657.938384,2442.679609,3140.991542,10066.800811
28657.938712,1406.391290,3294.210641,9696.697840
28657.939040,1554.432478,1302.362347,7846.182985
28657.939369,888.247130,229.828649,6513.812290
28657.939697,-222.061783,-536.266849,7476.080014
28657.940025,-1998.556043,995.924147,7846.182985
28657.940354,-2220.617826,1072.533697,7550.100608
28657.940682,-1332.370696,-919.314598,9104.533087
28657.941010,-592.164754,-1838.629195,8734.430116
28657.941339,-592.164754,459.657299,8290.306550
28657.941667,1406.391290,2221.676944,9474.636058
28657.941995,2368.659014,3370.820191,10881.027347
28657.942324,592.164754,2451.505594,10658.965565
28657.942652,74.020594,-689.485948,8956.491898
28657.942980,222.061783,-1532.190996,7402.059420
28657.943309,-222.061783,459.657299,9104.533087
28657.943637,-518.144159,1685.410096,11695.253884
28657.943965,0.000000,919.314598,11991.336260
28657.944294,1184.329507,-1149.143247,10881.027347
28657.944622,1998.556043,-2221.676944,10436.903782
28657.944950,1184.329507,1072.533697,9992.780217
28657.945279,962.267725,4519.963438,9844.739029
28657.945607,1110.308913,3753.867940,9770.718434
28657.945935,-296.082377,0.000000,8734.430116
28657.946264,-1924.535449,-1915.238745,7105.977043
28657.946592,-2590.720797,76.609550,7550.100608
28657.946920,-4885.359217,1378.971896,7994.224174
28657.947249,-3923.091493,0.000000,7476.080014
28657.947577,-2072.576638,-2374.896044,9178.553681
28657.947905,-2220.617826,-1532.190996,9104.533087
28657.948234,-962.267725,1838.629195,7698.141797
28657.948562,1184.329507,2757.943793,7550.100608
28657.948890,2368.659014,3140.991542,10584.944971
28657.949219,1628.453072,3600.648841,10214.842000
28657.949547,740.205942,2374.896044,9548.656652
28657.949875,1110.308913,-842.705048,8068.244768
28657.950204,-666.185348,-2145.067394,8068.244768
28657.950532,-2738.761985,0.000000,10288.862594
28657.950860,-2220.617826,459.657299,10066.800811
28657.951189,-814.226536,-1072.533697,10214.842000
28657.951517,0.000000,-3294.210641,11621.233289
28657.951845,1184.329507,-689.485948,11769.274478
28657.952174,1776.494261,3064.381992,10807.006753
28657.952502,2812.782580,3677.258390,10881.027347
28657.952830,3034.844362,1532.190996,11177.109724
28657.953159,1036.288319,153.219100,9400.615463
28657.953487,-666.185348,0.000000,7698.141797
28657.953815,-814.226536,-229.828649,8216.285956
28657.954144,-2146.597232,-689.485948,9178.553681
28657.954472,-1702.473667,-1225.752797,9548.656652
28657.954800,-1110.308913,-536.266849,10214.842000
28657.955129,-518.144159,-459.657299,8290.306550
28657.955457,1258.350101,306.438199,7698.141797
28657.955785,2516.700203,1149.143247,8956.491898
28657.956114,1628.453072,4213.525239,9400.615463
28657.956442,1850.514855,3447.429741,8438.347739
28657.956770,1110.308913,153.219100,8808.450710
28657.957099,-444.123565,-2451.505594,7920.203579
28657.957427,-2294.638420,-919.314598,7402.059420
28657.957756,-2146.597232,-842.705048,8586.388927
28657.958084,-888.247130,-1378.971896,9030.512492
28657.958412,-1406.391290,-766.095498,10066.800811
28657.958741,0.000000,-919.314598,10436.903782
28657.959069,2072.576638,306.438199,8660.409521
28657.959397,3627.009116,2834.553343,10066.800811
28657.959726,4515.256246,5592.497135,11769.274478
28657.960054,3108.864956,4596.572988,9474.636058
28657.960382,2220.617826,1225.752797,8364.327145
28657.960711,1036.288319,-1532.190996,8068.244768
28657.961039,-1850.514855,-459.657299,8956.491898
28657.961367,-4219.173869,842.705048,9104.533087
28657.961696,-3701.029710,-459.657299,9030.512492
28657.962024,-3701.029710,-3677.258390,9474.636058
28657.962352,-3478.967927,-3447.429741,9400.615463
28657.962681,-740.205942,-306.438199,9400.615463
28657.963009,296.082377,3140.991542,9252.574275
28657.963337,2590.720797,4673.182538,8882.471304
28657.963666,3701.029710,3140.991542,8956.491898
28657.963994,1406.391290,2757.943793,8586.388927
28657.964322,-296.082377,2221.676944,6883.915261
28657.964651,-1110.308913,0.000000,6957.935855
28657.964979,-1850.514855,-1685.410096,8882.471304
28657.965307,-2960.823768,-536.266849,9918.759623
28657.965636,-2664.741391,-842.705048,10362.883188
28657.965964,-1036.288319,-2987.772442,9474.636058
28657.966292,222.061783,-1991.848295,9696.697840
28657.966621,1406.391290,2757.943793,11769.274478
28657.966949,3701.029710,5745.716235,10807.006753
28657.967277,3404.947333,4136.915689,8290.306550
28657.967606,1850.514855,-306.438199,8586.388927
28657.967934,74.020594,0.000000,8956.491898
28657.968262,-1554.432478,2757.943793,7698.141797
28657.968591,-1628.453072,229.828649,8512.368333
28657.968919,-1258.350101,-3370.820191,9326.594869
28657.969247,-3849.070898,-2834.553343,10658.965565
28657.969576,-2664.741391,-919.314598,10807.006753
28657.969904,666.185348,-766.095498,10214.842000
28657.970232,1406.391290,0.000000,11251.130318
28657.970561,2220.617826,1991.848295,10807.006753
28657.970889,2590.720797,3983.696590,8808.450710
28657.971217,2294.638420,2604.724693,7846.182985
28657.971546,1184.329507,766.095498,7254.018232
28657.971874,-296.082377,0.000000,7402.059420
28657.972202,-1480.411884,689.485948,7105.977043
28657.972531,-1776.494261,0.000000,8956.491898
28657.972859,-1998.556043,-1608.800546,12361.439231
28657.973187,-1554.432478,-2528.115143,11325.150913
28657.973516,-888.247130,-1225.752797,9844.739029
28657.973844,1406.391290,-612.876398,11029.068536
28657.974172,2220.617826,2451.505594,10732.986159
28657.974501,1702.473667,3600.648841,11103.089130
28657.974829,148.041188,2068.457845,10510.924376
28657.975157,-1110.308913,-536.266849,7476.080014
28657.975486,-2368.659014,-689.485948,7254.018232
28657.975814,-1702.473667,536.266849,7031.956449
28657.976142,-1036.288319,1225.752797,6957.935855
28657.976471,-2146.597232,689.485948,9030.512492
28657.976799,-518.144159,-1608.800546,9178.553681
28657.977128,592.164754,-995.924147,9104.533087
28657.977456,888.247130,1608.800546,11399.171507
28657.977784,2368.659014,2374.896044,11103.089130
28657.978113,1258.350101,689.485948,8586.388927
28657.978441,1184.329507,-1608.800546,9400.615463
28657.978769,444.123565,-306.438199,9326.594869
28657.979098,-814.226536,1225.752797,8438.347739
28657.979426,666.185348,536.266849,7994.224174
28657.979754,1332.370696,-919.314598,8586.388927
28657.980082,-296.082377,612.876398,9104.533087
28657.980411,740.205942,1991.848295,8512.368333
28657.980739,2368.659014,1149.143247,8068.244768
28657.981067,1628.453072,1455.581446,10732.986159
28657.981396,222.061783,2604.724693,10436.903782
28657.981724,-370.102971,2068.457845,9178.553681
28657.982052,-888.247130,-1838.629195,8586.388927
28657.982380,-1702.473667,-4443.353888,8290.306550
28657.982709,-3627.009116,-1838.629195,9178.553681
28657.983037,-2220.617826,-536.266849,9918.759623
28657.983365,-592.164754,995.924147,9474.636058
28657.983694,296.082377,-1762.019645,9548.656652
28657.984022,1036.288319,-1302.362347,8808.450710
28657.984350,2294.638420,3064.381992,8882.471304
28657.984678,4367.215058,5898.935335,10214.842000
28657.985007,5255.462188,4366.744339,10807.006753
28657.985335,1924.535449,842.705048,10881.027347
28657.985663,-370.102971,383.047749,8364.327145
28657.985992,-148.041188,-229.828649,7254.018232
28657.986320,-2146.597232,-536.266849,8512.368333
28657.986648,-3478.967927,-766.095498,9252.574275
28657.986976,-2960.823768,-306.438199,9622.677246
28657.987305,-2442.679609,-1532.190996,9992.780217
28657.987633,-296.082377,-1762.019645,8808.450710
28657.987961,888.247130,0.000000,9474.636058
28657.988289,888.247130,3677.258390,10066.800811
28657.988618,2664.741391,5439.278036,9918.759623
28657.988946,2664.741391,2451.505594,10066.800811
28657.989274,592.164754,-536.266849,8808.450710
28657.989603,-1184.329507,-612.876398,7031.956449
28657.989931,-2368.659014,536.266849,7698.141797
28657.990259,-2146.597232,0.000000,8882.471304
28657.990587,-1332.370696,-153.219100,10658.965565
28657.990916,-1850.514855,-1225.752797,11399.171507
28657.991244,-370.102971,-1149.143247,9622.677246
28657.991572,1776.494261,229.828649,9474.636058
28657.991901,2590.720797,3217.601092,10881.027347
28657.992229,2220.617826,4443.353888,10955.047942
28657.992557,962.267725,2221.676944,9030.512492
28657.992885,1110.308913,-1608.800546,8068.244768
28657.993214,-592.164754,-1762.019645,7550.100608
28657.993542,-3775.050304,689.485948,8216.285956
28657.993870,-2664.741391,153.219100,8364.327145
28657.994199,-2664.741391,-1608.800546,9696.697840
28657.994527,-2886.803174,-3217.601092,10955.047942
28657.994855,-1332.370696,-2604.724693,9918.759623
28657.995183,1036.288319,689.485948,9992.780217
28657.995512,2886.803174,3830.477490,11103.089130
28657.995840,3775.050304,3677.258390,10732.986159
28657.996168,2442.679609,919.314598,9104.533087
28657.996497,888.247130,-459.657299,7476.080014
28657.996825,296.082377,306.438199,8068.244768
28657.997153,-1628.453072,1302.362347,8586.388927
28657.997481,-2294.638420,689.485948,8586.388927
28657.997810,-2146.597232,-1608.800546,8586.388927
28657.998138,-2442.679609,-3140.991542,9030.512492
28657.998466,-962.267725,-2221.676944,8216.285956
28657.998794,-222.061783,766.095498,8956.491898
28657.999123,1776.494261,3524.039291,11177.109724
28657.999451,3330.926739,4519.963438,10288.862594
28657.999779,2812.782580,2145.067394,9696.697840
28658.000108,740.205942,-306.438199,7402.059420
28658.000436,-1332.370696,-766.095498,5625.565159
28658.000764,-888.247130,383.047749,7624.121203
28658.001092,740.205942,1838.629195,9548.656652
28658.001421,0.000000,842.705048,10510.924376
28658.001749,-592.164754,-1455.581446,10066.800811
28658.002077,888.247130,-2298.286494,9178.553681
28658.002406,2072.576638,1149.143247,10436.903782
28658.002734,2886.803174,4749.792088,11917.315666
28658.003062,3256.906145,3907.087040,9622.677246
28658.003390,1998.556043,842.705048,8216.285956
28658.003719,740.205942,-1072.533697,9030.512492
28658.004047,-1998.556043,1532.190996,8586.388927
28658.004375,-3997.112087,1149.143247,7476.080014
28658.004704,-1702.473667,-1532.190996,7328.038826
28658.005032,-1406.391290,-1915.238745,9548.656652
28658.005360,-2590.720797,0.000000,9992.780217
28658.005688,-962.267725,2221.676944,9178.553681
28658.006017,74.020594,0.000000,8734.430116
28658.006345,814.226536,766.095498,9474.636058
28658.006673,2368.659014,3370.820191,10066.800811
28658.007002,2368.659014,3907.087040,10066.800811
28658.007330,1332.370696,1915.238745,9104.533087
28658.007658,888.247130,-995.924147,8512.368333
28658.007986,-888.247130,0.000000,9400.615463
28658.008315,-962.267725,2145.067394,7846.182985
28658.008643,0.000000,1072.533697,8808.450710
28658.008971,518.144159,-1455.581446,10362.883188
28658.009300,0.000000,-995.924147,9696.697840
28658.009628,444.123565,1685.410096,10658.965565
28658.009956,1628.453072,3447.429741,10436.903782
28658.010284,1332.370696,2757.943793,9474.636058
28658.010613,370.102971,0.000000,9696.697840
28658.010941,-1406.391290,0.000000,8586.388927
28658.011269,-2220.617826,-919.314598,6587.832884
28658.011597,-2664.741391,-1838.629195,9326.594869
28658.011926,-1702.473667,-1225.752797,9992.780217
28658.012254,-296.082377,306.438199,9696.697840
28658.012582,-444.123565,-536.266849,10066.800811
28658.012911,2072.576638,-2145.067394,10214.842000
28658.013239,3034.844362,612.876398,11029.068536
28658.013567,3182.885551,3677.258390,12213.398043
28658.013895,2368.659014,2681.334243,11621.233289
28658.014224,888.247130,-459.657299,9326.594869
28658.014552,-592.164754,-2528.115143,9104.533087
28658.014880,-2812.782580,-612.876398,8808.450710
28658.015209,-3849.070898,-536.266849,7031.956449
28658.015537,-3478.967927,-2145.067394,7105.977043
28658.015865,-3330.926739,-2987.772442,8882.471304
28658.016193,-4515.256246,-919.314598,8290.306550
28658.016522,-2220.617826,153.219100,7476.080014
28658.016850,0.000000,689.485948,8882.471304
28658.017178,-518.144159,919.314598,9844.739029
28658.017507,0.000000,1532.190996,9400.615463
28658.017835,1110.308913,76.609550,8734.430116
28658.018163,296.082377,-612.876398,8068.244768
28658.018491,-888.247130,-1072.533697,7772.162391
28658.018820,-666.185348,0.000000,8882.471304
28658.019148,296.082377,2068.457845,9030.512492
28658.019476,1258.350101,1072.533697,9474.636058
28658.019805,2368.659014,-1149.143247,9696.697840
28658.020133,2590.720797,-229.828649,10362.883188
28658.020461,1998.556043,3907.087040,11325.150913
28658.020789,3775.050304,4903.011187,10807.006753
28658.021118,3478.967927,2145.067394,10658.965565
28658.021446,0.000000,-689.485948,8882.471304
28658.021774,-962.267725,-995.924147,6735.874072
28658.022102,-1036.288319,-153.219100,7846.182985
28658.022431,-1480.411884,383.047749,9474.636058
28658.022759,-1480.411884,689.485948,10066.800811
28658.023087,-1702.473667,689.485948,8734.430116
28658.023416,444.123565,689.485948,8290.306550
28658.023744,2294.638420,1072.533697,9030.512492
28658.024072,1776.494261,4290.134789,10066.800811
28658.024400,1480.411884,5745.716235,10510.924376
28658.024729,2220.617826,2757.943793,9696.697840
28658.025057,444.123565,-995.924147,9178.553681
28658.025385,-2294.638420,-1991.848295,8142.265362
28658.025714,-3997.112087,-306.438199,8142.265362
28658.026042,-2812.782580,1378.971896,9474.636058
28658.026370,-1110.308913,0.000000,9844.739029
28658.026698,-1036.288319,-2221.676944,9770.718434
28658.027027,-888.247130,-536.266849,9474.636058
28658.027355,1184.329507,2451.505594,8882.471304
28658.027683,3182.885551,4213.525239,10436.903782
28658.028012,2738.761985,4213.525239,11029.068536
28658.028340,1998.556043,2757.943793,9992.780217
28658.028668,1850.514855,306.438199,9030.512492
28658.028996,888.247130,-919.314598,8364.327145
28658.029325,-2368.659014,-612.876398,8882.471304
28658.029653,-2590.720797,-842.705048,8956.491898
28658.029981,-814.226536,-1225.752797,9104.533087
28658.030310,-962.267725,-919.314598,10288.862594
28658.030638,-518.144159,-1149.143247,10066.800811
28658.030966,296.082377,229.828649,9844.739029
28658.031294,1998.556043,1762.019645,9844.739029
28658.031623,3923.091493,2221.676944,10436.903782
28658.031951,2960.823768,1685.410096,10510.924376
28658.032279,-370.102971,919.314598,10214.842000
28658.032608,-1184.329507,-459.657299,7550.100608
28658.032936,-888.247130,-2528.115143,7550.100608
28658.033264,-2072.576638,-1991.848295,9770.718434
28658.033592,-2368.659014,0.000000,8882.471304
28658.033921,-740.205942,0.000000,8586.388927
28658.034249,0.000000,-2681.334243,9326.594869
28658.034577,0.000000,-919.314598,9918.759623
28658.034905,1036.288319,3064.381992,11177.109724
28658.035234,3404.947333,3677.258390,8882.471304
28658.035562,2664.741391,842.705048,9104.533087
28658.035890,1184.329507,-306.438199,10140.821405
28658.036219,0.000000,689.485948,8882.471304
28658.036547,-1036.288319,153.219100,7105.977043
28658.036875,-1332.370696,-2068.457845,7846.182985
28658.037203,-1036.288319,-842.705048,9178.553681
28658.037532,-1998.556043,1838.629195,9844.739029
28658.037860,-444.123565,1149.143247,9622.677246
28658.038188,518.144159,-1455.581446,9474.636058
28658.038517,148.041188,459.657299,10807.006753
28658.038845,1036.288319,3753.867940,10066.800811
28658.039173,740.205942,4213.525239,9622.677246
28658.039501,-296.082377,-536.266849,8734.430116
28658.039830,-1776.494261,-1455.581446,7624.121203
28658.040158,-3330.926739,-459.657299,7846.182985
28658.040486,-2664.741391,1225.752797,8364.327145
28658.040815,-2220.617826,1072.533697,8512.368333
28658.041143,-1924.535449,-1072.533697,8734.430116
28658.041471,-1258.350101,-1225.752797,7994.224174
28658.041799,370.102971,536.266849,7698.141797
28658.042128,888.247130,3677.258390,10436.903782
28658.042456,2368.659014,3294.210641,10658.965565
28658.042784,1554.432478,2451.505594,10288.862594
28658.043113,740.205942,76.609550,8586.388927
28658.043441,0.000000,0.000000,7031.956449
28658.043769,296.082377,153.219100,7254.018232
28658.044097,518.144159,612.876398,9474.636058
28658.044426,-296.082377,1915.238745,9844.739029
28658.044754,0.000000,612.876398,11695.253884
28658.045082,1998.556043,-1225.752797,11029.068536
28658.045410,2886.803174,-459.657299,10214.842000
28658.045739,1480.411884,2451.505594,11473.192101
28658.046067,2886.803174,3064.381992,11473.192101
28658.046395,2368.659014,1608.800546,10732.986159
28658.046724,740.205942,-1302.362347,9400.615463
28658.047052,-1258.350101,-2604.724693,7920.203579
28658.047380,-2146.597232,0.000000,7105.977043
28658.047708,-1184.329507,1532.190996,9474.636058
28658.048037,-1110.308913,459.657299,10362.883188
28658.048365,-3034.844362,-2145.067394,9474.636058
28658.048693,-592.164754,-3447.429741,8512.368333
28658.049022,1776.494261,76.609550,9326.594869
28658.049350,1036.288319,2987.772442,11325.150913
28658.049678,1406.391290,3294.210641,10362.883188
28658.050006,2072.576638,383.047749,9030.512492
28658.050335,1036.288319,-1072.533697,8364.327145
28658.050663,0.000000,-766.095498,7179.997637
28658.050991,-1332.370696,919.314598,7846.182985
28658.051320,-1332.370696,1532.190996,8142.265362
28658.051648,0.000000,-306.438199,9252.574275
28658.051976,-296.082377,-2145.067394,10584.944971
28658.052304,-666.185348,-766.095498,10362.883188
28658.052633,148.041188,1455.581446,9844.739029
28658.052961,1924.535449,1225.752797,10510.924376
28658.053289,2072.576638,1455.581446,11177.109724
28658.053618,-592.164754,1532.190996,10288.862594
28658.053946,-1332.370696,995.924147,8068.244768
28658.054274,-3256.906145,-2374.896044,6883.915261
28658.054602,-3923.091493,-3217.601092,7254.018232
28658.054931,-2368.659014,153.219100,8660.409521
28658.055259,-1554.432478,3064.381992,9622.677246
28658.055587,518.144159,306.438199,9992.780217
28658.055916,1702.473667,-1915.238745,7994.224174
28658.056244,666.185348,766.095498,10807.006753
28658.056572,1998.556043,5439.278036,10584.944971
28658.056900,4663.297435,4749.792088,9474.636058
28658.057229,2590.720797,919.314598,10288.862594
28658.057557,-592.164754,-689.485948,7846.182985
28658.057885,-1850.514855,-76.609550,5921.647536
28658.058213,-1480.411884,-383.047749,7179.997637
28658.058542,-1850.514855,-612.876398,8142.265362
28658.058870,-3701.029710,76.609550,9548.656652
28658.059198,-2516.700203,-459.657299,9474.636058
28658.059527,592.164754,-383.047749,7920.203579
28658.059855,1110.308913,459.657299,10732.986159
28658.060183,666.185348,2834.553343,10510.924376
28658.060511,2220.617826,4673.182538,8882.471304
28658.060840,2738.761985,2145.067394,9252.574275
28658.061168,1332.370696,-383.047749,9992.780217
28658.061496,-1332.370696,-766.095498,8068.244768
28658.061825,-2072.576638,0.000000,7846.182985
28658.062153,-370.102971,919.314598,8882.471304
28658.062481,-814.226536,-842.705048,10066.800811
28658.062809,-740.205942,-1991.848295,10732.986159
28658.063138,962.267725,-1378.971896,10066.800811
28658.063466,2442.679609,1838.629195,11029.068536
28658.063794,3478.967927,2374.896044,10955.047942
28658.064123,3552.988522,2987.772442,11251.130318
28658.064451,1850.514855,2528.115143,10214.842000
28658.064779,740.205942,-306.438199,7994.224174
28658.065107,-888.247130,-2451.505594,7402.059420
28658.065436,-3034.844362,-1149.143247,8882.471304
28658.065764,-3478.967927,919.314598,8068.244768
28658.066092,-2146.597232,-459.657299,8882.471304
28658.066421,-1702.473667,-3370.820191,9474.636058
28658.066749,-888.247130,-1915.238745,10140.821405
28658.067077,518.144159,2145.067394,10955.047942
28658.067405,2368.659014,3830.477490,9918.759623
28658.067734,3404.947333,1762.019645,10066.800811
28658.068062,1036.288319,1378.971896,11029.068536
28658.068390,0.000000,1149.143247,8438.347739
28658.068718,74.020594,-306.438199,6513.812290
28658.069047,-1258.350101,-1685.410096,8882.471304
28658.069375,-2442.679609,0.000000,9178.553681
28658.069703,-2220.617826,1149.143247,8364.327145
28658.070032,-814.226536,-1225.752797,9400.615463
28658.070360,0.000000,-2374.896044,9696.697840
28658.070688,222.061783,536.266849,9918.759623
28658.071016,1110.308913,3753.867940,10955.047942
28658.071345,1776.494261,3753.867940,10288.862594
28658.071673,1406.391290,306.438199,9844.739029
28658.072001,296.082377,-2221.676944,7846.182985
28658.072330,-2146.597232,-1072.533697,7105.977043
28658.072658,-3404.947333,1378.971896,7624.121203
28658.072986,-1258.350101,689.485948,8586.388927
28658.073314,-1036.288319,-1608.800546,9030.512492
28658.073643,-1184.329507,-2451.505594,9474.636058
28658.073971,518.144159,-306.438199,8882.471304
28658.074299,3256.906145,2987.772442,10955.047942
28658.074628,3997.112087,3830.477490,10658.965565
28658.074956,3034.844362,2528.115143,10732.986159
28658.075284,1480.411884,1532.190996,10140.821405
28658.075612,1554.432478,919.314598,8142.265362
28658.075941,1480.411884,-536.266849,7105.977043
28658.076269,-962.267725,-919.314598,8660.409521
28658.076597,-2146.597232,-536.266849,8068.244768
28658.076926,-1850.514855,1149.143247,9326.594869
28658.077254,-518.144159,-1072.533697,10658.965565
28658.077582,-814.226536,-2068.457845,9104.533087
28658.077910,0.000000,459.657299,9252.574275
28658.078239,1924.535449,4213.525239,10955.047942
28658.078567,3478.967927,4136.915689,11177.109724
28658.078895,1776.494261,536.266849,9918.759623
28658.079224,-370.102971,-2145.067394,7624.121203
28658.079552,-370.102971,-383.047749,6587.832884
28658.079880,888.247130,2604.724693,8808.450710
28658.080208,296.082377,1915.238745,9326.594869
28658.080537,-740.205942,-153.219100,8142.265362
28658.080865,1702.473667,-689.485948,9178.553681
28658.081193,3478.967927,1302.362347,10584.944971
28658.081521,2220.617826,4596.572988,11399.171507
28658.081849,2368.659014,3907.087040,10066.800811
28658.082178,2072.576638,1991.848295,9400.615463
28658.082506,0.000000,76.609550,9030.512492
28658.082834,-2294.638420,-229.828649,8586.388927
28658.083163,-3552.988522,-689.485948,7772.162391
28658.083491,-4515.256246,-842.705048,7698.141797
28658.083819,-4515.256246,-2145.067394,9474.636058
28658.084147,-5181.441594,-2451.505594,9844.739029
28658.084476,-4145.153275,-2221.676944,9326.594869
28658.084804,-2220.617826,-2374.896044,9030.512492
28658.085132,-592.164754,-229.828649,11769.274478
28658.085461,666.185348,2757.943793,11399.171507
28658.085789,666.185348,3370.820191,10436.903782
28658.086117,0.000000,-383.047749,8512.368333
28658.086446,296.082377,-3447.429741,6809.894666
28658.086774,-518.144159,-383.047749,9622.677246
28658.087102,-962.267725,3907.087040,11325.150913
28658.087431,296.082377,1532.190996,8808.450710
28658.087759,444.123565,-3217.601092,8290.306550
28658.088087,1036.288319,-2221.676944,9770.718434
28658.088416,1258.350101,2451.505594,9474.636058
28658.088744,1998.556043,3907.087040,10955.047942
28658.089072,3256.906145,1685.410096,12805.562797
28658.089401,1998.556043,-306.438199,11325.150913
28658.089729,0.000000,-689.485948,8512.368333
28658.090057,222.061783,-1302.362347,6661.853478
28658.090386,-1554.432478,-459.657299,6957.935855
28658.090714,-1776.494261,383.047749,7772.162391
28658.091042,148.041188,306.438199,7994.224174
28658.091371,814.226536,-306.438199,8068.244768
28658.091699,2368.659014,536.266849,8586.388927
28658.092027,4219.173869,2681.334243,9474.636058
28658.092356,3923.091493,5975.544884,11325.150913
28658.092684,3849.070898,4443.353888,10510.924376
28658.093012,3701.029710,919.314598,9844.739029
28658.093341,1110.308913,-1072.533697,9326.594869
28658.093669,-2146.597232,-689.485948,7254.018232
28658.093997,-4145.153275,-383.047749,7994.224174
28658.094326,-3404.947333,-1072.533697,8808.450710
28658.094654,-2368.659014,-1072.533697,9992.780217
28658.094982,-2664.741391,-306.438199,10066.800811
28658.095311,-1776.494261,459.657299,9400.615463
28658.095639,888.247130,2374.896044,8216.285956
28658.095967,3108.864956,4136.915689,10066.800811
28658.096295,3256.906145,5132.839837,10732.986159
28658.096624,1776.494261,5132.839837,9622.677246
28658.096952,592.164754,1455.581446,7920.203579
28658.097280,0.000000,0.000000,7328.038826
28658.097609,-2442.679609,76.609550,7994.224174
28658.097937,-3182.885551,1532.190996,8438.347739
28658.098265,-2294.638420,459.657299,8586.388927
28658.098594,-2146.597232,-1685.410096,9326.594869
28658.098922,-1184.329507,-2068.457845,9622.677246
28658.099250,-148.041188,1532.190996,8956.491898
28658.099579,1776.494261,4519.963438,9696.697840
28658.099907,4737.318029,3983.696590,11695.253884
28658.100235,1998.556043,2604.724693,11325.150913
28658.100564,1036.288319,536.266849,7402.059420
28658.100892,2220.617826,-1225.752797,5403.503377
28658.101220,-148.041188,0.000000,7550.100608
28658.101549,-2590.720797,1532.190996,9178.553681
28658.101877,-3404.947333,-536.266849,7846.182985
28658.102205,-2368.659014,-4826.401637,9992.780217
28658.102534,-1776.494261,-5592.497135,10807.006753
28658.102862,-1702.473667,-2298.286494,11103.089130
28658.103190,-888.247130,919.314598,13175.665768
28658.103519,1480.411884,229.828649,11991.336260
28658.103847,1702.473667,-2757.943793,12509.480420
28658.104175,0.000000,-5209.449386,10732.986159
28658.104504,-1258.350101,-2528.115143,7994.224174
28658.104832,-2146.597232,229.828649,9252.574275
28658.105160,-370.102971,-842.705048,10732.986159
28658.105489,-666.185348,-2987.772442,8734.430116
28658.105817,-1924.535449,-2757.943793,9326.594869
28658.106145,0.000000,-2221.676944,9252.574275
28658.106474,740.205942,1455.581446,9770.718434
28658.106802,2368.659014,2911.162892,11399.171507
28658.107130,4367.215058,2451.505594,10510.924376
28658.107459,2886.803174,2068.457845,8068.244768
28658.107787,1480.411884,1149.143247,7105.977043
28658.108115,1332.370696,2451.505594,6809.894666
28658.108444,-1258.350101,2298.286494,7698.141797
28658.108772,-2294.638420,2528.115143,7698.141797
28658.109100,-666.185348,-919.314598,7254.018232
28658.109428,-2294.638420,-766.095498,9770.718434
28658.109757,-3034.844362,1455.581446,9474.636058
28658.110085,-1480.411884,2604.724693,9178.553681
28658.110413,666.185348,3064.381992,9696.697840
28658.110742,962.267725,3294.210641,9474.636058
28658.111070,-222.061783,4826.401637,9844.739029
28658.111398,-2220.617826,3140.991542,8068.244768
28658.111727,-1850.514855,1378.971896,6661.853478
28658.112055,-1924.535449,306.438199,7772.162391
28658.112383,-2738.761985,1302.362347,8364.327145
28658.112712,-962.267725,2068.457845,7179.997637
28658.113040,592.164754,919.314598,9696.697840
28658.113368,1480.411884,1302.362347,9696.697840
28658.113697,2886.803174,2374.896044,9992.780217
28658.114025,5033.400406,4290.134789,9770.718434
28658.114353,6883.915261,5209.449386,10066.800811
28658.114682,5625.565159,4136.915689,10140.821405
28658.115010,3404.947333,1915.238745,8660.409521
28658.115338,1924.535449,995.924147,7772.162391
28658.115667,592.164754,-76.609550,7846.182985
28658.115995,-740.205942,0.000000,9474.636058
28658.116323,-2368.659014,-1149.143247,9696.697840
28658.116652,-2368.659014,-2528.115143,9252.574275
28658.116980,-1406.391290,-3447.429741,9474.636058
28658.117308,-2220.617826,-1455.581446,10807.006753
28658.117637,-2294.638420,1455.581446,11695.253884
28658.117965,-1110.308913,612.876398,9770.718434
28658.118293,-2146.597232,-3600.648841,9030.512492
