#time,accel_x,accel_y,accel_z
16248.095658,-296.082377,3064.381992,8068.244768
16248.095982,148.041188,3447.429741,6365.771101
16248.096307,1110.308913,3677.258390,5847.626942
16248.096631,814.226536,3524.039291,5921.647536
16248.096955,-296.082377,3140.991542,5551.544565
16248.097279,148.041188,2221.676944,6291.750507
16248.097603,148.041188,766.095498,7772.162391
16248.097927,-814.226536,689.485948,9104.533087
16248.098251,0.000000,689.485948,10214.842000
16248.098575,-148.041188,76.609550,11399.171507
16248.098899,370.102971,0.000000,11399.171507
16248.099224,1036.288319,0.000000,11695.253884
16248.099548,1184.329507,-459.657299,11621.233289
16248.099872,1110.308913,-1072.533697,11473.192101
16248.100196,962.267725,-842.705048,11473.192101
16248.100520,1406.391290,-1149.143247,11103.089130
16248.100844,296.082377,-995.924147,11399.171507
16248.101168,370.102971,-153.219100,11251.130318
16248.101492,666.185348,-536.266849,10214.842000
16248.101816,370.102971,-842.705048,10362.883188
16248.102140,518.144159,0.000000,9326.594869
16248.102465,1850.514855,383.047749,9326.594869
16248.102789,1850.514855,612.876398,8512.368333
16248.103113,2368.659014,919.314598,8438.347739
16248.103437,3775.050304,1455.581446,8808.450710
16248.103761,2960.823768,1762.019645,8142.265362
16248.104085,3552.988522,1608.800546,8586.388927
16248.104409,4515.256246,3140.991542,8882.471304
16248.104733,5477.523971,3907.087040,8364.327145
16248.105057,4811.338623,3907.087040,9030.512492
16248.105382,5551.544565,4826.401637,9030.512492
16248.105706,6513.812290,5669.106685,8956.491898
16248.106030,6513.812290,6052.154434,8956.491898
16248.106354,6661.853478,6511.811733,9030.512492
16248.106678,6661.853478,6665.030833,9400.615463
16248.107002,6291.750507,6818.249932,8734.430116
16248.107326,6439.791695,7124.688131,9178.553681
16248.107650,5033.400406,6818.249932,9252.574275
16248.107974,3923.091493,6665.030833,9178.553681
16248.108298,4071.132681,6971.469032,9474.636058
16248.108623,4145.153275,7048.078582,9770.718434
16248.108947,2442.679609,6511.811733,9918.759623
16248.109271,1554.432478,6588.421283,9178.553681
16248.109595,2146.597232,7048.078582,9474.636058
16248.109919,1110.308913,6128.763984,8882.471304
16248.110243,444.123565,6128.763984,8660.409521
16248.110567,0.000000,6205.373534,7994.224174
16248.110891,148.041188,6511.811733,7698.141797
16248.111215,518.144159,5975.544884,8216.285956
16248.111540,962.267725,5822.325785,7402.059420
16248.111864,370.102971,5515.887586,7254.018232
16248.112188,1110.308913,5592.497135,7328.038826
16248.112512,1998.556043,5822.325785,8068.244768
16248.112836,2220.617826,4979.620737,8660.409521
16248.113160,1628.453072,3447.429741,9104.533087
16248.113484,1702.473667,3753.867940,9622.677246
16248.113808,1850.514855,2834.553343,10658.965565
16248.114132,1406.391290,1532.190996,11473.192101
16248.114456,444.123565,842.705048,12287.418637
16248.114781,0.000000,0.000000,12065.356855
16248.115105,74.020594,-612.876398,11399.171507
16248.115429,1332.370696,-842.705048,10732.986159
16248.115753,1184.329507,-689.485948,10362.883188
16248.116077,888.247130,-306.438199,7920.203579
16248.116401,2516.700203,536.266849,7105.977043
16248.116725,2886.803174,383.047749,7105.977043
16248.117049,1850.514855,383.047749,6661.853478
16248.117373,444.123565,-536.266849,7105.977043
16248.117698,0.000000,-1225.752797,7994.224174
16248.118022,-370.102971,-3447.429741,10288.862594
16248.118346,-1480.411884,-4519.963438,12065.356855
16248.118670,-2886.803174,-5439.278036,13767.830521
16248.118994,-3478.967927,-5975.544884,14211.954086
16248.119318,-1110.308913,-5669.106685,14211.954086
16248.119642,1406.391290,-4443.353888,13693.809927
16248.119966,3256.906145,-1685.410096,12213.398043
16248.120291,6143.709319,1072.533697,10436.903782
16248.120615,10584.944971,3830.477490,7994.224174
16248.120939,11843.295072,5822.325785,6587.832884
16248.121263,11621.233289,6358.592633,5255.462188
16248.121587,10881.027347,7584.345430,4737.318029
16248.121911,9030.512492,6894.859482,6439.791695
16248.122235,5847.626942,5362.668486,8216.285956
16248.122560,2812.782580,2604.724693,9252.574275
16248.122884,-1110.308913,1991.848295,9622.677246
16248.123208,-1110.308913,2068.457845,10140.821405
16248.123532,-1110.308913,2451.505594,11177.109724
16248.123856,-1628.453072,3140.991542,10658.965565
16248.124180,-148.041188,3983.696590,8660.409521
16248.124504,1702.473667,5822.325785,7550.100608
16248.124829,2442.679609,7814.174080,7328.038826
16248.125153,2294.638420,8427.050478,7105.977043
16248.125477,1776.494261,6971.469032,6883.915261
16248.125801,1628.453072,6971.469032,7254.018232
16248.126125,444.123565,7048.078582,8808.450710
16248.126449,-370.102971,5898.935335,9844.739029
16248.126773,-1110.308913,4366.744339,10510.924376
16248.127097,-2146.597232,3753.867940,9548.656652
16248.127422,-2368.659014,4136.915689,11473.192101
16248.127746,-2960.823768,2681.334243,11325.150913
16248.128070,-3478.967927,2298.286494,10658.965565
16248.128394,-2368.659014,2681.334243,9400.615463
16248.128718,-444.123565,3907.087040,8808.450710
16248.129042,1110.308913,4903.011187,8364.327145
16248.129366,2368.659014,6128.763984,6883.915261
16248.129691,3478.967927,7277.907231,5403.503377
16248.130015,3701.029710,6741.640382,4589.276840
16248.130339,2442.679609,5669.106685,5033.400406
16248.130663,1924.535449,4213.525239,5699.585753
16248.130987,592.164754,2068.457845,7179.997637
16248.131311,-1332.370696,0.000000,9548.656652
16248.131635,-2294.638420,-1991.848295,11769.274478
16248.131959,-2960.823768,-4596.572988,12583.501014
16248.132284,-2960.823768,-4749.792088,13619.789333
16248.132608,-3552.988522,-5132.839837,14730.098246
16248.132932,-3108.864956,-6665.030833,14508.036463
16248.133256,-2516.700203,-7048.078582,12879.583391
16248.133580,148.041188,-4979.620737,11991.336260
16248.133904,1702.473667,-2911.162892,10436.903782
16248.134228,3034.844362,-2528.115143,8364.327145
16248.134553,4145.153275,-1149.143247,7254.018232
16248.134877,5329.482782,995.924147,6661.853478
16248.135201,4515.256246,0.000000,5847.626942
16248.135525,3256.906145,-1608.800546,5847.626942
16248.135849,2294.638420,-1762.019645,6735.874072
16248.136173,0.000000,-1991.848295,9030.512492
16248.136497,-2146.597232,-3983.696590,11695.253884
16248.136821,-1924.535449,-5132.839837,12953.603985
16248.137146,-1110.308913,-4903.011187,13767.830521
16248.137470,-2368.659014,-4213.525239,13619.789333
16248.137794,-2442.679609,-3600.648841,13471.748144
16248.138118,-222.061783,-2451.505594,11843.295072
16248.138442,1184.329507,-1532.190996,9844.739029
16248.138766,888.247130,1225.752797,7994.224174
16248.139090,2072.576638,3830.477490,6291.750507
16248.139415,4737.318029,4749.792088,4885.359217
16248.139739,5329.482782,5669.106685,4219.173869
16248.140063,2886.803174,5515.887586,4441.235652
16248.140387,296.082377,4826.401637,4441.235652
16248.140711,-666.185348,3753.867940,5255.462188
16248.141035,-2146.597232,2528.115143,7550.100608
16248.141359,-6217.729913,459.657299,9622.677246
16248.141683,-8660.409521,-842.705048,11177.109724
16248.142008,-7254.018232,-1225.752797,13101.645173
16248.142332,-6735.874072,-1762.019645,14656.077652
16248.142656,-7772.162391,-2221.676944,15470.304188
16248.142980,-6661.853478,-1608.800546,14137.933492
16248.143304,-2960.823768,-995.924147,12583.501014
16248.143628,444.123565,1762.019645,10881.027347
16248.143952,3034.844362,4290.134789,9770.718434
16248.144277,4737.318029,6435.202183,6883.915261
16248.144601,7254.018232,7890.783629,4293.194464
16248.144925,9400.615463,8886.707777,2886.803174
16248.145249,7698.141797,8503.660028,2738.761985
16248.145573,5033.400406,7354.516781,2294.638420
16248.145897,3923.091493,6435.202183,4145.153275
16248.146221,1554.432478,3447.429741,6587.832884
16248.146545,-1702.473667,1149.143247,9252.574275
16248.146870,-3701.029710,-1072.533697,11843.295072
16248.147194,-5033.400406,-2298.286494,13323.706956
16248.147518,-5847.626942,-4366.744339,15470.304188
16248.147842,-6513.812290,-5515.887586,15618.345376
16248.148166,-4441.235652,-4519.963438,14285.974681
16248.148490,-962.267725,-3753.867940,13175.665768
16248.148814,1184.329507,-1608.800546,11251.130318
16248.149139,4071.132681,842.705048,9104.533087
16248.149463,7328.038826,3370.820191,6809.894666
16248.149787,9474.636058,4366.744339,4367.215058
16248.150111,8734.430116,4366.744339,2664.741391
16248.150435,7179.997637,4366.744339,2960.823768
16248.150759,6143.709319,3064.381992,4811.338623
16248.151083,3701.029710,995.924147,7328.038826
16248.151407,-1554.432478,-2374.896044,9474.636058
16248.151732,-3775.050304,-3447.429741,11843.295072
16248.152056,-3997.112087,-4673.182538,14804.118840
16248.152380,-7476.080014,-6818.249932,16950.716072
16248.152704,-9474.636058,-8656.879127,16580.613101
16248.153028,-7624.121203,-7507.735880,14285.974681
16248.153352,-3997.112087,-5822.325785,14434.015869
16248.153676,-2368.659014,-2834.553343,12509.480420
16248.154001,888.247130,-306.438199,9326.594869
16248.154325,3775.050304,2528.115143,5477.523971
16248.154649,6069.688724,4903.011187,3182.885551
16248.154973,8364.327145,6281.983084,814.226536
16248.155297,7772.162391,7048.078582,-0.000000
16248.155621,4589.276840,5132.839837,2146.597232
16248.155945,1776.494261,3370.820191,5033.400406
16248.156270,-2664.741391,-306.438199,7328.038826
16248.156594,-6291.750507,-3447.429741,10066.800811
16248.156918,-8290.306550,-4673.182538,13841.851115
16248.157242,-10807.006753,-4903.011187,15914.427753
16248.157566,-13915.871710,-8044.002729,16876.695478
16248.157890,-12139.377449,-9652.803275,15470.304188
16248.158214,-7179.997637,-5592.497135,14804.118840
16248.158538,-4589.276840,-2374.896044,13619.789333
16248.158863,-1998.556043,76.609550,10362.883188
16248.159187,4145.153275,3294.210641,6883.915261
16248.159511,9992.780217,7201.297681,4219.173869
16248.159835,11695.253884,8810.098227,2516.700203
16248.160159,9992.780217,7814.174080,1332.370696
16248.160483,8808.450710,7660.954980,2072.576638
16248.160807,7328.038826,6435.202183,4737.318029
16248.161132,2886.803174,3140.991542,7846.182985
16248.161456,-2368.659014,-612.876398,10732.986159
16248.161780,-4737.318029,-2068.457845,11843.295072
16248.162104,-5403.503377,-2604.724693,13915.871710
16248.162428,-8290.306550,-5209.449386,16580.613101
16248.162752,-9252.574275,-6511.811733,16358.551318
16248.163076,-6661.853478,-4826.401637,14211.954086
16248.163400,-2664.741391,-1762.019645,13767.830521
16248.163725,592.164754,919.314598,11621.233289
16248.164049,4959.379811,3677.258390,8364.327145
16248.164373,8512.368333,6894.859482,4663.297435
16248.164697,10881.027347,8503.660028,1924.535449
16248.165021,12139.377449,9346.365076,1110.308913
16248.165345,10066.800811,8044.002729,1258.350101
16248.165669,7254.018232,6971.469032,3182.885551
16248.165994,3775.050304,4366.744339,6809.894666
16248.166318,-370.102971,689.485948,9696.697840
16248.166642,-3256.906145,-2298.286494,12139.377449
16248.166966,-5625.565159,-4366.744339,13619.789333
16248.167290,-9992.780217,-4749.792088,15544.324782
16248.167614,-11029.068536,-6281.983084,16432.571912
16248.167938,-6883.915261,-6281.983084,15470.304188
16248.168262,-4367.215058,-4826.401637,14878.139434
16248.168587,-3701.029710,-1915.238745,12361.439231
16248.168911,370.102971,1991.848295,9474.636058
16248.169235,5403.503377,4290.134789,6883.915261
16248.169559,7920.203579,5592.497135,4071.132681
16248.169883,7994.224174,6971.469032,1480.411884
16248.170207,7550.100608,7814.174080,518.144159
16248.170531,6513.812290,6818.249932,2738.761985
16248.170856,4515.256246,4903.011187,5329.482782
16248.171180,0.000000,1532.190996,8660.409521
16248.171504,-5329.482782,-2374.896044,10732.986159
16248.171828,-6513.812290,-3217.601092,12509.480420
16248.172152,-8438.347739,-4903.011187,15026.180623
16248.172476,-11917.315666,-7354.516781,16210.510130
16248.172800,-11325.150913,-7660.954980,15692.365970
16248.173124,-8290.306550,-5669.106685,14211.954086
16248.173449,-5477.523971,-3677.258390,12509.480420
16248.173773,-1628.453072,-1302.362347,9622.677246
16248.174097,3404.947333,2987.772442,7179.997637
16248.174421,5921.647536,4826.401637,4219.173869
16248.174745,7179.997637,5056.230287,2368.659014
16248.175069,9474.636058,5898.935335,1554.432478
16248.175393,9622.677246,7124.688131,2960.823768
16248.175718,6809.894666,5056.230287,4737.318029
16248.176042,3034.844362,1915.238745,8438.347739
16248.176366,0.000000,-766.095498,11103.089130
16248.176690,-1776.494261,-2911.162892,13249.686362
16248.177014,-4663.297435,-4366.744339,15840.407159
16248.177338,-7402.059420,-6052.154434,16876.695478
16248.177662,-8364.327145,-7048.078582,15840.407159
16248.177986,-6143.709319,-5592.497135,15322.262999
16248.178311,-3182.885551,-4136.915689,14285.974681
16248.178635,-222.061783,-919.314598,10881.027347
16248.178959,1776.494261,3294.210641,7846.182985
16248.179283,5773.606348,5822.325785,5329.482782
16248.179607,10066.800811,7354.516781,3330.926739
16248.179931,11251.130318,8503.660028,1776.494261
16248.180255,8364.327145,7967.393179,1924.535449
16248.180580,6217.729913,6511.811733,3256.906145
16248.180904,4515.256246,4443.353888,6365.771101
16248.181228,148.041188,1915.238745,9400.615463
16248.181552,-4367.215058,-1149.143247,12583.501014
16248.181876,-7846.182985,-2604.724693,14211.954086
16248.182200,-8882.471304,-4213.525239,14063.912898
16248.182524,-7698.141797,-4903.011187,14211.954086
16248.182849,-6957.935855,-3830.477490,14656.077652
16248.183173,-6661.853478,-1991.848295,13693.809927
16248.183497,-3182.885551,76.609550,11325.150913
16248.183821,2664.741391,4443.353888,8956.491898
16248.184145,6365.771101,6052.154434,7254.018232
16248.184469,6439.791695,8044.002729,3552.988522
16248.184793,9178.553681,8810.098227,1332.370696
16248.185117,9252.574275,8273.831378,2368.659014
16248.185442,6513.812290,7201.297681,4367.215058
16248.185766,3108.864956,5362.668486,6661.853478
16248.186090,-592.164754,1532.190996,8734.430116
16248.186414,-3923.091493,-1302.362347,10881.027347
16248.186738,-5625.565159,-2528.115143,14285.974681
16248.187062,-8660.409521,-4290.134789,15914.427753
16248.187386,-11917.315666,-5898.935335,15396.283594
16248.187711,-9844.739029,-5592.497135,13249.686362
16248.188035,-6069.688724,-3140.991542,13545.768739
16248.188359,-2812.782580,-2221.676944,13101.645173
16248.188683,0.000000,383.047749,10066.800811
16248.189007,3775.050304,4060.306139,6291.750507
16248.189331,6809.894666,5898.935335,4145.153275
16248.189655,8364.327145,5822.325785,2442.679609
16248.189979,8364.327145,6665.030833,962.267725
16248.190304,6661.853478,4903.011187,2368.659014
16248.190628,3997.112087,2987.772442,5403.503377
16248.190952,1036.288319,383.047749,9474.636058
16248.191276,-1258.350101,-2757.943793,11473.192101
16248.191600,-4367.215058,-4673.182538,13841.851115
16248.191924,-7254.018232,-6128.763984,15618.345376
16248.192248,-7550.100608,-7124.688131,15692.365970
16248.192573,-5995.668130,-6511.811733,14656.077652
16248.192897,-3849.070898,-4519.963438,14508.036463
16248.193221,-2590.720797,-2834.553343,12805.562797
16248.193545,1554.432478,-306.438199,10214.842000
16248.193869,5107.421000,1915.238745,7698.141797
16248.194193,6661.853478,4136.915689,4811.338623
16248.194517,7254.018232,5745.716235,2960.823768
16248.194841,7105.977043,6052.154434,2220.617826
16248.195166,6217.729913,5209.449386,4071.132681
16248.195490,4367.215058,3753.867940,6513.812290
16248.195814,444.123565,1532.190996,7624.121203
16248.196138,-3182.885551,-1378.971896,10436.903782
16248.196462,-4737.318029,-3140.991542,12879.583391
16248.196786,-6735.874072,-4903.011187,14878.139434
16248.197110,-8512.368333,-5822.325785,15766.386565
16248.197435,-7698.141797,-5669.106685,14508.036463
16248.197759,-5699.585753,-2987.772442,12805.562797
16248.198083,-3404.947333,-1455.581446,12435.459826
16248.198407,592.164754,1608.800546,10436.903782
16248.198731,4959.379811,4519.963438,8290.306550
16248.199055,4737.318029,6358.592633,4515.256246
16248.199379,6661.853478,6205.373534,1776.494261
16248.199703,9548.656652,8580.269578,1850.514855
16248.200028,8142.265362,7967.393179,3923.091493
16248.200352,2812.782580,4903.011187,5551.544565
16248.200676,666.185348,2451.505594,7698.141797
16248.201000,-1184.329507,306.438199,9992.780217
16248.201324,-4885.359217,-1685.410096,12065.356855
16248.201648,-6883.915261,-3370.820191,14656.077652
16248.201972,-9252.574275,-4979.620737,15396.283594
16248.202297,-9400.615463,-5132.839837,13471.748144
16248.202621,-5847.626942,-3907.087040,13471.748144
16248.202945,-3404.947333,-1762.019645,12361.439231
16248.203269,-1406.391290,1225.752797,9696.697840
16248.203593,2442.679609,3217.601092,7994.224174
16248.203917,6217.729913,6128.763984,5699.585753
16248.204241,8808.450710,6741.640382,2886.803174
16248.204565,9030.512492,7584.345430,2368.659014
16248.204890,6587.832884,6511.811733,3108.864956
16248.205214,5107.421000,4060.306139,5477.523971
16248.205538,2886.803174,1838.629195,8586.388927
16248.205862,-1332.370696,-995.924147,10732.986159
16248.206186,-3330.926739,-2451.505594,12583.501014
16248.206510,-5255.462188,-3447.429741,14211.954086
16248.206834,-7550.100608,-5592.497135,15026.180623
16248.207159,-6661.853478,-6665.030833,13989.892304
16248.207483,-4885.359217,-4749.792088,13027.624579
16248.207807,-3108.864956,-2451.505594,11621.233289
16248.208131,370.102971,-919.314598,10436.903782
16248.208455,3701.029710,2757.943793,8586.388927
16248.208779,6069.688724,4519.963438,5847.626942
16248.209103,5995.668130,4749.792088,3923.091493
16248.209427,7105.977043,4443.353888,2368.659014
16248.209752,6735.874072,4136.915689,3923.091493
16248.210076,4441.235652,2757.943793,5699.585753
16248.210400,518.144159,76.609550,7698.141797
16248.210724,-1998.556043,-2068.457845,9326.594869
16248.211048,-4219.173869,-2987.772442,11843.295072
16248.211372,-4293.194464,-3983.696590,14063.912898
16248.211696,-7402.059420,-5669.106685,14878.139434
16248.212021,-8142.265362,-6281.983084,14211.954086
16248.212345,-3923.091493,-4290.134789,13323.706956
16248.212669,-1776.494261,-2374.896044,13249.686362
16248.212993,-1628.453072,-995.924147,10881.027347
16248.213317,1776.494261,1378.971896,8364.327145
16248.213641,4737.318029,3753.867940,6513.812290
16248.213965,5551.544565,4673.182538,4737.318029
16248.214290,5995.668130,4979.620737,3701.029710
16248.214614,5033.400406,4749.792088,4219.173869
16248.214938,2516.700203,3294.210641,5033.400406
16248.215262,592.164754,1838.629195,6735.874072
16248.215586,-1110.308913,306.438199,8808.450710
16248.215910,-3775.050304,-2068.457845,10732.986159
16248.216234,-5033.400406,-2374.896044,12879.583391
16248.216558,-5699.585753,-3370.820191,15100.201217
16248.216883,-6439.791695,-5132.839837,14359.995275
16248.217207,-4737.318029,-3830.477490,13175.665768
16248.217531,-2886.803174,-1532.190996,12583.501014
16248.217855,-1184.329507,0.000000,10732.986159
16248.218179,2146.597232,1608.800546,9104.533087
16248.218503,5033.400406,4290.134789,7105.977043
16248.218827,5773.606348,5975.544884,5255.462188
16248.219151,5921.647536,5745.716235,3182.885551
16248.219475,5625.565159,5515.887586,3182.885551
16248.219799,4811.338623,4903.011187,4811.338623
16248.220123,2220.617826,3524.039291,6809.894666
16248.220447,-1850.514855,689.485948,8660.409521
16248.220771,-3330.926739,-153.219100,10140.821405
16248.221095,-4219.173869,-2068.457845,12805.562797
16248.221419,-6291.750507,-3370.820191,14285.974681
16248.221743,-7994.224174,-4673.182538,14730.098246
16248.222067,-5921.647536,-4366.744339,13175.665768
16248.222391,-4145.153275,-2145.067394,13027.624579
16248.222715,-1036.288319,-306.438199,10955.047942
16248.223039,3478.967927,2221.676944,9474.636058
16248.223363,4885.359217,3753.867940,7402.059420
16248.223687,4959.379811,4673.182538,4959.379811
16248.224011,8586.388927,5745.716235,4219.173869
16248.224335,8586.388927,6358.592633,4737.318029
16248.224659,5033.400406,3907.087040,5403.503377
16248.224983,2368.659014,2451.505594,6143.709319
16248.225307,740.205942,383.047749,8808.450710
16248.225631,-2146.597232,-2145.067394,11029.068536
16248.225955,-4663.297435,-3600.648841,13323.706956
16248.226279,-6661.853478,-4673.182538,14211.954086
16248.226603,-9104.533087,-5745.716235,14063.912898
16248.226927,-6069.688724,-5669.106685,13323.706956
16248.227251,-3478.967927,-3370.820191,13101.645173
16248.227575,-3775.050304,-2528.115143,11843.295072
16248.227899,-1036.288319,0.000000,9252.574275
16248.228223,4589.276840,3524.039291,7328.038826
16248.228547,7328.038826,5132.839837,6143.709319
16248.228871,6809.894666,5439.278036,4219.173869
16248.229196,7031.956449,5822.325785,3552.988522
16248.229520,6291.750507,5362.668486,4515.256246
16248.229844,4515.256246,2987.772442,6217.729913
16248.230168,888.247130,766.095498,8216.285956
16248.230492,-2442.679609,-153.219100,9474.636058
16248.230816,-4219.173869,-1838.629195,11917.315666
16248.231140,-5551.544565,-2987.772442,14434.015869
16248.231464,-7550.100608,-4979.620737,14804.118840
16248.231788,-7402.059420,-5132.839837,13323.706956
16248.232112,-5551.544565,-2987.772442,11991.336260
16248.232436,-3182.885551,-1225.752797,11251.130318
16248.232760,518.144159,689.485948,10066.800811
16248.233084,3182.885551,3370.820191,7698.141797
16248.233408,4367.215058,4826.401637,5921.647536
16248.233732,5773.606348,5592.497135,3997.112087
16248.234056,8068.244768,5898.935335,3330.926739
16248.234380,5625.565159,5286.058936,4811.338623
16248.234704,3330.926739,3600.648841,5699.585753
16248.235028,0.000000,1762.019645,7254.018232
16248.235352,-2220.617826,-536.266849,9474.636058
16248.235676,-2886.803174,-1302.362347,12065.356855
16248.236000,-5329.482782,-2451.505594,13915.871710
16248.236324,-8364.327145,-4213.525239,14285.974681
16248.236648,-6661.853478,-4213.525239,14434.015869
16248.236972,-2886.803174,-2834.553343,13397.727550
16248.237296,-2220.617826,-1455.581446,12509.480420
16248.237620,-962.267725,689.485948,10584.944971
16248.237944,3775.050304,3600.648841,8216.285956
16248.238268,5551.544565,4826.401637,6661.853478
16248.238592,6217.729913,4903.011187,4737.318029
16248.238916,6439.791695,6741.640382,3478.967927
16248.239240,5255.462188,5592.497135,3404.947333
16248.239564,3997.112087,4213.525239,4737.318029
16248.239888,2442.679609,2068.457845,7550.100608
16248.240212,-1850.514855,76.609550,9178.553681
16248.240536,-3627.009116,-919.314598,11325.150913
16248.240860,-4071.132681,-2374.896044,13471.748144
16248.241184,-6143.709319,-4749.792088,14508.036463
16248.241508,-7550.100608,-5745.716235,14508.036463
16248.241832,-5033.400406,-3447.429741,13027.624579
16248.242156,-2590.720797,-2068.457845,13027.624579
16248.242480,-1332.370696,-1225.752797,11843.295072
16248.242804,2220.617826,1608.800546,9030.512492
16248.243128,5477.523971,4749.792088,6291.750507
16248.243452,5921.647536,5286.058936,4737.318029
16248.243776,6513.812290,6588.421283,3627.009116
16248.244100,7550.100608,6818.249932,4515.256246
16248.244424,5181.441594,5515.887586,4441.235652
16248.244748,2072.576638,2681.334243,6365.771101
16248.245072,-296.082377,1072.533697,8438.347739
16248.245396,-2294.638420,-612.876398,11251.130318
16248.245720,-4737.318029,-1991.848295,13693.809927
16248.246044,-6587.832884,-4366.744339,16136.489536
16248.246368,-8068.244768,-6128.763984,14359.995275
16248.246692,-6365.771101,-4826.401637,12657.521608
16248.247016,-3552.988522,-2834.553343,13175.665768
16248.247340,-1480.411884,-612.876398,11991.336260
16248.247664,1110.308913,1378.971896,9474.636058
16248.247988,3701.029710,3294.210641,6957.935855
16248.248312,6291.750507,5286.058936,4737.318029
16248.248636,8364.327145,6665.030833,3552.988522
16248.248960,7179.997637,6511.811733,3108.864956
16248.249284,3997.112087,4290.134789,4515.256246
16248.249608,2220.617826,2451.505594,6883.915261
16248.249932,-222.061783,153.219100,8808.450710
16248.250256,-3701.029710,-1915.238745,11103.089130
16248.250580,-6291.750507,-3907.087040,13175.665768
16248.250904,-7328.038826,-3983.696590,14285.974681
16248.251228,-7179.997637,-5592.497135,14730.098246
16248.251552,-5847.626942,-5515.887586,13323.706956
16248.251876,-4441.235652,-2374.896044,11991.336260
16248.252200,-2886.803174,0.000000,11325.150913
16248.252524,1184.329507,689.485948,8660.409521
16248.252848,5773.606348,3294.210641,7031.956449
16248.253172,6957.935855,5669.106685,5921.647536
16248.253496,6365.771101,6818.249932,4293.194464
16248.253820,6735.874072,5439.278036,3997.112087
16248.254144,5773.606348,3983.696590,5477.523971
16248.254468,2590.720797,2911.162892,7328.038826
16248.254792,-962.267725,1225.752797,8808.450710
16248.255116,-2960.823768,-1378.971896,10658.965565
16248.255440,-4441.235652,-2451.505594,12657.521608
16248.255764,-5847.626942,-3294.210641,14137.933492
16248.256088,-7550.100608,-5515.887586,14211.954086
16248.256412,-6217.729913,-4443.353888,12509.480420
16248.256736,-2220.617826,-1762.019645,11917.315666
16248.257060,-148.041188,689.485948,11621.233289
16248.257384,1850.514855,1225.752797,9548.656652
16248.257708,4663.297435,4136.915689,6661.853478
16248.258032,6513.812290,5209.449386,5107.421000
16248.258357,6587.832884,5362.668486,4219.173869
16248.258681,6587.832884,5439.278036,4663.297435
16248.259005,4737.318029,4366.744339,5699.585753
16248.259329,2146.597232,2068.457845,6587.832884
16248.259653,-148.041188,612.876398,7550.100608
16248.259977,-2220.617826,-383.047749,9844.739029
16248.260301,-2368.659014,-1838.629195,11843.295072
16248.260625,-5255.462188,-2911.162892,13397.727550
16248.260949,-6883.915261,-3600.648841,14211.954086
16248.261273,-5255.462188,-3830.477490,13323.706956
16248.261597,-2886.803174,-1838.629195,12287.418637
16248.261921,-1702.473667,-612.876398,11621.233289
16248.262245,592.164754,1302.362347,9918.759623
16248.262569,3627.009116,3983.696590,8364.327145
16248.262893,5329.482782,4519.963438,6365.771101
16248.263217,5625.565159,5056.230287,4885.359217
16248.263541,4589.276840,4903.011187,3627.009116
16248.263865,3997.112087,4826.401637,5329.482782
16248.264189,3404.947333,3217.601092,7550.100608
16248.264513,1628.453072,995.924147,9474.636058
16248.264837,-1998.556043,-1302.362347,9918.759623
16248.265161,-2812.782580,-1455.581446,11473.192101
16248.265485,-3775.050304,-2221.676944,12509.480420
16248.265809,-5921.647536,-3983.696590,13249.686362
16248.266133,-6217.729913,-3600.648841,13175.665768
16248.266457,-3330.926739,-2987.772442,11103.089130
16248.266781,-3182.885551,-1762.019645,10732.986159
16248.267105,-814.226536,-383.047749,9548.656652
16248.267429,2368.659014,1838.629195,8142.265362
16248.267753,2442.679609,3370.820191,7179.997637
16248.268077,2738.761985,3600.648841,5403.503377
16248.268401,5625.565159,4519.963438,4515.256246
16248.268725,5847.626942,3907.087040,4737.318029
16248.269049,2516.700203,3140.991542,5477.523971
16248.269373,1036.288319,1302.362347,7550.100608
16248.269697,-666.185348,-689.485948,10510.924376
16248.270021,-2072.576638,-2451.505594,12065.356855
16248.270345,-3923.091493,-2834.553343,13767.830521
16248.270669,-6513.812290,-4519.963438,14878.139434
16248.270993,-6957.935855,-5745.716235,13027.624579
16248.271317,-3997.112087,-4826.401637,12731.542202
16248.271641,-1258.350101,-2068.457845,13101.645173
16248.271965,0.000000,-1838.629195,11399.171507
16248.272289,1332.370696,1532.190996,8882.471304
16248.272613,4737.318029,3983.696590,7105.977043
16248.272937,6957.935855,4443.353888,4959.379811
16248.273261,7624.121203,4979.620737,3775.050304
16248.273585,6365.771101,4903.011187,3478.967927
16248.273909,4737.318029,4596.572988,4885.359217
16248.274233,3182.885551,1915.238745,7402.059420
16248.274557,-370.102971,-153.219100,9326.594869
16248.274881,-2812.782580,-1838.629195,10955.047942
16248.275205,-4145.153275,-2451.505594,12583.501014
16248.275529,-5033.400406,-2757.943793,13915.871710
16248.275853,-5477.523971,-4366.744339,13915.871710
16248.276177,-4811.338623,-3217.601092,11917.315666
16248.276501,-3034.844362,-1302.362347,11103.089130
16248.276825,-1258.350101,842.705048,9918.759623
16248.277149,2886.803174,2987.772442,9400.615463
16248.277473,5033.400406,4903.011187,7179.997637
16248.277797,5033.400406,5439.278036,5551.544565
16248.278121,5255.462188,5822.325785,3997.112087
16248.278445,6069.688724,6588.421283,4441.235652
16248.278769,3701.029710,4136.915689,5477.523971
16248.279093,1110.308913,2757.943793,7105.977043
16248.279417,-2368.659014,1149.143247,9252.574275
16248.279741,-4441.235652,-995.924147,10955.047942
16248.280065,-3701.029710,-2145.067394,11917.315666
16248.280389,-5625.565159,-2374.896044,13619.789333
16248.280713,-9178.553681,-3677.258390,14211.954086
16248.281037,-5477.523971,-3677.258390,12731.542202
16248.281361,-1776.494261,-2221.676944,12361.439231
16248.281685,-1554.432478,-306.438199,11177.109724
16248.282009,0.000000,1302.362347,9622.677246
16248.282333,3552.988522,3600.648841,6809.894666
16248.282657,5255.462188,3907.087040,5033.400406
16248.282981,5403.503377,4519.963438,4071.132681
16248.283305,4959.379811,4903.011187,4071.132681
16248.283629,3552.988522,3677.258390,4663.297435
16248.283953,1406.391290,2145.067394,6143.709319
16248.284277,-1332.370696,0.000000,9030.512492
16248.284601,-3108.864956,-1991.848295,10510.924376
16248.284925,-4663.297435,-3217.601092,11991.336260
16248.285249,-6069.688724,-3753.867940,13175.665768
16248.285573,-6957.935855,-5592.497135,14582.057057
16248.285897,-6513.812290,-5898.935335,14434.015869
16248.286221,-3701.029710,-4366.744339,13027.624579
16248.286545,-1332.370696,-2451.505594,11917.315666
16248.286869,592.164754,-306.438199,10140.821405
16248.287194,3775.050304,2145.067394,8216.285956
16248.287518,6883.915261,3447.429741,6291.750507
16248.287842,6365.771101,4519.963438,3701.029710
16248.288166,5551.544565,4519.963438,4145.153275
16248.288490,5699.585753,4136.915689,4959.379811
16248.288814,4515.256246,2604.724693,6587.832884
16248.289138,444.123565,0.000000,8290.306550
16248.289462,-1702.473667,-1608.800546,10362.883188
16248.289786,-1998.556043,-1838.629195,13101.645173
16248.290110,-4293.194464,-3064.381992,13915.871710
16248.290434,-5403.503377,-4596.572988,14804.118840
16248.290758,-4441.235652,-4290.134789,13249.686362
16248.291082,-3256.906145,-2145.067394,11991.336260
16248.291406,-1036.288319,-1302.362347,10807.006753
16248.291730,1406.391290,536.266849,9030.512492
16248.292054,2664.741391,3524.039291,7254.018232
16248.292378,3108.864956,4519.963438,5995.668130
16248.292702,5181.441594,5592.497135,4441.235652
16248.293026,6883.915261,6205.373534,4293.194464
16248.293350,3849.070898,5286.058936,4737.318029
16248.293674,1406.391290,3600.648841,5847.626942
16248.293998,444.123565,2681.334243,7772.162391
16248.294322,-2368.659014,612.876398,9992.780217
16248.294646,-4737.318029,-1149.143247,12213.398043
16248.294970,-5403.503377,-1762.019645,13989.892304
16248.295294,-8290.306550,-3140.991542,14359.995275
16248.295618,-7476.080014,-4366.744339,13101.645173
16248.295942,-2294.638420,-1762.019645,12509.480420
16248.296266,-1258.350101,919.314598,12657.521608
16248.296590,-296.082377,1608.800546,10807.006753
16248.296914,3627.009116,2987.772442,8512.368333
16248.297238,7328.038826,6205.373534,6883.915261
16248.297562,7254.018232,7354.516781,5403.503377
16248.297886,6217.729913,6281.983084,3182.885551
16248.298210,5625.565159,5975.544884,3404.947333
16248.298534,4811.338623,5669.106685,4811.338623
16248.298858,2220.617826,3217.601092,7031.956449
16248.299182,-2886.803174,76.609550,8512.368333
16248.299506,-6143.709319,-1685.410096,8882.471304
16248.299830,-6143.709319,-1455.581446,11917.315666
16248.300154,-7254.018232,-4290.134789,14211.954086
16248.300478,-9178.553681,-6818.249932,13693.809927
16248.300802,-7402.059420,-5515.887586,12583.501014
16248.301126,-4071.132681,-3064.381992,12583.501014
16248.301450,-1406.391290,-1991.848295,13175.665768
16248.301774,2294.638420,-536.266849,10658.965565
16248.302098,5625.565159,3294.210641,8882.471304
16248.302422,7476.080014,4903.011187,6217.729913
16248.302746,9622.677246,4673.182538,4071.132681
16248.303070,8808.450710,4673.182538,4441.235652
16248.303394,6809.894666,4673.182538,4959.379811
16248.303718,3849.070898,2451.505594,7105.977043
16248.304042,0.000000,-383.047749,8734.430116
16248.304366,-1702.473667,-2604.724693,10955.047942
16248.304690,-3849.070898,-3370.820191,13175.665768
16248.305014,-7402.059420,-4826.401637,14211.954086
16248.305338,-8660.409521,-7048.078582,14804.118840
16248.305662,-6143.709319,-5745.716235,13471.748144
16248.305986,-3849.070898,-3600.648841,13027.624579
16248.306310,-1998.556043,-1378.971896,11547.212695
16248.306634,1628.453072,766.095498,9252.574275
16248.306958,5403.503377,3983.696590,7105.977043
16248.307282,7328.038826,5132.839837,5847.626942
16248.307606,7846.182985,6358.592633,3478.967927
16248.307930,7846.182985,6128.763984,3034.844362
16248.308254,4737.318029,5822.325785,3404.947333
16248.308578,2368.659014,4290.134789,5699.585753
16248.308902,74.020594,1991.848295,8660.409521
16248.309226,-4219.173869,-766.095498,10584.944971
16248.309550,-6143.709319,-2221.676944,12435.459826
16248.309874,-7179.997637,-3524.039291,14211.954086
16248.310198,-9548.656652,-5669.106685,15322.262999
16248.310522,-8216.285956,-5056.230287,14211.954086
16248.310846,-4811.338623,-3447.429741,12583.501014
16248.311170,-3478.967927,-1149.143247,11991.336260
16248.311494,148.041188,919.314598,9918.759623
16248.311818,4589.276840,4903.011187,8216.285956
16248.312142,6365.771101,6205.373534,5847.626942
16248.312466,6365.771101,7048.078582,3404.947333
16248.312790,7994.224174,7737.564530,3552.988522
16248.313114,7550.100608,7354.516781,3627.009116
16248.313438,4293.194464,4749.792088,4515.256246
16248.313762,444.123565,2374.896044,7031.956449
16248.314086,-2516.700203,76.609550,9992.780217
16248.314410,-4663.297435,-1838.629195,11917.315666
16248.314734,-5477.523971,-3140.991542,13693.809927
16248.315058,-7550.100608,-5592.497135,14582.057057
16248.315382,-8734.430116,-5898.935335,13397.727550
16248.315706,-5329.482782,-3524.039291,12879.583391
16248.316031,-1776.494261,-2374.896044,12287.418637
16248.316355,74.020594,-1149.143247,10288.862594
16248.316679,2368.659014,2374.896044,7772.162391
16248.317003,5921.647536,5592.497135,6809.894666
16248.317327,9770.718434,6511.811733,5477.523971
16248.317651,9844.739029,5822.325785,4589.276840
16248.317975,6957.935855,5975.544884,3478.967927
16248.318299,5329.482782,4673.182538,5329.482782
16248.318623,3404.947333,1838.629195,7994.224174
16248.318947,-962.267725,-766.095498,10066.800811
16248.319271,-4071.132681,-2681.334243,12287.418637
16248.319595,-6217.729913,-3830.477490,13545.768739
16248.319919,-8142.265362,-5745.716235,15174.221811
16248.320243,-7920.203579,-7584.345430,14508.036463
16248.320567,-5699.585753,-6052.154434,13915.871710
16248.320891,-4663.297435,-3217.601092,13175.665768
16248.321215,-1850.514855,-919.314598,11251.130318
16248.321539,3478.967927,1991.848295,8586.388927
16248.321863,6291.750507,4749.792088,6883.915261
16248.322187,6957.935855,5822.325785,3849.070898
16248.322511,7920.203579,6128.763984,2368.659014
16248.322835,7105.977043,5822.325785,2442.679609
16248.323159,5403.503377,4979.620737,4441.235652
16248.323483,2220.617826,3217.601092,6735.874072
16248.323807,-2368.659014,306.438199,8660.409521
16248.324131,-4811.338623,-1915.238745,9992.780217
16248.324455,-5995.668130,-2528.115143,12805.562797
16248.324779,-8364.327145,-4443.353888,14878.139434
16248.325103,-9252.574275,-6052.154434,14582.057057
16248.325427,-6735.874072,-5132.839837,13841.851115
16248.325751,-3849.070898,-3140.991542,13545.768739
16248.326075,-2146.597232,-1532.190996,11843.295072
16248.326399,1554.432478,1915.238745,9918.759623
16248.326723,5181.441594,4519.963438,8364.327145
16248.327047,6957.935855,5669.106685,5625.565159
16248.327371,7920.203579,6205.373534,4145.153275
16248.327695,7476.080014,6358.592633,3627.009116
16248.328019,4885.359217,4903.011187,3775.050304
16248.328343,1998.556043,3294.210641,5477.523971
16248.328667,-814.226536,1762.019645,8290.306550
16248.328991,-3701.029710,-919.314598,10807.006753
16248.329315,-5403.503377,-2604.724693,11843.295072
16248.329639,-7402.059420,-3907.087040,13767.830521
16248.329963,-7772.162391,-5439.278036,14656.077652
16248.330287,-5551.544565,-5286.058936,14063.912898
16248.330611,-3404.947333,-3524.039291,13915.871710
16248.330935,-888.247130,-2068.457845,12139.377449
16248.331259,3108.864956,1302.362347,10807.006753
16248.331583,5773.606348,3600.648841,8438.347739
16248.331907,8068.244768,4213.525239,6143.709319
16248.332231,7994.224174,5209.449386,4219.173869
16248.332555,7624.121203,5898.935335,3034.844362
16248.332879,6661.853478,5592.497135,4737.318029
16248.333203,4589.276840,3983.696590,5551.544565
16248.333527,370.102971,1685.410096,6735.874072
16248.333851,-3256.906145,-1302.362347,8882.471304
16248.334175,-4145.153275,-2451.505594,11917.315666
16248.334499,-6143.709319,-3753.867940,14137.933492
16248.334823,-9770.718434,-5898.935335,15174.221811
16248.335147,-7698.141797,-6052.154434,13397.727550
16248.335471,-5181.441594,-4060.306139,13101.645173
16248.335795,-4145.153275,-2068.457845,12657.521608
16248.336119,370.102971,-383.047749,10436.903782
16248.336443,4885.359217,2681.334243,8216.285956
16248.336767,5181.441594,5439.278036,6809.894666
16248.337091,7105.977043,5592.497135,4145.153275
16248.337415,11029.068536,7507.735880,3478.967927
16248.337739,8734.430116,7584.345430,3182.885551
16248.338063,4515.256246,6052.154434,4885.359217
16248.338387,1628.453072,2528.115143,7402.059420
16248.338711,-444.123565,383.047749,8808.450710
16248.339035,-4737.318029,-2145.067394,11029.068536
16248.339359,-6735.874072,-3907.087040,13767.830521
16248.339683,-10658.965565,-5056.230287,15248.242405
16248.340007,-10140.821405,-6511.811733,14656.077652
16248.340331,-5847.626942,-5362.668486,13619.789333
16248.340655,-4219.173869,-4060.306139,12731.542202
16248.340979,-2738.761985,-612.876398,10140.821405
16248.341303,2368.659014,2834.553343,8882.471304
16248.341627,6957.935855,4979.620737,7698.141797
16248.341951,8438.347739,5822.325785,5181.441594
16248.342275,8512.368333,7048.078582,2590.720797
16248.342599,8142.265362,7124.688131,2664.741391
16248.342923,4737.318029,5132.839837,4293.194464
16248.343247,2886.803174,2911.162892,6661.853478
16248.343571,-1702.473667,0.000000,9400.615463
16248.343895,-5625.565159,-2604.724693,11325.150913
16248.344219,-7031.956449,-3907.087040,12361.439231
16248.344543,-8586.388927,-5362.668486,14730.098246
16248.344867,-9474.636058,-7048.078582,14804.118840
16248.345191,-7624.121203,-6128.763984,14137.933492
16248.345515,-4737.318029,-3064.381992,12879.583391
16248.345839,74.020594,-383.047749,11695.253884
16248.346163,3849.070898,2221.676944,9252.574275
16248.346487,6069.688724,5056.230287,7476.080014
16248.346811,7105.977043,6052.154434,5181.441594
16248.347135,8586.388927,5745.716235,2960.823768
16248.347459,9178.553681,6052.154434,2220.617826
16248.347783,6365.771101,5592.497135,4145.153275
16248.348107,1924.535449,3294.210641,5995.668130
16248.348431,-1554.432478,0.000000,8438.347739
16248.348755,-3330.926739,-2374.896044,10807.006753
16248.349079,-4515.256246,-3524.039291,12879.583391
16248.349403,-8438.347739,-5209.449386,13915.871710
16248.349727,-10955.047942,-6971.469032,14063.912898
16248.350051,-7105.977043,-6435.202183,13101.645173
16248.350375,-3849.070898,-3983.696590,13767.830521
16248.350699,-2886.803174,-2068.457845,12657.521608
16248.351023,740.205942,459.657299,9252.574275
16248.351347,5255.462188,3677.258390,7402.059420
16248.351671,7105.977043,5362.668486,6513.812290
16248.351995,8216.285956,5898.935335,4367.215058
16248.352319,8438.347739,6205.373534,3849.070898
16248.352643,6661.853478,5745.716235,3923.091493
16248.352967,4737.318029,4979.620737,6069.688724
16248.353291,2294.638420,2068.457845,8734.430116
16248.353615,-2590.720797,-306.438199,10584.944971
16248.353939,-4663.297435,-1685.410096,12583.501014
16248.354263,-6143.709319,-3830.477490,13397.727550
16248.354587,-8364.327145,-4826.401637,14434.015869
16248.354911,-8142.265362,-6128.763984,13989.892304
16248.355235,-5107.421000,-3370.820191,13323.706956
16248.355559,-3330.926739,-1762.019645,12731.542202
16248.355883,-444.123565,-229.828649,10362.883188
16248.356207,3849.070898,3753.867940,7772.162391
16248.356531,6143.709319,5286.058936,5181.441594
16248.356855,5995.668130,6435.202183,2590.720797
16248.357179,7179.997637,7124.688131,2442.679609
16248.357503,7994.224174,6741.640382,3182.885551
16248.357827,5107.421000,5515.887586,4515.256246
16248.358151,1406.391290,2528.115143,6587.832884
16248.358475,-2146.597232,0.000000,9844.739029
16248.358799,-4293.194464,-2451.505594,12361.439231
16248.359123,-6661.853478,-3983.696590,14656.077652
16248.359447,-8586.388927,-6281.983084,15692.365970
16248.359771,-9030.512492,-6511.811733,14137.933492
16248.360095,-6217.729913,-4673.182538,14063.912898
16248.360419,-2516.700203,-2604.724693,13545.768739
16248.360743,962.267725,-153.219100,11325.150913
16248.361067,4219.173869,3064.381992,8438.347739
16248.361391,6143.709319,5362.668486,5847.626942
16248.361715,9400.615463,7354.516781,3182.885551
16248.362039,11325.150913,8580.269578,2442.679609
16248.362363,7402.059420,7201.297681,3330.926739
16248.362687,3701.029710,5056.230287,4515.256246
16248.363011,2072.576638,2374.896044,6735.874072
16248.363335,-1850.514855,-842.705048,8882.471304
16248.363659,-4959.379811,-3830.477490,11843.295072
16248.363983,-7846.182985,-4290.134789,13915.871710
16248.364307,-9992.780217,-5898.935335,14952.160028
16248.364632,-8882.471304,-7660.954980,13989.892304
16248.364956,-5921.647536,-5669.106685,14137.933492
16248.365280,-3923.091493,-2374.896044,13027.624579
16248.365604,-296.082377,-459.657299,11251.130318
16248.365928,4737.318029,2834.553343,8438.347739
16248.366252,8586.388927,5669.106685,6809.894666
16248.366576,9104.533087,6511.811733,4663.297435
16248.366900,8364.327145,6894.859482,3034.844362
16248.367224,7772.162391,6205.373534,3627.009116
16248.367548,4885.359217,4673.182538,5625.565159
16248.367872,1406.391290,1608.800546,7624.121203
16248.368196,-2368.659014,-919.314598,9178.553681
16248.368520,-6735.874072,-2757.943793,11103.089130
16248.368844,-7476.080014,-4290.134789,13545.768739
16248.369168,-8808.450710,-5822.325785,15026.180623
16248.369492,-9548.656652,-6588.421283,13915.871710
16248.369816,-6439.791695,-4519.963438,12509.480420
16248.370140,-2442.679609,-1608.800546,12139.377449
16248.370464,962.267725,229.828649,10732.986159
16248.370788,3997.112087,3294.210641,8734.430116
16248.371112,5699.585753,5669.106685,6143.709319
16248.371436,7846.182985,6052.154434,4737.318029
16248.371760,8660.409521,6435.202183,3256.906145
16248.372084,7624.121203,5898.935335,3478.967927
16248.372408,3997.112087,4596.572988,5255.462188
16248.372732,222.061783,2221.676944,6883.915261
16248.373056,-2294.638420,153.219100,8956.491898
16248.373380,-3552.988522,-2374.896044,11621.233289
16248.373704,-6365.771101,-3830.477490,12879.583391
16248.374028,-9104.533087,-4903.011187,13767.830521
16248.374352,-8586.388927,-6052.154434,13471.748144
16248.374676,-5403.503377,-4443.353888,13323.706956
16248.375000,-3923.091493,-2221.676944,13471.748144
16248.375324,-1554.432478,-383.047749,10732.986159
16248.375648,3108.864956,1915.238745,8438.347739
16248.375972,6365.771101,4903.011187,7698.141797
16248.376296,7254.018232,6358.592633,5995.668130
16248.376620,7772.162391,6128.763984,4515.256246
16248.376944,7550.100608,5975.544884,3478.967927
16248.377268,5625.565159,5515.887586,4737.318029
16248.377592,3108.864956,3907.087040,7772.162391
16248.377916,0.000000,459.657299,8512.368333
16248.378240,-3627.009116,-1685.410096,10362.883188
16248.378564,-5329.482782,-2834.553343,12361.439231
16248.378888,-7105.977043,-3983.696590,14211.954086
16248.379212,-8438.347739,-5439.278036,14730.098246
16248.379536,-6291.750507,-5056.230287,12361.439231
16248.379860,-4663.297435,-2528.115143,11547.212695
16248.380184,-3404.947333,-1072.533697,11547.212695
16248.380508,1776.494261,842.705048,9178.553681
16248.380832,5551.544565,3370.820191,7105.977043
16248.381156,4515.256246,4060.306139,5107.421000
16248.381480,5107.421000,5209.449386,3701.029710
16248.381804,8956.491898,6358.592633,4737.318029
16248.382128,6587.832884,4290.134789,5699.585753
16248.382452,1110.308913,2451.505594,6587.832884
16248.382776,-518.144159,689.485948,9178.553681
16248.383100,-1628.453072,-1762.019645,11029.068536
16248.383424,-4515.256246,-4060.306139,12361.439231
16248.383748,-5921.647536,-3983.696590,14730.098246
16248.384072,-8216.285956,-4443.353888,14730.098246
16248.384396,-6587.832884,-5056.230287,13175.665768
16248.384720,-3404.947333,-3830.477490,12879.583391
16248.385044,-1406.391290,-1072.533697,11917.315666
16248.385368,222.061783,1378.971896,9770.718434
16248.385692,3849.070898,3600.648841,7550.100608
16248.386016,7105.977043,5132.839837,6365.771101
16248.386340,8364.327145,6281.983084,4515.256246
16248.386664,7846.182985,7201.297681,3330.926739
16248.386988,6143.709319,5515.887586,4293.194464
16248.387312,3997.112087,3677.258390,6143.709319
16248.387636,1110.308913,919.314598,7994.224174
16248.387960,-1924.535449,-766.095498,10288.862594
16248.388284,-4219.173869,-2681.334243,12065.356855
16248.388608,-5699.585753,-3600.648841,13545.768739
16248.388932,-7698.141797,-4366.744339,14434.015869
16248.389256,-7476.080014,-5209.449386,13027.624579
16248.389580,-5329.482782,-4596.572988,12731.542202
16248.389904,-4145.153275,-1991.848295,12065.356855
16248.390228,-592.164754,0.000000,9770.718434
16248.390552,4145.153275,3064.381992,8956.491898
16248.390876,5255.462188,4826.401637,7179.997637
16248.391200,5329.482782,5439.278036,4219.173869
16248.391524,6809.894666,5592.497135,3182.885551
16248.391848,5773.606348,5592.497135,3701.029710
16248.392172,3627.009116,4366.744339,5625.565159
16248.392496,444.123565,2451.505594,7031.956449
16248.392820,-2368.659014,0.000000,9030.512492
16248.393144,-3849.070898,-2068.457845,11473.192101
16248.393468,-5255.462188,-2834.553343,13693.809927
16248.393792,-8660.409521,-4749.792088,14211.954086
16248.394116,-7698.141797,-5439.278036,13693.809927
16248.394440,-4293.194464,-4136.915689,12731.542202
16248.394764,-1480.411884,-1991.848295,12953.603985
16248.395088,0.000000,0.000000,11399.171507
16248.395412,3775.050304,2604.724693,8882.471304
16248.395736,6291.750507,4903.011187,7624.121203
16248.396060,7105.977043,5669.106685,5551.544565
16248.396384,8512.368333,6741.640382,3182.885551
16248.396708,7254.018232,6052.154434,3627.009116
16248.397032,3478.967927,4443.353888,3849.070898
16248.397356,370.102971,2528.115143,6513.812290
16248.397680,-1480.411884,0.000000,9400.615463
16248.398004,-4589.276840,-2374.896044,11325.150913
16248.398328,-6809.894666,-3983.696590,12139.377449
16248.398652,-8068.244768,-5056.230287,14508.036463
16248.398976,-7772.162391,-6281.983084,14952.160028
16248.399300,-4885.359217,-4903.011187,13693.809927
16248.399624,-3034.844362,-2987.772442,13175.665768
16248.399948,0.000000,-842.705048,10732.986159
16248.400272,4737.318029,2451.505594,8660.409521
16248.400596,7624.121203,5132.839837,7105.977043
16248.400920,8364.327145,5975.544884,5551.544565
16248.401244,8364.327145,6511.811733,4367.215058
16248.401568,7846.182985,6588.421283,3627.009116
16248.401892,7031.956449,4903.011187,5255.462188
16248.402216,3034.844362,2911.162892,6513.812290
16248.402540,-1406.391290,689.485948,8290.306550
16248.402864,-4663.297435,-1608.800546,11399.171507
16248.403188,-6143.709319,-4136.915689,13619.789333
16248.403512,-7920.203579,-5745.716235,14952.160028
16248.403836,-8808.450710,-6588.421283,14285.974681
16248.404160,-7402.059420,-4903.011187,12287.418637
16248.404484,-4885.359217,-2604.724693,12953.603985
16248.404808,-1036.288319,-459.657299,11547.212695
16248.405132,3552.988522,2145.067394,8512.368333
16248.405456,4441.235652,4673.182538,5921.647536
16248.405780,3997.112087,5439.278036,3701.029710
16248.406104,7550.100608,7277.907231,2960.823768
16248.406428,8068.244768,7277.907231,4145.153275
16248.406752,2664.741391,4519.963438,5551.544565
16248.407076,0.000000,1915.238745,6735.874072
16248.407400,-1776.494261,153.219100,8216.285956
16248.407724,-4219.173869,-2374.896044,10584.944971
16248.408048,-6513.812290,-3600.648841,13471.748144
16248.408372,-9326.594869,-4903.011187,14878.139434
16248.408696,-9326.594869,-5898.935335,13915.871710
16248.409020,-6291.750507,-5822.325785,13397.727550
16248.409344,-3034.844362,-3830.477490,13175.665768
16248.409668,-1924.535449,-1455.581446,11843.295072
16248.409992,1998.556043,1455.581446,9474.636058
16248.410316,7550.100608,4596.572988,8734.430116
16248.410640,9178.553681,5822.325785,7031.956449
16248.410964,8364.327145,6052.154434,3923.091493
16248.411288,7698.141797,6052.154434,3256.906145
16248.411612,4959.379811,4903.011187,4737.318029
16248.411936,2738.761985,2681.334243,6291.750507
16248.412260,-592.164754,306.438199,8512.368333
16248.412584,-4219.173869,-2298.286494,10362.883188
16248.412908,-6809.894666,-3753.867940,11325.150913
16248.413232,-7624.121203,-4136.915689,12879.583391
16248.413556,-9252.574275,-6511.811733,13915.871710
16248.413880,-8290.306550,-6741.640382,13175.665768
16248.414204,-5033.400406,-4290.134789,12065.356855
16248.414528,-1184.329507,-1532.190996,11621.233289
16248.414852,3701.029710,1685.410096,10214.842000
16248.415176,6365.771101,4903.011187,8660.409521
16248.415500,8586.388927,6358.592633,6069.688724
16248.415824,9696.697840,6358.592633,4219.173869
16248.416148,10881.027347,6971.469032,3552.988522
16248.416472,8512.368333,6205.373534,4589.276840
16248.416796,3552.988522,3983.696590,6439.791695
16248.417120,-370.102971,1608.800546,7994.224174
16248.417444,-3034.844362,-1072.533697,10881.027347
16248.417768,-4589.276840,-2681.334243,12953.603985
16248.418092,-6735.874072,-4443.353888,14359.995275
16248.418417,-10066.800811,-5132.839837,14434.015869
16248.418741,-7328.038826,-4596.572988,13101.645173
16248.419065,-3701.029710,-2681.334243,13175.665768
16248.419389,-3034.844362,-766.095498,11473.192101
16248.419713,296.082377,1762.019645,8586.388927
16248.420037,5107.421000,4826.401637,6809.894666
16248.420361,5477.523971,6281.983084,5255.462188
16248.420685,5995.668130,6281.983084,4589.276840
16248.421009,6735.874072,6588.421283,3775.050304
16248.421333,4737.318029,4979.620737,3701.029710
16248.421657,1924.535449,4213.525239,5625.565159
16248.421981,0.000000,1991.848295,8660.409521
16248.422305,-3849.070898,-919.314598,9696.697840
16248.422629,-5847.626942,-3447.429741,11547.212695
16248.422953,-6365.771101,-3524.039291,14211.954086
16248.423277,-7476.080014,-4826.401637,14508.036463
16248.423601,-6957.935855,-5209.449386,13915.871710
16248.423925,-4071.132681,-3524.039291,12953.603985
16248.424249,-2664.741391,-1685.410096,11621.233289
16248.424573,148.041188,-383.047749,10362.883188
16248.424897,4441.235652,2528.115143,7476.080014
16248.425221,6365.771101,4903.011187,6513.812290
16248.425545,5403.503377,4826.401637,5181.441594
16248.425869,6439.791695,5669.106685,3849.070898
16248.426193,6883.915261,5056.230287,4737.318029
16248.426517,3923.091493,2987.772442,5403.503377
16248.426841,666.185348,766.095498,6809.894666
16248.427165,-1480.411884,-536.266849,9252.574275
16248.427489,-3701.029710,-2757.943793,12065.356855
16248.427813,-5329.482782,-4060.306139,13323.706956
16248.428137,-7105.977043,-4826.401637,14656.077652
16248.428461,-7476.080014,-5898.935335,13693.809927
16248.428785,-5181.441594,-4290.134789,12657.521608
16248.429109,-2516.700203,-2374.896044,13249.686362
16248.429433,1110.308913,-1072.533697,11325.150913
16248.429757,3256.906145,1302.362347,8882.471304
16248.430081,5033.400406,4673.182538,6587.832884
16248.430405,8438.347739,6358.592633,5107.421000
16248.430729,10362.883188,6741.640382,3849.070898
16248.431054,8290.306550,6358.592633,3775.050304
16248.431378,4663.297435,5439.278036,5181.441594
16248.431702,2886.803174,3064.381992,7402.059420
16248.432026,0.000000,-536.266849,8142.265362
16248.432350,-3627.009116,-1915.238745,10955.047942
16248.432674,-6661.853478,-2987.772442,13619.789333
16248.432998,-8660.409521,-4366.744339,14211.954086
16248.433322,-8956.491898,-5822.325785,14063.912898
16248.433646,-6143.709319,-4903.011187,12731.542202
16248.433970,-5033.400406,-2374.896044,12731.542202
16248.434294,-3404.947333,-76.609550,10362.883188
16248.434618,1998.556043,1991.848295,9178.553681
16248.434942,6143.709319,4903.011187,7624.121203
16248.435266,6217.729913,6511.811733,5847.626942
16248.435590,6069.688724,7277.907231,3034.844362
16248.435914,7105.977043,6894.859482,3404.947333
16248.436238,5107.421000,5209.449386,4663.297435
16248.436562,1184.329507,3217.601092,6513.812290
16248.436886,-2220.617826,612.876398,8438.347739
16248.437210,-4885.359217,-1532.190996,10584.944971
16248.437534,-6439.791695,-3064.381992,12805.562797
16248.437858,-7476.080014,-4596.572988,14434.015869
16248.438182,-9178.553681,-6052.154434,14878.139434
16248.438506,-7031.956449,-5362.668486,13323.706956
16248.438830,-3330.926739,-2068.457845,12361.439231
16248.439154,-592.164754,-306.438199,11917.315666
16248.439478,2442.679609,1378.971896,9622.677246
16248.439802,5847.626942,4366.744339,6587.832884
16248.440126,7254.018232,6511.811733,4737.318029
16248.440450,7994.224174,6894.859482,3701.029710
16248.440774,7920.203579,6205.373534,3552.988522
16248.441098,5551.544565,5362.668486,4515.256246
16248.441422,1480.411884,2221.676944,5921.647536
16248.441746,-1332.370696,459.657299,7698.141797
16248.442070,-2442.679609,-1762.019645,10658.965565
16248.442394,-5033.400406,-3370.820191,13027.624579
16248.442719,-7254.018232,-5056.230287,14359.995275
16248.443043,-8290.306550,-6281.983084,15396.283594
16248.443367,-5477.523971,-6894.859482,14804.118840
16248.443691,-2516.700203,-4519.963438,13841.851115
16248.444015,-444.123565,-1378.971896,12879.583391
16248.444339,2960.823768,766.095498,11029.068536
16248.444663,7105.977043,3677.258390,7994.224174
16248.444987,8734.430116,5975.544884,5699.585753
16248.445311,8586.388927,6588.421283,3997.112087
16248.445635,8290.306550,6894.859482,2294.638420
16248.445959,5699.585753,6281.983084,3478.967927
16248.446283,3701.029710,4749.792088,5995.668130
16248.446607,222.061783,1685.410096,7920.203579
16248.446931,-5033.400406,-1378.971896,8734.430116
16248.447255,-6069.688724,-2451.505594,10436.903782
16248.447579,-6513.812290,-3753.867940,13471.748144
16248.447903,-9178.553681,-6358.592633,14656.077652
16248.448227,-9326.594869,-6435.202183,13989.892304
16248.448551,-5699.585753,-4213.525239,12879.583391
16248.448875,-4219.173869,-2221.676944,12583.501014
16248.449199,-444.123565,-689.485948,10732.986159
16248.449523,4663.297435,2911.162892,8734.430116
16248.449847,5921.647536,5822.325785,6735.874072
16248.450171,5403.503377,6818.249932,4737.318029
16248.450495,9400.615463,7660.954980,4367.215058
16248.450819,9030.512492,7507.735880,4589.276840
16248.451143,3552.988522,4903.011187,5107.421000
16248.451467,444.123565,2681.334243,7254.018232
16248.451791,-1332.370696,459.657299,9770.718434
16248.452115,-5551.544565,-2911.162892,12583.501014
16248.452439,-7031.956449,-4290.134789,14285.974681
16248.452763,-8734.430116,-5898.935335,14211.954086
16248.453087,-10288.862594,-6665.030833,13471.748144
16248.453411,-6661.853478,-4903.011187,13323.706956
16248.453735,-3034.844362,-2221.676944,13323.706956
16248.454059,-1184.329507,-383.047749,10658.965565
16248.454383,1850.514855,2068.457845,7476.080014
16248.454708,6513.812290,5132.839837,5921.647536
16248.455032,9326.594869,7048.078582,4737.318029
16248.455356,8808.450710,6665.030833,3330.926739
16248.455680,6957.935855,6128.763984,2812.782580
16248.456004,4737.318029,4903.011187,5033.400406
16248.456328,2516.700203,2528.115143,7402.059420
16248.456652,-444.123565,-1072.533697,8956.491898
16248.456976,-4589.276840,-3064.381992,11251.130318
16248.457300,-7105.977043,-5439.278036,12805.562797
16248.457624,-7105.977043,-6281.983084,15248.242405
16248.457948,-6809.894666,-7660.954980,15322.262999
16248.458272,-5625.565159,-6128.763984,14211.954086
16248.458596,-2960.823768,-2451.505594,13101.645173
16248.458920,1258.350101,-383.047749,11917.315666
16248.459244,6365.771101,1915.238745,9400.615463
16248.459568,8290.306550,5439.278036,7105.977043
16248.459892,8734.430116,7431.126331,5403.503377
16248.460216,8956.491898,7660.954980,3478.967927
16248.460540,8956.491898,6358.592633,3478.967927
16248.460864,5551.544565,5439.278036,4441.235652
16248.461188,1480.411884,3983.696590,6069.688724
16248.461512,-2146.597232,995.924147,8216.285956
16248.461836,-4515.256246,-1302.362347,11399.171507
16248.462160,-5625.565159,-3447.429741,13101.645173
16248.462484,-8216.285956,-4903.011187,13545.768739
16248.462808,-10807.006753,-6281.983084,12953.603985
16248.463132,-7550.100608,-5209.449386,12213.398043
16248.463456,-2516.700203,-1915.238745,13101.645173
16248.463780,-1628.453072,-1225.752797,12731.542202
16248.464104,814.226536,1149.143247,9844.739029
16248.464428,4737.318029,4136.915689,7254.018232
16248.464752,7550.100608,6281.983084,5699.585753
16248.465076,7105.977043,6435.202183,4219.173869
16248.465400,7179.997637,6511.811733,3404.947333
16248.465724,4811.338623,5975.544884,4737.318029
16248.466048,2220.617826,4136.915689,6883.915261
16248.466372,74.020594,1225.752797,9178.553681
16248.466697,-3923.091493,-459.657299,10436.903782
16248.467021,-6809.894666,-2911.162892,11473.192101
16248.467345,-7105.977043,-4060.306139,13101.645173
16248.467669,-7994.224174,-5669.106685,14285.974681
16248.467993,-7994.224174,-6511.811733,14359.995275
16248.468317,-5921.647536,-4673.182538,13471.748144
16248.468641,-3997.112087,-1915.238745,11547.212695
16248.468965,666.185348,-229.828649,10436.903782
16248.469289,4959.379811,2834.553343,9104.533087
16248.469613,6957.935855,5132.839837,6217.729913
16248.469937,6439.791695,5592.497135,3034.844362
16248.470261,6513.812290,6205.373534,2812.782580
16248.470585,6217.729913,5745.716235,4071.132681
16248.470909,3997.112087,4903.011187,5625.565159
16248.471233,0.000000,1762.019645,6587.832884
16248.471557,-2590.720797,-612.876398,9326.594869
16248.471881,-3627.009116,-3064.381992,11991.336260
16248.472205,-5477.523971,-4903.011187,13693.809927
16248.472529,-7105.977043,-7201.297681,14582.057057
16248.472853,-7105.977043,-7737.564530,14137.933492
16248.473177,-5699.585753,-5898.935335,14211.954086
16248.473501,-2590.720797,-4136.915689,14285.974681
16248.473825,2368.659014,-1378.971896,12213.398043
16248.474149,5329.482782,1838.629195,9474.636058
16248.474473,5847.626942,4826.401637,6143.709319
16248.474797,9326.594869,6971.469032,4293.194464
16248.475121,11991.336260,8273.831378,3330.926739
16248.475445,8882.471304,7431.126331,3552.988522
16248.475769,3182.885551,5669.106685,3775.050304
16248.476093,1702.473667,3064.381992,6809.894666
16248.476417,-1036.288319,229.828649,9178.553681
16248.476741,-4885.359217,-2221.676944,12213.398043
16248.477065,-7179.997637,-3524.039291,14508.036463
16248.477389,-9474.636058,-6358.592633,14434.015869
16248.477713,-9030.512492,-6971.469032,13471.748144
16248.478037,-5699.585753,-5286.058936,14063.912898
16248.478362,-3627.009116,-2911.162892,13101.645173
16248.478686,-740.205942,0.000000,11103.089130
16248.479010,3552.988522,2987.772442,8734.430116
16248.479334,7624.121203,7124.688131,7476.080014
16248.479658,8512.368333,7967.393179,5181.441594
16248.479982,8364.327145,8044.002729,1850.514855
16248.480306,7846.182985,7737.564530,2664.741391
16248.480630,4441.235652,6588.421283,4589.276840
16248.480954,814.226536,3600.648841,6957.935855
16248.481278,-3330.926739,612.876398,8882.471304
16248.481602,-7624.121203,-2068.457845,10584.944971
16248.481926,-8956.491898,-4596.572988,12879.583391
16248.482250,-9104.533087,-5592.497135,14211.954086
16248.482574,-8512.368333,-7354.516781,14434.015869
16248.482898,-7179.997637,-6128.763984,13989.892304
16248.483222,-4367.215058,-2681.334243,13545.768739
16248.483546,518.144159,0.000000,11695.253884
16248.483870,4293.194464,2451.505594,9178.553681
16248.484194,6587.832884,5592.497135,6883.915261
16248.484518,7698.141797,6588.421283,4959.379811
16248.484842,9178.553681,8197.221829,3997.112087
16248.485166,9178.553681,6358.592633,5107.421000
16248.485490,5107.421000,4519.963438,4515.256246
16248.485814,296.082377,2604.724693,6069.688724
16248.486138,-2442.679609,536.266849,8586.388927
16248.486462,-3923.091493,-1455.581446,11695.253884
16248.486786,-5699.585753,-4366.744339,13471.748144
16248.487110,-7994.224174,-5975.544884,14063.912898
16248.487434,-8068.244768,-6741.640382,13397.727550
16248.487758,-3849.070898,-6052.154434,13101.645173
16248.488082,-2072.576638,-3753.867940,13989.892304
16248.488406,-444.123565,-1532.190996,11991.336260
16248.488730,4145.153275,1455.581446,9770.718434
16248.489054,7402.059420,3677.258390,7550.100608
16248.489378,7772.162391,5209.449386,5477.523971
16248.489702,8290.306550,5975.544884,5255.462188
16248.490026,7550.100608,6128.763984,4219.173869
16248.490351,4145.153275,3983.696590,4589.276840
16248.490675,2146.597232,2451.505594,6291.750507
16248.490999,-444.123565,919.314598,8364.327145
16248.491323,-3849.070898,-1149.143247,9844.739029
16248.491647,-6957.935855,-3140.991542,12435.459826
16248.491971,-7031.956449,-4443.353888,13989.892304
16248.492295,-6513.812290,-4903.011187,13767.830521
16248.492619,-5033.400406,-4673.182538,13323.706956
16248.492943,-3404.947333,-2757.943793,12139.377449
16248.493267,-2072.576638,-1532.190996,11695.253884
16248.493591,1702.473667,842.705048,9548.656652
16248.493915,5847.626942,3217.601092,7994.224174
16248.494239,5181.441594,5515.887586,6883.915261
16248.494563,4219.173869,5592.497135,4737.318029
16248.494887,6143.709319,6818.249932,4145.153275
16248.495211,6587.832884,6358.592633,5255.462188
16248.495535,1480.411884,4060.306139,5921.647536
16248.495859,-2368.659014,1378.971896,7254.018232
16248.496183,-2812.782580,229.828649,8956.491898
16248.496507,-5329.482782,-2987.772442,11917.315666
16248.496831,-7994.224174,-3600.648841,13397.727550
16248.497155,-7031.956449,-4903.011187,13397.727550
16248.497479,-6143.709319,-4443.353888,12583.501014
16248.497803,-3478.967927,-2987.772442,13471.748144
16248.498127,-148.041188,-995.924147,14137.933492
16248.498451,2664.741391,0.000000,11325.150913
16248.498775,4219.173869,2298.286494,7846.182985
16248.499099,6069.688724,5056.230287,6735.874072
16248.499423,8438.347739,6894.859482,6587.832884
16248.499747,7772.162391,6894.859482,5551.544565
16248.500071,4811.338623,5515.887586,3849.070898
16248.500395,1998.556043,3600.648841,4219.173869
16248.500719,0.000000,2068.457845,6069.688724
16248.501043,-2960.823768,76.609550,7624.121203
16248.501367,-6365.771101,-2298.286494,10214.842000
16248.501691,-9252.574275,-4136.915689,11917.315666
16248.502015,-9622.677246,-5286.058936,13397.727550
16248.502340,-7105.977043,-5669.106685,13397.727550
16248.502664,-3775.050304,-4826.401637,12805.562797
16248.502988,-2886.803174,-3140.991542,12435.459826
16248.503312,1110.308913,-459.657299,11547.212695
16248.503636,6587.832884,2604.724693,10658.965565
16248.503960,8882.471304,4213.525239,8882.471304
16248.504284,7846.182985,5286.058936,5847.626942
16248.504608,8290.306550,6128.763984,4441.235652
16248.504932,8142.265362,5822.325785,4885.359217
16248.505256,5773.606348,4136.915689,6439.791695
16248.505580,2072.576638,2451.505594,7105.977043
16248.505904,-2072.576638,689.485948,8216.285956
16248.506228,-4663.297435,-1532.190996,8882.471304
16248.506552,-5773.606348,-3447.429741,11251.130318
16248.506876,-7920.203579,-4903.011187,13175.665768
16248.507200,-8512.368333,-5286.058936,13471.748144
16248.507524,-5921.647536,-4596.572988,12805.562797
16248.507848,-3108.864956,-3600.648841,12731.542202
16248.508172,-962.267725,-995.924147,11103.089130
16248.508496,3404.947333,3064.381992,9104.533087
16248.508820,5403.503377,4826.401637,9104.533087
16248.509144,5699.585753,4903.011187,5995.668130
16248.509468,6439.791695,5439.278036,4663.297435
16248.509792,5847.626942,6741.640382,3923.091493
16248.510116,3256.906145,4903.011187,4441.235652
16248.510440,518.144159,2987.772442,5699.585753
16248.510764,-518.144159,2374.896044,7994.224174
16248.511088,-3478.967927,229.828649,10881.027347
16248.511412,-6143.709319,-2911.162892,11177.109724
16248.511736,-7772.162391,-4443.353888,12509.480420
16248.512060,-7105.977043,-4749.792088,13101.645173
16248.512384,-4663.297435,-4443.353888,14063.912898
16248.512708,-2960.823768,-3524.039291,14211.954086
16248.513032,-1258.350101,-1378.971896,12139.377449
16248.513356,2590.720797,689.485948,10140.821405
16248.513680,5329.482782,3524.039291,8142.265362
16248.514004,6291.750507,4903.011187,6587.832884
16248.514329,6661.853478,5669.106685,4885.359217
16248.514653,5921.647536,5745.716235,3701.029710
16248.514977,3552.988522,4903.011187,4515.256246
16248.515301,1924.535449,4136.915689,5625.565159
16248.515625,-1776.494261,536.266849,7105.977043
16248.515949,-4663.297435,-1225.752797,9474.636058
16248.516273,-6217.729913,-2911.162892,11251.130318
16248.516597,-6439.791695,-4979.620737,12657.521608
16248.516921,-7105.977043,-6281.983084,13841.851115
16248.517245,-5995.668130,-4673.182538,13619.789333
16248.517569,-3923.091493,-3524.039291,14063.912898
16248.517893,-296.082377,-2528.115143,13249.686362
16248.518217,3997.112087,153.219100,11103.089130
16248.518541,6587.832884,3370.820191,9030.512492
16248.518865,5773.606348,4673.182538,6587.832884
16248.519189,7105.977043,5439.278036,4737.318029
16248.519513,9252.574275,6281.983084,5329.482782
16248.519837,6587.832884,6205.373534,5329.482782
16248.520161,1924.535449,3524.039291,5181.441594
16248.520485,370.102971,1762.019645,7105.977043
16248.520809,-1480.411884,-689.485948,9178.553681
16248.521133,-4737.318029,-2374.896044,12065.356855
16248.521457,-6291.750507,-3983.696590,13175.665768
16248.521781,-7105.977043,-4903.011187,12731.542202
16248.522105,-5995.668130,-4903.011187,11621.233289
16248.522429,-2886.803174,-2681.334243,12213.398043
16248.522753,-1184.329507,-1762.019645,12435.459826
16248.523077,-148.041188,0.000000,10214.842000
16248.523401,4441.235652,3447.429741,8586.388927
16248.523725,7402.059420,5362.668486,7994.224174
16248.524049,8142.265362,6281.983084,6439.791695
16248.524374,6957.935855,6281.983084,4885.359217
16248.524698,4663.297435,6281.983084,4737.318029
16248.525022,2072.576638,3830.477490,5847.626942
16248.525346,-148.041188,1608.800546,7920.203579
16248.525670,-3034.844362,383.047749,8882.471304
16248.525994,-6661.853478,-1762.019645,11029.068536
16248.526318,-10140.821405,-4366.744339,12583.501014
16248.526642,-9474.636058,-5286.058936,12731.542202
16248.526966,-6661.853478,-4903.011187,12731.542202
16248.527290,-5699.585753,-4060.306139,12953.603985
16248.527614,-3849.070898,-2145.067394,11547.212695
16248.527938,888.247130,306.438199,10066.800811
16248.528262,4885.359217,3140.991542,9696.697840
16248.528586,5329.482782,4979.620737,7254.018232
16248.528910,7105.977043,7048.078582,4959.379811
16248.529234,7846.182985,6818.249932,3775.050304
16248.529559,7179.997637,5515.887586,4663.297435
16248.529883,3701.029710,4366.744339,5847.626942
16248.530207,-444.123565,2528.115143,6809.894666
16248.530531,-3330.926739,-383.047749,8660.409521
16248.530855,-4737.318029,-2298.286494,10510.924376
16248.531179,-5921.647536,-3983.696590,12879.583391
16248.531503,-9400.615463,-6358.592633,13619.789333
16248.531827,-8068.244768,-6971.469032,13175.665768
16248.532151,-4737.318029,-4903.011187,12953.603985
16248.532475,-2368.659014,-3140.991542,12805.562797
16248.532799,444.123565,-1072.533697,11251.130318
16248.533123,4589.276840,2374.896044,8956.491898
16248.533447,7476.080014,5745.716235,7179.997637
16248.533771,8216.285956,5669.106685,6217.729913
16248.534095,8586.388927,5439.278036,4737.318029
16248.534419,7105.977043,5209.449386,3997.112087
16248.534743,4367.215058,4060.306139,5477.523971
16248.535068,2220.617826,2451.505594,8364.327145
16248.535392,-518.144159,306.438199,10732.986159
16248.535716,-4293.194464,-2604.724693,11399.171507
16248.536040,-6069.688724,-4443.353888,12879.583391
16248.536364,-6883.915261,-5286.058936,13693.809927
16248.536688,-5625.565159,-5592.497135,13619.789333
16248.537012,-4071.132681,-3983.696590,13175.665768
16248.537336,-2072.576638,-1915.238745,11843.295072
16248.537660,370.102971,459.657299,9474.636058
16248.537984,3701.029710,2911.162892,7920.203579
16248.538308,6217.729913,5745.716235,6661.853478
16248.538632,6217.729913,5898.935335,4959.379811
16248.538956,5181.441594,6435.202183,3849.070898
16248.539280,4959.379811,6588.421283,4441.235652
16248.539604,4145.153275,5209.449386,5403.503377
16248.539928,-222.061783,2528.115143,6365.771101
16248.540253,-3182.885551,536.266849,7920.203579
16248.540577,-4515.256246,-1225.752797,11103.089130
16248.540901,-5477.523971,-2987.772442,13693.809927
16248.541225,-7402.059420,-4673.182538,15026.180623
16248.541549,-8364.327145,-5362.668486,13841.851115
16248.541873,-5995.668130,-4060.306139,12139.377449
16248.542197,-3701.029710,-1915.238745,12287.418637
16248.542521,0.000000,306.438199,11103.089130
16248.542845,3478.967927,3217.601092,8734.430116
16248.543169,4441.235652,4826.401637,6957.935855
16248.543493,4589.276840,6052.154434,5329.482782
16248.543817,7105.977043,6435.202183,5255.462188
16248.544141,7254.018232,6358.592633,4959.379811
16248.544465,2812.782580,4749.792088,5255.462188
16248.544789,296.082377,2528.115143,7105.977043
16248.545113,-962.267725,612.876398,8438.347739
16248.545438,-3330.926739,-2145.067394,10288.862594
16248.545762,-4515.256246,-2911.162892,12657.521608
16248.546086,-6957.935855,-4290.134789,13767.830521
16248.546410,-7179.997637,-5898.935335,13249.686362
16248.546734,-4219.173869,-5439.278036,13027.624579
16248.547058,-1554.432478,-2757.943793,12657.521608
16248.547382,-444.123565,-2145.067394,11103.089130
16248.547706,2294.638420,1149.143247,7772.162391
16248.548030,6735.874072,3447.429741,7846.182985
16248.548354,8142.265362,5898.935335,7476.080014
16248.548678,6735.874072,5209.449386,5033.400406
16248.549002,5921.647536,4213.525239,3478.967927
16248.549326,4737.318029,3600.648841,5107.421000
16248.549650,2146.597232,2528.115143,7179.997637
16248.549974,-1184.329507,-612.876398,9696.697840
16248.550298,-3997.112087,-2834.553343,11029.068536
16248.550622,-5847.626942,-3370.820191,12879.583391
16248.550947,-6365.771101,-3983.696590,14285.974681
16248.551271,-6217.729913,-6435.202183,14285.974681
16248.551595,-5477.523971,-6281.983084,13101.645173
16248.551919,-3108.864956,-2987.772442,12583.501014
16248.552243,74.020594,-459.657299,12435.459826
16248.552567,3552.988522,1378.971896,10436.903782
16248.552891,5921.647536,4136.915689,8364.327145
16248.553215,7105.977043,7201.297681,5255.462188
16248.553539,8438.347739,7507.735880,3701.029710
16248.553863,8512.368333,7124.688131,3034.844362
16248.554187,5329.482782,6511.811733,3108.864956
16248.554511,1110.308913,4826.401637,4145.153275
16248.554835,-3330.926739,1532.190996,6217.729913
16248.555159,-5107.421000,-612.876398,8364.327145
16248.555483,-6291.750507,-2068.457845,11843.295072
16248.555807,-8512.368333,-3447.429741,13545.768739
16248.556132,-9770.718434,-5362.668486,14804.118840
16248.556456,-6587.832884,-5515.887586,14211.954086
16248.556780,-3478.967927,-4290.134789,12509.480420
16248.557104,-2368.659014,-2681.334243,11399.171507
16248.557428,814.226536,1378.971896,10288.862594
16248.557752,4811.338623,4060.306139,9844.739029
16248.558076,6809.894666,5745.716235,8734.430116
16248.558400,7179.997637,6358.592633,6439.791695
16248.558724,7476.080014,6052.154434,3330.926739
16248.559048,4441.235652,5286.058936,3256.906145
16248.559372,2294.638420,4826.401637,5181.441594
16248.559696,962.267725,3140.991542,8364.327145
16248.560020,-3330.926739,-459.657299,9770.718434
16248.560344,-5329.482782,-2451.505594,11029.068536
16248.560668,-5477.523971,-3447.429741,12731.542202
16248.560992,-5181.441594,-4673.182538,13397.727550
16248.561316,-6069.688724,-5898.935335,14063.912898
16248.561641,-3627.009116,-4673.182538,13101.645173
16248.561965,-1258.350101,-2834.553343,11695.253884
16248.562289,1110.308913,-1072.533697,10658.965565
16248.562613,4811.338623,1685.410096,8882.471304
16248.562937,6365.771101,4366.744339,7179.997637
16248.563261,5477.523971,4903.011187,5181.441594
16248.563585,6291.750507,5745.716235,3849.070898
16248.563909,7105.977043,5898.935335,4515.256246
16248.564233,3108.864956,4366.744339,4145.153275
16248.564557,-1924.535449,1685.410096,5403.503377
16248.564881,-3330.926739,-383.047749,7550.100608
16248.565205,-4885.359217,-2681.334243,11251.130318
16248.565529,-7031.956449,-4826.401637,14211.954086
16248.565853,-7846.182985,-6894.859482,15396.283594
16248.566177,-7402.059420,-6971.469032,13397.727550
16248.566501,-5551.544565,-5822.325785,13767.830521
16248.566826,-2368.659014,-3830.477490,14804.118840
16248.567150,1998.556043,-919.314598,11917.315666
16248.567474,4811.338623,1991.848295,10214.842000
16248.567798,6365.771101,5592.497135,7994.224174
16248.568122,9474.636058,7124.688131,6957.935855
16248.568446,11695.253884,8273.831378,4663.297435
16248.568770,9104.533087,8580.269578,3552.988522
16248.569094,4737.318029,6588.421283,3330.926739
16248.569418,2072.576638,4826.401637,4663.297435
16248.569742,-518.144159,2374.896044,7328.038826
16248.570066,-5847.626942,-919.314598,9252.574275
16248.570390,-9474.636058,-4060.306139,11843.295072
16248.570714,-10732.986159,-5592.497135,13101.645173
16248.571038,-10362.883188,-6818.249932,13545.768739
16248.571362,-8290.306550,-7048.078582,14063.912898
16248.571686,-6883.915261,-5056.230287,13323.706956
16248.572010,-3701.029710,-1762.019645,11399.171507
16248.572335,2738.761985,1302.362347,10436.903782
16248.572659,7328.038826,4826.401637,9252.574275
16248.572983,8290.306550,7277.907231,6513.812290
16248.573307,8142.265362,8427.050478,3330.926739
16248.573631,9548.656652,8273.831378,2812.782580
16248.573955,7846.182985,6894.859482,3701.029710
16248.574279,3552.988522,4903.011187,5181.441594
16248.574603,-740.205942,2068.457845,7179.997637
16248.574927,-4219.173869,-1378.971896,9548.656652
16248.575251,-6217.729913,-3447.429741,12361.439231
16248.575575,-7476.080014,-4979.620737,15544.324782
16248.575899,-9400.615463,-7048.078582,15544.324782
16248.576223,-8068.244768,-6894.859482,13101.645173
16248.576547,-2960.823768,-4290.134789,13027.624579
16248.576871,-592.164754,-1532.190996,13323.706956
16248.577195,2294.638420,689.485948,11177.109724
16248.577520,5995.668130,3064.381992,8216.285956
16248.577844,7698.141797,5669.106685,5773.606348
16248.578168,8734.430116,7124.688131,4737.318029
16248.578492,8882.471304,7048.078582,3182.885551
16248.578816,5551.544565,5286.058936,2812.782580
16248.579140,1554.432478,3677.258390,4145.153275
16248.579464,-740.205942,2374.896044,6957.935855
16248.579788,-2368.659014,-229.828649,8734.430116
16248.580112,-6143.709319,-3447.429741,10807.006753
16248.580436,-8512.368333,-5286.058936,13027.624579
16248.580760,-7920.203579,-5286.058936,15248.242405
16248.581084,-6069.688724,-7354.516781,15100.201217
16248.581408,-3923.091493,-5898.935335,14434.015869
16248.581732,-2146.597232,-2528.115143,13323.706956
16248.582056,1924.535449,0.000000,11103.089130
16248.582380,6587.832884,2145.067394,10362.883188
16248.582705,8068.244768,4519.963438,7698.141797
16248.583029,7402.059420,6358.592633,5921.647536
16248.583353,7624.121203,7354.516781,4145.153275
16248.583677,7179.997637,6741.640382,3182.885551
16248.584001,5403.503377,6128.763984,4515.256246
16248.584325,1258.350101,4673.182538,5773.606348
16248.584649,-2960.823768,995.924147,6809.894666
16248.584973,-5551.544565,-1455.581446,8808.450710
16248.585297,-7772.162391,-3524.039291,11917.315666
16248.585621,-9252.574275,-5132.839837,14063.912898
16248.585945,-9252.574275,-6358.592633,14952.160028
16248.586269,-7698.141797,-6588.421283,13175.665768
16248.586593,-6217.729913,-4903.011187,13471.748144
16248.586917,-1258.350101,-1915.238745,12361.439231
16248.587241,4737.318029,1991.848295,9770.718434
16248.587565,5255.462188,3907.087040,7920.203579
16248.587889,5625.565159,5439.278036,4811.338623
16248.588214,9918.759623,8503.660028,4367.215058
16248.588538,10288.862594,8503.660028,3923.091493
16248.588862,4071.132681,5822.325785,3330.926739
16248.589186,740.205942,3907.087040,4811.338623
16248.589510,0.000000,1991.848295,7772.162391
16248.589834,-3404.947333,-1532.190996,10510.924376
16248.590158,-7698.141797,-4290.134789,13915.871710
16248.590482,-9474.636058,-5515.887586,15026.180623
16248.590806,-9770.718434,-7354.516781,13989.892304
16248.591130,-7031.956449,-7507.735880,14063.912898
16248.591454,-3552.988522,-4673.182538,14137.933492
16248.591778,-1406.391290,-689.485948,12805.562797
16248.592102,2812.782580,842.705048,9548.656652
16248.592426,6809.894666,4136.915689,7328.038826
16248.592750,9104.533087,6435.202183,5699.585753
16248.593074,9400.615463,7814.174080,3404.947333
16248.593399,8068.244768,7431.126331,3478.967927
16248.593723,5551.544565,6588.421283,4885.359217
16248.594047,2442.679609,3907.087040,6143.709319
16248.594371,-1036.288319,536.266849,7624.121203
16248.594695,-4737.318029,-1991.848295,8808.450710
16248.595019,-7994.224174,-3907.087040,11917.315666
16248.595343,-8586.388927,-5439.278036,14359.995275
16248.595667,-8364.327145,-7814.174080,15248.242405
16248.595991,-7624.121203,-8044.002729,14359.995275
16248.596315,-5181.441594,-4443.353888,12657.521608
16248.596639,-1036.288319,-2068.457845,11621.233289
16248.596963,3627.009116,459.657299,9770.718434
16248.597287,7031.956449,4136.915689,9030.512492
16248.597611,7476.080014,6511.811733,6809.894666
16248.597935,9178.553681,7124.688131,4515.256246
16248.598259,9992.780217,7660.954980,4293.194464
16248.598583,6957.935855,7124.688131,4885.359217
16248.598908,3182.885551,5286.058936,5181.441594
16248.599232,74.020594,2681.334243,6661.853478
16248.599556,-2738.761985,689.485948,9252.574275
16248.599880,-4367.215058,-1225.752797,11473.192101
16248.600204,-7550.100608,-4290.134789,13767.830521
16248.600528,-9474.636058,-6588.421283,13545.768739
16248.600852,-7105.977043,-5439.278036,13101.645173
16248.601176,-3627.009116,-3753.867940,13989.892304
16248.601500,-3182.885551,-1915.238745,12805.562797
16248.601824,148.041188,536.266849,9844.739029
16248.602148,3923.091493,3600.648841,7105.977043
16248.602472,5329.482782,4826.401637,5033.400406
16248.602796,5773.606348,6281.983084,4367.215058
16248.603120,5921.647536,7737.564530,5033.400406
16248.603444,3256.906145,5975.544884,3923.091493
16248.603768,666.185348,2987.772442,4737.318029
16248.604093,592.164754,2757.943793,7179.997637
16248.604417,-2072.576638,1455.581446,9622.677246
16248.604741,-5995.668130,-2374.896044,10955.047942
16248.605065,-6883.915261,-4826.401637,13027.624579
16248.605389,-5995.668130,-5592.497135,15026.180623
16248.605713,-4145.153275,-5515.887586,14878.139434
16248.606037,-2812.782580,-5209.449386,14434.015869
16248.606361,-592.164754,-2987.772442,12731.542202
16248.606685,3108.864956,76.609550,11843.295072
16248.607009,7254.018232,2604.724693,9770.718434
16248.607333,8882.471304,4596.572988,7254.018232
16248.607657,7105.977043,5745.716235,4663.297435
16248.607981,6513.812290,7201.297681,3404.947333
16248.608305,6217.729913,6588.421283,4589.276840
16248.608629,2812.782580,2528.115143,5033.400406
16248.608953,-3034.844362,919.314598,5625.565159
16248.609278,-5995.668130,0.000000,7846.182985
16248.609602,-8290.306550,-2451.505594,11103.089130
16248.609926,-9918.759623,-6818.249932,13397.727550
16248.610250,-9844.739029,-7277.907231,14211.954086
16248.610574,-9104.533087,-6665.030833,13101.645173
16248.610898,-7402.059420,-6128.763984,12731.542202
16248.611222,-3256.906145,-5209.449386,13249.686362
16248.611546,3034.844362,-153.219100,11621.233289
16248.611870,7328.038826,3524.039291,9622.677246
16248.612194,8882.471304,5898.935335,7772.162391
16248.612518,11251.130318,7660.954980,5403.503377
16248.612842,14804.118840,9499.584175,5551.544565
16248.613166,11695.253884,8427.050478,5625.565159
16248.613490,5699.585753,5975.544884,4959.379811
16248.613814,3552.988522,4443.353888,6365.771101
16248.614138,518.144159,2451.505594,7846.182985
16248.614462,-4367.215058,-1072.533697,10436.903782
16248.614787,-7698.141797,-2911.162892,12583.501014
16248.615111,-10510.924376,-5056.230287,13397.727550
16248.615435,-10140.821405,-6665.030833,12583.501014
16248.615759,-7402.059420,-5669.106685,12583.501014
16248.616083,-5329.482782,-3447.429741,12139.377449
16248.616407,-3330.926739,-1072.533697,9622.677246
16248.616731,962.267725,1302.362347,8068.244768
16248.617055,6217.729913,5362.668486,7328.038826
16248.617379,7624.121203,6205.373534,6217.729913
16248.617703,7328.038826,7124.688131,4959.379811
16248.618027,7624.121203,7124.688131,5107.421000
16248.618351,5403.503377,5132.839837,5551.544565
16248.618675,1776.494261,3524.039291,7105.977043
16248.618999,-1480.411884,1838.629195,8660.409521
16248.619323,-4293.194464,0.000000,9474.636058
16248.619647,-5773.606348,-3447.429741,11177.109724
16248.619972,-6735.874072,-5592.497135,13693.809927
16248.620296,-7476.080014,-5669.106685,14285.974681
16248.620620,-7105.977043,-6281.983084,13767.830521
16248.620944,-3997.112087,-4519.963438,13027.624579
16248.621268,-814.226536,-1532.190996,12657.521608
16248.621592,2368.659014,1302.362347,10955.047942
16248.621916,4219.173869,3370.820191,8364.327145
16248.622240,6439.791695,5209.449386,5847.626942
16248.622564,7920.203579,6741.640382,3923.091493
16248.622889,7105.977043,6741.640382,4589.276840
16248.623213,2886.803174,4749.792088,3997.112087
16248.623537,-444.123565,3217.601092,4737.318029
16248.623861,-3256.906145,1455.581446,6883.915261
16248.624185,-4663.297435,-1225.752797,9770.718434
16248.624509,-7105.977043,-4136.915689,11473.192101
16248.624833,-9104.533087,-5209.449386,12583.501014
16248.625157,-8438.347739,-6281.983084,13545.768739
16248.625482,-4885.359217,-6818.249932,14211.954086
16248.625806,-2294.638420,-5056.230287,14285.974681
16248.626130,0.000000,-1991.848295,12731.542202
16248.626454,4071.132681,612.876398,10436.903782
16248.626778,8216.285956,3064.381992,8364.327145
16248.627102,9696.697840,4903.011187,6883.915261
16248.627426,9696.697840,6358.592633,5625.565159
16248.627750,8142.265362,6588.421283,4589.276840
16248.628074,5181.441594,5209.449386,5329.482782
16248.628399,3478.967927,4290.134789,6957.935855
16248.628723,518.144159,2681.334243,7994.224174
16248.629047,-4515.256246,0.000000,8438.347739
16248.629371,-5847.626942,-2681.334243,10140.821405
16248.629695,-5847.626942,-3447.429741,12583.501014
16248.630019,-6365.771101,-4979.620737,14285.974681
16248.630343,-5477.523971,-5592.497135,14211.954086
16248.630667,-3256.906145,-3753.867940,12805.562797
16248.630992,-2368.659014,-1378.971896,11769.274478
16248.631316,1776.494261,153.219100,9548.656652
16248.631640,6143.709319,4366.744339,7994.224174
16248.631964,6809.894666,5515.887586,6809.894666
16248.632288,5403.503377,6818.249932,4737.318029
16248.632612,7402.059420,8044.002729,4293.194464
16248.632936,7550.100608,7354.516781,4959.379811
16248.633260,1702.473667,5515.887586,5329.482782
16248.633584,-2442.679609,2911.162892,6809.894666
16248.633909,-3182.885551,1302.362347,8438.347739
16248.634233,-5921.647536,-1149.143247,10066.800811
16248.634557,-8068.244768,-3677.258390,12287.418637
16248.634881,-8438.347739,-4749.792088,13175.665768
16248.635205,-8512.368333,-5822.325785,12805.562797
16248.635529,-5329.482782,-5592.497135,13767.830521
16248.635853,-1998.556043,-2987.772442,14878.139434
16248.636177,370.102971,-1455.581446,11473.192101
16248.636502,2960.823768,1838.629195,9178.553681
16248.636826,6439.791695,4290.134789,7254.018232
16248.637150,9474.636058,7124.688131,5995.668130
16248.637474,9548.656652,7354.516781,5107.421000
16248.637798,6809.894666,5975.544884,3478.967927
16248.638122,3256.906145,4366.744339,5847.626942
16248.638446,222.061783,4136.915689,7698.141797
16248.638770,-2664.741391,306.438199,9178.553681
16248.639094,-6513.812290,-3524.039291,9178.553681
16248.639419,-8882.471304,-4366.744339,10214.842000
16248.639743,-9400.615463,-5209.449386,12583.501014
16248.640067,-8142.265362,-7354.516781,13101.645173
16248.640391,-5255.462188,-7660.954980,13175.665768
16248.640715,-3701.029710,-5362.668486,13767.830521
16248.641039,-148.041188,-1915.238745,11621.233289
16248.641363,5921.647536,842.705048,10955.047942
16248.641687,9326.594869,4290.134789,9178.553681
16248.642012,9104.533087,5975.544884,5403.503377
16248.642336,9178.553681,6511.811733,3552.988522
16248.642660,9326.594869,6665.030833,3701.029710
16248.642984,6809.894666,5132.839837,5477.523971
16248.643308,1110.308913,2681.334243,6883.915261
16248.643632,-3552.988522,-383.047749,8438.347739
16248.643956,-6069.688724,-2374.896044,10436.903782
16248.644280,-6439.791695,-4443.353888,11843.295072
16248.644604,-8438.347739,-6435.202183,12805.562797
16248.644929,-8734.430116,-7201.297681,12953.603985
16248.645253,-4589.276840,-5898.935335,12805.562797
16248.645577,-592.164754,-3064.381992,14508.036463
16248.645901,1332.370696,-995.924147,13693.809927
16248.646225,4737.318029,2374.896044,10436.903782
16248.646549,8142.265362,5822.325785,7846.182985
16248.646873,9030.512492,7201.297681,5773.606348
16248.647197,9622.677246,7890.783629,4441.235652
16248.647522,8586.388927,8350.440928,3701.029710
16248.647846,3478.967927,6358.592633,3775.050304
16248.648170,-1184.329507,3524.039291,5995.668130
16248.648494,-3627.009116,1302.362347,8734.430116
16248.648818,-6587.832884,-1225.752797,9696.697840
16248.649142,-10436.903782,-3677.258390,10584.944971
16248.649466,-11399.171507,-4979.620737,11695.253884
16248.649790,-8586.388927,-5515.887586,12287.418637
16248.650115,-5847.626942,-4749.792088,12879.583391
16248.650439,-3330.926739,-2834.553343,12657.521608
16248.650763,-148.041188,-306.438199,11843.295072
16248.651087,3923.091493,2374.896044,10658.965565
16248.651411,7402.059420,4136.915689,8364.327145
16248.651735,7846.182985,5975.544884,5921.647536
16248.652059,7179.997637,6665.030833,4293.194464
16248.652383,6439.791695,6511.811733,3775.050304
16248.652707,5033.400406,4826.401637,5921.647536
16248.653032,1184.329507,2757.943793,7994.224174
16248.653356,-3775.050304,-229.828649,8660.409521
16248.653680,-6661.853478,-2757.943793,9770.718434
16248.654004,-7328.038826,-3600.648841,11843.295072
16248.654328,-9178.553681,-5132.839837,13693.809927
16248.654652,-8290.306550,-6435.202183,14285.974681
16248.654976,-6069.688724,-6052.154434,13323.706956
16248.655300,-3997.112087,-4366.744339,13175.665768
16248.655625,-814.226536,-2374.896044,12879.583391
16248.655949,4441.235652,1072.533697,11251.130318
16248.656273,7402.059420,3677.258390,9030.512492
16248.656597,6365.771101,5362.668486,6069.688724
16248.656921,7402.059420,6818.249932,3923.091493
16248.657245,9918.759623,7201.297681,3108.864956
16248.657569,7105.977043,6511.811733,3256.906145
16248.657893,1184.329507,3677.258390,4737.318029
16248.658217,-592.164754,1915.238745,7772.162391
16248.658542,-1998.556043,-689.485948,9622.677246
16248.658866,-4589.276840,-3753.867940,10807.006753
16248.659190,-6217.729913,-4136.915689,11917.315666
16248.659514,-7254.018232,-4213.525239,12953.603985
16248.659838,-5033.400406,-5209.449386,11769.274478
16248.660162,0.000000,-3447.429741,13619.789333
16248.660486,2072.576638,-1608.800546,13619.789333
16248.660810,2072.576638,766.095498,11029.068536
16248.661135,5995.668130,3524.039291,9844.739029
16248.661459,8512.368333,5362.668486,8660.409521
16248.661783,7550.100608,5745.716235,6365.771101
16248.662107,5995.668130,5822.325785,4145.153275
16248.662431,4737.318029,5515.887586,4145.153275
16248.662755,666.185348,3217.601092,6365.771101
16248.663079,-3627.009116,536.266849,8364.327145
16248.663403,-6735.874072,-1762.019645,9844.739029
16248.663727,-9400.615463,-3677.258390,11177.109724
16248.664052,-9474.636058,-4673.182538,12731.542202
16248.664376,-8956.491898,-4213.525239,12435.459826
16248.664700,-6513.812290,-4673.182538,11991.336260
16248.665024,-3478.967927,-3140.991542,11917.315666
16248.665348,-296.082377,-229.828649,11547.212695
16248.665672,4219.173869,2298.286494,10658.965565
16248.665996,8142.265362,4443.353888,9770.718434
16248.666320,7994.224174,5592.497135,7846.182985
16248.666645,6661.853478,6665.030833,5625.565159
16248.666969,7105.977043,6205.373534,3478.967927
16248.667293,6069.688724,5592.497135,3627.009116
16248.667617,2294.638420,4136.915689,4589.276840
16248.667941,-3775.050304,1685.410096,6957.935855
16248.668265,-7031.956449,-995.924147,8438.347739
16248.668589,-7624.121203,-3217.601092,11399.171507
16248.668913,-8808.450710,-5056.230287,12805.562797
16248.669237,-11547.212695,-6281.983084,12213.398043
16248.669562,-9770.718434,-6358.592633,12435.459826
16248.669886,-3256.906145,-4136.915689,12583.501014
16248.670210,148.041188,-1762.019645,13471.748144
16248.670534,1924.535449,-459.657299,11473.192101
16248.670858,5699.585753,2451.505594,9770.718434
16248.671182,9252.574275,4290.134789,8142.265362
16248.671506,9844.739029,5745.716235,7846.182985
16248.671830,9548.656652,5822.325785,6365.771101
16248.672155,6957.935855,5515.887586,4071.132681
16248.672479,3997.112087,4290.134789,4145.153275
16248.672803,1776.494261,3064.381992,6439.791695
16248.673127,-1702.473667,459.657299,9104.533087
16248.673451,-6143.709319,-2145.067394,10955.047942
16248.673775,-8142.265362,-4136.915689,11843.295072
16248.674099,-6735.874072,-4903.011187,12953.603985
16248.674423,-5921.647536,-5669.106685,13397.727550
16248.674747,-3775.050304,-4519.963438,12879.583391
16248.675072,-962.267725,-1455.581446,12287.418637
16248.675396,2812.782580,-306.438199,10807.006753
16248.675720,6809.894666,2145.067394,10214.842000
16248.676044,9548.656652,5132.839837,8734.430116
16248.676368,8734.430116,6894.859482,6513.812290
16248.676692,6069.688724,6511.811733,5403.503377
16248.677016,6587.832884,6971.469032,4145.153275
16248.677340,5403.503377,5898.935335,4885.359217
16248.677665,444.123565,3217.601092,4219.173869
16248.677989,-5033.400406,1225.752797,6661.853478
16248.678313,-7920.203579,-1991.848295,10214.842000
16248.678637,-9918.759623,-4060.306139,12805.562797
16248.678961,-10955.047942,-5515.887586,14359.995275
16248.679285,-10510.924376,-6128.763984,13101.645173
16248.679609,-8882.471304,-5362.668486,11399.171507
16248.679933,-4663.297435,-3217.601092,12435.459826
16248.680257,296.082377,0.000000,11843.295072
16248.680582,5033.400406,1608.800546,10436.903782
16248.680906,6957.935855,4903.011187,8882.471304
16248.681230,8216.285956,6971.469032,6513.812290
16248.681554,11177.109724,8197.221829,6291.750507
16248.681878,9548.656652,7431.126331,4811.338623
16248.682202,4737.318029,6128.763984,3701.029710
16248.682526,1850.514855,3907.087040,4589.276840
16248.682850,-962.267725,1072.533697,6513.812290
16248.683175,-5403.503377,-2221.676944,9104.533087
16248.683499,-8808.450710,-4519.963438,12731.542202
16248.683823,-11325.150913,-5822.325785,13915.871710
16248.684147,-11251.130318,-8120.612279,13175.665768
16248.684471,-7402.059420,-7737.564530,12139.377449
16248.684795,-4367.215058,-5286.058936,13175.665768
16248.685119,-1628.453072,-1762.019645,12657.521608
16248.685443,2960.823768,919.314598,10658.965565
16248.685767,7994.224174,2757.943793,8956.491898
16248.686092,10510.924376,5669.106685,8068.244768
16248.686416,10584.944971,7431.126331,5995.668130
16248.686740,9918.759623,7201.297681,4885.359217
16248.687064,8068.244768,5439.278036,5255.462188
16248.687388,3923.091493,3830.477490,5773.606348
16248.687712,-740.205942,1991.848295,6883.915261
16248.688036,-4811.338623,-1608.800546,8290.306550
16248.688360,-8216.285956,-4366.744339,10436.903782
16248.688685,-9178.553681,-5209.449386,13101.645173
16248.689009,-9474.636058,-6128.763984,14137.933492
16248.689333,-8734.430116,-7507.735880,12361.439231
16248.689657,-4737.318029,-5209.449386,11769.274478
16248.689981,666.185348,-995.924147,12435.459826
16248.690305,4071.132681,2298.286494,11473.192101
16248.690629,7624.121203,4826.401637,9918.759623
16248.690953,10140.821405,6741.640382,7031.956449
16248.691277,10584.944971,8656.879127,5107.421000
16248.691602,10436.903782,8044.002729,4959.379811
16248.691926,8142.265362,7431.126331,4811.338623
16248.692250,2072.576638,5209.449386,4885.359217
16248.692574,-2442.679609,2681.334243,6291.750507
16248.692898,-4663.297435,0.000000,8216.285956
16248.693222,-7920.203579,-3064.381992,9474.636058
16248.693546,-11103.089130,-5286.058936,11029.068536
16248.693870,-13693.809927,-6052.154434,12657.521608
16248.694195,-10510.924376,-6205.373534,12805.562797
16248.694519,-6291.750507,-5898.935335,13915.871710
16248.694843,-3701.029710,-2528.115143,13175.665768
16248.695167,222.061783,919.314598,11325.150913
16248.695491,5403.503377,2987.772442,10066.800811
16248.695815,8512.368333,4979.620737,8512.368333
16248.696139,10510.924376,7507.735880,7550.100608
16248.696463,10362.883188,8580.269578,5921.647536
16248.696788,7402.059420,7048.078582,4885.359217
16248.697112,5181.441594,4749.792088,5847.626942
16248.697436,2812.782580,3907.087040,8586.388927
16248.697760,-2368.659014,842.705048,8438.347739
16248.698084,-6809.894666,-3294.210641,9326.594869
16248.698408,-9178.553681,-4979.620737,10955.047942
16248.698732,-8660.409521,-5439.278036,11177.109724
16248.699056,-7402.059420,-5822.325785,11769.274478
16248.699380,-6365.771101,-5745.716235,12805.562797
16248.699705,-4663.297435,-3907.087040,12509.480420
16248.700029,-888.247130,-1685.410096,11843.295072
16248.700353,5625.565159,842.705048,9548.656652
16248.700677,8660.409521,3600.648841,7698.141797
16248.701001,7105.977043,6281.983084,5847.626942
16248.701325,8438.347739,7431.126331,4737.318029
16248.701649,10732.986159,6971.469032,5921.647536
16248.701973,6513.812290,4366.744339,6513.812290
16248.702298,222.061783,2681.334243,6513.812290
16248.702622,-1998.556043,459.657299,8512.368333
16248.702946,-4737.318029,-2834.553343,10362.883188
16248.703270,-8142.265362,-5515.887586,12805.562797
16248.703594,-10436.903782,-6588.421283,13619.789333
16248.703918,-10140.821405,-7354.516781,12287.418637
16248.704242,-9400.615463,-7354.516781,10658.965565
16248.704566,-5699.585753,-5515.887586,13323.706956
16248.704890,-444.123565,-2145.067394,13471.748144
16248.705215,3627.009116,1072.533697,11769.274478
16248.705539,7254.018232,4366.744339,8956.491898
16248.705863,11029.068536,7890.783629,6957.935855
16248.706187,13175.665768,9652.803275,5255.462188
16248.706511,12953.603985,10035.851024,3330.926739
16248.706835,10214.842000,8044.002729,3849.070898
16248.707159,6291.750507,6358.592633,5403.503377
16248.707483,1998.556043,3524.039291,7550.100608
16248.707808,-2516.700203,153.219100,9474.636058
16248.708132,-8290.306550,-3830.477490,11177.109724
16248.708456,-11843.295072,-5669.106685,12065.356855
16248.708780,-11547.212695,-6435.202183,12361.439231
16248.709104,-9474.636058,-7201.297681,11917.315666
16248.709428,-8364.327145,-5669.106685,11769.274478
16248.709752,-6439.791695,-2221.676944,11103.089130
16248.710076,-1036.288319,612.876398,10066.800811
16248.710400,3849.070898,3600.648841,9400.615463
16248.710725,6069.688724,5515.887586,7179.997637
16248.711049,6735.874072,7890.783629,5551.544565
16248.711373,7920.203579,7354.516781,5107.421000
16248.711697,7476.080014,6511.811733,6069.688724
16248.712021,4367.215058,4903.011187,6883.915261
16248.712345,666.185348,2604.724693,8364.327145
16248.712669,-1480.411884,153.219100,9474.636058
16248.712993,-3997.112087,-2834.553343,11621.233289
16248.713318,-5403.503377,-4290.134789,14285.974681
16248.713642,-7105.977043,-5745.716235,14508.036463
16248.713966,-6957.935855,-6588.421283,12435.459826
16248.714290,-3182.885551,-4826.401637,11769.274478
16248.714614,-370.102971,-1915.238745,12065.356855
16248.714938,1332.370696,612.876398,11103.089130
16248.715262,3701.029710,2528.115143,9326.594869
16248.715586,5107.421000,4290.134789,6143.709319
16248.715910,5921.647536,5286.058936,3775.050304
16248.716235,6291.750507,5822.325785,3256.906145
16248.716559,4071.132681,4596.572988,4145.153275
16248.716883,-814.226536,2834.553343,5403.503377
16248.717207,-2664.741391,1072.533697,7476.080014
16248.717531,-2516.700203,-766.095498,9992.780217
16248.717855,-6439.791695,-3830.477490,10807.006753
16248.718179,-8142.265362,-5286.058936,11843.295072
16248.718503,-6957.935855,-5898.935335,13323.706956
16248.718828,-4441.235652,-6128.763984,14063.912898
16248.719152,-2516.700203,-4903.011187,14285.974681
16248.719476,-814.226536,-2068.457845,12657.521608
16248.719800,2664.741391,0.000000,10140.821405
16248.720124,6883.915261,2298.286494,10288.862594
16248.720448,8512.368333,4596.572988,9178.553681
16248.720772,8586.388927,6052.154434,7550.100608
16248.721096,7105.977043,5669.106685,5107.421000
16248.721420,5921.647536,5592.497135,4441.235652
16248.721745,4737.318029,5056.230287,5995.668130
16248.722069,1036.288319,3064.381992,7179.997637
16248.722393,-3552.988522,-306.438199,8142.265362
16248.722717,-6217.729913,-1532.190996,9548.656652
16248.723041,-7031.956449,-3140.991542,11843.295072
16248.723365,-7179.997637,-5132.839837,12583.501014
16248.723689,-6365.771101,-4903.011187,12287.418637
16248.724013,-4959.379811,-3753.867940,11621.233289
16248.724338,-3849.070898,-1762.019645,11991.336260
16248.724662,74.020594,-1149.143247,11251.130318
16248.724986,5329.482782,3294.210641,9474.636058
16248.725310,6291.750507,5056.230287,8586.388927
16248.725634,3701.029710,5515.887586,6069.688724
16248.725958,7402.059420,6741.640382,4367.215058
16248.726283,9400.615463,8044.002729,5625.565159
16248.726607,3330.926739,5975.544884,5921.647536
16248.726931,-962.267725,3600.648841,6439.791695
16248.727255,-1036.288319,1685.410096,8364.327145
16248.727579,-3997.112087,-689.485948,9622.677246
16248.727903,-7698.141797,-3140.991542,12287.418637
16248.728227,-8364.327145,-4443.353888,13397.727550
16248.728552,-8216.285956,-4903.011187,11917.315666
16248.728876,-5403.503377,-4826.401637,11695.253884
16248.729200,-1258.350101,-2528.115143,13101.645173
16248.729524,888.247130,0.000000,11325.150913
16248.729848,3923.091493,1915.238745,10140.821405
16248.730172,6587.832884,4213.525239,9474.636058
16248.730497,8438.347739,5515.887586,7846.182985
16248.730821,8586.388927,6665.030833,6365.771101
16248.731145,7772.162391,6358.592633,4885.359217
16248.731469,3997.112087,4979.620737,5181.441594
16248.731793,814.226536,1762.019645,6587.832884
16248.732117,-1776.494261,919.314598,8216.285956
16248.732441,-5255.462188,-2298.286494,9548.656652
16248.732766,-9104.533087,-4290.134789,10288.862594
16248.733090,-10214.842000,-4903.011187,10955.047942
16248.733414,-7846.182985,-6052.154434,10955.047942
16248.733738,-5847.626942,-5592.497135,11843.295072
16248.734062,-4515.256246,-4366.744339,11399.171507
16248.734386,-296.082377,-689.485948,11103.089130
16248.734711,5255.462188,1225.752797,10881.027347
16248.735035,7179.997637,2987.772442,9992.780217
16248.735359,7846.182985,4979.620737,7772.162391
16248.735683,8734.430116,6435.202183,5699.585753
16248.736007,8364.327145,6358.592633,5699.585753
16248.736331,6513.812290,4366.744339,6291.750507
16248.736656,2220.617826,2757.943793,7254.018232
16248.736980,-1924.535449,536.266849,8438.347739
16248.737304,-4293.194464,-1225.752797,10214.842000
16248.737628,-5847.626942,-3830.477490,11991.336260
16248.737952,-6883.915261,-6128.763984,12731.542202
16248.738276,-9104.533087,-6052.154434,11547.212695
16248.738600,-6513.812290,-5209.449386,11769.274478
16248.738925,-2368.659014,-3447.429741,11917.315666
16248.739249,-666.185348,-1685.410096,11769.274478
16248.739573,2294.638420,1378.971896,10140.821405
16248.739897,6143.709319,3907.087040,8808.450710
16248.740221,7550.100608,5439.278036,7254.018232
16248.740545,7254.018232,5822.325785,6661.853478
16248.740870,6513.812290,7354.516781,4589.276840
16248.741194,3849.070898,5822.325785,3256.906145
16248.741518,444.123565,3294.210641,4737.318029
16248.741842,-2072.576638,2298.286494,7624.121203
16248.742166,-4441.235652,0.000000,10436.903782
16248.742490,-8364.327145,-3217.601092,11251.130318
16248.742814,-9548.656652,-5286.058936,12287.418637
16248.743139,-7846.182985,-6128.763984,12065.356855
16248.743463,-5625.565159,-4290.134789,11843.295072
16248.743787,-3627.009116,-2834.553343,12583.501014
16248.744111,-814.226536,-995.924147,12361.439231
16248.744435,3108.864956,1915.238745,10732.986159
16248.744759,7179.997637,3753.867940,9474.636058
16248.745084,9030.512492,5745.716235,8512.368333
16248.745408,7476.080014,6971.469032,6883.915261
16248.745732,6513.812290,7354.516781,5329.482782
16248.746056,5995.668130,5362.668486,5921.647536
16248.746380,2960.823768,3907.087040,6661.853478
16248.746704,-1850.514855,2145.067394,7179.997637
16248.747028,-4219.173869,-306.438199,8364.327145
16248.747353,-5551.544565,-3677.258390,10732.986159
16248.747677,-7920.203579,-4290.134789,12879.583391
16248.748001,-7550.100608,-4979.620737,13249.686362
16248.748325,-5847.626942,-5439.278036,11695.253884
16248.748649,-4737.318029,-4443.353888,10140.821405
16248.748973,-2368.659014,-1838.629195,10362.883188
16248.749298,3182.885551,1532.190996,9696.697840
16248.749622,6217.729913,1991.848295,8956.491898
16248.749946,5551.544565,3907.087040,7698.141797
16248.750270,6513.812290,6435.202183,6661.853478
16248.750594,9178.553681,6665.030833,6661.853478
16248.750918,6291.750507,4673.182538,5921.647536
16248.751242,1406.391290,2757.943793,6513.812290
16248.751567,-592.164754,2221.676944,8660.409521
16248.751891,-1332.370696,76.609550,9992.780217
16248.752215,-3552.988522,-3217.601092,11621.233289
16248.752539,-5477.523971,-4519.963438,12657.521608
16248.752863,-7550.100608,-4749.792088,12139.377449
16248.753187,-5921.647536,-5209.449386,11843.295072
16248.753512,-2442.679609,-4136.915689,12213.398043
16248.753836,-1036.288319,-2221.676944,12287.418637
16248.754160,444.123565,-306.438199,9696.697840
16248.754484,4589.276840,2681.334243,8586.388927
16248.754808,7402.059420,4749.792088,8142.265362
16248.755132,6957.935855,5975.544884,8068.244768
16248.755457,5921.647536,6052.154434,5699.585753
16248.755781,5255.462188,5209.449386,4737.318029
16248.756105,2442.679609,3524.039291,4737.318029
16248.756429,-814.226536,2451.505594,6513.812290
16248.756753,-4367.215058,459.657299,9104.533087
16248.757077,-6365.771101,-1915.238745,10140.821405
16248.757401,-7846.182985,-4366.744339,11325.150913
16248.757726,-7846.182985,-4903.011187,11399.171507
16248.758050,-7105.977043,-5362.668486,11843.295072
16248.758374,-6069.688724,-4596.572988,11325.150913
16248.758698,-2294.638420,-2528.115143,11547.212695
16248.759022,1554.432478,-459.657299,11695.253884
16248.759346,5699.585753,1532.190996,10807.006753
16248.759671,6587.832884,4903.011187,9548.656652
16248.759995,7920.203579,6052.154434,7550.100608
16248.760319,7550.100608,6741.640382,6809.894666
16248.760643,6809.894666,5439.278036,6069.688724
16248.760967,4441.235652,4673.182538,4811.338623
16248.761291,0.000000,3447.429741,6143.709319
16248.761615,-3552.988522,1302.362347,8512.368333
16248.761940,-4959.379811,-1072.533697,10807.006753
16248.762264,-7476.080014,-3983.696590,11843.295072
16248.762588,-8734.430116,-5515.887586,12435.459826
16248.762912,-8068.244768,-5439.278036,12509.480420
16248.763236,-3701.029710,-4443.353888,11843.295072
16248.763560,-592.164754,-2451.505594,12213.398043
16248.763885,518.144159,-459.657299,10732.986159
16248.764209,3849.070898,2604.724693,8882.471304
16248.764533,7476.080014,3907.087040,7920.203579
16248.764857,8586.388927,5286.058936,7031.956449
16248.765181,7254.018232,6052.154434,6809.894666
16248.765505,4885.359217,6358.592633,5477.523971
16248.765829,2368.659014,4673.182538,5033.400406
16248.766154,814.226536,2987.772442,6809.894666
16248.766478,-1628.453072,842.705048,8142.265362
16248.766802,-5403.503377,-1378.971896,9918.759623
16248.767126,-6365.771101,-3064.381992,11399.171507
16248.767450,-6365.771101,-4903.011187,13027.624579
16248.767774,-5921.647536,-5515.887586,12805.562797
16248.768099,-4071.132681,-3753.867940,12657.521608
16248.768423,-1332.370696,-2298.286494,12213.398043
16248.768747,1554.432478,-459.657299,11843.295072
16248.769071,4737.318029,1378.971896,9474.636058
16248.769395,8586.388927,4749.792088,8364.327145
16248.769719,9104.533087,6205.373534,7476.080014
16248.770043,6143.709319,6205.373534,6143.709319
16248.770368,5699.585753,6971.469032,6513.812290
16248.770692,5551.544565,5362.668486,6587.832884
16248.771016,74.020594,3064.381992,6069.688724
16248.771340,-4293.194464,842.705048,6217.729913
16248.771664,-5699.585753,-766.095498,8290.306550
16248.771988,-7550.100608,-3294.210641,11177.109724
16248.772313,-8734.430116,-5209.449386,12879.583391
16248.772637,-8216.285956,-5898.935335,13101.645173
16248.772961,-7846.182985,-5362.668486,10955.047942
16248.773285,-4515.256246,-2987.772442,11473.192101
16248.773609,0.000000,-459.657299,11177.109724
16248.773933,3775.050304,612.876398,10658.965565
16248.774258,4959.379811,3064.381992,9326.594869
16248.774582,7031.956449,5132.839837,7402.059420
16248.774906,9474.636058,6971.469032,6661.853478
16248.775230,8438.347739,6358.592633,6883.915261
16248.775554,3627.009116,4826.401637,5921.647536
16248.775878,1036.288319,3447.429741,6513.812290
16248.776202,-1036.288319,919.314598,7550.100608
16248.776527,-3701.029710,-1225.752797,8512.368333
16248.776851,-7105.977043,-3370.820191,11251.130318
16248.777175,-9104.533087,-4673.182538,11917.315666
16248.777499,-9178.553681,-6511.811733,12139.377449
16248.777823,-6513.812290,-6588.421283,12287.418637
16248.778147,-3849.070898,-4903.011187,12139.377449
16248.778472,-1480.411884,-2374.896044,11251.130318
16248.778796,2368.659014,0.000000,9400.615463
16248.779120,6439.791695,2604.724693,9548.656652
16248.779444,8660.409521,5362.668486,9030.512492
16248.779768,8438.347739,6205.373534,7476.080014
16248.780092,6883.915261,5362.668486,5625.565159
16248.780416,5255.462188,4749.792088,5625.565159
16248.780741,2516.700203,2987.772442,6365.771101
16248.781065,-1110.308913,1225.752797,7476.080014
16248.781389,-5329.482782,-2068.457845,8364.327145
16248.781713,-7031.956449,-2911.162892,9622.677246
16248.782037,-6957.935855,-3600.648841,12435.459826
16248.782361,-7031.956449,-5745.716235,12805.562797
16248.782686,-7402.059420,-6052.154434,12139.377449
16248.783010,-3404.947333,-3370.820191,11621.233289
16248.783334,1184.329507,-459.657299,11917.315666
16248.783658,4737.318029,1455.581446,10955.047942
16248.783982,6957.935855,4290.134789,9252.574275
16248.784306,8734.430116,7048.078582,7105.977043
16248.784630,10955.047942,9039.926876,7105.977043
16248.784955,9474.636058,7737.564530,6439.791695
16248.785279,6513.812290,5898.935335,5477.523971
16248.785603,3552.988522,5132.839837,5403.503377
16248.785927,-1110.308913,3140.991542,6513.812290
16248.786251,-4885.359217,-459.657299,8438.347739
16248.786575,-6661.853478,-1838.629195,9104.533087
16248.786900,-9030.512492,-3294.210641,10807.006753
16248.787224,-10955.047942,-4749.792088,12361.439231
16248.787548,-8512.368333,-5975.544884,12213.398043
16248.787872,-4811.338623,-4673.182538,11917.315666
16248.788196,-3478.967927,-1762.019645,11769.274478
16248.788520,-666.185348,306.438199,10732.986159
16248.788844,4515.256246,2068.457845,8882.471304
16248.789169,7698.141797,5209.449386,8068.244768
16248.789493,8364.327145,6971.469032,7772.162391
16248.789817,7920.203579,7431.126331,6661.853478
16248.790141,6069.688724,5898.935335,5551.544565
16248.790465,4663.297435,5209.449386,6439.791695
16248.790789,2220.617826,4366.744339,8068.244768
16248.791114,-2368.659014,1378.971896,7920.203579
16248.791438,-5921.647536,-1608.800546,9030.512492
16248.791762,-7105.977043,-3064.381992,11029.068536
16248.792086,-6735.874072,-4443.353888,11695.253884
16248.792410,-6735.874072,-5745.716235,12361.439231
16248.792734,-6365.771101,-6205.373534,12287.418637
16248.793059,-5033.400406,-3983.696590,11843.295072
16248.793383,-1480.411884,-2068.457845,11621.233289
16248.793707,3478.967927,153.219100,9918.759623
16248.794031,6513.812290,842.705048,8364.327145
16248.794355,5329.482782,4903.011187,6883.915261
16248.794679,6957.935855,6358.592633,6217.729913
16248.795003,9326.594869,5745.716235,7254.018232
16248.795328,6069.688724,4060.306139,6143.709319
16248.795652,814.226536,2911.162892,5625.565159
16248.795976,-1110.308913,919.314598,7105.977043
16248.796300,-3108.864956,-2145.067394,9178.553681
16248.796624,-6291.750507,-5056.230287,11473.192101
16248.796948,-7550.100608,-5822.325785,13915.871710
16248.797273,-8512.368333,-6894.859482,13619.789333
16248.797597,-7624.121203,-7277.907231,13027.624579
16248.797921,-3108.864956,-5209.449386,13397.727550
16248.798245,444.123565,-2757.943793,12657.521608
16248.798569,3552.988522,306.438199,9770.718434
16248.798893,6661.853478,4290.134789,8438.347739
16248.799217,9992.780217,7124.688131,7772.162391
16248.799542,11251.130318,8273.831378,6365.771101
16248.799866,9178.553681,8350.440928,5033.400406
16248.800190,5921.647536,6971.469032,4367.215058
16248.800514,1776.494261,4519.963438,5329.482782
16248.800838,-1184.329507,2451.505594,6957.935855
16248.801162,-5033.400406,0.000000,8734.430116
16248.801487,-8808.450710,-3294.210641,9992.780217
16248.801811,-10436.903782,-5209.449386,11621.233289
16248.802135,-9992.780217,-5515.887586,13101.645173
16248.802459,-7846.182985,-5669.106685,12805.562797
16248.802783,-5329.482782,-3907.087040,12731.542202
16248.803107,-962.267725,-2221.676944,11695.253884
16248.803431,3108.864956,1838.629195,10288.862594
16248.803756,7105.977043,4826.401637,9474.636058
16248.804080,9104.533087,7431.126331,6883.915261
16248.804404,8882.471304,8580.269578,5699.585753
16248.804728,7920.203579,8350.440928,4885.359217
16248.805052,6291.750507,7354.516781,5773.606348
16248.805376,2886.803174,4903.011187,6439.791695
16248.805701,-2516.700203,1838.629195,6957.935855
16248.806025,-6513.812290,-689.485948,8956.491898
16248.806349,-7920.203579,-1991.848295,10732.986159
16248.806673,-7624.121203,-4673.182538,12657.521608
16248.806997,-9326.594869,-5975.544884,12435.459826
16248.807321,-7846.182985,-5362.668486,12213.398043
16248.807645,-2812.782580,-3677.258390,11473.192101
16248.807970,888.247130,-1991.848295,12583.501014
16248.808294,2442.679609,383.047749,11695.253884
16248.808618,5551.544565,3907.087040,10436.903782
16248.808942,7846.182985,4443.353888,8068.244768
16248.809266,9474.636058,5669.106685,6217.729913
16248.809590,8808.450710,7431.126331,6069.688724
16248.809915,5551.544565,5669.106685,4515.256246
16248.810239,1480.411884,2604.724693,4737.318029
16248.810563,-1480.411884,1915.238745,5995.668130
16248.810887,-3849.070898,-1072.533697,9104.533087
16248.811211,-7846.182985,-3677.258390,9400.615463
16248.811535,-10140.821405,-6052.154434,10510.924376
16248.811860,-9252.574275,-6665.030833,12139.377449
16248.812184,-7254.018232,-6894.859482,13101.645173
16248.812508,-5625.565159,-6665.030833,13619.789333
16248.812832,-3256.906145,-4060.306139,13101.645173
16248.813156,1924.535449,-1455.581446,12509.480420
16248.813480,6883.915261,1072.533697,11325.150913
16248.813804,10214.842000,4060.306139,9400.615463
16248.814129,11029.068536,6818.249932,8142.265362
16248.814453,9104.533087,7737.564530,5921.647536
16248.814777,7179.997637,7048.078582,4811.338623
16248.815101,6883.915261,5439.278036,5033.400406
16248.815425,1776.494261,4519.963438,6661.853478
16248.815749,-3923.091493,1302.362347,6809.894666
16248.816074,-6513.812290,-1991.848295,8438.347739
16248.816398,-9104.533087,-4749.792088,10436.903782
16248.816722,-11177.109724,-6128.763984,11917.315666
16248.817046,-11103.089130,-7354.516781,11843.295072
16248.817370,-8734.430116,-6665.030833,10436.903782
16248.817694,-6735.874072,-4826.401637,12213.398043
16248.818018,-1110.308913,-1608.800546,13323.706956
16248.818343,5033.400406,1762.019645,10881.027347
16248.818667,7179.997637,3907.087040,8586.388927
16248.818991,7550.100608,6971.469032,6661.853478
16248.819315,10584.944971,9729.412825,5773.606348
16248.819639,11547.212695,10035.851024,5551.544565
16248.819963,7031.956449,7354.516781,5255.462188
16248.820288,1628.453072,4519.963438,5773.606348
16248.820612,-1554.432478,2145.067394,7402.059420
16248.820936,-5773.606348,-1685.410096,8808.450710
16248.821264,-8808.450710,-4903.011187,11769.274478
16248.821588,-9770.718434,-6511.811733,14063.912898
16248.821912,-11177.109724,-6894.859482,12361.439231
16248.822236,-8068.244768,-7277.907231,11547.212695
16248.822560,-3552.988522,-5132.839837,12805.562797
16248.822885,-740.205942,-1532.190996,12805.562797
16248.823209,3256.906145,2298.286494,11251.130318
16248.823533,8734.430116,4749.792088,9770.718434
16248.823857,12139.377449,7354.516781,7772.162391
16248.824181,11843.295072,9882.631924,5773.606348
16248.824505,9178.553681,9806.022374,4885.359217
16248.824829,7328.038826,6588.421283,4959.379811
16248.825153,3849.070898,4519.963438,6513.812290
16248.825478,-888.247130,2145.067394,6439.791695
16248.825802,-5625.565159,-1149.143247,8142.265362
16248.826126,-9474.636058,-4443.353888,9474.636058
16248.826450,-10288.862594,-4903.011187,11251.130318
16248.826774,-11103.089130,-7431.126331,13471.748144
16248.827098,-9696.697840,-8656.879127,11399.171507
16248.827422,-6069.688724,-5745.716235,11029.068536
16248.827746,-1554.432478,-1608.800546,11843.295072
16248.828070,3182.885551,766.095498,11177.109724
16248.828395,7031.956449,3753.867940,9844.739029
16248.828719,9474.636058,5592.497135,7846.182985
16248.829043,10807.006753,8120.612279,6069.688724
16248.829367,11621.233289,8427.050478,5995.668130
16248.829691,9252.574275,7431.126331,6661.853478
16248.830015,4663.297435,4826.401637,6587.832884
16248.830339,-370.102971,2145.067394,7550.100608
16248.830663,-3478.967927,-612.876398,8808.450710
16248.830988,-4811.338623,-2451.505594,10881.027347
16248.831312,-7772.162391,-5515.887586,12509.480420
16248.831636,-11399.171507,-6588.421283,13175.665768
16248.831960,-8734.430116,-6971.469032,12657.521608
16248.832284,-4145.153275,-5515.887586,12805.562797
16248.832608,-2220.617826,-2834.553343,12435.459826
16248.832932,74.020594,689.485948,10066.800811
16248.833256,4811.338623,2757.943793,9030.512492
16248.833580,7550.100608,4903.011187,7550.100608
16248.833905,7772.162391,6588.421283,6439.791695
16248.834229,7698.141797,7584.345430,5107.421000
16248.834553,4663.297435,6052.154434,3775.050304
16248.834877,1554.432478,4213.525239,4737.318029
16248.835201,0.000000,3140.991542,7402.059420
16248.835525,-3775.050304,0.000000,8216.285956
16248.835849,-7772.162391,-3447.429741,8438.347739
16248.836173,-9474.636058,-4519.963438,10955.047942
16248.836497,-9104.533087,-5822.325785,13175.665768
16248.836822,-7550.100608,-7201.297681,13841.851115
16248.837146,-5033.400406,-6052.154434,13397.727550
16248.837470,-2516.700203,-2987.772442,12731.542202
16248.837794,1184.329507,-459.657299,12953.603985
16248.838118,6069.688724,1302.362347,10584.944971
16248.838442,9548.656652,4596.572988,9474.636058
16248.838766,8438.347739,6511.811733,7624.121203
16248.839090,6661.853478,7354.516781,5477.523971
16248.839415,7994.224174,7048.078582,5551.544565
16248.839739,6291.750507,6052.154434,5329.482782
16248.840063,-222.061783,3370.820191,5625.565159
16248.840387,-4589.276840,459.657299,6587.832884
16248.840711,-5995.668130,-2528.115143,8438.347739
16248.841035,-9474.636058,-4903.011187,10140.821405
16248.841359,-10066.800811,-6205.373534,12657.521608
16248.841683,-9104.533087,-7048.078582,12657.521608
16248.842007,-7624.121203,-6435.202183,11769.274478
16248.842332,-4441.235652,-4826.401637,12213.398043
16248.842656,1628.453072,-1685.410096,12287.418637
16248.842980,5995.668130,1149.143247,10214.842000
16248.843304,7772.162391,4136.915689,10066.800811
16248.843628,10140.821405,7048.078582,8142.265362
16248.843952,13915.871710,8886.707777,7105.977043
16248.844276,11843.295072,8350.440928,6069.688724
16248.844600,7254.018232,6818.249932,4959.379811
16248.844924,4589.276840,5056.230287,6069.688724
16248.845249,518.144159,2451.505594,7476.080014
16248.845573,-4145.153275,-842.705048,8586.388927
16248.845897,-7254.018232,-3370.820191,11325.150913
16248.846221,-10362.883188,-4749.792088,11325.150913
16248.846545,-11103.089130,-6205.373534,11251.130318
16248.846869,-8808.450710,-6818.249932,11917.315666
16248.847193,-6217.729913,-4903.011187,11917.315666
16248.847517,-1850.514855,-766.095498,11621.233289
16248.847842,2368.659014,1149.143247,10807.006753
16248.848166,6365.771101,4060.306139,9178.553681
16248.848490,7402.059420,6588.421283,8512.368333
16248.848814,8142.265362,9039.926876,6513.812290
16248.849138,9326.594869,8656.879127,4589.276840
16248.849462,6661.853478,7354.516781,4885.359217
16248.849786,3552.988522,5745.716235,4959.379811
16248.850110,-1110.308913,3370.820191,7476.080014
16248.850434,-5921.647536,-1149.143247,8364.327145
16248.850759,-9104.533087,-4213.525239,9178.553681
16248.851083,-9400.615463,-4979.620737,12583.501014
16248.851407,-9770.718434,-6588.421283,12731.542202
16248.851731,-9474.636058,-8350.440928,12139.377449
16248.852055,-5551.544565,-6281.983084,12287.418637
16248.852379,-1480.411884,-2451.505594,13545.768739
16248.852703,2812.782580,689.485948,11991.336260
16248.853027,6439.791695,2911.162892,10288.862594
16248.853352,9178.553681,4673.182538,8364.327145
16248.853676,9770.718434,7967.393179,7550.100608
16248.854000,9992.780217,7967.393179,7698.141797
16248.854324,8216.285956,5515.887586,5255.462188
16248.854648,2664.741391,3907.087040,4515.256246
16248.854972,-1702.473667,2834.553343,5403.503377
16248.855296,-4293.194464,-459.657299,8438.347739
16248.855620,-7254.018232,-4596.572988,10066.800811
16248.855944,-11251.130318,-6435.202183,11843.295072
16248.856269,-11621.233289,-6741.640382,11621.233289
16248.856593,-7031.956449,-7507.735880,11769.274478
16248.856917,-3849.070898,-7431.126331,12065.356855
16248.857241,-2590.720797,-2834.553343,12879.583391
16248.857565,1332.370696,612.876398,11177.109724
16248.857889,7476.080014,2221.676944,9400.615463
16248.858213,11029.068536,4826.401637,8068.244768
16248.858537,11695.253884,7814.174080,5995.668130
16248.858861,10510.924376,8733.488677,5551.544565
16248.859186,7772.162391,6358.592633,5477.523971
16248.859510,5477.523971,5132.839837,6735.874072
16248.859834,2368.659014,3830.477490,8364.327145
16248.860158,-2960.823768,536.266849,8438.347739
16248.860482,-6143.709319,-2757.943793,9844.739029
16248.860806,-8586.388927,-5822.325785,12287.418637
16248.861130,-10214.842000,-6741.640382,14137.933492
16248.861454,-8364.327145,-7431.126331,13841.851115
16248.861779,-6069.688724,-5822.325785,11769.274478
16248.862103,-4589.276840,-2987.772442,11473.192101
16248.862427,-370.102971,76.609550,11547.212695
16248.862751,5847.626942,3217.601092,10066.800811
16248.863075,8438.347739,5515.887586,7846.182985
16248.863399,6809.894666,8427.050478,5699.585753
16248.863723,7772.162391,9806.022374,4811.338623
16248.864047,10066.800811,9652.803275,5403.503377
16248.864371,6291.750507,7201.297681,5255.462188
16248.864696,-962.267725,4213.525239,5329.482782
16248.865020,-3849.070898,2451.505594,7254.018232
16248.865344,-5625.565159,-612.876398,8882.471304
16248.865668,-8808.450710,-5056.230287,11029.068536
16248.865992,-9918.759623,-5822.325785,13397.727550
16248.866316,-10436.903782,-5745.716235,12657.521608
16248.866640,-8142.265362,-6205.373534,11695.253884
16248.866964,-3404.947333,-4060.306139,12657.521608
16248.867289,444.123565,-1149.143247,12509.480420
16248.867613,3182.885551,2528.115143,10510.924376
16248.867937,6513.812290,5056.230287,9400.615463
16248.868261,9770.718434,7201.297681,8290.306550
16248.868585,9918.759623,8580.269578,7105.977043
16248.868909,6883.915261,7967.393179,5107.421000
16248.869233,4293.194464,5439.278036,5033.400406
16248.869557,1258.350101,3524.039291,6513.812290
16248.869881,-3108.864956,1378.971896,7624.121203
16248.870206,-6513.812290,-2451.505594,8512.368333
