#time,accel_x,accel_y,accel_z
16136.528885,2294.638420,4749.792088,10066.800811
16136.529209,1924.535449,4290.134789,10066.800811
16136.529533,1258.350101,4903.011187,9918.759623
16136.529858,888.247130,5132.839837,9474.636058
16136.530182,1924.535449,5132.839837,9474.636058
16136.530506,1850.514855,4979.620737,9104.533087
16136.530830,296.082377,5592.497135,8438.347739
16136.531154,0.000000,4903.011187,8586.388927
16136.531478,518.144159,4673.182538,8808.450710
16136.531803,-888.247130,3753.867940,8586.388927
16136.532127,-1850.514855,3447.429741,8290.306550
16136.532451,-1850.514855,3524.039291,8808.450710
16136.532775,-2146.597232,3064.381992,9178.553681
16136.533099,-1628.453072,2374.896044,9104.533087
16136.533424,-1332.370696,2298.286494,8586.388927
16136.533748,-1258.350101,2528.115143,8586.388927
16136.534072,0.000000,2145.067394,8882.471304
16136.534396,1184.329507,1915.238745,9474.636058
16136.534720,1110.308913,1608.800546,9474.636058
16136.535044,1406.391290,1838.629195,9326.594869
16136.535369,2738.761985,1838.629195,9474.636058
16136.535693,3552.988522,1149.143247,10288.862594
16136.536017,3256.906145,842.705048,10362.883188
16136.536341,3404.947333,842.705048,10658.965565
16136.536665,3923.091493,766.095498,10362.883188
16136.536989,4663.297435,459.657299,10510.924376
16136.537314,4663.297435,842.705048,10510.924376
16136.537638,4071.132681,1378.971896,9474.636058
16136.537962,4219.173869,612.876398,9548.656652
16136.538286,5181.441594,919.314598,9474.636058
16136.538610,4071.132681,842.705048,9474.636058
16136.538934,3330.926739,689.485948,9104.533087
16136.539259,3034.844362,1149.143247,8808.450710
16136.539583,2738.761985,1225.752797,8660.409521
16136.539907,2072.576638,842.705048,8660.409521
16136.540231,1554.432478,1532.190996,8512.368333
16136.540555,1480.411884,1991.848295,8068.244768
16136.540879,1554.432478,1608.800546,8956.491898
16136.541204,1258.350101,1762.019645,9474.636058
16136.541528,1480.411884,2145.067394,9252.574275
16136.541852,1406.391290,2451.505594,8956.491898
16136.542176,2294.638420,3064.381992,9252.574275
16136.542500,2516.700203,3370.820191,9178.553681
16136.542824,1332.370696,3064.381992,9770.718434
16136.543149,814.226536,3600.648841,9030.512492
16136.543473,1258.350101,3600.648841,9548.656652
16136.543797,962.267725,3524.039291,9992.780217
16136.544121,148.041188,3447.429741,9622.677246
16136.544445,-296.082377,3677.258390,9548.656652
16136.544769,-370.102971,2987.772442,9474.636058
16136.545094,-370.102971,3217.601092,9252.574275
16136.545418,-148.041188,3447.429741,9252.574275
16136.545742,-1332.370696,3370.820191,8660.409521
16136.546066,-1480.411884,3140.991542,8216.285956
16136.546390,-666.185348,2987.772442,8216.285956
16136.546714,-1332.370696,2374.896044,8660.409521
16136.547039,-2886.803174,1991.848295,8216.285956
16136.547363,-3997.112087,1072.533697,8364.327145
16136.547687,-3256.906145,612.876398,8290.306550
16136.548011,-4071.132681,0.000000,8882.471304
16136.548335,-4959.379811,-919.314598,8882.471304
16136.548660,-5181.441594,-1532.190996,8438.347739
16136.548984,-4145.153275,-1532.190996,8438.347739
16136.549308,-3330.926739,-1915.238745,9474.636058
16136.549632,-3182.885551,-2145.067394,9992.780217
16136.549956,-2516.700203,-2145.067394,9252.574275
16136.550280,-888.247130,-2451.505594,10436.903782
16136.550605,0.000000,-2451.505594,11251.130318
16136.550929,222.061783,-3217.601092,11473.192101
16136.551253,444.123565,-3140.991542,11917.315666
16136.551577,1480.411884,-3600.648841,11695.253884
16136.551901,2368.659014,-3064.381992,11843.295072
16136.552225,2368.659014,-3294.210641,11843.295072
16136.552550,2442.679609,-2681.334243,11029.068536
16136.552874,3256.906145,-2145.067394,10584.944971
16136.553198,4145.153275,-1378.971896,9770.718434
16136.553522,4737.318029,-1072.533697,9844.739029
16136.553846,4663.297435,383.047749,8438.347739
16136.554170,4219.173869,1302.362347,7920.203579
16136.554495,4811.338623,383.047749,7698.141797
16136.554810,4219.173869,1149.143247,7846.182985
16136.555134,2368.659014,1149.143247,7698.141797
16136.555458,1702.473667,1302.362347,7550.100608
16136.555782,1554.432478,1455.581446,8586.388927
16136.556106,592.164754,995.924147,9030.512492
16136.556430,-666.185348,1608.800546,9030.512492
16136.556755,-1110.308913,1685.410096,8956.491898
16136.557079,-814.226536,1838.629195,9400.615463
16136.557403,-888.247130,2221.676944,9474.636058
16136.557727,-666.185348,3294.210641,9400.615463
16136.558051,-666.185348,3753.867940,8956.491898
16136.558375,-444.123565,4290.134789,8438.347739
16136.558699,888.247130,4979.620737,8956.491898
16136.559024,0.000000,5132.839837,9326.594869
16136.559348,-1184.329507,4903.011187,8364.327145
16136.559672,-1406.391290,4519.963438,8882.471304
16136.559996,-1258.350101,4443.353888,9400.615463
16136.560320,-1998.556043,3600.648841,9992.780217
16136.560644,-2664.741391,3524.039291,9696.697840
16136.560968,-2590.720797,2911.162892,9400.615463
16136.561293,-2442.679609,2911.162892,9770.718434
16136.561617,-2072.576638,2451.505594,9992.780217
16136.561941,-1258.350101,2757.943793,9548.656652
16136.562265,-222.061783,3294.210641,9178.553681
16136.562589,1036.288319,3524.039291,8734.430116
16136.562913,2146.597232,3830.477490,8734.430116
16136.563238,1480.411884,3064.381992,8290.306550
16136.563562,814.226536,2298.286494,7328.038826
16136.563886,1258.350101,2145.067394,7254.018232
16136.564210,518.144159,995.924147,7698.141797
16136.564534,-1332.370696,0.000000,7846.182985
16136.564858,-2294.638420,-919.314598,7994.224174
16136.565182,-2664.741391,-1915.238745,8808.450710
16136.565507,-2738.761985,-2681.334243,9474.636058
16136.565831,-3849.070898,-3600.648841,10436.903782
16136.566155,-3627.009116,-4519.963438,9622.677246
16136.566479,-2442.679609,-4060.306139,10066.800811
16136.566803,-740.205942,-4290.134789,10881.027347
16136.567127,-666.185348,-3983.696590,10881.027347
16136.567452,-592.164754,-4060.306139,10436.903782
16136.567776,814.226536,-3830.477490,10807.006753
16136.568100,1998.556043,-3677.258390,11029.068536
16136.568424,1332.370696,-3600.648841,11325.150913
16136.568748,1184.329507,-4060.306139,11399.171507
16136.569072,1406.391290,-3907.087040,11177.109724
16136.569396,1480.411884,-3600.648841,11029.068536
16136.569721,1406.391290,-3140.991542,11473.192101
16136.570045,1184.329507,-2451.505594,10362.883188
16136.570369,1184.329507,-1455.581446,9844.739029
16136.570693,1776.494261,-1838.629195,8956.491898
16136.571017,2368.659014,-459.657299,9252.574275
16136.571341,1332.370696,153.219100,8512.368333
16136.571665,814.226536,919.314598,7772.162391
16136.571990,814.226536,1455.581446,7476.080014
16136.572314,888.247130,2221.676944,7402.059420
16136.572638,296.082377,1991.848295,7328.038826
16136.572962,-962.267725,995.924147,7254.018232
16136.573286,-1258.350101,1685.410096,7328.038826
16136.573610,-1036.288319,2068.457845,8438.347739
16136.573935,-1554.432478,1838.629195,9252.574275
16136.574259,-2294.638420,1915.238745,9104.533087
16136.574583,-1776.494261,2374.896044,9252.574275
16136.574907,-370.102971,2145.067394,9622.677246
16136.575231,-148.041188,2834.553343,9770.718434
16136.575555,-888.247130,2757.943793,9474.636058
16136.575879,-370.102971,3677.258390,9326.594869
16136.576204,444.123565,3907.087040,9178.553681
16136.576528,0.000000,3983.696590,9326.594869
16136.576852,0.000000,3830.477490,9474.636058
16136.577176,-296.082377,3600.648841,8734.430116
16136.577500,-592.164754,3447.429741,9178.553681
16136.577824,-888.247130,3140.991542,9622.677246
16136.578148,-666.185348,2528.115143,9548.656652
16136.578473,-888.247130,2757.943793,9474.636058
16136.578797,74.020594,2681.334243,9622.677246
16136.579121,888.247130,2528.115143,9474.636058
16136.579445,1406.391290,2834.553343,8660.409521
16136.579769,1998.556043,2757.943793,8512.368333
16136.580093,2664.741391,2911.162892,7772.162391
16136.580418,3701.029710,3370.820191,8290.306550
16136.580742,3256.906145,3140.991542,8290.306550
16136.581066,2516.700203,2298.286494,7846.182985
16136.581390,2442.679609,1685.410096,7772.162391
16136.581714,1998.556043,1072.533697,8142.265362
16136.582038,962.267725,-153.219100,8882.471304
16136.582362,-296.082377,-995.924147,8586.388927
16136.582687,-888.247130,-1838.629195,8956.491898
16136.583011,-1554.432478,-2451.505594,9548.656652
16136.583335,-2368.659014,-3370.820191,9918.759623
16136.583659,-2960.823768,-3753.867940,10066.800811
16136.583983,-3034.844362,-3983.696590,9770.718434
16136.584307,-2442.679609,-3983.696590,9622.677246
16136.584632,-1776.494261,-3677.258390,10510.924376
16136.584956,-2146.597232,-3600.648841,9918.759623
16136.585280,-2072.576638,-3830.477490,10214.842000
16136.585604,-1110.308913,-3830.477490,10955.047942
16136.585928,-962.267725,-3600.648841,11621.233289
16136.586252,-1036.288319,-3677.258390,11843.295072
16136.586576,-1110.308913,-3447.429741,11251.130318
16136.586901,-370.102971,-3064.381992,11177.109724
16136.587225,-518.144159,-2911.162892,11695.253884
16136.587549,-1110.308913,-3064.381992,10955.047942
16136.587873,-1184.329507,-2604.724693,9770.718434
16136.588197,-222.061783,-1608.800546,9400.615463
16136.588521,444.123565,-919.314598,8660.409521
16136.588845,666.185348,-153.219100,7772.162391
16136.589170,370.102971,306.438199,6809.894666
16136.589494,740.205942,1072.533697,6365.771101
16136.589818,1258.350101,1532.190996,7031.956449
16136.590142,1332.370696,1455.581446,7179.997637
16136.590466,740.205942,1608.800546,7698.141797
16136.590790,370.102971,1378.971896,8660.409521
16136.591115,666.185348,1532.190996,8808.450710
16136.591439,666.185348,1455.581446,9474.636058
16136.591763,-148.041188,1225.752797,10140.821405
16136.592087,0.000000,1608.800546,9992.780217
16136.592411,814.226536,1838.629195,10214.842000
16136.592735,1036.288319,2221.676944,10140.821405
16136.593059,814.226536,2604.724693,9548.656652
16136.593384,814.226536,3524.039291,9104.533087
16136.593708,1628.453072,4443.353888,9252.574275
16136.594032,1628.453072,4290.134789,9992.780217
16136.594356,1628.453072,4290.134789,9770.718434
16136.594680,1110.308913,4903.011187,9474.636058
16136.595004,1628.453072,4596.572988,9400.615463
16136.595329,1998.556043,4366.744339,9918.759623
16136.595653,888.247130,4519.963438,9696.697840
16136.595977,0.000000,3677.258390,9104.533087
16136.596301,666.185348,3677.258390,9030.512492
16136.596625,1628.453072,3907.087040,8808.450710
16136.596949,1480.411884,3983.696590,8808.450710
16136.597273,1480.411884,3830.477490,8364.327145
16136.597598,2590.720797,4290.134789,7772.162391
16136.597922,3034.844362,4443.353888,7846.182985
16136.598246,2590.720797,4136.915689,7402.059420
16136.598570,1924.535449,3983.696590,7105.977043
16136.598894,1480.411884,2528.115143,7328.038826
16136.599218,1480.411884,2374.896044,7920.203579
16136.599542,148.041188,919.314598,8438.347739
16136.599867,-2368.659014,-383.047749,9030.512492
16136.600191,-3552.988522,-995.924147,9178.553681
16136.600515,-3701.029710,-2145.067394,9696.697840
16136.600839,-4663.297435,-3064.381992,10066.800811
16136.601163,-5033.400406,-3677.258390,10214.842000
16136.601487,-5477.523971,-3677.258390,10214.842000
16136.601812,-4219.173869,-3753.867940,10584.944971
16136.602136,-3478.967927,-3753.867940,11251.130318
16136.602460,-2886.803174,-3677.258390,11251.130318
16136.602784,-2442.679609,-3677.258390,10807.006753
16136.603108,-1110.308913,-3064.381992,10658.965565
16136.603432,74.020594,-3447.429741,11547.212695
16136.603756,-444.123565,-3753.867940,11473.192101
16136.604081,-1332.370696,-3677.258390,10732.986159
16136.604405,-592.164754,-3600.648841,10658.965565
16136.604729,222.061783,-3600.648841,11029.068536
16136.605053,0.000000,-3677.258390,9844.739029
16136.605377,0.000000,-2298.286494,9030.512492
16136.605701,1036.288319,-1915.238745,8142.265362
16136.606026,1924.535449,-842.705048,7994.224174
16136.606350,2738.761985,-383.047749,7920.203579
16136.606674,2590.720797,536.266849,7476.080014
16136.606998,2590.720797,1225.752797,7105.977043
16136.607322,3108.864956,1532.190996,7476.080014
16136.607646,3404.947333,1838.629195,8364.327145
16136.607970,1628.453072,842.705048,8660.409521
16136.608295,296.082377,842.705048,8956.491898
16136.608619,296.082377,919.314598,9770.718434
16136.608943,148.041188,689.485948,10288.862594
16136.609267,-740.205942,306.438199,10584.944971
16136.609591,-1184.329507,1455.581446,10140.821405
16136.609915,-740.205942,2145.067394,10288.862594
16136.610239,888.247130,2834.553343,9844.739029
16136.610564,1110.308913,3677.258390,10288.862594
16136.610888,814.226536,4443.353888,9474.636058
16136.611212,1776.494261,4903.011187,9030.512492
16136.611536,2738.761985,5515.887586,9252.574275
16136.611860,2368.659014,5669.106685,9474.636058
16136.612184,666.185348,5515.887586,9030.512492
16136.612509,814.226536,5132.839837,8808.450710
16136.612833,1036.288319,4826.401637,9400.615463
16136.613157,148.041188,4060.306139,9474.636058
16136.613481,-1036.288319,4060.306139,9178.553681
16136.613805,-740.205942,4213.525239,8512.368333
16136.614129,370.102971,4366.744339,8512.368333
16136.614453,888.247130,4519.963438,9252.574275
16136.614778,962.267725,5132.839837,7772.162391
16136.615102,1184.329507,4903.011187,7698.141797
16136.615426,2294.638420,5439.278036,7105.977043
16136.615750,2368.659014,4979.620737,8216.285956
16136.616074,740.205942,3983.696590,7624.121203
16136.616398,-296.082377,3677.258390,7476.080014
16136.616723,-296.082377,2528.115143,7846.182985
16136.617047,-1110.308913,1149.143247,8882.471304
16136.617371,-2812.782580,-306.438199,9400.615463
16136.617695,-4145.153275,-1608.800546,9622.677246
16136.618019,-4663.297435,-2451.505594,9622.677246
16136.618343,-4145.153275,-2834.553343,10140.821405
16136.618667,-4071.132681,-3370.820191,10732.986159
16136.618992,-3997.112087,-3600.648841,10436.903782
16136.619316,-3108.864956,-2604.724693,9474.636058
16136.619640,-1480.411884,-3447.429741,9770.718434
16136.619964,-888.247130,-3600.648841,10584.944971
16136.620288,-1480.411884,-3830.477490,10436.903782
16136.620612,-888.247130,-3983.696590,10214.842000
16136.620936,0.000000,-4366.744339,10658.965565
16136.621261,0.000000,-4673.182538,11177.109724
16136.621585,-296.082377,-4826.401637,10732.986159
16136.621909,-444.123565,-4749.792088,10066.800811
16136.622233,0.000000,-4826.401637,10436.903782
16136.622557,1184.329507,-4213.525239,10584.944971
16136.622881,1184.329507,-3294.210641,9992.780217
16136.623206,1332.370696,-2528.115143,9178.553681
16136.623530,2590.720797,-1378.971896,8142.265362
16136.623854,3923.091493,-153.219100,8586.388927
16136.624178,3256.906145,-536.266849,8290.306550
16136.624502,2220.617826,0.000000,8068.244768
16136.624826,1702.473667,536.266849,7846.182985
16136.625150,1628.453072,0.000000,8882.471304
16136.625475,370.102971,0.000000,9178.553681
16136.625799,-962.267725,-612.876398,9178.553681
16136.626123,-1480.411884,0.000000,8660.409521
16136.626447,-592.164754,229.828649,9622.677246
16136.626771,-1184.329507,612.876398,9770.718434
16136.627095,-1184.329507,1225.752797,9474.636058
16136.627420,-962.267725,2221.676944,9400.615463
16136.627744,962.267725,3447.429741,9178.553681
16136.628068,1480.411884,4060.306139,9252.574275
16136.628392,1110.308913,4673.182538,9252.574275
16136.628716,1110.308913,4903.011187,9252.574275
16136.629040,1702.473667,5286.058936,8956.491898
16136.629364,1332.370696,5362.668486,9178.553681
16136.629689,148.041188,4903.011187,9400.615463
16136.630013,-444.123565,4673.182538,8882.471304
16136.630337,74.020594,4673.182538,9400.615463
16136.630661,592.164754,3983.696590,9770.718434
16136.630985,0.000000,4519.963438,9696.697840
16136.631309,-370.102971,4673.182538,8956.491898
16136.631633,740.205942,4979.620737,8142.265362
16136.631958,2146.597232,5286.058936,8438.347739
16136.632282,1628.453072,5209.449386,8142.265362
16136.632606,1258.350101,5209.449386,7254.018232
16136.632930,1628.453072,4826.401637,7179.997637
16136.633254,2368.659014,3753.867940,7402.059420
16136.633578,666.185348,3447.429741,7476.080014
16136.633903,-296.082377,2451.505594,7254.018232
16136.634227,-740.205942,1302.362347,7846.182985
16136.634551,-1628.453072,0.000000,9104.533087
16136.634875,-1924.535449,-1072.533697,9474.636058
16136.635199,-2960.823768,-1225.752797,9696.697840
16136.635523,-3701.029710,-2681.334243,9474.636058
16136.635847,-2516.700203,-3294.210641,10362.883188
16136.636172,-1924.535449,-3447.429741,10881.027347
16136.636496,-2368.659014,-3600.648841,10881.027347
16136.636820,-2368.659014,-3830.477490,10658.965565
16136.637144,-1332.370696,-3983.696590,10658.965565
16136.637468,-888.247130,-4366.744339,10732.986159
16136.637792,-962.267725,-4596.572988,11029.068536
16136.638117,-1258.350101,-4290.134789,10584.944971
16136.638441,-518.144159,-4596.572988,11177.109724
16136.638765,74.020594,-4903.011187,11325.150913
16136.639089,74.020594,-4826.401637,11473.192101
16136.639413,-296.082377,-4290.134789,10658.965565
16136.639737,740.205942,-4596.572988,10436.903782
16136.640061,1554.432478,-3983.696590,9696.697840
16136.640386,1332.370696,-3064.381992,9622.677246
16136.640710,1036.288319,-2451.505594,8364.327145
16136.641034,1480.411884,-1915.238745,7920.203579
16136.641358,2072.576638,-1225.752797,7698.141797
16136.641682,1332.370696,-1072.533697,7698.141797
16136.642006,148.041188,-383.047749,7550.100608
16136.642330,296.082377,-459.657299,6587.832884
16136.642655,222.061783,0.000000,8364.327145
16136.642979,0.000000,-383.047749,8882.471304
16136.643303,-518.144159,-459.657299,9474.636058
16136.643627,-962.267725,0.000000,9474.636058
16136.643951,-370.102971,229.828649,9918.759623
16136.644275,296.082377,689.485948,10288.862594
16136.644600,0.000000,1302.362347,10140.821405
16136.644924,-148.041188,2068.457845,9770.718434
16136.645248,1036.288319,2757.943793,9844.739029
16136.645572,1702.473667,3294.210641,10066.800811
16136.645896,1110.308913,3753.867940,9696.697840
16136.646220,888.247130,4290.134789,9474.636058
16136.646544,1184.329507,4826.401637,8882.471304
16136.646869,518.144159,4596.572988,9400.615463
16136.647193,518.144159,5362.668486,9400.615463
16136.647517,222.061783,5132.839837,9178.553681
16136.647841,148.041188,4596.572988,8808.450710
16136.648165,666.185348,4903.011187,9178.553681
16136.648489,296.082377,4979.620737,8882.471304
16136.648814,0.000000,4443.353888,8290.306550
16136.649138,222.061783,4903.011187,7846.182985
16136.649462,1332.370696,4826.401637,7624.121203
16136.649786,1258.350101,4366.744339,7550.100608
16136.650110,1184.329507,4979.620737,7402.059420
16136.650434,1480.411884,4826.401637,7031.956449
16136.650758,1554.432478,4290.134789,7328.038826
16136.651083,1628.453072,3600.648841,8142.265362
16136.651407,1110.308913,2987.772442,8068.244768
16136.651731,148.041188,2374.896044,8216.285956
16136.652055,-222.061783,1225.752797,8882.471304
16136.652379,-740.205942,536.266849,9992.780217
16136.652703,-2072.576638,-689.485948,10214.842000
16136.653027,-2886.803174,-2068.457845,10288.862594
16136.653352,-3256.906145,-2987.772442,10214.842000
16136.653676,-2516.700203,-2604.724693,11029.068536
16136.654000,-3108.864956,-3370.820191,10658.965565
16136.654324,-2812.782580,-3907.087040,10362.883188
16136.654648,-2516.700203,-3447.429741,10436.903782
16136.654972,-2072.576638,-3524.039291,10584.944971
16136.655297,-1850.514855,-3753.867940,10732.986159
16136.655621,-1332.370696,-3600.648841,10436.903782
16136.655945,-888.247130,-3753.867940,9992.780217
16136.656269,222.061783,-4290.134789,10436.903782
16136.656593,222.061783,-3830.477490,10807.006753
16136.656917,-740.205942,-4366.744339,10362.883188
16136.657241,0.000000,-3830.477490,9770.718434
16136.657566,888.247130,-3370.820191,9474.636058
16136.657890,814.226536,-3294.210641,8808.450710
16136.658214,666.185348,-2145.067394,8142.265362
16136.658538,1184.329507,-1149.143247,7698.141797
16136.658862,2220.617826,-995.924147,8142.265362
16136.659186,1850.514855,-766.095498,8142.265362
16136.659510,1628.453072,-229.828649,7920.203579
16136.659834,1036.288319,76.609550,8290.306550
16136.660158,1184.329507,153.219100,8734.430116
16136.660482,1184.329507,0.000000,9992.780217
16136.660806,-148.041188,0.000000,9474.636058
16136.661130,-1628.453072,-306.438199,9770.718434
16136.661454,-666.185348,0.000000,10732.986159
16136.661778,-888.247130,0.000000,10510.924376
16136.662102,-1184.329507,612.876398,10436.903782
16136.662426,-1184.329507,1378.971896,9992.780217
16136.662750,-444.123565,2604.724693,9400.615463
16136.663074,962.267725,2834.553343,9326.594869
16136.663398,1184.329507,4136.915689,9178.553681
16136.663722,740.205942,4826.401637,8586.388927
16136.664045,888.247130,4903.011187,8438.347739
16136.664369,1998.556043,5209.449386,8882.471304
16136.664693,2072.576638,5286.058936,9400.615463
16136.665017,370.102971,4596.572988,9104.533087
16136.665341,74.020594,5362.668486,8512.368333
16136.665665,1332.370696,4826.401637,8882.471304
16136.665989,962.267725,4903.011187,8734.430116
16136.666313,74.020594,4749.792088,9030.512492
16136.666637,444.123565,4979.620737,8216.285956
16136.666961,1554.432478,4903.011187,7994.224174
16136.667285,2072.576638,5286.058936,8216.285956
16136.667609,2146.597232,5515.887586,8290.306550
16136.667933,1998.556043,5669.106685,7476.080014
16136.668257,1924.535449,4903.011187,7179.997637
16136.668581,1998.556043,4213.525239,8142.265362
16136.668905,370.102971,3524.039291,8216.285956
16136.669229,-1036.288319,2221.676944,8290.306550
16136.669553,-1628.453072,1838.629195,8882.471304
16136.669877,-2664.741391,-229.828649,9474.636058
16136.670201,-3701.029710,-919.314598,9474.636058
16136.670525,-4293.194464,-1838.629195,9770.718434
16136.670849,-3775.050304,-2451.505594,10066.800811
16136.671173,-3404.947333,-2604.724693,10362.883188
16136.671497,-2812.782580,-2834.553343,10510.924376
16136.671821,-2368.659014,-2604.724693,10436.903782
16136.672145,-1702.473667,-2528.115143,10658.965565
16136.672469,-666.185348,-2221.676944,11029.068536
16136.672793,-370.102971,-2757.943793,10881.027347
16136.673117,-1036.288319,-3600.648841,10807.006753
16136.673441,-1184.329507,-3677.258390,10732.986159
16136.673765,0.000000,-3753.867940,10732.986159
16136.674089,-370.102971,-4060.306139,10881.027347
16136.674413,-888.247130,-3983.696590,9696.697840
16136.674737,-1036.288319,-4060.306139,8956.491898
16136.675061,-370.102971,-2528.115143,8808.450710
16136.675385,888.247130,-2528.115143,8808.450710
16136.675709,1110.308913,-2145.067394,8882.471304
16136.676033,1258.350101,-1378.971896,8142.265362
16136.676357,2294.638420,-612.876398,7772.162391
16136.676681,3182.885551,0.000000,8290.306550
16136.677005,2146.597232,383.047749,8290.306550
16136.677329,592.164754,153.219100,7772.162391
16136.677653,888.247130,-153.219100,8734.430116
16136.677977,1036.288319,-383.047749,9622.677246
16136.678300,0.000000,-842.705048,9918.759623
16136.678624,-1184.329507,-689.485948,10214.842000
16136.678948,-1776.494261,-612.876398,9844.739029
16136.679272,-370.102971,0.000000,10140.821405
16136.679596,444.123565,689.485948,10214.842000
16136.679920,-148.041188,995.924147,9696.697840
16136.680244,296.082377,2528.115143,9178.553681
16136.680568,1628.453072,3524.039291,9178.553681
16136.680892,2294.638420,4060.306139,9326.594869
16136.681216,1332.370696,4136.915689,9622.677246
16136.681540,222.061783,5056.230287,8734.430116
16136.681864,1110.308913,4826.401637,8512.368333
16136.682188,1776.494261,4519.963438,9252.574275
16136.682512,296.082377,4213.525239,9474.636058
16136.682836,-296.082377,4443.353888,9400.615463
16136.683160,0.000000,4366.744339,9326.594869
16136.683484,444.123565,4673.182538,9400.615463
16136.683808,962.267725,4749.792088,9326.594869
16136.684132,814.226536,4749.792088,8438.347739
16136.684456,1776.494261,5822.325785,7846.182985
16136.684780,3404.947333,5822.325785,7920.203579
16136.685104,2738.761985,5592.497135,8216.285956
16136.685428,1480.411884,5362.668486,7402.059420
16136.685752,1110.308913,5209.449386,7105.977043
16136.686076,1036.288319,4213.525239,7105.977043
16136.686400,-962.267725,2757.943793,7772.162391
16136.686724,-1628.453072,1455.581446,8216.285956
16136.687048,-2886.803174,612.876398,8142.265362
16136.687372,-3404.947333,-153.219100,9178.553681
16136.687696,-3627.009116,-1072.533697,9992.780217
16136.688020,-3849.070898,-1608.800546,9844.739029
16136.688344,-4071.132681,-2221.676944,9400.615463
16136.688668,-2664.741391,-2298.286494,10288.862594
16136.688992,-1628.453072,-2221.676944,10658.965565
16136.689316,-1776.494261,-2757.943793,10955.047942
16136.689640,-1480.411884,-2834.553343,10510.924376
16136.689964,-444.123565,-2757.943793,10732.986159
16136.690288,0.000000,-3370.820191,11029.068536
16136.690612,-296.082377,-3753.867940,11399.171507
16136.690936,-666.185348,-3983.696590,10510.924376
16136.691260,148.041188,-4596.572988,10732.986159
16136.691584,222.061783,-4290.134789,10955.047942
16136.691908,0.000000,-4136.915689,10807.006753
16136.692232,0.000000,-3907.087040,9770.718434
16136.692555,888.247130,-3294.210641,9030.512492
16136.692879,2294.638420,-2757.943793,9104.533087
16136.693203,1998.556043,-1991.848295,8734.430116
16136.693527,1998.556043,-1608.800546,7772.162391
16136.693851,2146.597232,-995.924147,7254.018232
16136.694175,2516.700203,-689.485948,7698.141797
16136.694499,1702.473667,-919.314598,8142.265362
16136.694823,740.205942,-612.876398,8068.244768
16136.695147,0.000000,-536.266849,8216.285956
16136.695471,-370.102971,-766.095498,8734.430116
16136.695795,-592.164754,-995.924147,10066.800811
16136.696119,-740.205942,-536.266849,10510.924376
16136.696443,-1406.391290,-459.657299,10066.800811
16136.696767,-592.164754,383.047749,10214.842000
16136.697091,518.144159,1072.533697,10584.944971
16136.697415,444.123565,1685.410096,10066.800811
16136.697739,222.061783,2451.505594,9400.615463
16136.698063,740.205942,2757.943793,9326.594869
16136.698387,1406.391290,3907.087040,9770.718434
16136.698711,740.205942,4060.306139,9548.656652
16136.699035,222.061783,4213.525239,9400.615463
16136.699359,0.000000,3907.087040,9252.574275
16136.699683,444.123565,4136.915689,9474.636058
16136.700007,518.144159,3677.258390,9474.636058
16136.700331,148.041188,3753.867940,8808.450710
16136.700655,296.082377,4366.744339,8882.471304
16136.700979,1406.391290,4673.182538,9030.512492
16136.701303,1924.535449,4903.011187,8734.430116
16136.701627,1480.411884,4749.792088,8142.265362
16136.701951,1406.391290,5132.839837,7624.121203
16136.702275,2442.679609,5286.058936,6661.853478
16136.702599,2294.638420,5056.230287,6587.832884
16136.702923,1110.308913,4826.401637,7402.059420
16136.703247,444.123565,3983.696590,7105.977043
16136.703571,222.061783,2834.553343,7846.182985
16136.703895,-518.144159,2298.286494,8290.306550
16136.704219,-1850.514855,1149.143247,8882.471304
16136.704543,-2368.659014,536.266849,9104.533087
16136.704867,-2442.679609,-229.828649,9548.656652
16136.705191,-2960.823768,-919.314598,10066.800811
16136.705515,-3256.906145,-2145.067394,10584.944971
16136.705839,-3478.967927,-2451.505594,10658.965565
16136.706163,-2664.741391,-2604.724693,10436.903782
16136.706487,-2220.617826,-2681.334243,10732.986159
16136.706810,-2146.597232,-2834.553343,10510.924376
16136.707134,-1554.432478,-2604.724693,10288.862594
16136.707458,-1554.432478,-2987.772442,10066.800811
16136.707782,-592.164754,-3524.039291,10658.965565
16136.708106,-740.205942,-3830.477490,10732.986159
16136.708430,-296.082377,-3524.039291,10658.965565
16136.708754,0.000000,-3753.867940,10436.903782
16136.709078,1110.308913,-3524.039291,9992.780217
16136.709402,888.247130,-3600.648841,9918.759623
16136.709726,1036.288319,-3370.820191,9474.636058
16136.710050,1184.329507,-2451.505594,8660.409521
16136.710374,2442.679609,-2145.067394,8586.388927
16136.710698,2294.638420,-1685.410096,7846.182985
16136.711022,2072.576638,-1225.752797,8068.244768
16136.711346,1998.556043,-459.657299,7550.100608
16136.711670,1924.535449,-536.266849,7846.182985
16136.711994,1184.329507,-306.438199,8512.368333
16136.712318,740.205942,-536.266849,9252.574275
16136.712642,-222.061783,-995.924147,9326.594869
16136.712966,-148.041188,-612.876398,9918.759623
16136.713290,-222.061783,-689.485948,10436.903782
16136.713614,-1332.370696,-536.266849,10436.903782
16136.713938,-1554.432478,-459.657299,10288.862594
16136.714262,-1258.350101,229.828649,10288.862594
16136.714586,-888.247130,842.705048,9992.780217
16136.714910,-518.144159,1915.238745,10066.800811
16136.715234,-222.061783,2451.505594,9326.594869
16136.715558,370.102971,3217.601092,8660.409521
16136.715882,1184.329507,3983.696590,9104.533087
16136.716206,1332.370696,4443.353888,9252.574275
16136.716530,814.226536,4366.744339,9104.533087
16136.716854,666.185348,4366.744339,8808.450710
16136.717178,1332.370696,4596.572988,9326.594869
16136.717502,1036.288319,4060.306139,9474.636058
16136.717826,0.000000,3983.696590,9030.512492
16136.718150,0.000000,4519.963438,8808.450710
16136.718474,444.123565,4903.011187,8734.430116
16136.718798,888.247130,4519.963438,8512.368333
16136.719122,444.123565,4903.011187,7402.059420
16136.719446,740.205942,5056.230287,7179.997637
16136.719770,1480.411884,5209.449386,7031.956449
16136.720094,1776.494261,5132.839837,7402.059420
16136.720418,1406.391290,4673.182538,7772.162391
16136.720742,444.123565,4290.134789,7402.059420
16136.721065,888.247130,3064.381992,7698.141797
16136.721389,222.061783,2298.286494,8808.450710
16136.721713,-1184.329507,995.924147,9326.594869
16136.722037,-2516.700203,-153.219100,9696.697840
16136.722361,-2812.782580,-1072.533697,9992.780217
16136.722685,-2886.803174,-1455.581446,10214.842000
16136.723009,-3182.885551,-2528.115143,10584.944971
16136.723333,-3404.947333,-2374.896044,10214.842000
16136.723657,-2220.617826,-1991.848295,10140.821405
16136.723981,-1406.391290,-2528.115143,10584.944971
16136.724305,-666.185348,-2221.676944,10807.006753
16136.724629,-962.267725,-2451.505594,9918.759623
16136.724953,-74.020594,-2298.286494,10436.903782
16136.725277,666.185348,-2145.067394,10510.924376
16136.725601,1110.308913,-2604.724693,10140.821405
16136.725925,0.000000,-3370.820191,10436.903782
16136.726249,-592.164754,-3983.696590,10140.821405
16136.726573,0.000000,-3524.039291,10362.883188
16136.726897,222.061783,-3600.648841,10288.862594
16136.727221,-296.082377,-3600.648841,9548.656652
16136.727545,-370.102971,-2451.505594,9030.512492
16136.727869,518.144159,-2374.896044,8290.306550
16136.728193,1184.329507,-1455.581446,8364.327145
16136.728517,1332.370696,-766.095498,7994.224174
16136.728841,1184.329507,0.000000,8142.265362
16136.729165,1258.350101,229.828649,7846.182985
16136.729489,1776.494261,76.609550,8438.347739
16136.729813,1332.370696,-229.828649,9104.533087
16136.730137,-444.123565,0.000000,9030.512492
16136.730461,0.000000,-153.219100,9400.615463
16136.730785,0.000000,-383.047749,10066.800811
16136.731109,-962.267725,-459.657299,10436.903782
16136.731433,-1776.494261,229.828649,9992.780217
16136.731757,-962.267725,612.876398,9326.594869
16136.732081,148.041188,1225.752797,9548.656652
16136.732405,518.144159,2145.067394,9992.780217
16136.732729,666.185348,3370.820191,9474.636058
16136.733053,814.226536,3907.087040,8956.491898
16136.733377,1480.411884,4290.134789,8956.491898
16136.733701,1628.453072,4366.744339,9252.574275
16136.734025,814.226536,3983.696590,8956.491898
16136.734349,-370.102971,3983.696590,8956.491898
16136.734673,0.000000,3677.258390,8808.450710
16136.734997,148.041188,3677.258390,9548.656652
16136.735320,-1258.350101,3447.429741,9474.636058
16136.735644,-814.226536,3447.429741,8734.430116
16136.735968,-296.082377,3830.477490,8512.368333
16136.736292,888.247130,4136.915689,8290.306550
16136.736616,1998.556043,4826.401637,8512.368333
16136.736940,2072.576638,4826.401637,7624.121203
16136.737264,2220.617826,5592.497135,7624.121203
16136.737588,3552.988522,5132.839837,7550.100608
16136.737912,3330.926739,4443.353888,7994.224174
16136.738236,1554.432478,3294.210641,8142.265362
16136.738560,1036.288319,2757.943793,8364.327145
16136.738884,592.164754,2145.067394,8586.388927
16136.739208,-740.205942,689.485948,9400.615463
16136.739532,-2442.679609,0.000000,9474.636058
16136.739856,-3182.885551,-1915.238745,9400.615463
16136.740180,-2738.761985,-1685.410096,9992.780217
16136.740504,-2738.761985,-1991.848295,10955.047942
16136.740828,-2812.782580,-1915.238745,10732.986159
16136.741152,-2516.700203,-1685.410096,10362.883188
16136.741476,-1332.370696,-2451.505594,10288.862594
16136.741800,-148.041188,-1532.190996,10436.903782
16136.742124,-740.205942,-2604.724693,10510.924376
16136.742448,-1554.432478,-2834.553343,10214.842000
16136.742772,-1184.329507,-2987.772442,10288.862594
16136.743096,-592.164754,-3140.991542,10955.047942
16136.743420,-1184.329507,-3447.429741,10881.027347
16136.743744,-1776.494261,-3677.258390,10658.965565
16136.744068,-1184.329507,-3447.429741,9548.656652
16136.744392,-444.123565,-2911.162892,9400.615463
16136.744716,444.123565,-2451.505594,9696.697840
16136.745040,814.226536,-1915.238745,8882.471304
16136.745364,1184.329507,-995.924147,8068.244768
16136.745688,2664.741391,-383.047749,7846.182985
16136.746012,3552.988522,383.047749,7994.224174
16136.746336,1998.556043,0.000000,7328.038826
16136.746660,1628.453072,-383.047749,7994.224174
16136.746984,1628.453072,153.219100,8068.244768
16136.747308,1110.308913,-383.047749,9178.553681
16136.747632,-370.102971,-1072.533697,9622.677246
16136.747956,-1258.350101,-766.095498,9474.636058
16136.748280,-1184.329507,-536.266849,9548.656652
16136.748604,-1258.350101,-459.657299,10510.924376
16136.748928,-1110.308913,459.657299,10436.903782
16136.749252,-740.205942,689.485948,9918.759623
16136.749575,148.041188,1762.019645,9770.718434
16136.749899,1258.350101,2374.896044,9400.615463
16136.750223,1184.329507,2987.772442,9622.677246
16136.750547,592.164754,3370.820191,9252.574275
16136.750871,962.267725,3907.087040,8586.388927
16136.751195,1036.288319,3600.648841,8660.409521
16136.751519,888.247130,3370.820191,9252.574275
16136.751843,-222.061783,3524.039291,9252.574275
16136.752167,74.020594,3830.477490,9326.594869
16136.752491,296.082377,3294.210641,9474.636058
16136.752815,222.061783,4366.744339,9326.594869
16136.753139,814.226536,3983.696590,9326.594869
16136.753463,1406.391290,4673.182538,8734.430116
16136.753787,2590.720797,4290.134789,8364.327145
16136.754111,3552.988522,4903.011187,8438.347739
16136.754435,2886.803174,4826.401637,8068.244768
16136.754759,2442.679609,5132.839837,7772.162391
16136.755083,2590.720797,4903.011187,7328.038826
16136.755407,1850.514855,3983.696590,6809.894666
16136.755731,740.205942,3600.648841,7624.121203
16136.756055,-592.164754,2528.115143,7772.162391
16136.756379,-1628.453072,1225.752797,7994.224174
16136.756703,-2220.617826,76.609550,9252.574275
16136.757027,-2960.823768,-229.828649,9548.656652
16136.757351,-4071.132681,-842.705048,9918.759623
16136.757675,-3182.885551,-1762.019645,9622.677246
16136.757999,-1924.535449,-1455.581446,10214.842000
16136.758323,-2664.741391,-2528.115143,10584.944971
16136.758647,-3182.885551,-2757.943793,10584.944971
16136.758971,-2146.597232,-2834.553343,10658.965565
16136.759295,-1480.411884,-2834.553343,10732.986159
16136.759619,-1554.432478,-2911.162892,10732.986159
16136.759943,-1776.494261,-3217.601092,10881.027347
16136.760267,-518.144159,-3064.381992,10510.924376
16136.760591,-666.185348,-3753.867940,11103.089130
16136.760914,-296.082377,-3600.648841,10732.986159
16136.761238,-370.102971,-3753.867940,10140.821405
16136.761562,-222.061783,-3140.991542,9696.697840
16136.761886,518.144159,-2987.772442,9474.636058
16136.762210,1480.411884,-2221.676944,9474.636058
16136.762534,888.247130,-2987.772442,8512.368333
16136.762858,1036.288319,-1378.971896,7698.141797
16136.763182,2294.638420,-536.266849,8216.285956
16136.763506,1776.494261,-459.657299,7846.182985
16136.763830,1184.329507,-153.219100,7994.224174
16136.764154,666.185348,-383.047749,7920.203579
16136.764478,740.205942,0.000000,7920.203579
16136.764802,518.144159,-383.047749,9178.553681
16136.765126,-296.082377,-766.095498,9696.697840
16136.765450,-666.185348,-306.438199,9918.759623
16136.765774,-740.205942,0.000000,10140.821405
16136.766098,74.020594,76.609550,10288.862594
16136.766422,0.000000,459.657299,10288.862594
16136.766746,-296.082377,842.705048,9622.677246
16136.767070,0.000000,1455.581446,9400.615463
16136.767394,888.247130,2221.676944,9474.636058
16136.767718,962.267725,1838.629195,9400.615463
16136.768042,222.061783,2911.162892,9104.533087
16136.768366,222.061783,3600.648841,8586.388927
16136.768690,666.185348,3370.820191,9030.512492
16136.769014,296.082377,3983.696590,9474.636058
16136.769338,888.247130,3524.039291,9474.636058
16136.769662,296.082377,3830.477490,9622.677246
16136.769985,814.226536,3983.696590,9548.656652
16136.770309,2072.576638,4136.915689,9548.656652
16136.770633,1850.514855,4290.134789,9696.697840
16136.770957,1406.391290,4519.963438,9030.512492
16136.771281,2368.659014,4596.572988,8586.388927
16136.771605,2664.741391,4903.011187,8142.265362
16136.771929,2368.659014,5056.230287,7254.018232
16136.772253,1924.535449,5209.449386,7328.038826
16136.772577,1110.308913,4519.963438,7105.977043
16136.772901,592.164754,3600.648841,7179.997637
16136.773225,0.000000,3217.601092,8068.244768
16136.773549,-1184.329507,1838.629195,8142.265362
16136.773873,-2294.638420,1225.752797,8142.265362
16136.774197,-2368.659014,76.609550,9474.636058
16136.774521,-2960.823768,-919.314598,9252.574275
16136.774845,-4145.153275,-1762.019645,9770.718434
16136.775169,-4145.153275,-1915.238745,9548.656652
16136.775493,-3552.988522,-2451.505594,10140.821405
16136.775817,-3330.926739,-2681.334243,10362.883188
16136.776141,-2960.823768,-2604.724693,10955.047942
16136.776465,-1776.494261,-2374.896044,10436.903782
16136.776789,-592.164754,-3064.381992,10658.965565
16136.777113,-740.205942,-3064.381992,11103.089130
16136.777437,0.000000,-2451.505594,11251.130318
16136.777761,444.123565,-2681.334243,11251.130318
16136.778085,592.164754,-2834.553343,10807.006753
16136.778409,1184.329507,-2834.553343,10955.047942
16136.778733,444.123565,-4290.134789,10584.944971
16136.779056,0.000000,-2757.943793,9622.677246
16136.779380,740.205942,-2987.772442,9696.697840
16136.779704,666.185348,-2374.896044,9178.553681
16136.780028,148.041188,-1762.019645,8216.285956
16136.780352,444.123565,-1762.019645,7550.100608
16136.780676,740.205942,-842.705048,6809.894666
16136.781000,1702.473667,-919.314598,7698.141797
16136.781324,518.144159,-383.047749,7550.100608
16136.781648,592.164754,-536.266849,7846.182985
16136.781972,370.102971,-383.047749,8660.409521
16136.782296,814.226536,-76.609550,9400.615463
16136.782620,814.226536,-383.047749,9992.780217
16136.782944,0.000000,-689.485948,10288.862594
16136.783268,-222.061783,0.000000,10066.800811
16136.783592,666.185348,459.657299,10288.862594
16136.783916,444.123565,0.000000,10140.821405
16136.784240,-148.041188,995.924147,10066.800811
16136.784564,444.123565,2068.457845,9474.636058
16136.784888,1036.288319,2604.724693,9622.677246
16136.785212,1110.308913,3064.381992,9844.739029
16136.785536,1110.308913,3753.867940,9474.636058
16136.785860,1184.329507,4213.525239,9400.615463
16136.786184,1406.391290,4443.353888,9252.574275
16136.786508,1332.370696,4060.306139,9622.677246
16136.786832,518.144159,4136.915689,9622.677246
16136.787156,-148.041188,3600.648841,9326.594869
16136.787480,-148.041188,3677.258390,8956.491898
16136.787804,296.082377,4060.306139,9474.636058
16136.788127,518.144159,3370.820191,8882.471304
16136.788451,296.082377,4060.306139,8216.285956
16136.788775,888.247130,4596.572988,7624.121203
16136.789099,1406.391290,4749.792088,7402.059420
16136.789423,1924.535449,5056.230287,7550.100608
16136.789747,1554.432478,5056.230287,7105.977043
16136.790071,1406.391290,4060.306139,6883.915261
16136.790395,1850.514855,4519.963438,7105.977043
16136.790719,1258.350101,3447.429741,7920.203579
16136.791043,-1184.329507,1685.410096,7994.224174
16136.791367,-1924.535449,536.266849,8734.430116
16136.791691,-1998.556043,-229.828649,9104.533087
16136.792015,-3034.844362,-1072.533697,10066.800811
16136.792339,-4293.194464,-2145.067394,10436.903782
16136.792663,-3997.112087,-2221.676944,9696.697840
16136.792987,-2738.761985,-2145.067394,10214.842000
16136.793311,-2590.720797,-2987.772442,10436.903782
16136.793635,-2146.597232,-2451.505594,11103.089130
16136.793959,-1554.432478,-2374.896044,10732.986159
16136.794283,-518.144159,-2298.286494,10881.027347
16136.794607,666.185348,-2374.896044,11103.089130
16136.794931,74.020594,-2451.505594,11473.192101
16136.795255,-1332.370696,-2604.724693,10362.883188
16136.795579,0.000000,-3447.429741,10658.965565
16136.795903,518.144159,-3294.210641,10658.965565
16136.796227,-444.123565,-3370.820191,10288.862594
16136.796551,-814.226536,-3447.429741,9474.636058
16136.796875,0.000000,-2604.724693,8882.471304
16136.797198,740.205942,-2451.505594,8882.471304
16136.797522,1554.432478,-1685.410096,8438.347739
16136.797846,1406.391290,-995.924147,7994.224174
16136.798170,1850.514855,76.609550,7328.038826
16136.798494,2220.617826,0.000000,7550.100608
16136.798818,2590.720797,153.219100,8216.285956
16136.799142,1110.308913,-76.609550,8216.285956
16136.799466,518.144159,-153.219100,8734.430116
16136.799790,1184.329507,0.000000,9474.636058
16136.800114,74.020594,-612.876398,10140.821405
16136.800438,-592.164754,-689.485948,10436.903782
16136.800762,-1332.370696,-383.047749,10140.821405
16136.801086,-1110.308913,76.609550,9992.780217
16136.801410,-222.061783,689.485948,10288.862594
16136.801734,0.000000,1838.629195,10066.800811
16136.802058,74.020594,2451.505594,9474.636058
16136.802382,962.267725,3140.991542,9326.594869
16136.802706,1628.453072,4136.915689,9400.615463
16136.803030,1554.432478,4290.134789,9252.574275
16136.803354,444.123565,4290.134789,9104.533087
16136.803678,222.061783,4060.306139,9104.533087
16136.804002,1036.288319,4136.915689,9104.533087
16136.804326,148.041188,3524.039291,9474.636058
16136.804650,-592.164754,3830.477490,8882.471304
16136.804974,-444.123565,3677.258390,8512.368333
16136.805298,0.000000,3370.820191,8882.471304
16136.805622,592.164754,4060.306139,8882.471304
16136.805946,1184.329507,4290.134789,8808.450710
16136.806269,1036.288319,4749.792088,7624.121203
16136.806593,1998.556043,4826.401637,7476.080014
16136.806917,3256.906145,4213.525239,7550.100608
16136.807241,1998.556043,4519.963438,7772.162391
16136.807565,814.226536,3983.696590,7402.059420
16136.807889,1258.350101,3370.820191,7550.100608
16136.808213,592.164754,2068.457845,8364.327145
16136.808537,-888.247130,1532.190996,8956.491898
16136.808861,-2368.659014,229.828649,9178.553681
16136.809185,-2886.803174,-612.876398,9030.512492
16136.809509,-3034.844362,-1378.971896,9770.718434
16136.809833,-3034.844362,-1762.019645,10584.944971
16136.810157,-3256.906145,-1915.238745,10584.944971
16136.810481,-2590.720797,-2528.115143,10214.842000
16136.810805,-1036.288319,-1915.238745,10955.047942
16136.811129,-666.185348,-2145.067394,11029.068536
16136.811453,-1258.350101,-2145.067394,10214.842000
16136.811777,-962.267725,-2451.505594,9992.780217
16136.812101,74.020594,-2834.553343,10510.924376
16136.812425,-444.123565,-3447.429741,10881.027347
16136.812749,-1184.329507,-3677.258390,10436.903782
16136.813073,-814.226536,-3830.477490,10214.842000
16136.813397,-444.123565,-3753.867940,9770.718434
16136.813721,0.000000,-2987.772442,10288.862594
16136.814045,74.020594,-3447.429741,9770.718434
16136.814369,0.000000,-2987.772442,9104.533087
16136.814693,962.267725,-2145.067394,8586.388927
16136.815017,2072.576638,-1762.019645,8586.388927
16136.815340,1924.535449,-1149.143247,8438.347739
16136.815664,1480.411884,-383.047749,7624.121203
16136.815988,1850.514855,76.609550,7254.018232
16136.816312,1998.556043,306.438199,8142.265362
16136.816636,1332.370696,0.000000,8512.368333
16136.816960,0.000000,-383.047749,8808.450710
16136.817284,-518.144159,-383.047749,9326.594869
16136.817608,-370.102971,-229.828649,10066.800811
16136.817932,-296.082377,-153.219100,10584.944971
16136.818256,-1036.288319,0.000000,10140.821405
16136.818580,-592.164754,919.314598,9622.677246
16136.818904,888.247130,1762.019645,9918.759623
16136.819228,962.267725,2068.457845,9844.739029
16136.819552,296.082377,2451.505594,9696.697840
16136.819876,222.061783,2987.772442,8734.430116
16136.820200,888.247130,3907.087040,8438.347739
16136.820524,666.185348,4136.915689,8882.471304
16136.820848,-296.082377,4060.306139,8586.388927
16136.821172,-592.164754,3907.087040,8068.244768
16136.821496,-148.041188,3830.477490,9104.533087
16136.821820,74.020594,3753.867940,9696.697840
16136.822144,-518.144159,3830.477490,9770.718434
16136.822468,-370.102971,3677.258390,9030.512492
16136.822792,1110.308913,3983.696590,9474.636058
16136.823116,2146.597232,5056.230287,9326.594869
16136.823440,1924.535449,4596.572988,8956.491898
16136.823764,1776.494261,4903.011187,8068.244768
16136.824088,3034.844362,5209.449386,7772.162391
16136.824411,3182.885551,4903.011187,7994.224174
16136.824735,1998.556043,4136.915689,7550.100608
16136.825059,1110.308913,3600.648841,7254.018232
16136.825383,0.000000,3294.210641,6957.935855
16136.825707,296.082377,1532.190996,7920.203579
16136.826031,-1184.329507,689.485948,8586.388927
16136.826355,-2368.659014,0.000000,9030.512492
16136.826679,-3256.906145,-766.095498,9104.533087
16136.827003,-2368.659014,-1455.581446,9474.636058
16136.827327,-2738.761985,-1838.629195,10288.862594
16136.827651,-3478.967927,-2987.772442,10362.883188
16136.827975,-3256.906145,-2604.724693,10140.821405
16136.828299,-2146.597232,-3217.601092,10732.986159
16136.828623,-1702.473667,-3140.991542,10881.027347
16136.828947,-2072.576638,-3370.820191,10807.006753
16136.829271,-1554.432478,-3294.210641,10288.862594
16136.829595,-888.247130,-3064.381992,10807.006753
16136.829919,0.000000,-4366.744339,11251.130318
16136.830243,-222.061783,-3677.258390,11399.171507
16136.830567,-370.102971,-3677.258390,10436.903782
16136.830891,0.000000,-3064.381992,9992.780217
16136.831215,962.267725,-3064.381992,10436.903782
16136.831539,740.205942,-2757.943793,9844.739029
16136.831863,370.102971,-2604.724693,8882.471304
16136.832187,814.226536,-1915.238745,8290.306550
16136.832511,1776.494261,-1532.190996,8068.244768
16136.832835,1184.329507,-1302.362347,7550.100608
16136.833159,1036.288319,-689.485948,7698.141797
16136.833482,1184.329507,0.000000,7328.038826
16136.833806,814.226536,0.000000,7994.224174
16136.834130,666.185348,-306.438199,8882.471304
16136.834454,518.144159,-383.047749,9030.512492
16136.834778,-296.082377,-612.876398,9252.574275
16136.835102,0.000000,306.438199,9622.677246
16136.835426,0.000000,0.000000,10362.883188
16136.835750,-666.185348,153.219100,10510.924376
16136.836074,-666.185348,689.485948,9918.759623
16136.836398,370.102971,1685.410096,9918.759623
16136.836722,888.247130,2145.067394,9918.759623
16136.837046,0.000000,2834.553343,9548.656652
16136.837370,222.061783,3447.429741,8956.491898
16136.837694,1110.308913,3983.696590,8660.409521
16136.838018,518.144159,3983.696590,9252.574275
16136.838342,296.082377,4443.353888,9548.656652
16136.838666,222.061783,4290.134789,9400.615463
16136.838990,592.164754,4136.915689,9252.574275
16136.839314,1554.432478,3830.477490,9474.636058
16136.839638,888.247130,4213.525239,10140.821405
16136.839962,518.144159,3600.648841,9104.533087
16136.840286,1258.350101,4060.306139,8882.471304
16136.840610,1776.494261,4673.182538,8438.347739
16136.840934,1628.453072,4519.963438,7846.182985
16136.841258,1702.473667,4903.011187,7550.100608
16136.841582,1924.535449,5056.230287,6957.935855
16136.841906,1628.453072,4826.401637,6957.935855
16136.842230,1110.308913,3830.477490,7179.997637
16136.842553,666.185348,3753.867940,7105.977043
16136.842877,0.000000,2528.115143,7254.018232
16136.843201,-592.164754,1838.629195,8142.265362
16136.843525,-518.144159,842.705048,8956.491898
16136.843849,-2738.761985,-536.266849,9400.615463
16136.844173,-3552.988522,-1225.752797,9770.718434
16136.844497,-3034.844362,-1608.800546,10362.883188
16136.844821,-2960.823768,-2528.115143,10955.047942
16136.845145,-3552.988522,-2834.553343,11029.068536
16136.845469,-3330.926739,-2987.772442,10955.047942
16136.845793,-2072.576638,-2681.334243,10881.027347
16136.846117,-1480.411884,-2911.162892,11177.109724
16136.846441,-666.185348,-2681.334243,11769.274478
16136.846765,-592.164754,-2604.724693,10881.027347
16136.847089,0.000000,-3064.381992,10658.965565
16136.847413,444.123565,-3064.381992,11029.068536
16136.847737,518.144159,-3447.429741,10881.027347
16136.848061,0.000000,-3370.820191,10436.903782
16136.848385,222.061783,-3830.477490,9696.697840
16136.848709,444.123565,-3677.258390,9252.574275
16136.849033,-222.061783,-2374.896044,8882.471304
16136.849357,-370.102971,-2451.505594,8142.265362
16136.849681,888.247130,-1685.410096,7846.182985
16136.850005,1406.391290,-1072.533697,7772.162391
16136.850329,1332.370696,-766.095498,7624.121203
16136.850653,1702.473667,-536.266849,7476.080014
16136.850977,1480.411884,383.047749,7550.100608
16136.851301,1850.514855,229.828649,7994.224174
16136.851624,1776.494261,153.219100,9400.615463
16136.851948,370.102971,0.000000,9622.677246
16136.852272,-518.144159,0.000000,10066.800811
16136.852596,-518.144159,0.000000,10584.944971
16136.852920,74.020594,0.000000,10807.006753
16136.853244,-888.247130,306.438199,10658.965565
16136.853568,-740.205942,995.924147,10066.800811
16136.853892,0.000000,1225.752797,10214.842000
16136.854216,444.123565,2145.067394,10066.800811
16136.854540,888.247130,3294.210641,9474.636058
16136.854864,444.123565,3753.867940,9030.512492
16136.855188,814.226536,4673.182538,8808.450710
16136.855512,1924.535449,4749.792088,8808.450710
16136.855836,1406.391290,4749.792088,9178.553681
16136.856160,0.000000,4136.915689,8808.450710
16136.856484,0.000000,4290.134789,8808.450710
16136.856808,814.226536,3907.087040,9030.512492
16136.857132,-148.041188,3370.820191,9104.533087
16136.857456,-592.164754,3370.820191,8956.491898
16136.857780,296.082377,3983.696590,8364.327145
16136.858104,1702.473667,4136.915689,8142.265362
16136.858428,1998.556043,4749.792088,7772.162391
16136.858751,2368.659014,5132.839837,7772.162391
16136.859075,2294.638420,5362.668486,7328.038826
16136.859399,2812.782580,4903.011187,7402.059420
16136.859723,2812.782580,4673.182538,7994.224174
16136.860047,1554.432478,3600.648841,8068.244768
16136.860371,-222.061783,2757.943793,7920.203579
16136.860695,-666.185348,1302.362347,8512.368333
16136.861019,-1776.494261,153.219100,9104.533087
16136.861343,-3478.967927,-995.924147,9918.759623
16136.861667,-4219.173869,-1762.019645,10066.800811
16136.861991,-4219.173869,-2528.115143,10140.821405
16136.862315,-4293.194464,-2681.334243,9844.739029
16136.862639,-2664.741391,-2757.943793,10881.027347
16136.862963,-2368.659014,-2834.553343,10955.047942
16136.863287,-2294.638420,-2681.334243,10510.924376
16136.863611,-296.082377,-2681.334243,10732.986159
16136.863935,370.102971,-2604.724693,10955.047942
16136.864258,-148.041188,-2987.772442,10732.986159
16136.864582,0.000000,-3217.601092,10214.842000
16136.864906,666.185348,-3140.991542,10214.842000
16136.865230,296.082377,-3140.991542,10510.924376
16136.865554,-740.205942,-3600.648841,9400.615463
16136.865878,-888.247130,-3524.039291,9252.574275
16136.866202,-444.123565,-3370.820191,9474.636058
16136.866526,0.000000,-2987.772442,9474.636058
16136.866850,0.000000,-2298.286494,8882.471304
16136.867174,0.000000,-1302.362347,8216.285956
16136.867498,1480.411884,-766.095498,7698.141797
16136.867822,2590.720797,-766.095498,8068.244768
16136.868146,1554.432478,-383.047749,7920.203579
16136.868470,370.102971,0.000000,8216.285956
16136.868794,1036.288319,153.219100,8660.409521
16136.869118,962.267725,0.000000,9178.553681
16136.869442,0.000000,-229.828649,10066.800811
16136.869765,-518.144159,-306.438199,10214.842000
16136.870089,-444.123565,0.000000,10140.821405
16136.870413,-518.144159,0.000000,10732.986159
16136.870737,0.000000,229.828649,10510.924376
16136.871061,148.041188,1455.581446,10214.842000
16136.871385,0.000000,2068.457845,9548.656652
16136.871709,1480.411884,2834.553343,9104.533087
16136.872033,1480.411884,3753.867940,9400.615463
16136.872357,1332.370696,3677.258390,8956.491898
16136.872681,370.102971,4519.963438,8586.388927
16136.873005,1332.370696,4366.744339,8438.347739
16136.873329,592.164754,4060.306139,8956.491898
16136.873653,-740.205942,3983.696590,8956.491898
16136.873977,-740.205942,3983.696590,8586.388927
16136.874301,-370.102971,3524.039291,9030.512492
16136.874625,-74.020594,3447.429741,8734.430116
16136.874949,0.000000,3907.087040,9474.636058
16136.875272,444.123565,4443.353888,9104.533087
16136.875596,1554.432478,4673.182538,8364.327145
16136.875920,2590.720797,4749.792088,8364.327145
16136.876244,2442.679609,5056.230287,8290.306550
16136.876568,2442.679609,4903.011187,7772.162391
16136.876892,2442.679609,4673.182538,7920.203579
16136.877216,2294.638420,3753.867940,7920.203579
16136.877540,888.247130,3140.991542,7994.224174
16136.877864,-666.185348,2068.457845,8216.285956
16136.878188,-1184.329507,919.314598,8364.327145
16136.878512,-2294.638420,0.000000,9252.574275
16136.878836,-2886.803174,-1225.752797,9474.636058
16136.879160,-3627.009116,-1532.190996,9844.739029
16136.879484,-3849.070898,-1991.848295,10066.800811
16136.879808,-2738.761985,-2298.286494,9918.759623
16136.880132,-1998.556043,-2528.115143,10658.965565
16136.880456,-2368.659014,-2834.553343,10436.903782
16136.880779,-2294.638420,-2681.334243,10510.924376
16136.881103,-666.185348,-2298.286494,9770.718434
16136.881427,148.041188,-2681.334243,10436.903782
16136.881751,-1036.288319,-2834.553343,10436.903782
16136.882075,-962.267725,-3294.210641,10362.883188
16136.882399,0.000000,-3524.039291,10140.821405
16136.882723,-148.041188,-3447.429741,10510.924376
16136.883047,-592.164754,-3447.429741,10658.965565
16136.883371,-296.082377,-3447.429741,10140.821405
16136.883695,0.000000,-3524.039291,9104.533087
16136.884019,1036.288319,-2911.162892,9104.533087
16136.884343,1036.288319,-1991.848295,10140.821405
16136.884667,740.205942,-1915.238745,8512.368333
16136.884991,1258.350101,-1149.143247,8290.306550
16136.885315,2072.576638,-459.657299,8068.244768
16136.885639,1702.473667,76.609550,8142.265362
16136.885963,962.267725,-229.828649,8290.306550
16136.886286,1110.308913,-229.828649,7846.182985
16136.886610,592.164754,-306.438199,8956.491898
16136.886934,370.102971,0.000000,10066.800811
16136.887258,0.000000,-306.438199,9992.780217
16136.887582,-444.123565,76.609550,9844.739029
16136.887906,-296.082377,0.000000,10140.821405
16136.888230,740.205942,1302.362347,10214.842000
16136.888554,222.061783,1685.410096,10066.800811
16136.888878,148.041188,1149.143247,9918.759623
16136.889202,444.123565,3217.601092,9178.553681
16136.889526,888.247130,3600.648841,9474.636058
16136.889850,444.123565,3830.477490,9030.512492
16136.890174,0.000000,4060.306139,8660.409521
16136.890498,-222.061783,4060.306139,8216.285956
16136.890822,222.061783,4519.963438,8808.450710
16136.891146,0.000000,4060.306139,9326.594869
16136.891470,0.000000,4136.915689,9474.636058
16136.891794,74.020594,4060.306139,8882.471304
16136.892117,1036.288319,4136.915689,9400.615463
16136.892441,1628.453072,4213.525239,9252.574275
16136.892765,1406.391290,4136.915689,9252.574275
16136.893089,1554.432478,4596.572988,8438.347739
16136.893413,2590.720797,4903.011187,7698.141797
16136.893737,2220.617826,4826.401637,7772.162391
16136.894061,1554.432478,4596.572988,7550.100608
16136.894385,1406.391290,4136.915689,7328.038826
16136.894709,1406.391290,3753.867940,7179.997637
16136.895033,518.144159,2911.162892,7994.224174
16136.895357,-444.123565,2451.505594,8142.265362
16136.895681,-1332.370696,1149.143247,8808.450710
16136.896005,-2072.576638,0.000000,9104.533087
16136.896329,-2368.659014,-612.876398,10066.800811
16136.896653,-3478.967927,-1762.019645,10510.924376
16136.896977,-3701.029710,-2528.115143,10066.800811
16136.897301,-2960.823768,-2757.943793,10658.965565
16136.897624,-2072.576638,-2987.772442,10732.986159
16136.897948,-2220.617826,-2681.334243,11177.109724
16136.898272,-2294.638420,-2834.553343,10214.842000
16136.898596,-1184.329507,-2834.553343,10214.842000
16136.898920,-444.123565,-2911.162892,10584.944971
16136.899244,-370.102971,-2834.553343,10510.924376
16136.899568,0.000000,-3140.991542,10436.903782
16136.899892,0.000000,-3830.477490,10214.842000
16136.900216,814.226536,-3524.039291,10288.862594
16136.900540,0.000000,-3600.648841,10584.944971
16136.900864,-518.144159,-3677.258390,9918.759623
16136.901188,-444.123565,-3294.210641,9474.636058
16136.901512,592.164754,-2604.724693,9178.553681
16136.901836,666.185348,-2834.553343,8808.450710
16136.902160,0.000000,-2374.896044,8068.244768
16136.902484,1036.288319,-1532.190996,7179.997637
16136.902808,1776.494261,-689.485948,7624.121203
16136.903131,1332.370696,-536.266849,8364.327145
16136.903455,1036.288319,0.000000,8290.306550
16136.903779,962.267725,153.219100,8512.368333
16136.904103,1184.329507,76.609550,9104.533087
16136.904427,1184.329507,612.876398,9918.759623
16136.904751,444.123565,0.000000,10214.842000
16136.905075,-518.144159,-383.047749,10362.883188
16136.905399,-370.102971,229.828649,10140.821405
16136.905723,0.000000,1072.533697,10436.903782
16136.906047,0.000000,1378.971896,10288.862594
16136.906371,-592.164754,2451.505594,9474.636058
16136.906695,296.082377,2374.896044,9030.512492
16136.907019,1184.329507,3907.087040,8660.409521
16136.907343,1258.350101,4290.134789,9178.553681
16136.907667,962.267725,4366.744339,8512.368333
16136.907991,888.247130,4826.401637,8882.471304
16136.908315,1998.556043,4596.572988,9104.533087
16136.908638,1776.494261,4519.963438,9474.636058
16136.908962,222.061783,3677.258390,9400.615463
16136.909286,0.000000,3907.087040,9252.574275
16136.909610,740.205942,4136.915689,8956.491898
16136.909934,814.226536,4136.915689,9178.553681
16136.910258,518.144159,3907.087040,8734.430116
16136.910582,888.247130,4596.572988,7846.182985
16136.910906,2072.576638,4826.401637,7624.121203
16136.911230,2294.638420,5439.278036,7772.162391
16136.911554,1850.514855,5745.716235,7476.080014
16136.911878,962.267725,4596.572988,7179.997637
16136.912202,1036.288319,3907.087040,6883.915261
16136.912526,1258.350101,3217.601092,7994.224174
16136.912850,-740.205942,2221.676944,8586.388927
16136.913174,-2368.659014,842.705048,8808.450710
16136.913498,-2146.597232,0.000000,8882.471304
16136.913822,-2664.741391,-1991.848295,10140.821405
16136.914145,-3701.029710,-2145.067394,10066.800811
16136.914469,-3997.112087,-2451.505594,10362.883188
16136.914793,-3552.988522,-2757.943793,9844.739029
16136.915117,-2664.741391,-3370.820191,10955.047942
16136.915441,-2072.576638,-2834.553343,11251.130318
16136.915765,-1776.494261,-2987.772442,10807.006753
16136.916089,-1110.308913,-2604.724693,10288.862594
16136.916413,0.000000,-2757.943793,10066.800811
16136.916737,888.247130,-2987.772442,11029.068536
16136.917061,-370.102971,-3447.429741,10584.944971
16136.917385,-740.205942,-3600.648841,10436.903782
16136.917709,148.041188,-3524.039291,10288.862594
16136.918033,74.020594,-3600.648841,10288.862594
16136.918357,-666.185348,-4213.525239,9696.697840
16136.918681,-962.267725,-3447.429741,8882.471304
16136.919005,0.000000,-2604.724693,8216.285956
16136.919329,1036.288319,-2068.457845,8808.450710
16136.919652,1184.329507,-1455.581446,8586.388927
16136.919976,1258.350101,-689.485948,8068.244768
16136.920300,2368.659014,229.828649,7846.182985
16136.920624,3182.885551,383.047749,8808.450710
16136.920948,1998.556043,229.828649,9030.512492
16136.921272,666.185348,0.000000,8364.327145
16136.921596,666.185348,0.000000,9030.512492
16136.921920,814.226536,-229.828649,9622.677246
16136.922244,-222.061783,-459.657299,10510.924376
16136.922568,-1110.308913,-459.657299,9696.697840
16136.922892,-1480.411884,536.266849,9474.636058
16136.923216,-666.185348,995.924147,9770.718434
16136.923540,0.000000,1608.800546,9844.739029
16136.923864,0.000000,1762.019645,9474.636058
16136.924188,148.041188,2834.553343,8734.430116
16136.924512,1332.370696,3830.477490,9104.533087
16136.924836,1702.473667,4213.525239,9252.574275
16136.925159,444.123565,4060.306139,9104.533087
16136.925483,0.000000,4596.572988,8956.491898
16136.925807,814.226536,4443.353888,9178.553681
16136.926131,444.123565,3983.696590,9992.780217
16136.926455,0.000000,3753.867940,9770.718434
16136.926779,-296.082377,4136.915689,9622.677246
16136.927103,222.061783,4290.134789,9178.553681
16136.927427,1184.329507,4290.134789,9474.636058
16136.927751,1628.453072,4903.011187,8734.430116
16136.928075,1628.453072,5669.106685,8364.327145
16136.928399,2368.659014,4903.011187,7476.080014
16136.928723,3404.947333,5362.668486,7846.182985
16136.929047,2442.679609,4903.011187,7698.141797
16136.929371,814.226536,4213.525239,7031.956449
16136.929695,740.205942,3600.648841,6735.874072
16136.930019,222.061783,2987.772442,7254.018232
16136.930343,-1036.288319,1532.190996,8660.409521
16136.930666,-3108.864956,229.828649,8586.388927
16136.930990,-3849.070898,-689.485948,9030.512492
16136.931314,-4071.132681,-1991.848295,9844.739029
16136.931638,-3923.091493,-2604.724693,10732.986159
16136.931962,-3627.009116,-2451.505594,10881.027347
16136.932286,-3701.029710,-3140.991542,10436.903782
16136.932610,-1702.473667,-2757.943793,11029.068536
16136.932934,0.000000,-2911.162892,11547.212695
16136.933258,-740.205942,-2681.334243,11029.068536
16136.933582,-666.185348,-2681.334243,10584.944971
16136.933906,518.144159,-2604.724693,10807.006753
16136.934230,888.247130,-2681.334243,10807.006753
16136.934554,-222.061783,-3294.210641,10214.842000
16136.934878,-666.185348,-3370.820191,10066.800811
16136.935202,-296.082377,-3140.991542,9696.697840
16136.935526,-222.061783,-3447.429741,9770.718434
16136.935850,0.000000,-3524.039291,9770.718434
16136.936173,-592.164754,-3140.991542,8808.450710
16136.936497,0.000000,-2221.676944,8142.265362
16136.936821,2146.597232,-1149.143247,8364.327145
16136.937145,2220.617826,-995.924147,8142.265362
16136.937469,1554.432478,-1072.533697,7994.224174
16136.937793,1628.453072,-306.438199,7846.182985
16136.938117,2294.638420,-306.438199,8068.244768
16136.938441,1628.453072,-612.876398,9178.553681
16136.938765,888.247130,76.609550,9474.636058
16136.939089,-296.082377,0.000000,8956.491898
16136.939413,0.000000,-383.047749,9326.594869
16136.939737,-222.061783,-612.876398,11029.068536
16136.940061,-518.144159,153.219100,10732.986159
16136.940385,-740.205942,612.876398,10362.883188
16136.940709,148.041188,1455.581446,10140.821405
16136.941033,888.247130,1608.800546,10066.800811
16136.941357,444.123565,3140.991542,9918.759623
16136.941680,0.000000,3524.039291,8660.409521
16136.942004,592.164754,4290.134789,8734.430116
16136.942328,444.123565,4366.744339,8956.491898
16136.942652,0.000000,4213.525239,9104.533087
16136.942976,-370.102971,4366.744339,8882.471304
16136.943300,-296.082377,4596.572988,8808.450710
16136.943624,0.000000,4519.963438,8734.430116
16136.943948,222.061783,3983.696590,9400.615463
16136.944272,74.020594,4519.963438,9548.656652
16136.944596,592.164754,4443.353888,8956.491898
16136.944920,2146.597232,4749.792088,8808.450710
16136.945244,2812.782580,4749.792088,8734.430116
16136.945568,2072.576638,4903.011187,8290.306550
16136.945892,2368.659014,4979.620737,7254.018232
16136.946216,2738.761985,5975.544884,7402.059420
16136.946540,1850.514855,4060.306139,7254.018232
16136.946864,370.102971,3524.039291,7550.100608
16136.947187,-518.144159,2528.115143,7402.059420
16136.947511,-592.164754,2068.457845,7846.182985
16136.947835,-2072.576638,459.657299,8956.491898
16136.948159,-3256.906145,229.828649,9474.636058
16136.948483,-3775.050304,-612.876398,9474.636058
16136.948807,-3256.906145,-1762.019645,9474.636058
16136.949131,-2812.782580,-2298.286494,10732.986159
16136.949455,-2886.803174,-2451.505594,11177.109724
16136.949779,-3034.844362,-2987.772442,10732.986159
16136.950103,-1850.514855,-2834.553343,10807.006753
16136.950427,-666.185348,-2757.943793,10807.006753
16136.950751,-592.164754,-2451.505594,11029.068536
16136.951075,-1184.329507,-2911.162892,9992.780217
16136.951399,296.082377,-2987.772442,10066.800811
16136.951723,222.061783,-2757.943793,10362.883188
16136.952047,518.144159,-3064.381992,10732.986159
16136.952371,148.041188,-3447.429741,10214.842000
16136.952694,-296.082377,-3064.381992,9696.697840
16136.953018,222.061783,-2987.772442,9622.677246
16136.953342,1110.308913,-3370.820191,9400.615463
16136.953666,296.082377,-2911.162892,8660.409521
16136.953990,-148.041188,-2451.505594,8290.306550
16136.954314,814.226536,-1915.238745,8290.306550
16136.954638,1702.473667,-1608.800546,8438.347739
16136.954962,444.123565,-1532.190996,7994.224174
16136.955286,1036.288319,-383.047749,7772.162391
16136.955610,1332.370696,-536.266849,8734.430116
16136.955934,1554.432478,-536.266849,9178.553681
16136.956258,1110.308913,-76.609550,9992.780217
16136.956582,666.185348,76.609550,10288.862594
16136.956906,592.164754,0.000000,10066.800811
16136.957230,1036.288319,0.000000,10732.986159
16136.957554,518.144159,1225.752797,10732.986159
16136.957878,-592.164754,919.314598,10066.800811
16136.958201,-444.123565,1378.971896,9326.594869
16136.958525,592.164754,2451.505594,9474.636058
16136.958849,74.020594,2451.505594,8956.491898
16136.959173,-296.082377,2987.772442,8438.347739
16136.959497,0.000000,4136.915689,7920.203579
16136.959821,0.000000,4596.572988,8142.265362
16136.960145,-592.164754,4596.572988,8734.430116
16136.960469,-444.123565,4290.134789,8512.368333
16136.960794,0.000000,4060.306139,9474.636058
16136.961118,518.144159,4290.134789,9326.594869
16136.961442,814.226536,4366.744339,9622.677246
16136.961766,666.185348,4290.134789,9770.718434
16136.962090,518.144159,4290.134789,9178.553681
16136.962414,2220.617826,4826.401637,8808.450710
16136.962738,2664.741391,4826.401637,8956.491898
16136.963062,1998.556043,4826.401637,8438.347739
16136.963386,2072.576638,4903.011187,7846.182985
16136.963710,2516.700203,4903.011187,7624.121203
16136.964034,1924.535449,4596.572988,7698.141797
16136.964358,1332.370696,4366.744339,7846.182985
16136.964682,444.123565,3370.820191,7698.141797
16136.965007,-222.061783,2757.943793,7550.100608
16136.965331,-444.123565,1149.143247,8882.471304
16136.965655,-2368.659014,76.609550,9400.615463
16136.965979,-3849.070898,-995.924147,9252.574275
16136.966303,-4219.173869,-1838.629195,9474.636058
16136.966627,-3552.988522,-2528.115143,10066.800811
16136.966951,-3997.112087,-2911.162892,10807.006753
16136.967275,-4367.215058,-4136.915689,10288.862594
16136.967599,-2442.679609,-3294.210641,10066.800811
16136.967923,-1776.494261,-2834.553343,10584.944971
16136.968247,-1406.391290,-3140.991542,10658.965565
16136.968571,-518.144159,-2911.162892,10955.047942
16136.968896,222.061783,-2911.162892,10510.924376
16136.969220,592.164754,-2911.162892,10658.965565
16136.969544,1184.329507,-3294.210641,10881.027347
16136.969868,888.247130,-3677.258390,10807.006753
16136.970192,-296.082377,-3830.477490,10510.924376
16136.970516,0.000000,-3753.867940,10288.862594
16136.970840,444.123565,-3677.258390,10214.842000
16136.971164,0.000000,-3294.210641,9252.574275
16136.971488,370.102971,-2451.505594,8882.471304
16136.971812,518.144159,-2068.457845,7920.203579
16136.972136,1406.391290,-536.266849,7846.182985
16136.972460,1776.494261,-383.047749,8216.285956
16136.972784,1480.411884,0.000000,7994.224174
16136.973109,1628.453072,0.000000,8068.244768
16136.973433,2146.597232,306.438199,8734.430116
16136.973757,1702.473667,-306.438199,9400.615463
16136.974081,-444.123565,-153.219100,9474.636058
16136.974405,-666.185348,-459.657299,10066.800811
16136.974729,-148.041188,229.828649,9770.718434
16136.975053,-962.267725,0.000000,10362.883188
16136.975377,-1554.432478,536.266849,9696.697840
16136.975701,-1036.288319,1225.752797,9252.574275
16136.976025,-148.041188,2528.115143,9326.594869
16136.976349,370.102971,2451.505594,9474.636058
16136.976673,518.144159,4136.915689,8956.491898
16136.976998,740.205942,4903.011187,8808.450710
16136.977322,1480.411884,4903.011187,9252.574275
16136.977646,2072.576638,4903.011187,9400.615463
16136.977970,1036.288319,4596.572988,9622.677246
16136.978294,370.102971,4826.401637,9400.615463
16136.978618,518.144159,4443.353888,9844.739029
16136.978942,1332.370696,3983.696590,9992.780217
16136.979266,296.082377,3907.087040,9622.677246
16136.979590,592.164754,3983.696590,9178.553681
16136.979914,962.267725,4673.182538,8364.327145
16136.980238,1850.514855,4596.572988,8068.244768
16136.980562,1924.535449,4903.011187,7624.121203
16136.980886,1850.514855,5209.449386,7402.059420
16136.981211,1184.329507,4979.620737,6735.874072
16136.981535,1998.556043,4290.134789,6957.935855
16136.981859,814.226536,3600.648841,7179.997637
16136.982183,-444.123565,2451.505594,7550.100608
16136.982507,-1850.514855,1608.800546,7920.203579
16136.982831,-2368.659014,76.609550,8438.347739
16136.983155,-2664.741391,-842.705048,9474.636058
16136.983479,-4293.194464,-1915.238745,9622.677246
16136.983803,-4737.318029,-2451.505594,9400.615463
16136.984127,-3404.947333,-2681.334243,10288.862594
16136.984451,-3108.864956,-2987.772442,10881.027347
16136.984775,-2368.659014,-2911.162892,11029.068536
16136.985100,-1702.473667,-2604.724693,10881.027347
16136.985424,-296.082377,-2604.724693,10658.965565
16136.985748,666.185348,-2451.505594,10807.006753
16136.986072,444.123565,-2757.943793,11103.089130
16136.986396,-518.144159,-2757.943793,10658.965565
16136.986720,0.000000,-3447.429741,10955.047942
16136.987044,296.082377,-3677.258390,10955.047942
16136.987368,-370.102971,-3830.477490,10658.965565
16136.987692,-1332.370696,-4213.525239,9918.759623
16136.988016,-1776.494261,-3753.867940,9326.594869
16136.988340,0.000000,-2604.724693,8808.450710
16136.988664,0.000000,-2911.162892,8660.409521
16136.988988,0.000000,-2068.457845,8364.327145
16136.989313,1110.308913,-1455.581446,7476.080014
16136.989637,2368.659014,-536.266849,7550.100608
16136.989961,2812.782580,0.000000,8216.285956
16136.990285,1998.556043,0.000000,7920.203579
16136.990609,1110.308913,-229.828649,7698.141797
16136.990933,2146.597232,0.000000,8734.430116
16136.991257,1480.411884,0.000000,9696.697840
16136.991581,0.000000,-612.876398,9844.739029
16136.991905,-444.123565,-229.828649,9770.718434
16136.992229,-148.041188,459.657299,10066.800811
16136.992553,0.000000,0.000000,9770.718434
16136.992877,148.041188,1225.752797,10955.047942
16136.993202,370.102971,2068.457845,9992.780217
16136.993526,1184.329507,2757.943793,9622.677246
16136.993850,1628.453072,3524.039291,9770.718434
16136.994174,1110.308913,3983.696590,9474.636058
16136.994498,222.061783,4136.915689,8734.430116
16136.994822,444.123565,4673.182538,8660.409521
16136.995146,74.020594,4290.134789,8808.450710
16136.995470,74.020594,3677.258390,9548.656652
16136.995794,-814.226536,3830.477490,9474.636058
16136.996118,-740.205942,4136.915689,8956.491898
16136.996442,-222.061783,4136.915689,9474.636058
16136.996766,666.185348,4290.134789,9178.553681
16136.997090,1184.329507,4596.572988,8956.491898
16136.997415,1480.411884,5056.230287,7846.182985
16136.997739,2368.659014,5209.449386,7179.997637
16136.998063,3034.844362,5515.887586,7698.141797
16136.998387,2294.638420,5209.449386,7550.100608
16136.998711,1036.288319,4826.401637,7105.977043
16136.999035,888.247130,3907.087040,6735.874072
16136.999359,444.123565,3294.210641,7328.038826
16136.999683,-1184.329507,1838.629195,7698.141797
16137.000007,-3256.906145,995.924147,7846.182985
16137.000331,-3404.947333,0.000000,8808.450710
16137.000655,-3552.988522,-919.314598,9548.656652
16137.000979,-4219.173869,-2145.067394,10288.862594
16137.001304,-4515.256246,-2451.505594,10288.862594
16137.001628,-3478.967927,-2451.505594,9844.739029
16137.001952,-2590.720797,-2451.505594,10881.027347
16137.002276,-1776.494261,-3064.381992,11177.109724
16137.002600,-1924.535449,-2987.772442,10881.027347
16137.002924,-888.247130,-2987.772442,10732.986159
16137.003248,444.123565,-3217.601092,11177.109724
16137.003572,222.061783,-3600.648841,10955.047942
16137.003896,-444.123565,-4290.134789,10140.821405
16137.004220,370.102971,-3447.429741,10288.862594
16137.004544,518.144159,-4213.525239,10436.903782
16137.004868,518.144159,-3753.867940,10881.027347
16137.005192,-148.041188,-3600.648841,10214.842000
16137.005517,-148.041188,-3677.258390,9178.553681
16137.005841,666.185348,-2834.553343,9030.512492
16137.006165,2072.576638,-2221.676944,9400.615463
16137.006489,1628.453072,-1838.629195,8364.327145
16137.006813,1332.370696,-1302.362347,7920.203579
16137.007137,1554.432478,-842.705048,7994.224174
16137.007461,2072.576638,-383.047749,8142.265362
16137.007785,1332.370696,-229.828649,8364.327145
16137.008109,814.226536,0.000000,8216.285956
16137.008433,888.247130,536.266849,8660.409521
16137.008757,962.267725,76.609550,9992.780217
16137.009081,592.164754,-459.657299,10214.842000
16137.009406,0.000000,229.828649,10214.842000
16137.009730,0.000000,689.485948,9918.759623
16137.010054,444.123565,1225.752797,10066.800811
16137.010378,962.267725,2068.457845,10288.862594
16137.010702,0.000000,1915.238745,9474.636058
16137.011026,0.000000,3140.991542,8808.450710
16137.011350,888.247130,3907.087040,8808.450710
16137.011674,518.144159,3524.039291,8882.471304
16137.011998,-148.041188,4136.915689,8882.471304
16137.012322,-296.082377,4290.134789,8660.409521
16137.012646,0.000000,4136.915689,8956.491898
16137.012970,0.000000,4596.572988,9474.636058
16137.013294,-222.061783,4596.572988,9400.615463
16137.013619,-222.061783,4443.353888,8882.471304
16137.013943,518.144159,4826.401637,9326.594869
16137.014267,1480.411884,4596.572988,9326.594869
16137.014591,1184.329507,4596.572988,9104.533087
16137.014915,1184.329507,4673.182538,8364.327145
16137.015239,1924.535449,4979.620737,7846.182985
16137.015563,2368.659014,4903.011187,7772.162391
16137.015887,1850.514855,4826.401637,7624.121203
16137.016211,1258.350101,4443.353888,7328.038826
16137.016535,888.247130,4060.306139,7105.977043
16137.016859,518.144159,3294.210641,7476.080014
16137.017183,-518.144159,1762.019645,8216.285956
16137.017508,-1924.535449,995.924147,8438.347739
16137.017832,-2146.597232,229.828649,8512.368333
16137.018156,-2368.659014,-536.266849,9548.656652
16137.018480,-3627.009116,-2145.067394,10510.924376
16137.018804,-4219.173869,-3370.820191,10510.924376
16137.019128,-3775.050304,-3524.039291,10288.862594
16137.019452,-2960.823768,-3600.648841,10584.944971
16137.019776,-2294.638420,-3677.258390,11177.109724
16137.020100,-2072.576638,-3524.039291,10955.047942
16137.020424,-962.267725,-3217.601092,10288.862594
16137.020748,0.000000,-2987.772442,10288.862594
16137.021072,0.000000,-3064.381992,11103.089130
16137.021396,444.123565,-3064.381992,10807.006753
16137.021721,740.205942,-3217.601092,10658.965565
16137.022045,962.267725,-3370.820191,10214.842000
16137.022369,1332.370696,-3524.039291,10510.924376
16137.022693,666.185348,-3447.429741,10214.842000
16137.023017,222.061783,-3294.210641,9326.594869
16137.023341,296.082377,-3217.601092,9474.636058
16137.023665,1036.288319,-2757.943793,9030.512492
16137.023989,1036.288319,-2221.676944,8808.450710
16137.024313,888.247130,-1378.971896,7994.224174
16137.024637,1702.473667,-1532.190996,7846.182985
16137.024961,1850.514855,0.000000,8068.244768
16137.025285,2072.576638,0.000000,8438.347739
16137.025610,1110.308913,76.609550,8364.327145
16137.025934,1184.329507,153.219100,8734.430116
16137.026258,1258.350101,153.219100,9474.636058
16137.026582,888.247130,76.609550,9918.759623
16137.026906,0.000000,459.657299,10288.862594
16137.027230,-666.185348,842.705048,9918.759623
16137.027554,-148.041188,1149.143247,9844.739029
16137.027878,0.000000,1838.629195,10288.862594
16137.028202,-814.226536,2068.457845,9622.677246
16137.028526,-592.164754,2834.553343,8956.491898
16137.028850,592.164754,3753.867940,9252.574275
16137.029174,814.226536,4290.134789,9178.553681
16137.029498,0.000000,4136.915689,9252.574275
16137.029823,296.082377,4749.792088,9326.594869
16137.030147,444.123565,5056.230287,9252.574275
16137.030471,1184.329507,4979.620737,9844.739029
16137.030795,0.000000,4903.011187,9844.739029
16137.031119,-518.144159,4366.744339,9252.574275
16137.031443,222.061783,4443.353888,9474.636058
16137.031767,1110.308913,4290.134789,9030.512492
16137.032091,1184.329507,3983.696590,8734.430116
16137.032415,296.082377,4519.963438,7550.100608
16137.032739,1480.411884,4903.011187,7476.080014
16137.033063,1924.535449,4903.011187,7550.100608
16137.033387,1850.514855,4826.401637,7254.018232
16137.033712,1332.370696,4136.915689,6957.935855
16137.034036,1554.432478,4290.134789,6883.915261
16137.034360,1628.453072,3217.601092,7476.080014
16137.034684,814.226536,1225.752797,8734.430116
16137.035008,-1776.494261,612.876398,9030.512492
16137.035332,-2886.803174,-153.219100,9030.512492
16137.035656,-2812.782580,-1762.019645,10066.800811
16137.035980,-3552.988522,-2221.676944,10732.986159
16137.036304,-3849.070898,-3830.477490,10807.006753
16137.036628,-3997.112087,-3217.601092,10214.842000
16137.036952,-3034.844362,-3447.429741,10510.924376
16137.037276,-1776.494261,-3370.820191,11325.150913
16137.037600,-1554.432478,-3064.381992,11325.150913
16137.037925,-1110.308913,-2911.162892,10658.965565
16137.038249,296.082377,-3370.820191,10510.924376
16137.038573,1406.391290,-2604.724693,11103.089130
16137.038897,740.205942,-2911.162892,10955.047942
16137.039221,-370.102971,-3907.087040,10288.862594
16137.039545,296.082377,-3524.039291,9918.759623
16137.039869,0.000000,-4060.306139,10140.821405
16137.040193,-370.102971,-3983.696590,10066.800811
16137.040517,-444.123565,-3983.696590,9326.594869
16137.040841,-222.061783,-2757.943793,8216.285956
16137.041165,666.185348,-1915.238745,7994.224174
16137.041489,1480.411884,-1532.190996,8512.368333
16137.041814,1480.411884,-919.314598,8216.285956
16137.042138,1628.453072,-383.047749,7550.100608
16137.042462,2368.659014,306.438199,8290.306550
16137.042786,2294.638420,383.047749,8438.347739
16137.043110,1184.329507,76.609550,9030.512492
16137.043434,370.102971,459.657299,9178.553681
16137.043758,370.102971,76.609550,9548.656652
16137.044082,0.000000,-536.266849,10214.842000
16137.044406,-1110.308913,0.000000,10510.924376
16137.044730,-1850.514855,153.219100,9770.718434
16137.045054,-1258.350101,842.705048,9992.780217
16137.045378,0.000000,1685.410096,9992.780217
16137.045702,-296.082377,2681.334243,9918.759623
16137.046027,-222.061783,3370.820191,9030.512492
16137.046351,592.164754,3907.087040,8734.430116
16137.046675,2146.597232,4749.792088,9178.553681
16137.046999,1480.411884,4673.182538,9474.636058
16137.047323,222.061783,4826.401637,9252.574275
16137.047647,740.205942,4673.182538,9104.533087
16137.047971,1332.370696,4519.963438,9030.512492
16137.048295,888.247130,4443.353888,9622.677246
16137.048619,0.000000,4826.401637,8956.491898
16137.048943,222.061783,4060.306139,8438.347739
16137.049267,1036.288319,4366.744339,8586.388927
16137.049591,2072.576638,4826.401637,9178.553681
16137.049916,1850.514855,5209.449386,8142.265362
16137.050240,2072.576638,4826.401637,7254.018232
16137.050564,2664.741391,5362.668486,6809.894666
16137.050888,3256.906145,5515.887586,7254.018232
16137.051212,1776.494261,4366.744339,7624.121203
16137.051536,148.041188,3677.258390,7328.038826
16137.051860,-296.082377,2681.334243,7402.059420
16137.052184,-962.267725,1455.581446,8808.450710
16137.052508,-2960.823768,229.828649,9178.553681
16137.052832,-4367.215058,-919.314598,8956.491898
16137.053156,-4441.235652,-1685.410096,9696.697840
16137.053480,-3923.091493,-2451.505594,10658.965565
16137.053804,-3552.988522,-2681.334243,11103.089130
16137.054129,-3404.947333,-2757.943793,11325.150913
16137.054453,-2368.659014,-2987.772442,10732.986159
16137.054777,-370.102971,-2374.896044,10732.986159
16137.055101,592.164754,-2757.943793,11399.171507
16137.055425,0.000000,-2757.943793,10140.821405
16137.055749,592.164754,-2604.724693,10436.903782
16137.056073,1110.308913,-2911.162892,10436.903782
16137.056397,222.061783,-3600.648841,10955.047942
16137.056721,-444.123565,-4213.525239,10436.903782
16137.057045,-444.123565,-4060.306139,9474.636058
16137.057369,-666.185348,-3907.087040,9548.656652
16137.057693,-518.144159,-4213.525239,9622.677246
16137.058017,-444.123565,-3753.867940,9548.656652
16137.058342,-444.123565,-3064.381992,8660.409521
16137.058666,1110.308913,-2298.286494,8438.347739
16137.058990,1924.535449,-1608.800546,8512.368333
16137.059314,1406.391290,-919.314598,8290.306550
16137.059638,1184.329507,-612.876398,7846.182985
16137.059962,1998.556043,0.000000,8290.306550
16137.060286,1628.453072,-459.657299,8734.430116
16137.060610,666.185348,-612.876398,9252.574275
16137.060934,74.020594,-689.485948,9474.636058
16137.061258,-444.123565,-536.266849,9844.739029
16137.061582,0.000000,-689.485948,10436.903782
16137.061906,-296.082377,-229.828649,11029.068536
16137.062230,-518.144159,612.876398,10214.842000
16137.062554,-370.102971,1149.143247,9844.739029
16137.062878,1628.453072,2221.676944,9918.759623
16137.063202,1554.432478,2911.162892,9992.780217
16137.063526,1036.288319,3524.039291,9548.656652
16137.063850,814.226536,4213.525239,8586.388927
16137.064174,1628.453072,4366.744339,8734.430116
16137.064498,1184.329507,4749.792088,9030.512492
16137.064822,444.123565,4290.134789,9104.533087
16137.065146,-222.061783,4213.525239,8660.409521
16137.065470,296.082377,4519.963438,9104.533087
16137.065794,222.061783,4519.963438,9622.677246
16137.066119,222.061783,4673.182538,9474.636058
16137.066443,222.061783,4749.792088,9178.553681
16137.066767,1554.432478,4596.572988,8216.285956
16137.067091,2368.659014,5592.497135,8216.285956
16137.067415,2072.576638,5669.106685,8142.265362
16137.067739,1554.432478,5669.106685,7105.977043
16137.068063,1924.535449,5592.497135,7105.977043
16137.068387,1924.535449,5056.230287,7254.018232
16137.068711,962.267725,4136.915689,7179.997637
16137.069035,0.000000,3447.429741,7105.977043
16137.069359,-1184.329507,2451.505594,7402.059420
16137.069683,-1406.391290,1302.362347,8142.265362
16137.070007,-2368.659014,0.000000,9622.677246
16137.070331,-3182.885551,-919.314598,10066.800811
16137.070655,-3923.091493,-1915.238745,10066.800811
16137.070979,-2812.782580,-2451.505594,10807.006753
16137.071303,-2368.659014,-2145.067394,10510.924376
16137.071627,-2886.803174,-3217.601092,10584.944971
16137.071951,-2738.761985,-2911.162892,11029.068536
16137.072275,-888.247130,-2681.334243,10955.047942
16137.072599,-370.102971,-2987.772442,11103.089130
16137.072923,-814.226536,-3524.039291,10732.986159
16137.073247,-888.247130,-3217.601092,9992.780217
16137.073571,74.020594,-3064.381992,10510.924376
16137.073895,222.061783,-4519.963438,10510.924376
16137.074219,-74.020594,-4136.915689,10807.006753
16137.074543,-962.267725,-4213.525239,9844.739029
16137.074867,-370.102971,-3677.258390,9474.636058
16137.075191,370.102971,-3600.648841,9770.718434
16137.075515,296.082377,-3217.601092,9474.636058
16137.075839,-148.041188,-2604.724693,8364.327145
16137.076163,1036.288319,-1991.848295,8512.368333
16137.076487,1776.494261,-1532.190996,8068.244768
16137.076811,1850.514855,-995.924147,7772.162391
16137.077136,1036.288319,-766.095498,7846.182985
16137.077460,1480.411884,-612.876398,7698.141797
16137.077784,1776.494261,-383.047749,8660.409521
16137.078108,1332.370696,-995.924147,9622.677246
16137.078432,370.102971,-766.095498,9326.594869
16137.078756,0.000000,-612.876398,10140.821405
16137.079080,74.020594,-229.828649,9992.780217
16137.079404,222.061783,0.000000,10807.006753
16137.079728,-518.144159,306.438199,10362.883188
16137.080052,-592.164754,1302.362347,10066.800811
16137.080376,370.102971,2298.286494,9918.759623
16137.080700,888.247130,2145.067394,9770.718434
16137.081024,740.205942,3524.039291,9252.574275
16137.081348,518.144159,4060.306139,9326.594869
16137.081672,814.226536,4673.182538,8586.388927
16137.081996,1036.288319,4826.401637,9400.615463
16137.082320,444.123565,4903.011187,9400.615463
16137.082644,0.000000,5439.278036,9030.512492
16137.082968,888.247130,5132.839837,8882.471304
16137.083292,1702.473667,5056.230287,9474.636058
16137.083616,740.205942,5056.230287,9696.697840
16137.083940,888.247130,4903.011187,8882.471304
16137.084264,814.226536,4903.011187,8364.327145
16137.084588,1332.370696,4749.792088,8068.244768
16137.084912,1406.391290,4903.011187,7772.162391
16137.085236,740.205942,5362.668486,7476.080014
16137.085560,1554.432478,5439.278036,6587.832884
16137.085884,666.185348,4596.572988,7031.956449
16137.086208,518.144159,4290.134789,7402.059420
16137.086532,-222.061783,3217.601092,7772.162391
16137.086856,-962.267725,2451.505594,7846.182985
16137.087180,-1036.288319,1378.971896,8734.430116
16137.087504,-1702.473667,459.657299,9548.656652
16137.087828,-2886.803174,-995.924147,10436.903782
16137.088152,-3775.050304,-1915.238745,10140.821405
16137.088477,-2738.761985,-2298.286494,10436.903782
16137.088801,-2738.761985,-2834.553343,11103.089130
16137.089125,-2590.720797,-2757.943793,11251.130318
16137.089449,-2516.700203,-3140.991542,10732.986159
16137.089773,-1702.473667,-2987.772442,10436.903782
16137.090097,-1036.288319,-2451.505594,10584.944971
16137.090421,-740.205942,-2757.943793,10436.903782
16137.090745,-592.164754,-3830.477490,10362.883188
16137.091069,-370.102971,-3677.258390,9918.759623
16137.091393,296.082377,-3677.258390,10214.842000
16137.091717,-518.144159,-4136.915689,10288.862594
16137.092041,-1258.350101,-4213.525239,10288.862594
16137.092365,-740.205942,-4366.744339,9252.574275
16137.092689,0.000000,-4366.744339,9326.594869
16137.093013,370.102971,-3677.258390,9178.553681
16137.093337,0.000000,-3294.210641,8660.409521
16137.093661,1184.329507,-2757.943793,8068.244768
16137.093985,2368.659014,-1378.971896,8216.285956
16137.094309,2738.761985,-1149.143247,8882.471304
16137.094633,3034.844362,0.000000,8512.368333
16137.094957,2664.741391,612.876398,8364.327145
16137.095281,2442.679609,306.438199,9104.533087
16137.095605,2738.761985,229.828649,10214.842000
16137.095929,1110.308913,-229.828649,10510.924376
16137.096253,0.000000,0.000000,10066.800811
16137.096577,-370.102971,0.000000,10362.883188
16137.096901,-592.164754,536.266849,10436.903782
16137.097225,-1036.288319,766.095498,10436.903782
16137.097549,-1776.494261,1378.971896,9326.594869
16137.097873,-1332.370696,2374.896044,8882.471304
16137.098197,-296.082377,2834.553343,9178.553681
16137.098521,74.020594,3830.477490,9104.533087
16137.098845,0.000000,4673.182538,8734.430116
16137.099169,0.000000,5132.839837,8290.306550
16137.099494,1628.453072,5362.668486,8882.471304
16137.099818,1406.391290,5209.449386,9178.553681
16137.100142,592.164754,4979.620737,9104.533087
16137.100466,592.164754,4596.572988,9178.553681
16137.100790,1258.350101,4903.011187,9252.574275
16137.101114,1110.308913,4749.792088,9400.615463
16137.101438,962.267725,4749.792088,8956.491898
16137.101762,1110.308913,5132.839837,8068.244768
16137.102086,1850.514855,5286.058936,8216.285956
16137.102410,2738.761985,4826.401637,8216.285956
16137.102734,2220.617826,5745.716235,8068.244768
16137.103058,1480.411884,5592.497135,7254.018232
16137.103382,1924.535449,4903.011187,7476.080014
16137.103706,1554.432478,4136.915689,7920.203579
16137.104030,-370.102971,3140.991542,8068.244768
16137.104354,-2368.659014,2068.457845,8142.265362
16137.104678,-2442.679609,153.219100,8586.388927
16137.105002,-3108.864956,-689.485948,9474.636058
16137.105326,-4737.318029,-1608.800546,10066.800811
16137.105650,-5033.400406,-2451.505594,10066.800811
16137.105974,-4145.153275,-3140.991542,9770.718434
16137.106298,-3108.864956,-3600.648841,10362.883188
16137.106622,-2368.659014,-3370.820191,11177.109724
16137.106946,-1702.473667,-3064.381992,10510.924376
16137.107270,-962.267725,-2911.162892,10584.944971
16137.107594,1110.308913,-2451.505594,10807.006753
16137.107918,1480.411884,-2757.943793,11103.089130
16137.108242,74.020594,-3600.648841,10807.006753
16137.108566,74.020594,-3524.039291,10362.883188
16137.108890,1184.329507,-3217.601092,10807.006753
16137.109214,444.123565,-4519.963438,10214.842000
16137.109538,-1258.350101,-4826.401637,10140.821405
16137.109862,-1110.308913,-4443.353888,9400.615463
16137.110186,-592.164754,-4213.525239,8956.491898
16137.110510,222.061783,-3217.601092,9474.636058
16137.110835,888.247130,-3217.601092,9178.553681
16137.111159,962.267725,-1838.629195,8068.244768
16137.111483,2072.576638,-842.705048,7920.203579
16137.111807,2812.782580,-536.266849,8660.409521
16137.112131,2220.617826,-306.438199,9030.512492
16137.112455,1406.391290,-153.219100,8438.347739
16137.112779,1184.329507,229.828649,8882.471304
16137.113103,962.267725,-766.095498,9474.636058
16137.113427,222.061783,-306.438199,10066.800811
16137.113751,-888.247130,-612.876398,9844.739029
16137.114075,-1332.370696,76.609550,9474.636058
16137.114399,-1110.308913,459.657299,9918.759623
16137.114723,-370.102971,995.924147,9844.739029
16137.115047,-222.061783,2068.457845,9770.718434
16137.115371,0.000000,2451.505594,9030.512492
16137.115695,1110.308913,3677.258390,8808.450710
16137.116019,2146.597232,4596.572988,9252.574275
16137.116343,814.226536,4596.572988,9178.553681
16137.116667,444.123565,4596.572988,9178.553681
16137.116991,1110.308913,4826.401637,9104.533087
16137.117315,1110.308913,4519.963438,9770.718434
16137.117639,222.061783,4136.915689,9622.677246
16137.117963,0.000000,4213.525239,9252.574275
16137.118287,0.000000,4673.182538,9474.636058
16137.118611,444.123565,4519.963438,9326.594869
16137.118935,814.226536,4826.401637,9696.697840
16137.119259,740.205942,5209.449386,8364.327145
16137.119583,1628.453072,5515.887586,7550.100608
16137.119907,2886.803174,5822.325785,7328.038826
16137.120231,2738.761985,6052.154434,7402.059420
16137.120555,1036.288319,5132.839837,7105.977043
16137.120879,814.226536,4749.792088,6661.853478
16137.121203,1036.288319,3907.087040,7105.977043
16137.121527,-666.185348,2451.505594,8068.244768
16137.121852,-2072.576638,1302.362347,8216.285956
16137.122176,-2664.741391,459.657299,8512.368333
16137.122500,-3256.906145,-536.266849,9252.574275
16137.122824,-3997.112087,-1762.019645,10140.821405
16137.123148,-3404.947333,-2681.334243,10584.944971
16137.123472,-3478.967927,-2757.943793,10362.883188
16137.123796,-2368.659014,-2987.772442,10955.047942
16137.124120,-888.247130,-2987.772442,11621.233289
16137.124444,-1036.288319,-2911.162892,11843.295072
16137.124768,-1036.288319,-3064.381992,10214.842000
16137.125092,74.020594,-2911.162892,10288.862594
16137.125416,296.082377,-3217.601092,11029.068536
16137.125740,-740.205942,-4060.306139,10658.965565
16137.126064,-888.247130,-4060.306139,10436.903782
16137.126388,-740.205942,-4060.306139,10140.821405
16137.126712,-666.185348,-4213.525239,10510.924376
16137.127036,-592.164754,-4136.915689,10362.883188
16137.127360,-814.226536,-3983.696590,9844.739029
16137.127684,-222.061783,-4366.744339,8512.368333
16137.128008,1258.350101,-2451.505594,8882.471304
16137.128332,1480.411884,-2221.676944,9104.533087
16137.128656,1184.329507,-1915.238745,8142.265362
16137.128980,1702.473667,-1149.143247,7846.182985
16137.129304,2590.720797,-1072.533697,7994.224174
16137.129628,1850.514855,0.000000,8364.327145
16137.129952,962.267725,-229.828649,8290.306550
16137.130276,1332.370696,0.000000,8586.388927
16137.130600,740.205942,-689.485948,9770.718434
16137.130924,74.020594,-459.657299,10066.800811
16137.131248,-148.041188,0.000000,10214.842000
16137.131572,-592.164754,229.828649,9992.780217
16137.131896,-370.102971,842.705048,9992.780217
16137.132220,444.123565,1532.190996,10288.862594
16137.132544,0.000000,2451.505594,10140.821405
16137.132868,-296.082377,2834.553343,9622.677246
16137.133193,222.061783,3753.867940,9104.533087
16137.133517,592.164754,4366.744339,9252.574275
16137.133841,222.061783,4213.525239,9104.533087
16137.134165,0.000000,4213.525239,8956.491898
16137.134489,148.041188,4749.792088,8660.409521
16137.134813,592.164754,4596.572988,9400.615463
16137.135137,444.123565,4749.792088,9474.636058
16137.135461,444.123565,4979.620737,9696.697840
16137.135785,370.102971,4979.620737,8734.430116
16137.136109,1776.494261,5056.230287,8660.409521
16137.136433,2664.741391,5362.668486,8956.491898
16137.136757,1702.473667,4826.401637,8290.306550
16137.137081,1702.473667,5515.887586,7254.018232
16137.137405,2812.782580,5439.278036,7031.956449
16137.137729,2146.597232,5132.839837,7254.018232
16137.138053,962.267725,4673.182538,7179.997637
16137.138377,592.164754,4060.306139,6883.915261
16137.138701,370.102971,3753.867940,7254.018232
16137.139025,-592.164754,2374.896044,8364.327145
16137.139349,-1850.514855,1608.800546,8660.409521
16137.139673,-2664.741391,153.219100,9030.512492
16137.139997,-3034.844362,-842.705048,9844.739029
16137.140321,-2516.700203,-1838.629195,10658.965565
16137.140645,-3108.864956,-2604.724693,11251.130318
16137.140969,-3849.070898,-2834.553343,10658.965565
16137.141293,-3108.864956,-2987.772442,10881.027347
16137.141617,-1850.514855,-3370.820191,10510.924376
16137.141941,-2146.597232,-3294.210641,11251.130318
16137.142265,-1776.494261,-3294.210641,10510.924376
16137.142589,-888.247130,-3524.039291,10288.862594
16137.142913,-592.164754,-3524.039291,10362.883188
16137.143237,0.000000,-3983.696590,10732.986159
16137.143561,444.123565,-3907.087040,10658.965565
16137.143885,-296.082377,-4519.963438,9548.656652
16137.144210,296.082377,-3830.477490,9770.718434
16137.144534,592.164754,-3753.867940,10362.883188
16137.144858,-370.102971,-3830.477490,9326.594869
16137.145182,0.000000,-3600.648841,9030.512492
16137.145506,1628.453072,-2681.334243,9030.512492
16137.145830,1036.288319,-2451.505594,8438.347739
16137.146154,1702.473667,-1838.629195,8512.368333
16137.146478,1850.514855,-1149.143247,7624.121203
16137.146802,1702.473667,-1225.752797,7920.203579
16137.147126,1702.473667,-842.705048,8586.388927
16137.147450,1554.432478,-383.047749,9030.512492
16137.147774,740.205942,-229.828649,9178.553681
16137.148098,370.102971,0.000000,9400.615463
16137.148422,666.185348,-536.266849,9918.759623
16137.148746,-444.123565,-306.438199,10510.924376
16137.149070,-1554.432478,-383.047749,10214.842000
16137.149394,-1258.350101,612.876398,10066.800811
16137.149718,-296.082377,1225.752797,10066.800811
16137.150042,-444.123565,1608.800546,9844.739029
16137.150366,-296.082377,2451.505594,8808.450710
16137.150690,222.061783,3830.477490,8660.409521
16137.151014,666.185348,4903.011187,8660.409521
16137.151338,592.164754,4903.011187,8956.491898
16137.151662,1258.350101,4979.620737,8882.471304
16137.151986,1036.288319,4979.620737,9178.553681
16137.152310,1702.473667,5132.839837,9104.533087
16137.152634,2590.720797,5592.497135,9548.656652
16137.152958,592.164754,5209.449386,9474.636058
16137.153282,444.123565,5209.449386,8586.388927
16137.153606,1850.514855,5056.230287,9030.512492
16137.153930,1628.453072,4903.011187,8808.450710
16137.154254,814.226536,5132.839837,8142.265362
16137.154578,1036.288319,5209.449386,7550.100608
16137.154902,1554.432478,5515.887586,6883.915261
16137.155226,1702.473667,4979.620737,7402.059420
16137.155551,1332.370696,5056.230287,7402.059420
16137.155875,296.082377,3983.696590,7476.080014
16137.156199,222.061783,3600.648841,7550.100608
16137.156523,0.000000,2681.334243,8660.409521
16137.156847,-1332.370696,1225.752797,9474.636058
16137.157171,-3108.864956,-383.047749,9252.574275
16137.157495,-3182.885551,-536.266849,9400.615463
16137.157819,-2738.761985,-2221.676944,9770.718434
16137.158143,-3775.050304,-2451.505594,10214.842000
16137.158467,-3849.070898,-2987.772442,10362.883188
16137.158791,-2738.761985,-2911.162892,10214.842000
16137.159115,-1998.556043,-3140.991542,10436.903782
16137.159439,-1258.350101,-2604.724693,10658.965565
16137.159763,-888.247130,-2298.286494,10362.883188
16137.160087,-1184.329507,-2604.724693,9918.759623
16137.160411,518.144159,-2451.505594,10362.883188
16137.160735,888.247130,-3677.258390,10732.986159
16137.161059,-296.082377,-4290.134789,10584.944971
16137.161383,-1110.308913,-4443.353888,10510.924376
16137.161707,-222.061783,-4596.572988,10066.800811
16137.162031,0.000000,-4519.963438,10732.986159
16137.162355,-518.144159,-4519.963438,9844.739029
16137.162679,-370.102971,-3370.820191,8956.491898
16137.163003,1184.329507,-3294.210641,9104.533087
16137.163327,1850.514855,-2298.286494,8882.471304
16137.163651,1702.473667,-1608.800546,9030.512492
16137.163975,1702.473667,-995.924147,8216.285956
16137.164299,1776.494261,-689.485948,8142.265362
16137.164623,3034.844362,0.000000,8512.368333
16137.164947,1924.535449,-153.219100,9178.553681
16137.165271,222.061783,-536.266849,9252.574275
16137.165595,222.061783,-612.876398,9400.615463
16137.165918,0.000000,-459.657299,9844.739029
16137.166242,-740.205942,-536.266849,10066.800811
16137.166566,-1850.514855,0.000000,9696.697840
16137.166890,-1332.370696,612.876398,9252.574275
16137.167214,-518.144159,1762.019645,9252.574275
16137.167538,444.123565,1991.848295,9548.656652
16137.167862,222.061783,3140.991542,9030.512492
16137.168186,370.102971,3907.087040,8734.430116
16137.168510,1258.350101,4826.401637,8882.471304
16137.168834,1776.494261,4903.011187,9474.636058
16137.169158,1258.350101,4749.792088,9918.759623
16137.169482,0.000000,5132.839837,9030.512492
16137.169806,518.144159,5286.058936,8956.491898
16137.170130,1406.391290,5592.497135,9400.615463
16137.170454,296.082377,4519.963438,9548.656652
16137.170778,-296.082377,4749.792088,9178.553681
16137.171102,148.041188,5056.230287,8438.347739
16137.171426,1406.391290,5056.230287,8808.450710
16137.171750,1998.556043,5669.106685,8586.388927
16137.172074,1332.370696,5592.497135,7772.162391
16137.172398,2146.597232,5898.935335,7031.956449
16137.172722,2812.782580,5975.544884,7179.997637
16137.173046,2368.659014,4979.620737,7624.121203
16137.173370,740.205942,4213.525239,7328.038826
16137.173694,-222.061783,3140.991542,7105.977043
16137.174018,-444.123565,1762.019645,8660.409521
16137.174342,-1702.473667,536.266849,8882.471304
16137.174666,-3478.967927,-919.314598,9178.553681
16137.174990,-3923.091493,-1302.362347,9326.594869
16137.175314,-3552.988522,-2145.067394,9992.780217
16137.175638,-3404.947333,-2528.115143,10658.965565
16137.175962,-3330.926739,-3064.381992,10584.944971
16137.176286,-2664.741391,-2528.115143,10288.862594
16137.176610,-1554.432478,-2757.943793,11103.089130
16137.176934,-518.144159,-2757.943793,10955.047942
16137.177258,-740.205942,-2834.553343,11177.109724
16137.177581,-1258.350101,-3447.429741,10214.842000
16137.177905,-296.082377,-3447.429741,10732.986159
16137.178229,148.041188,-3753.867940,11177.109724
16137.178553,-740.205942,-4673.182538,11029.068536
16137.178877,-1184.329507,-4519.963438,10362.883188
16137.179201,-740.205942,-4596.572988,10288.862594
16137.179525,-444.123565,-4366.744339,10066.800811
16137.179849,148.041188,-3753.867940,9992.780217
16137.180173,592.164754,-3217.601092,9400.615463
16137.180497,1110.308913,-2604.724693,8216.285956
16137.180821,3182.885551,-1685.410096,8882.471304
16137.181145,3849.070898,-1225.752797,8142.265362
16137.181469,2294.638420,-842.705048,7846.182985
16137.181793,1480.411884,-842.705048,7624.121203
16137.182117,2146.597232,0.000000,8068.244768
16137.182441,1332.370696,-612.876398,8808.450710
16137.182765,-296.082377,-995.924147,9326.594869
16137.183089,-1258.350101,-766.095498,9178.553681
16137.183413,-1184.329507,0.000000,9474.636058
16137.183737,-1184.329507,-383.047749,10288.862594
16137.184061,-962.267725,153.219100,9918.759623
16137.184385,-1406.391290,1149.143247,9992.780217
16137.184709,-222.061783,2068.457845,9548.656652
16137.185033,1258.350101,2834.553343,10066.800811
16137.185357,888.247130,3447.429741,9844.739029
16137.185681,518.144159,3907.087040,8956.491898
16137.186005,1110.308913,4596.572988,8956.491898
16137.186329,1702.473667,4749.792088,9992.780217
16137.186653,1036.288319,4673.182538,9622.677246
16137.186977,592.164754,4519.963438,9548.656652
16137.187301,296.082377,4749.792088,9104.533087
16137.187625,740.205942,4749.792088,8956.491898
16137.187949,1258.350101,4903.011187,9474.636058
16137.188273,888.247130,4443.353888,8660.409521
16137.188597,1110.308913,5209.449386,8216.285956
16137.188921,2294.638420,5669.106685,8142.265362
16137.189244,2886.803174,5745.716235,7698.141797
16137.189568,2072.576638,5898.935335,7476.080014
16137.189892,1184.329507,5669.106685,7105.977043
16137.190216,1776.494261,5515.887586,6883.915261
16137.190540,1258.350101,4749.792088,7254.018232
16137.190864,-518.144159,3753.867940,7402.059420
16137.191188,-1628.453072,2681.334243,7402.059420
16137.191512,-2368.659014,1762.019645,7846.182985
16137.191836,-2516.700203,383.047749,9030.512492
16137.192160,-3034.844362,-229.828649,9918.759623
16137.192484,-3997.112087,-1225.752797,10140.821405
16137.192808,-3552.988522,-2068.457845,9252.574275
16137.193132,-1702.473667,-2068.457845,10732.986159
16137.193456,-2294.638420,-2451.505594,11473.192101
16137.193780,-2664.741391,-3294.210641,10881.027347
16137.194104,-1628.453072,-3217.601092,11029.068536
16137.194428,-370.102971,-3064.381992,11029.068536
16137.194752,-518.144159,-3370.820191,11103.089130
16137.195076,-1036.288319,-4290.134789,10584.944971
16137.195400,-592.164754,-3294.210641,10066.800811
16137.195724,0.000000,-4213.525239,10584.944971
16137.196048,0.000000,-4366.744339,11029.068536
16137.196372,-222.061783,-4519.963438,10658.965565
16137.196696,-592.164754,-4366.744339,10140.821405
16137.197020,444.123565,-3830.477490,9548.656652
16137.197344,1258.350101,-3370.820191,9548.656652
16137.197668,740.205942,-4136.915689,9252.574275
16137.197992,296.082377,-2911.162892,8438.347739
16137.198316,1480.411884,-1838.629195,8068.244768
16137.198640,1776.494261,-1378.971896,8364.327145
16137.198964,1332.370696,-1302.362347,8290.306550
16137.199288,814.226536,-919.314598,7772.162391
16137.199612,370.102971,-383.047749,8068.244768
16137.199936,296.082377,-612.876398,8586.388927
16137.200260,148.041188,-689.485948,9622.677246
16137.200584,-666.185348,0.000000,9474.636058
16137.200907,-740.205942,0.000000,9474.636058
16137.201231,0.000000,153.219100,9992.780217
16137.201555,296.082377,689.485948,10214.842000
16137.201879,0.000000,766.095498,10288.862594
16137.202203,-296.082377,1991.848295,9770.718434
16137.202527,1184.329507,2757.943793,9474.636058
16137.202851,1258.350101,3064.381992,9770.718434
16137.203175,518.144159,3677.258390,9252.574275
16137.203499,666.185348,4213.525239,8956.491898
16137.203823,518.144159,4519.963438,8956.491898
16137.204147,1036.288319,4443.353888,9400.615463
16137.204471,888.247130,4903.011187,9696.697840
16137.204795,888.247130,5132.839837,8956.491898
16137.205119,518.144159,4979.620737,9178.553681
16137.205443,1406.391290,4979.620737,9326.594869
16137.205767,814.226536,5209.449386,9030.512492
16137.206091,518.144159,4826.401637,8512.368333
16137.206415,1258.350101,5515.887586,7179.997637
16137.206739,1702.473667,5132.839837,7328.038826
16137.207063,1702.473667,5362.668486,7624.121203
16137.207387,1110.308913,5209.449386,7328.038826
16137.207711,888.247130,4979.620737,6883.915261
16137.208035,814.226536,4519.963438,7254.018232
16137.208359,148.041188,4060.306139,7105.977043
16137.208683,-740.205942,2987.772442,8290.306550
16137.209007,-1480.411884,1685.410096,8216.285956
16137.209331,-814.226536,919.314598,9104.533087
16137.209655,-2072.576638,-306.438199,10066.800811
16137.209979,-3849.070898,-1685.410096,9844.739029
16137.210303,-3478.967927,-2145.067394,10436.903782
16137.210627,-2442.679609,-2528.115143,11103.089130
16137.210951,-2368.659014,-3217.601092,10807.006753
16137.211275,-2516.700203,-2681.334243,10955.047942
16137.211599,-1702.473667,-3294.210641,10288.862594
16137.211923,-1184.329507,-3140.991542,10140.821405
16137.212247,-666.185348,-3140.991542,11029.068536
16137.212570,-222.061783,-2987.772442,10955.047942
16137.212894,-370.102971,-3217.601092,10436.903782
16137.213218,-592.164754,-3830.477490,10658.965565
16137.213542,888.247130,-3677.258390,10955.047942
16137.213866,-370.102971,-3753.867940,10658.965565
16137.214190,-1554.432478,-4749.792088,9918.759623
16137.214514,-592.164754,-4213.525239,9474.636058
16137.214838,0.000000,-4136.915689,9548.656652
16137.215162,0.000000,-3600.648841,9104.533087
16137.215486,74.020594,-3064.381992,8586.388927
16137.215810,1110.308913,-1838.629195,8068.244768
16137.216134,1702.473667,-842.705048,8216.285956
16137.216458,2368.659014,-1149.143247,8734.430116
16137.216782,2146.597232,-459.657299,8586.388927
16137.217106,1776.494261,-306.438199,8438.347739
16137.217430,1776.494261,-229.828649,8734.430116
16137.217754,1628.453072,-153.219100,9622.677246
16137.218078,0.000000,-1532.190996,9918.759623
16137.218402,-518.144159,-306.438199,9474.636058
16137.218726,-370.102971,0.000000,9992.780217
16137.219050,-814.226536,0.000000,10140.821405
16137.219374,-1332.370696,689.485948,9992.780217
16137.219698,-814.226536,1685.410096,9400.615463
16137.220022,-444.123565,2451.505594,9104.533087
16137.220346,0.000000,2987.772442,9474.636058
16137.220670,592.164754,3370.820191,9252.574275
16137.220994,74.020594,4673.182538,8956.491898
16137.221318,888.247130,4903.011187,8882.471304
16137.221642,1850.514855,5286.058936,9548.656652
16137.221966,1036.288319,5056.230287,9474.636058
16137.222290,666.185348,5286.058936,8808.450710
16137.222614,1554.432478,5362.668486,9178.553681
16137.222938,1258.350101,5515.887586,9104.533087
16137.223262,1554.432478,4290.134789,8956.491898
16137.223586,888.247130,4979.620737,8290.306550
16137.223910,1850.514855,5592.497135,7920.203579
16137.224233,2368.659014,5439.278036,7772.162391
16137.224557,2442.679609,6052.154434,7994.224174
16137.224881,2368.659014,5669.106685,7105.977043
16137.225205,1110.308913,5439.278036,6365.771101
16137.225529,1850.514855,5056.230287,7105.977043
16137.225853,1480.411884,4060.306139,7624.121203
16137.226177,-1406.391290,2298.286494,8142.265362
16137.226501,-2738.761985,1225.752797,8512.368333
16137.226825,-2738.761985,-153.219100,9178.553681
16137.227149,-3627.009116,-1302.362347,9548.656652
16137.227473,-4737.318029,-2374.896044,10881.027347
16137.227797,-4737.318029,-2987.772442,9918.759623
16137.228121,-3701.029710,-2911.162892,10362.883188
16137.228445,-2442.679609,-3140.991542,10807.006753
16137.228769,-1998.556043,-2681.334243,11177.109724
16137.229093,-1702.473667,-2604.724693,11029.068536
16137.229417,0.000000,-2604.724693,10362.883188
16137.229741,1036.288319,-2681.334243,10881.027347
16137.230065,592.164754,-2834.553343,11029.068536
16137.230389,-666.185348,-3447.429741,10584.944971
16137.230713,-222.061783,-3830.477490,10140.821405
16137.231037,222.061783,-4290.134789,10807.006753
16137.231361,-1184.329507,-4903.011187,10362.883188
16137.231685,-1110.308913,-4519.963438,9548.656652
16137.232009,-666.185348,-4596.572988,8808.450710
16137.232333,-444.123565,-3447.429741,8660.409521
16137.232657,666.185348,-2987.772442,9474.636058
16137.232981,1184.329507,-2451.505594,8438.347739
16137.233305,1036.288319,-1991.848295,7698.141797
16137.233629,2442.679609,-766.095498,7698.141797
16137.233953,3256.906145,-689.485948,8586.388927
16137.234277,1628.453072,-306.438199,8364.327145
16137.234601,962.267725,-229.828649,8734.430116
16137.234925,1406.391290,-459.657299,9326.594869
16137.235249,444.123565,-995.924147,9992.780217
16137.235573,-740.205942,-995.924147,10510.924376
16137.235896,-1480.411884,-536.266849,10140.821405
16137.236220,-1406.391290,-153.219100,10214.842000
16137.236544,-740.205942,153.219100,10140.821405
16137.236868,518.144159,1455.581446,10288.862594
16137.237192,-370.102971,2298.286494,9400.615463
16137.237516,222.061783,3064.381992,8956.491898
16137.237840,1924.535449,4136.915689,9326.594869
16137.238164,1628.453072,4596.572988,9400.615463
16137.238488,296.082377,4826.401637,8882.471304
16137.238812,888.247130,5132.839837,8586.388927
16137.239136,1628.453072,4903.011187,8956.491898
16137.239460,888.247130,4979.620737,9474.636058
16137.239784,222.061783,4596.572988,9178.553681
16137.240108,0.000000,4903.011187,8586.388927
16137.240432,592.164754,4519.963438,8734.430116
16137.240756,1702.473667,5056.230287,9104.533087
16137.241080,1628.453072,5592.497135,8660.409521
16137.241404,1850.514855,5209.449386,8068.244768
16137.241728,2516.700203,6511.811733,7698.141797
16137.242052,3701.029710,6435.202183,7920.203579
16137.242376,2072.576638,5745.716235,7698.141797
16137.242700,740.205942,4749.792088,7105.977043
16137.243024,1036.288319,4290.134789,7328.038826
16137.243348,0.000000,3370.820191,7846.182985
16137.243672,-2220.617826,2068.457845,8216.285956
16137.243996,-2960.823768,459.657299,8586.388927
16137.244320,-3701.029710,0.000000,8734.430116
16137.244644,-4071.132681,-1225.752797,9474.636058
16137.244968,-3701.029710,-1915.238745,10658.965565
16137.245292,-4293.194464,-2068.457845,10658.965565
16137.245616,-3108.864956,-2451.505594,9918.759623
16137.245940,-2146.597232,-2451.505594,10436.903782
16137.246264,-1110.308913,-2528.115143,10807.006753
16137.246588,-1702.473667,-3064.381992,10732.986159
16137.246912,-740.205942,-2987.772442,10436.903782
16137.247236,0.000000,-3217.601092,10584.944971
16137.247559,-740.205942,-3830.477490,10955.047942
16137.247883,-518.144159,-4366.744339,10584.944971
16137.248207,-666.185348,-4749.792088,9918.759623
16137.248531,-1258.350101,-4290.134789,10140.821405
16137.248855,-518.144159,-4903.011187,10732.986159
16137.249179,0.000000,-4443.353888,10140.821405
16137.249503,222.061783,-4213.525239,9252.574275
16137.249827,1332.370696,-2834.553343,9030.512492
16137.250151,2368.659014,-2145.067394,9030.512492
16137.250475,1702.473667,-1915.238745,8512.368333
16137.250799,2368.659014,-1072.533697,8068.244768
16137.251123,2294.638420,-919.314598,7846.182985
16137.251447,1998.556043,-1072.533697,8512.368333
16137.251771,1258.350101,-995.924147,8660.409521
16137.252095,518.144159,-919.314598,8882.471304
16137.252419,-518.144159,-995.924147,9104.533087
16137.252743,-296.082377,-842.705048,9548.656652
16137.253067,-592.164754,-383.047749,9918.759623
16137.253391,-1554.432478,-612.876398,10140.821405
16137.253715,-1258.350101,0.000000,9622.677246
16137.254039,222.061783,842.705048,10066.800811
16137.254363,814.226536,1762.019645,10214.842000
16137.254687,148.041188,1991.848295,9474.636058
16137.255011,370.102971,2987.772442,9178.553681
16137.255335,1480.411884,4443.353888,8882.471304
16137.255659,888.247130,4213.525239,9326.594869
16137.255983,592.164754,4443.353888,9252.574275
16137.256307,518.144159,4366.744339,9030.512492
16137.256631,888.247130,4903.011187,9104.533087
16137.256955,1184.329507,5209.449386,9548.656652
16137.257279,814.226536,4826.401637,9548.656652
16137.257603,444.123565,5439.278036,9696.697840
16137.257927,1184.329507,5669.106685,8586.388927
16137.258251,2368.659014,5669.106685,8808.450710
16137.258575,1850.514855,5745.716235,8586.388927
16137.258899,1184.329507,5822.325785,7476.080014
16137.259222,1924.535449,6281.983084,7105.977043
16137.259546,1554.432478,6128.763984,6957.935855
16137.259870,1258.350101,5286.058936,7105.977043
16137.260194,148.041188,4596.572988,7105.977043
16137.260518,-962.267725,3983.696590,6661.853478
16137.260842,-1480.411884,2757.943793,7550.100608
16137.261166,-2146.597232,1685.410096,8364.327145
16137.261490,-2960.823768,383.047749,9104.533087
16137.261814,-3108.864956,-536.266849,9326.594869
16137.262138,-2516.700203,-1225.752797,9770.718434
16137.262462,-2812.782580,-1838.629195,10436.903782
16137.262786,-3256.906145,-2221.676944,10807.006753
16137.263110,-2590.720797,-2451.505594,10881.027347
16137.263434,-1184.329507,-2604.724693,10732.986159
16137.263758,-814.226536,-3064.381992,11029.068536
16137.264082,-1184.329507,-2374.896044,11177.109724
16137.264406,-592.164754,-2911.162892,9992.780217
16137.264730,0.000000,-3830.477490,10510.924376
16137.265054,0.000000,-3753.867940,11103.089130
16137.265378,0.000000,-3907.087040,11251.130318
16137.265702,0.000000,-4290.134789,10732.986159
16137.266026,296.082377,-4366.744339,10214.842000
16137.266350,1036.288319,-4060.306139,10584.944971
16137.266674,0.000000,-4290.134789,9918.759623
16137.266998,666.185348,-3370.820191,8956.491898
16137.267322,1184.329507,-2911.162892,8734.430116
16137.267646,1850.514855,-2221.676944,8660.409521
16137.267970,1554.432478,-1685.410096,8290.306550
16137.268294,1332.370696,-1762.019645,7550.100608
16137.268618,1184.329507,-766.095498,7031.956449
16137.268942,1036.288319,-536.266849,7920.203579
16137.269266,296.082377,-1149.143247,8290.306550
16137.269590,296.082377,-842.705048,9030.512492
16137.269914,-814.226536,-1302.362347,8882.471304
16137.270238,-592.164754,-995.924147,9548.656652
16137.270562,-444.123565,-766.095498,10066.800811
16137.270886,-888.247130,-612.876398,10288.862594
16137.271210,-1924.535449,0.000000,9622.677246
16137.271534,-444.123565,536.266849,10066.800811
16137.271858,0.000000,842.705048,10510.924376
16137.272182,0.000000,2145.067394,10066.800811
16137.272506,148.041188,3064.381992,9548.656652
16137.272830,814.226536,4136.915689,9474.636058
16137.273154,1406.391290,4673.182538,9844.739029
16137.273478,1480.411884,4903.011187,9844.739029
16137.273802,888.247130,4979.620737,9104.533087
16137.274126,1258.350101,5209.449386,9178.553681
16137.274450,2072.576638,5286.058936,9252.574275
16137.274774,1184.329507,5362.668486,9474.636058
16137.275098,296.082377,4903.011187,8882.471304
16137.275422,222.061783,5515.887586,7772.162391
16137.275746,1110.308913,5439.278036,7772.162391
16137.276070,814.226536,5439.278036,7550.100608
16137.276394,222.061783,5209.449386,7105.977043
16137.276718,814.226536,5362.668486,6291.750507
16137.277042,666.185348,5056.230287,6735.874072
16137.277366,444.123565,4903.011187,7254.018232
16137.277690,666.185348,4290.134789,7402.059420
16137.278014,0.000000,3907.087040,7550.100608
16137.278338,0.000000,2604.724693,8142.265362
16137.278662,-296.082377,1378.971896,9326.594869
16137.278986,-1776.494261,383.047749,9770.718434
16137.279310,-2590.720797,-536.266849,10214.842000
16137.279634,-2146.597232,-1302.362347,10288.862594
16137.279958,-2146.597232,-2145.067394,11029.068536
16137.280282,-2368.659014,-1915.238745,11399.171507
16137.280606,-1924.535449,-2757.943793,11251.130318
16137.280930,-962.267725,-2221.676944,10510.924376
16137.281254,-518.144159,-2528.115143,10732.986159
16137.281578,-740.205942,-2528.115143,10955.047942
16137.281902,-814.226536,-2757.943793,10510.924376
16137.282226,0.000000,-2987.772442,9992.780217
16137.282550,148.041188,-3064.381992,10140.821405
16137.282874,-370.102971,-3600.648841,10658.965565
16137.283198,-888.247130,-3983.696590,10214.842000
16137.283522,-962.267725,-4366.744339,9548.656652
16137.283846,-148.041188,-4136.915689,9548.656652
16137.284170,-666.185348,-4443.353888,9474.636058
16137.284494,-814.226536,-3677.258390,8512.368333
16137.284818,666.185348,-3370.820191,8364.327145
16137.285142,1110.308913,-2374.896044,7846.182985
16137.285466,1480.411884,-1225.752797,8438.347739
16137.285790,1702.473667,-1302.362347,8364.327145
16137.286114,1480.411884,-995.924147,7920.203579
16137.286438,1850.514855,-536.266849,8512.368333
16137.286762,2294.638420,-383.047749,9474.636058
16137.287086,666.185348,-612.876398,9844.739029
16137.287410,-518.144159,-1149.143247,9178.553681
16137.287734,-296.082377,-919.314598,10288.862594
16137.288058,-518.144159,-306.438199,10658.965565
16137.288382,-962.267725,-612.876398,10732.986159
16137.288706,-1332.370696,0.000000,10510.924376
16137.289030,-1036.288319,1302.362347,10066.800811
16137.289354,222.061783,1991.848295,10362.883188
16137.289678,296.082377,2145.067394,9622.677246
16137.290002,0.000000,3524.039291,9104.533087
16137.290326,444.123565,4060.306139,8660.409521
16137.290650,1628.453072,4596.572988,8956.491898
16137.290974,1554.432478,4749.792088,9252.574275
16137.291298,370.102971,4519.963438,9104.533087
16137.291622,222.061783,4826.401637,8512.368333
16137.291946,592.164754,4749.792088,8290.306550
16137.292270,592.164754,4596.572988,8290.306550
16137.292594,74.020594,4290.134789,8438.347739
16137.292918,296.082377,4673.182538,7698.141797
16137.293242,1406.391290,5056.230287,7920.203579
16137.293566,1998.556043,5286.058936,7994.224174
16137.293890,2294.638420,5745.716235,7402.059420
16137.294214,2368.659014,5898.935335,7254.018232
16137.294538,3034.844362,5822.325785,7402.059420
16137.294862,2812.782580,5286.058936,8068.244768
16137.295186,1258.350101,4519.963438,8216.285956
16137.295510,74.020594,3294.210641,8068.244768
16137.295834,-666.185348,2068.457845,8438.347739
16137.296158,-1332.370696,919.314598,9104.533087
16137.296482,-2812.782580,-536.266849,9770.718434
16137.296806,-3478.967927,-1302.362347,10066.800811
16137.297130,-3775.050304,-1532.190996,9992.780217
16137.297454,-3478.967927,-2221.676944,10510.924376
16137.297778,-2960.823768,-2374.896044,10584.944971
16137.298102,-2664.741391,-2298.286494,10436.903782
16137.298426,-1924.535449,-1991.848295,9770.718434
16137.298750,-814.226536,-1991.848295,9992.780217
16137.299074,222.061783,-2068.457845,10140.821405
16137.299398,-962.267725,-2987.772442,10214.842000
16137.299722,-814.226536,-3064.381992,10214.842000
16137.300046,222.061783,-3064.381992,10510.924376
16137.300370,0.000000,-3753.867940,10658.965565
16137.300694,-1480.411884,-4060.306139,10362.883188
16137.301018,-1258.350101,-4060.306139,9696.697840
16137.301342,-296.082377,-3983.696590,9252.574275
16137.301666,0.000000,-3600.648841,9474.636058
16137.301990,148.041188,-3294.210641,9548.656652
16137.302314,666.185348,-2681.334243,8882.471304
16137.302638,1702.473667,-1762.019645,8438.347739
16137.302962,3034.844362,-1455.581446,9104.533087
16137.303286,2220.617826,-1302.362347,8734.430116
16137.303610,222.061783,-995.924147,8142.265362
16137.303934,1702.473667,-612.876398,8068.244768
16137.304258,1258.350101,-842.705048,8956.491898
16137.304582,0.000000,-995.924147,9474.636058
16137.304906,-1036.288319,-1302.362347,9844.739029
16137.305230,-1110.308913,-1072.533697,9400.615463
16137.305554,-666.185348,-766.095498,9548.656652
16137.305878,-740.205942,-459.657299,10510.924376
16137.306202,-518.144159,536.266849,9770.718434
16137.306526,-740.205942,995.924147,9622.677246
16137.306850,740.205942,2145.067394,9474.636058
16137.307174,1998.556043,3064.381992,9844.739029
16137.307498,962.267725,2757.943793,9474.636058
16137.307822,148.041188,3830.477490,9030.512492
16137.308146,1184.329507,3907.087040,9030.512492
16137.308470,1554.432478,3983.696590,9474.636058
16137.308794,-518.144159,3983.696590,9178.553681
16137.309118,-370.102971,4596.572988,8956.491898
16137.309442,0.000000,4596.572988,9030.512492
16137.309765,296.082377,4290.134789,9252.574275
16137.310089,1184.329507,4979.620737,9252.574275
16137.310413,1036.288319,5132.839837,8438.347739
16137.310737,1628.453072,5515.887586,7994.224174
16137.311061,2886.803174,5822.325785,8142.265362
16137.311385,2590.720797,5822.325785,8216.285956
16137.311709,1776.494261,5515.887586,7328.038826
16137.312033,1332.370696,4979.620737,7254.018232
16137.312357,1480.411884,4443.353888,7105.977043
16137.312681,370.102971,3983.696590,7846.182985
16137.313005,-1258.350101,2681.334243,7476.080014
16137.313329,-2072.576638,1991.848295,7624.121203
16137.313653,-2294.638420,766.095498,8882.471304
16137.313977,-3108.864956,0.000000,9474.636058
16137.314301,-3552.988522,-919.314598,9918.759623
16137.314625,-3627.009116,-1149.143247,9548.656652
16137.314949,-3108.864956,-995.924147,9918.759623
16137.315273,-1406.391290,-1685.410096,10214.842000
16137.315597,-1924.535449,-2451.505594,10140.821405
16137.315921,-2146.597232,-2221.676944,10066.800811
16137.316245,-962.267725,-2298.286494,10214.842000
16137.316569,-296.082377,-2528.115143,11103.089130
16137.316893,-888.247130,-3064.381992,10584.944971
16137.317217,-1406.391290,-3140.991542,10658.965565
16137.317541,-666.185348,-4136.915689,10288.862594
16137.317865,0.000000,-3983.696590,10881.027347
16137.318189,0.000000,-4060.306139,11177.109724
16137.318513,0.000000,-4060.306139,10436.903782
