#time,accel_x,accel_y,accel_z
916.647963,-296.082377,153.219100,8956.491898
916.648288,-296.082377,536.266849,9178.553681
916.648613,0.000000,766.095498,9474.636058
916.648938,0.000000,383.047749,9622.677246
916.649263,-444.123565,229.828649,8808.450710
916.649588,148.041188,689.485948,8808.450710
916.649912,1036.288319,1149.143247,9400.615463
916.650237,962.267725,842.705048,9474.636058
916.650562,0.000000,536.266849,9252.574275
916.650887,74.020594,459.657299,9326.594869
916.651212,222.061783,612.876398,9252.574275
916.651537,-222.061783,153.219100,9326.594869
916.651862,-962.267725,383.047749,8808.450710
916.652187,-888.247130,459.657299,9104.533087
916.652512,-444.123565,459.657299,9548.656652
916.652836,-222.061783,536.266849,9474.636058
916.653161,-296.082377,689.485948,9326.594869
916.653486,-296.082377,459.657299,9326.594869
916.653811,740.205942,919.314598,9400.615463
916.654136,1184.329507,1149.143247,9622.677246
916.654461,0.000000,459.657299,9326.594869
916.654786,74.020594,459.657299,8956.491898
916.655111,814.226536,1225.752797,9474.636058
916.655436,222.061783,766.095498,9918.759623
916.655760,-592.164754,612.876398,9474.636058
916.656085,-444.123565,612.876398,9178.553681
916.656410,0.000000,689.485948,9400.615463
916.656735,0.000000,1072.533697,9474.636058
916.657060,-296.082377,1225.752797,9474.636058
916.657385,-370.102971,995.924147,9326.594869
916.657710,-222.061783,1225.752797,9326.594869
916.658035,592.164754,1685.410096,9918.759623
916.658360,-222.061783,1225.752797,9474.636058
916.658684,-962.267725,1072.533697,9178.553681
916.659009,-888.247130,1225.752797,9104.533087
916.659334,-444.123565,1455.581446,9400.615463
916.659659,-1776.494261,1072.533697,9104.533087
916.659984,-2442.679609,995.924147,8808.450710
916.660309,-2368.659014,1149.143247,9252.574275
916.660634,-2072.576638,1455.581446,9696.697840
916.660959,-2368.659014,1455.581446,9770.718434
916.661284,-3034.844362,2374.896044,9326.594869
916.661608,-3108.864956,2451.505594,9178.553681
916.661933,-1110.308913,2451.505594,9622.677246
916.662258,-1110.308913,2451.505594,9770.718434
916.662583,-2664.741391,2757.943793,9326.594869
916.662908,-2812.782580,2987.772442,9104.533087
916.663233,-1924.535449,2987.772442,9326.594869
916.663558,-2368.659014,3447.429741,9548.656652
916.663883,-3478.967927,3983.696590,8660.409521
916.664208,-3034.844362,3447.429741,8438.347739
916.664532,-2590.720797,3294.210641,9326.594869
916.664857,-2664.741391,3524.039291,9030.512492
916.665182,-2442.679609,3524.039291,8734.430116
916.665507,-2368.659014,3370.820191,8438.347739
916.665832,-1406.391290,3524.039291,8512.368333
916.666157,-592.164754,3830.477490,8660.409521
916.666482,-1258.350101,3140.991542,8882.471304
916.666807,-1702.473667,2834.553343,8364.327145
916.667132,-962.267725,3294.210641,8586.388927
916.667457,-962.267725,3064.381992,8882.471304
916.667781,-1554.432478,2604.724693,9326.594869
916.668106,-1332.370696,1838.629195,9178.553681
916.668431,-1406.391290,2757.943793,9622.677246
916.668756,-1332.370696,2298.286494,10214.842000
916.669081,-1628.453072,2451.505594,10807.006753
916.669406,-2368.659014,2757.943793,11103.089130
916.669731,-2738.761985,2604.724693,11103.089130
916.670056,-2072.576638,3140.991542,11769.274478
916.670381,-1776.494261,3370.820191,11843.295072
916.670705,-3404.947333,4136.915689,10214.842000
916.671030,-3923.091493,3907.087040,9770.718434
916.671355,-3182.885551,4596.572988,9770.718434
916.671680,-4145.153275,4519.963438,9622.677246
916.672005,-5477.523971,4366.744339,8734.430116
916.672330,-5329.482782,4060.306139,7698.141797
916.672655,-4515.256246,4290.134789,6957.935855
916.672980,-3849.070898,4290.134789,6439.791695
916.673305,-3849.070898,3753.867940,6291.750507
916.673629,-3256.906145,3294.210641,5329.482782
916.673954,-1628.453072,3370.820191,5625.565159
916.674279,-518.144159,2757.943793,6587.832884
916.674604,-1184.329507,2145.067394,7105.977043
916.674929,-2072.576638,1608.800546,8290.306550
916.675254,-1184.329507,1378.971896,9400.615463
916.675579,-1184.329507,1455.581446,10214.842000
916.675904,-1554.432478,995.924147,11325.150913
916.676229,-1036.288319,1302.362347,11029.068536
916.676553,444.123565,2221.676944,11769.274478
916.676878,1480.411884,2451.505594,11621.233289
916.677203,2072.576638,1991.848295,11029.068536
916.677528,2368.659014,1685.410096,9770.718434
916.677853,3330.926739,2145.067394,9400.615463
916.678178,3849.070898,1149.143247,9770.718434
916.678503,2590.720797,-689.485948,10140.821405
916.678828,0.000000,-1838.629195,10288.862594
916.679153,-1850.514855,-2374.896044,11769.274478
916.679477,-2886.803174,-2681.334243,12731.542202
916.679802,-4737.318029,-2451.505594,13101.645173
916.680127,-6439.791695,-1915.238745,13027.624579
916.680452,-6439.791695,0.000000,12879.583391
916.680777,-5995.668130,2681.334243,11917.315666
916.681102,-5107.421000,4903.011187,10362.883188
916.681427,-3404.947333,7048.078582,7698.141797
916.681752,-1702.473667,8350.440928,5329.482782
916.682077,-296.082377,9806.022374,3627.009116
916.682401,148.041188,8273.831378,2368.659014
916.682726,-2220.617826,7048.078582,2590.720797
916.683051,-3849.070898,4826.401637,3330.926739
916.683376,-4885.359217,2374.896044,4219.173869
916.683701,-6143.709319,153.219100,6069.688724
916.684026,-7179.997637,-1685.410096,7476.080014
916.684351,-6661.853478,-2298.286494,8660.409521
916.684676,-4737.318029,-1608.800546,10732.986159
916.685001,-2738.761985,153.219100,12287.418637
916.685325,-1184.329507,995.924147,12435.459826
916.685650,0.000000,3294.210641,13175.665768
916.685975,1110.308913,5439.278036,13841.851115
916.686300,962.267725,7048.078582,14730.098246
916.686625,-222.061783,7431.126331,15100.201217
916.686950,-1924.535449,7967.393179,13693.809927
916.687275,-1776.494261,8197.221829,13471.748144
916.687600,-1110.308913,7354.516781,11399.171507
916.687925,-3552.988522,5515.887586,10288.862594
916.688250,-5255.462188,4213.525239,8438.347739
916.688574,-4071.132681,4213.525239,7105.977043
916.688899,-2812.782580,2528.115143,6365.771101
916.689224,-3404.947333,459.657299,3923.091493
916.689549,-3627.009116,153.219100,2738.761985
916.689874,-2220.617826,1072.533697,2960.823768
916.690199,-296.082377,612.876398,4515.256246
916.690524,148.041188,459.657299,6513.812290
916.690849,-1110.308913,1455.581446,7994.224174
916.691174,-1258.350101,3140.991542,9918.759623
916.691498,-518.144159,3983.696590,12879.583391
916.691823,-1258.350101,4826.401637,14211.954086
916.692148,-2368.659014,6358.592633,12731.542202
916.692473,-740.205942,8273.831378,11103.089130
916.692798,888.247130,8656.879127,10066.800811
916.693123,1258.350101,8886.707777,9770.718434
916.693448,2368.659014,8350.440928,6957.935855
916.693773,1998.556043,5132.839837,5773.606348
916.694098,1554.432478,612.876398,4737.318029
916.694422,1628.453072,-995.924147,4293.194464
916.694747,-666.185348,-3524.039291,7402.059420
916.695072,-4885.359217,-6511.811733,10584.944971
916.695397,-7402.059420,-8656.879127,12879.583391
916.695722,-8216.285956,-9269.755526,15840.407159
916.696047,-9400.615463,-8580.269578,18357.107362
916.696372,-8956.491898,-4903.011187,18949.272115
916.696697,-6143.709319,229.828649,17542.880825
916.697022,-3552.988522,4519.963438,16358.551318
916.697346,-1628.453072,7967.393179,13027.624579
916.697671,2442.679609,12334.137518,6217.729913
916.697996,5773.606348,14019.547613,1702.473667
916.698321,7772.162391,13100.233016,-666.185348
916.698646,5403.503377,10035.851024,-888.247130
916.698971,-222.061783,6205.373534,592.164754
916.699296,-4145.153275,229.828649,2368.659014
916.699621,-8364.327145,-4366.744339,5699.585753
916.699946,-12805.562797,-6435.202183,9992.780217
916.700270,-13101.645173,-8044.002729,10510.924376
916.700595,-11695.253884,-8886.707777,11621.233289
916.700920,-11177.109724,-6052.154434,14656.077652
916.701245,-8216.285956,0.000000,15766.386565
916.701570,-1184.329507,4979.620737,12879.583391
916.701895,4367.215058,6588.421283,11547.212695
916.702220,8142.265362,10342.289223,6513.812290
916.702545,8956.491898,13942.938064,5403.503377
916.702870,7920.203579,13636.499864,7476.080014
916.703194,5699.585753,11491.432470,8438.347739
916.703519,2368.659014,7737.564530,11769.274478
916.703844,-962.267725,3677.258390,10658.965565
916.704169,-7031.956449,0.000000,11547.212695
916.704494,-8142.265362,-2911.162892,11621.233289
916.704819,-6439.791695,-2451.505594,11991.336260
916.705144,-5921.647536,-3370.820191,11991.336260
916.705469,-4663.297435,-2681.334243,9030.512492
916.705794,-2220.617826,0.000000,6291.750507
916.706119,-1258.350101,2068.457845,4885.359217
916.706444,1406.391290,4903.011187,7476.080014
916.706769,1998.556043,6741.640382,9252.574275
916.707094,370.102971,7354.516781,9474.636058
916.707419,1184.329507,7354.516781,8142.265362
916.707744,2072.576638,8810.098227,7994.224174
916.708069,1850.514855,9729.412825,7920.203579
916.708394,1924.535449,8656.879127,8216.285956
916.708719,1036.288319,5515.887586,8734.430116
916.709044,-2072.576638,2987.772442,10584.944971
916.709369,-2664.741391,2374.896044,9326.594869
916.709694,-4367.215058,459.657299,9844.739029
916.710020,-5477.523971,-1532.190996,7994.224174
916.710345,-6217.729913,-2374.896044,7402.059420
916.710670,-5107.421000,-2145.067394,8438.347739
916.710995,-4737.318029,-1072.533697,7105.977043
916.711320,-4515.256246,-1532.190996,8586.388927
916.711645,-2368.659014,-536.266849,8660.409521
916.711970,-1628.453072,1149.143247,10584.944971
916.712295,-2886.803174,612.876398,12435.459826
916.712620,-2368.659014,1455.581446,12731.542202
916.712945,-2516.700203,1149.143247,14063.912898
916.713270,-3478.967927,2068.457845,13175.665768
916.713595,-2368.659014,2374.896044,12953.603985
916.713920,-444.123565,2374.896044,11399.171507
916.714245,2590.720797,1378.971896,8364.327145
916.714570,1998.556043,1685.410096,9696.697840
916.714895,-1110.308913,842.705048,8882.471304
916.715220,-2886.803174,536.266849,7698.141797
916.715545,-518.144159,-689.485948,6217.729913
916.715871,-2072.576638,-2374.896044,7031.956449
916.716196,-4885.359217,-1149.143247,6513.812290
916.716521,-3775.050304,995.924147,6217.729913
916.716846,-888.247130,-1225.752797,7031.956449
916.717171,-2146.597232,-2145.067394,5107.421000
916.717496,-3997.112087,-153.219100,7846.182985
916.717821,-1406.391290,3140.991542,9844.739029
916.718146,-888.247130,2834.553343,11547.212695
916.718471,-666.185348,0.000000,11029.068536
916.718796,1184.329507,2604.724693,10436.903782
916.719121,4441.235652,5362.668486,8956.491898
916.719446,6217.729913,5056.230287,9326.594869
916.719771,7994.224174,2451.505594,9326.594869
916.720096,4811.338623,1455.581446,9992.780217
916.720421,2294.638420,1838.629195,9770.718434
916.720746,2664.741391,1685.410096,9992.780217
916.721071,1924.535449,-766.095498,11103.089130
916.721396,-1110.308913,-2221.676944,11621.233289
916.721722,-1702.473667,-2145.067394,10732.986159
916.722047,-1628.453072,-1072.533697,11399.171507
916.722372,-444.123565,-536.266849,10436.903782
916.722697,-888.247130,-153.219100,10140.821405
916.723022,-1998.556043,766.095498,9326.594869
916.723347,-1480.411884,4060.306139,9178.553681
916.723672,592.164754,4903.011187,9622.677246
916.723997,1480.411884,4366.744339,8512.368333
916.724322,1406.391290,5209.449386,5699.585753
916.724647,2368.659014,5822.325785,4959.379811
916.724972,4737.318029,4979.620737,4811.338623
916.725297,2738.761985,2451.505594,6883.915261
916.725622,-962.267725,229.828649,6883.915261
916.725947,-2368.659014,0.000000,8364.327145
916.726272,-2442.679609,-1225.752797,9844.739029
916.726597,-3330.926739,-3447.429741,10066.800811
916.726922,-2738.761985,-4443.353888,10066.800811
916.727247,-2220.617826,-919.314598,10658.965565
916.727573,-296.082377,842.705048,10140.821405
916.727898,2146.597232,-459.657299,9770.718434
916.728223,370.102971,-459.657299,10436.903782
916.728548,-1776.494261,2834.553343,10214.842000
916.728873,74.020594,4443.353888,10066.800811
916.729198,0.000000,842.705048,12139.377449
916.729523,-2442.679609,-1149.143247,10732.986159
916.729848,-3478.967927,1302.362347,10510.924376
916.730173,-1998.556043,-383.047749,10066.800811
916.730498,-2738.761985,-3370.820191,9770.718434
916.730823,-4811.338623,-4673.182538,10436.903782
916.731148,-4441.235652,-2221.676944,10436.903782
916.731473,-3330.926739,-1838.629195,9696.697840
916.731798,-2664.741391,-2834.553343,9474.636058
916.732123,-1406.391290,-2451.505594,8512.368333
916.732448,0.000000,1149.143247,5921.647536
916.732773,4145.153275,2451.505594,4737.318029
916.733099,5625.565159,3064.381992,6809.894666
916.733424,3997.112087,3447.429741,8512.368333
916.733749,2812.782580,4519.963438,8956.491898
916.734074,3256.906145,3447.429741,9178.553681
916.734399,1184.329507,1455.581446,8142.265362
916.734724,0.000000,1302.362347,10066.800811
916.735049,1110.308913,1685.410096,8882.471304
916.735374,2812.782580,1455.581446,8290.306550
916.735699,2368.659014,-1685.410096,9400.615463
916.736024,-518.144159,-1225.752797,9548.656652
916.736349,-740.205942,306.438199,10288.862594
916.736674,0.000000,76.609550,9474.636058
916.736999,-1554.432478,-2298.286494,8808.450710
916.737324,-2220.617826,-1072.533697,10214.842000
916.737649,666.185348,1149.143247,9918.759623
916.737974,2664.741391,3217.601092,9178.553681
916.738299,2960.823768,0.000000,10658.965565
916.738624,3034.844362,229.828649,10732.986159
916.738950,3108.864956,3370.820191,11991.336260
916.739275,3478.967927,3907.087040,12509.480420
916.739600,1258.350101,1838.629195,12213.398043
916.739925,-592.164754,0.000000,10510.924376
916.740250,2146.597232,2757.943793,8142.265362
916.740575,2516.700203,2834.553343,8882.471304
916.740900,1702.473667,306.438199,7328.038826
916.741225,518.144159,-306.438199,7476.080014
916.741550,-1110.308913,1149.143247,7698.141797
916.741875,-1850.514855,1302.362347,7105.977043
916.742200,-2368.659014,383.047749,6957.935855
916.742525,-1924.535449,459.657299,6957.935855
916.742850,-1258.350101,1762.019645,9030.512492
916.743175,-1554.432478,1915.238745,7846.182985
916.743500,-1628.453072,-306.438199,8216.285956
916.743825,-2368.659014,-1685.410096,8364.327145
916.744150,-3108.864956,0.000000,9844.739029
916.744475,-3256.906145,459.657299,12879.583391
916.744801,-3330.926739,-1378.971896,12435.459826
916.745126,-4367.215058,-2374.896044,12879.583391
916.745451,-2072.576638,-1532.190996,9918.759623
916.745776,1184.329507,2145.067394,8512.368333
916.746101,1850.514855,1915.238745,9622.677246
916.746426,518.144159,766.095498,9548.656652
916.746751,592.164754,-306.438199,8364.327145
916.747076,0.000000,919.314598,9030.512492
916.747401,-296.082377,1532.190996,8882.471304
916.747726,-2368.659014,306.438199,9474.636058
916.748051,-666.185348,-842.705048,8808.450710
916.748376,666.185348,0.000000,8956.491898
916.748701,0.000000,306.438199,8586.388927
916.749026,-518.144159,383.047749,7994.224174
916.749351,74.020594,-306.438199,7846.182985
916.749676,-666.185348,2145.067394,8734.430116
916.750001,1258.350101,1302.362347,9992.780217
916.750327,148.041188,1302.362347,9474.636058
916.750652,1110.308913,612.876398,6661.853478
916.750977,3404.947333,3140.991542,7846.182985
916.751302,4441.235652,1302.362347,8364.327145
916.751627,814.226536,0.000000,8438.347739
916.751952,0.000000,-2221.676944,9992.780217
916.752277,0.000000,229.828649,11251.130318
916.752602,666.185348,-383.047749,10288.862594
916.752927,-962.267725,-1838.629195,10955.047942
916.753252,-666.185348,-1838.629195,10140.821405
916.753577,2368.659014,1685.410096,9992.780217
916.753902,5477.523971,1302.362347,10214.842000
916.754227,3108.864956,-383.047749,10140.821405
916.754552,1258.350101,153.219100,9252.574275
916.754877,2368.659014,3447.429741,10658.965565
916.755202,3552.988522,2145.067394,11621.233289
916.755527,740.205942,0.000000,10658.965565
916.755852,-962.267725,-766.095498,8586.388927
916.756178,740.205942,2451.505594,7846.182985
916.756503,2960.823768,2068.457845,8364.327145
916.756828,-148.041188,-306.438199,7476.080014
916.757153,-3330.926739,-1455.581446,7920.203579
916.757478,-3478.967927,689.485948,8438.347739
916.757803,-2738.761985,1991.848295,9622.677246
916.758128,-3552.988522,-306.438199,9548.656652
916.758453,-4737.318029,-1225.752797,7476.080014
916.758778,-2146.597232,1378.971896,7105.977043
916.759103,2812.782580,3753.867940,7698.141797
916.759428,1628.453072,2298.286494,8438.347739
916.759753,-4145.153275,0.000000,9474.636058
916.760078,-3034.844362,-383.047749,7846.182985
916.760403,-1702.473667,2757.943793,10510.924376
916.760728,-1554.432478,842.705048,12435.459826
916.761053,-3108.864956,-306.438199,10510.924376
916.761378,-962.267725,306.438199,8808.450710
916.761703,814.226536,1532.190996,10214.842000
916.762029,740.205942,842.705048,9474.636058
916.762354,-1924.535449,-1378.971896,8808.450710
916.762679,-814.226536,459.657299,9400.615463
916.763004,1184.329507,1762.019645,11177.109724
916.763329,-888.247130,2068.457845,12583.501014
916.763654,-1628.453072,-1072.533697,10288.862594
916.763979,-962.267725,-229.828649,7254.018232
916.764304,1850.514855,2068.457845,7846.182985
916.764629,2590.720797,3600.648841,8512.368333
916.764954,222.061783,689.485948,8882.471304
916.765279,-1036.288319,-689.485948,7550.100608
916.765604,-592.164754,1685.410096,9252.574275
916.765929,-888.247130,1991.848295,10362.883188
916.766254,-518.144159,0.000000,8438.347739
916.766579,518.144159,-1608.800546,7476.080014
916.766904,3182.885551,1915.238745,8142.265362
916.767229,5107.421000,3064.381992,8142.265362
916.767554,2442.679609,-459.657299,9400.615463
916.767880,444.123565,-1608.800546,8142.265362
916.768205,814.226536,2068.457845,11103.089130
916.768530,2368.659014,1532.190996,12065.356855
916.768855,222.061783,-1302.362347,10807.006753
916.769180,222.061783,-2374.896044,9622.677246
916.769505,2516.700203,2604.724693,9030.512492
916.769830,4441.235652,2604.724693,9252.574275
916.770155,1406.391290,-1455.581446,11399.171507
916.770480,-444.123565,-1378.971896,10214.842000
916.770805,-296.082377,1455.581446,11473.192101
916.771130,592.164754,1302.362347,11547.212695
916.771455,-1776.494261,-1762.019645,10584.944971
916.771780,-1924.535449,-2911.162892,7698.141797
916.772105,962.267725,1838.629195,7772.162391
916.772430,1776.494261,2221.676944,9400.615463
916.772755,-888.247130,-1072.533697,9104.533087
916.773080,-3108.864956,-2068.457845,7328.038826
916.773406,-2886.803174,766.095498,8068.244768
916.773731,-1258.350101,1685.410096,8956.491898
916.774056,-2664.741391,229.828649,9474.636058
916.774381,-1480.411884,0.000000,8438.347739
916.774706,888.247130,2145.067394,7105.977043
916.775031,2516.700203,3447.429741,7105.977043
916.775356,1036.288319,2528.115143,8660.409521
916.775681,-962.267725,229.828649,8216.285956
916.776006,-1924.535449,1149.143247,8438.347739
916.776331,-592.164754,1378.971896,10732.986159
916.776656,-1924.535449,995.924147,11473.192101
916.776981,-3627.009116,-1225.752797,9326.594869
916.777306,-518.144159,-842.705048,8364.327145
916.777631,2516.700203,612.876398,8216.285956
916.777956,962.267725,1225.752797,10732.986159
916.778281,-1110.308913,153.219100,10510.924376
916.778606,-2146.597232,536.266849,11473.192101
916.778931,-518.144159,229.828649,10510.924376
916.779257,74.020594,229.828649,10955.047942
916.779582,-1406.391290,766.095498,10140.821405
916.779907,0.000000,2221.676944,8586.388927
916.780232,2368.659014,2068.457845,8882.471304
916.780557,1702.473667,0.000000,9474.636058
916.780882,-888.247130,-383.047749,8290.306550
916.781207,-2516.700203,1532.190996,8438.347739
916.781532,-148.041188,2298.286494,7920.203579
916.781857,444.123565,229.828649,9326.594869
916.782182,-1036.288319,-766.095498,8438.347739
916.782507,518.144159,1991.848295,7031.956449
916.782832,4515.256246,2834.553343,5995.668130
916.783157,4219.173869,1532.190996,7624.121203
916.783482,1850.514855,0.000000,9400.615463
916.783807,666.185348,2145.067394,9252.574275
916.784132,888.247130,1915.238745,10140.821405
916.784457,-370.102971,-612.876398,10807.006753
916.784782,-1036.288319,-1072.533697,10214.842000
916.785108,0.000000,1072.533697,9548.656652
916.785433,2738.761985,1149.143247,9326.594869
916.785758,1776.494261,-1072.533697,8586.388927
916.786083,-370.102971,-1685.410096,9844.739029
916.786408,-2146.597232,306.438199,11103.089130
916.786733,-2072.576638,153.219100,11695.253884
916.787058,-592.164754,-612.876398,11251.130318
916.787383,148.041188,-2221.676944,12065.356855
916.787708,-592.164754,-383.047749,10066.800811
916.788033,2072.576638,1608.800546,7328.038826
916.788358,3256.906145,1072.533697,9474.636058
916.788683,1850.514855,-1455.581446,9326.594869
916.789008,-1776.494261,919.314598,8364.327145
916.789333,-1184.329507,2451.505594,9474.636058
916.789658,-592.164754,842.705048,9104.533087
916.789983,-1924.535449,-766.095498,8808.450710
916.790308,-1184.329507,306.438199,7846.182985
916.790634,740.205942,2911.162892,6661.853478
916.790959,1702.473667,1838.629195,6883.915261
916.791284,0.000000,-306.438199,8290.306550
916.791609,-1554.432478,1302.362347,7328.038826
916.791934,-3256.906145,1991.848295,8660.409521
916.792259,-2368.659014,-995.924147,8956.491898
916.792584,-3701.029710,-1149.143247,8956.491898
916.792909,-2294.638420,229.828649,9770.718434
916.793234,-148.041188,1532.190996,8438.347739
916.793559,444.123565,-229.828649,7920.203579
916.793884,0.000000,-1455.581446,9474.636058
916.794209,222.061783,919.314598,9770.718434
916.794534,1554.432478,3447.429741,13989.892304
916.794859,2072.576638,1838.629195,12805.562797
916.795184,1776.494261,-383.047749,11917.315666
916.795509,2812.782580,995.924147,11621.233289
916.795834,4071.132681,3983.696590,9622.677246
916.796159,3552.988522,2298.286494,8956.491898
916.796485,1480.411884,0.000000,9548.656652
916.796810,-814.226536,612.876398,10066.800811
916.797135,-2294.638420,2374.896044,10140.821405
916.797460,-2886.803174,0.000000,7846.182985
916.797785,-4515.256246,-1838.629195,7994.224174
916.798110,-3256.906145,-1532.190996,7179.997637
916.798435,-296.082377,2604.724693,6957.935855
916.798760,1110.308913,1302.362347,7031.956449
916.799085,592.164754,0.000000,7328.038826
916.799410,-222.061783,1149.143247,7698.141797
916.799735,-1036.288319,2374.896044,8882.471304
916.800060,-444.123565,1072.533697,8808.450710
916.800385,0.000000,0.000000,9400.615463
916.800710,1110.308913,919.314598,9844.739029
916.801035,1702.473667,2298.286494,9252.574275
916.801360,2220.617826,766.095498,9252.574275
916.801685,1480.411884,-612.876398,11103.089130
916.802010,74.020594,-766.095498,9252.574275
916.802336,888.247130,1072.533697,10214.842000
916.802661,0.000000,919.314598,11843.295072
916.802986,-1702.473667,-1149.143247,11325.150913
916.803311,0.000000,-1685.410096,9474.636058
916.803636,2738.761985,306.438199,10584.944971
916.803961,2220.617826,919.314598,9918.759623
916.804286,1998.556043,153.219100,8512.368333
916.804611,1036.288319,-1149.143247,10362.883188
916.804936,-444.123565,76.609550,10955.047942
916.805261,-1924.535449,995.924147,10066.800811
916.805586,-814.226536,-306.438199,9178.553681
916.805911,-444.123565,-995.924147,8068.244768
916.806236,666.185348,2374.896044,8068.244768
916.806561,2960.823768,2145.067394,8142.265362
916.806886,592.164754,1455.581446,7920.203579
916.807211,0.000000,-1302.362347,7105.977043
916.807536,-222.061783,2221.676944,8512.368333
916.807861,222.061783,2145.067394,7624.121203
916.808185,-2960.823768,689.485948,8438.347739
916.808510,-1776.494261,-1685.410096,7254.018232
916.808835,-814.226536,919.314598,8512.368333
916.809160,1480.411884,1149.143247,7698.141797
916.809485,0.000000,0.000000,8586.388927
916.809810,-518.144159,-2145.067394,8808.450710
916.810135,-1776.494261,229.828649,11769.274478
916.810459,-666.185348,995.924147,12361.439231
916.810784,-666.185348,153.219100,13175.665768
916.811109,-1258.350101,-1455.581446,11325.150913
916.811434,592.164754,0.000000,9696.697840
916.811759,4367.215058,2528.115143,11325.150913
916.812084,2812.782580,1685.410096,11473.192101
916.812409,-962.267725,-689.485948,10510.924376
916.812734,-1406.391290,-229.828649,9918.759623
916.813058,-370.102971,2987.772442,9400.615463
916.813383,-2220.617826,1685.410096,9104.533087
916.813708,-3775.050304,-1225.752797,7402.059420
916.814033,-2812.782580,459.657299,6661.853478
916.814358,222.061783,2987.772442,7031.956449
916.814683,-296.082377,2451.505594,7994.224174
916.815008,-1480.411884,-919.314598,6217.729913
916.815332,-2146.597232,1072.533697,5329.482782
916.815657,-814.226536,2451.505594,8290.306550
916.815982,-1110.308913,306.438199,8364.327145
916.816307,-3182.885551,-1072.533697,10436.903782
916.816632,0.000000,-1302.362347,11399.171507
916.816957,2442.679609,1225.752797,9400.615463
916.817282,2960.823768,153.219100,10955.047942
916.817606,888.247130,689.485948,10807.006753
916.817931,2072.576638,1991.848295,9104.533087
916.818256,2738.761985,2757.943793,10066.800811
916.818581,2368.659014,1225.752797,10510.924376
916.818906,-296.082377,383.047749,10362.883188
916.819231,740.205942,995.924147,8734.430116
916.819556,3849.070898,995.924147,8660.409521
916.819881,1776.494261,-842.705048,10510.924376
916.820205,-1628.453072,-2068.457845,10362.883188
916.820530,-1480.411884,-229.828649,9918.759623
916.820855,0.000000,-612.876398,9992.780217
916.821180,-2368.659014,-1532.190996,10510.924376
916.821505,-3256.906145,-1225.752797,9696.697840
916.821830,-592.164754,1762.019645,8068.244768
916.822155,3478.967927,2834.553343,7772.162391
916.822479,3849.070898,1532.190996,7031.956449
916.822804,1998.556043,1838.629195,6291.750507
916.823129,1628.453072,2987.772442,6735.874072
916.823454,2442.679609,4136.915689,8068.244768
916.823779,1036.288319,689.485948,9326.594869
916.824104,-1480.411884,-1225.752797,9918.759623
916.824429,-1924.535449,-383.047749,9178.553681
916.824754,592.164754,0.000000,9326.594869
916.825078,1998.556043,-1608.800546,9548.656652
916.825403,-1332.370696,-2834.553343,10510.924376
916.825728,-2220.617826,-766.095498,8882.471304
916.826053,-370.102971,1608.800546,10066.800811
916.826378,222.061783,536.266849,11177.109724
916.826703,-1850.514855,229.828649,11399.171507
916.827028,-962.267725,536.266849,10807.006753
916.827352,1998.556043,2145.067394,8808.450710
916.827677,3997.112087,1149.143247,8882.471304
916.828002,222.061783,229.828649,11251.130318
916.828327,-3256.906145,76.609550,8512.368333
916.828652,-4663.297435,-153.219100,9992.780217
916.828977,-3552.988522,-2451.505594,9918.759623
916.829302,-4515.256246,-1225.752797,10214.842000
916.829627,-3552.988522,-995.924147,9400.615463
916.829951,-2146.597232,1302.362347,8216.285956
916.830276,74.020594,306.438199,7105.977043
916.830601,0.000000,612.876398,8808.450710
916.830926,-666.185348,1991.848295,6365.771101
916.831251,-592.164754,2451.505594,5033.400406
916.831576,1628.453072,2757.943793,7698.141797
916.831901,1554.432478,3600.648841,10658.965565
916.832225,-962.267725,2451.505594,10140.821405
916.832550,148.041188,-306.438199,5921.647536
916.832875,3256.906145,459.657299,6513.812290
916.833200,2664.741391,2451.505594,9622.677246
916.833525,-518.144159,1685.410096,11177.109724
916.833850,-592.164754,-536.266849,10510.924376
916.834175,1110.308913,-1378.971896,11843.295072
916.834499,222.061783,153.219100,12065.356855
916.834824,-296.082377,612.876398,10436.903782
916.835149,2368.659014,0.000000,8882.471304
916.835474,3627.009116,2068.457845,8882.471304
916.835799,2516.700203,2451.505594,10140.821405
916.836124,74.020594,1225.752797,10732.986159
916.836449,-962.267725,-306.438199,7179.997637
916.836774,-444.123565,612.876398,8882.471304
916.837098,0.000000,842.705048,11917.315666
916.837423,-666.185348,995.924147,10732.986159
916.837748,592.164754,689.485948,9178.553681
916.838073,3404.947333,1455.581446,8142.265362
916.838398,3330.926739,1762.019645,8068.244768
916.838723,1110.308913,1685.410096,7994.224174
916.839048,1110.308913,2298.286494,7624.121203
916.839372,888.247130,2451.505594,8660.409521
916.839697,518.144159,1378.971896,8734.430116
916.840022,518.144159,919.314598,9474.636058
916.840347,296.082377,1378.971896,7846.182985
916.840672,592.164754,612.876398,7031.956449
916.840997,1702.473667,-612.876398,8956.491898
916.841322,-370.102971,-536.266849,10288.862594
916.841647,-3701.029710,-842.705048,10436.903782
916.841971,-3108.864956,-2451.505594,10140.821405
916.842296,-3034.844362,-995.924147,10732.986159
916.842621,-2738.761985,-1455.581446,11621.233289
916.842946,-1924.535449,-1072.533697,9696.697840
916.843271,-370.102971,-459.657299,8882.471304
916.843596,1628.453072,919.314598,9474.636058
916.843921,148.041188,1149.143247,10362.883188
916.844245,-1776.494261,76.609550,9326.594869
916.844570,-1480.411884,0.000000,8290.306550
916.844895,-1554.432478,-459.657299,9252.574275
916.845220,-2368.659014,-306.438199,11177.109724
916.845545,-1850.514855,-689.485948,8216.285956
916.845870,-1184.329507,-1149.143247,7846.182985
916.846195,222.061783,-1072.533697,9622.677246
916.846520,0.000000,-1838.629195,10584.944971
916.846844,-2442.679609,-689.485948,9770.718434
916.847169,-370.102971,612.876398,10584.944971
916.847494,888.247130,1302.362347,9178.553681
916.847819,1702.473667,612.876398,8438.347739
916.848144,2516.700203,1838.629195,7846.182985
916.848469,3404.947333,2604.724693,7254.018232
916.848794,4071.132681,2451.505594,7402.059420
916.849118,2072.576638,229.828649,8734.430116
916.849443,-1850.514855,76.609550,9326.594869
916.849768,-1924.535449,1532.190996,9326.594869
916.850093,-1110.308913,-689.485948,9474.636058
916.850418,-2664.741391,-2681.334243,10436.903782
916.850743,-2368.659014,-1302.362347,10140.821405
916.851068,962.267725,2221.676944,8734.430116
916.851393,2960.823768,612.876398,8660.409521
916.851717,1184.329507,-612.876398,9104.533087
916.852042,444.123565,1608.800546,9992.780217
916.852367,1776.494261,3983.696590,8956.491898
916.852692,2442.679609,2145.067394,9104.533087
916.853017,1258.350101,612.876398,9918.759623
916.853342,1702.473667,2834.553343,9918.759623
916.853667,3034.844362,3370.820191,9178.553681
916.853991,2294.638420,229.828649,8586.388927
916.854316,222.061783,-1149.143247,10066.800811
916.854641,-1332.370696,1455.581446,9696.697840
916.854966,-444.123565,1915.238745,9104.533087
916.855291,-740.205942,383.047749,9622.677246
916.855616,-1480.411884,0.000000,9030.512492
916.855941,592.164754,1762.019645,8364.327145
916.856265,2368.659014,2374.896044,7624.121203
916.856590,2294.638420,1455.581446,6957.935855
916.856915,592.164754,459.657299,8512.368333
916.857240,-74.020594,919.314598,8586.388927
916.857565,-666.185348,1532.190996,9474.636058
916.857890,-1480.411884,536.266849,10362.883188
916.858215,-2516.700203,0.000000,10881.027347
916.858540,-2738.761985,-1685.410096,10362.883188
916.858864,-1480.411884,0.000000,9696.697840
916.859189,-1184.329507,-459.657299,9696.697840
916.859514,-1332.370696,-689.485948,9252.574275
916.859839,-1480.411884,-919.314598,8438.347739
916.860164,-1184.329507,689.485948,9992.780217
916.860489,-1924.535449,612.876398,9770.718434
916.860814,-2886.803174,306.438199,10362.883188
916.861138,-740.205942,-383.047749,9548.656652
916.861463,1110.308913,0.000000,7031.956449
916.861788,962.267725,459.657299,7105.977043
916.862113,296.082377,842.705048,9548.656652
916.862438,-370.102971,306.438199,9918.759623
916.862763,-1924.535449,-383.047749,9474.636058
916.863088,-1628.453072,-383.047749,9622.677246
916.863413,-2146.597232,229.828649,9622.677246
916.863737,444.123565,229.828649,8068.244768
916.864062,1036.288319,766.095498,8956.491898
916.864387,370.102971,-306.438199,8956.491898
916.864712,148.041188,1608.800546,8660.409521
916.865037,740.205942,1302.362347,9252.574275
916.865362,0.000000,459.657299,7254.018232
916.865687,-1406.391290,0.000000,7254.018232
916.866011,-1628.453072,1302.362347,10288.862594
916.866336,-296.082377,842.705048,10066.800811
916.866661,1110.308913,-306.438199,8290.306550
916.866986,2886.803174,-459.657299,9252.574275
916.867311,3552.988522,1378.971896,10362.883188
916.867636,3404.947333,2757.943793,10362.883188
916.867961,4145.153275,919.314598,12065.356855
916.868286,3627.009116,383.047749,12509.480420
916.868610,1554.432478,2145.067394,10732.986159
916.868935,1480.411884,2374.896044,9622.677246
916.869260,3849.070898,842.705048,7624.121203
916.869585,2960.823768,2604.724693,8808.450710
916.869910,2368.659014,2834.553343,9030.512492
916.870235,-370.102971,1378.971896,9178.553681
916.870560,-2072.576638,-689.485948,7846.182985
916.870884,-2368.659014,229.828649,9326.594869
916.871209,-2886.803174,842.705048,9548.656652
916.871534,-3923.091493,153.219100,8808.450710
916.871859,-1332.370696,-1149.143247,8068.244768
916.872184,740.205942,842.705048,8734.430116
916.872509,740.205942,2068.457845,8882.471304
916.872834,-296.082377,612.876398,7476.080014
916.873158,-962.267725,-766.095498,8142.265362
916.873483,0.000000,1225.752797,9178.553681
916.873808,222.061783,3140.991542,9770.718434
916.874133,-962.267725,1072.533697,9474.636058
916.874458,-962.267725,0.000000,8956.491898
916.874783,1406.391290,995.924147,9474.636058
916.875108,1258.350101,1532.190996,9326.594869
916.875433,-2146.597232,-689.485948,10510.924376
916.875757,-2812.782580,-1838.629195,9400.615463
916.876082,-1406.391290,1302.362347,10510.924376
916.876407,-1110.308913,766.095498,10807.006753
916.876732,-3034.844362,-536.266849,10288.862594
916.877057,-2368.659014,-2068.457845,9474.636058
916.877382,222.061783,306.438199,9548.656652
916.877707,1480.411884,842.705048,9770.718434
916.878031,-518.144159,-536.266849,9400.615463
916.878356,-370.102971,-1072.533697,7476.080014
916.878681,-1776.494261,995.924147,9696.697840
916.879006,-814.226536,1302.362347,9548.656652
916.879331,-1998.556043,536.266849,10140.821405
916.879656,-740.205942,-153.219100,7994.224174
916.879981,2220.617826,1991.848295,7476.080014
916.880306,3404.947333,1608.800546,8808.450710
916.880630,518.144159,689.485948,9104.533087
916.880955,-888.247130,-766.095498,7476.080014
916.881280,-518.144159,0.000000,7920.203579
916.881605,0.000000,2221.676944,9696.697840
916.881930,222.061783,1225.752797,9622.677246
916.882255,1036.288319,-459.657299,7772.162391
916.882580,3034.844362,0.000000,8364.327145
916.882904,3404.947333,1532.190996,9104.533087
916.883229,1924.535449,2068.457845,9696.697840
916.883554,1184.329507,383.047749,9770.718434
916.883879,1998.556043,459.657299,9622.677246
916.884204,2220.617826,919.314598,10955.047942
916.884529,962.267725,1302.362347,12287.418637
916.884854,74.020594,766.095498,11695.253884
916.885179,888.247130,229.828649,10807.006753
916.885503,2442.679609,-229.828649,9474.636058
916.885828,-148.041188,-536.266849,10214.842000
916.886153,-3108.864956,-612.876398,8068.244768
916.886478,-3034.844362,1762.019645,9252.574275
916.886803,-2294.638420,536.266849,9400.615463
916.887128,-2368.659014,842.705048,9844.739029
916.887453,-1332.370696,689.485948,7772.162391
916.887777,1110.308913,2757.943793,6365.771101
916.888102,3330.926739,3217.601092,6957.935855
916.888427,2664.741391,2757.943793,7772.162391
916.888752,-296.082377,2068.457845,8142.265362
916.889077,-1258.350101,1532.190996,9104.533087
916.889402,518.144159,1685.410096,8734.430116
916.889727,-370.102971,1378.971896,10140.821405
916.890051,-1850.514855,229.828649,8734.430116
916.890376,-1406.391290,1762.019645,9474.636058
916.890701,814.226536,689.485948,9992.780217
916.891026,148.041188,0.000000,8734.430116
916.891351,-2220.617826,-1608.800546,9696.697840
916.891676,-3627.009116,459.657299,9474.636058
916.892001,-2960.823768,1991.848295,9918.759623
916.892326,-2072.576638,919.314598,11769.274478
916.892650,-2368.659014,-1608.800546,9474.636058
916.892975,-3108.864956,995.924147,8882.471304
916.893300,296.082377,1149.143247,7402.059420
916.893625,370.102971,919.314598,10436.903782
916.893950,-1110.308913,-1685.410096,11251.130318
916.894275,-2442.679609,0.000000,10066.800811
916.894600,-592.164754,536.266849,9696.697840
916.894924,888.247130,1532.190996,9400.615463
916.895249,444.123565,0.000000,9030.512492
916.895574,592.164754,1072.533697,8586.388927
916.895899,4145.153275,2145.067394,8216.285956
916.896224,5773.606348,2145.067394,9400.615463
916.896549,2812.782580,306.438199,10066.800811
916.896874,222.061783,459.657299,7624.121203
916.897199,148.041188,1838.629195,7698.141797
916.897523,814.226536,689.485948,9326.594869
916.897848,-1332.370696,-536.266849,9104.533087
916.898173,-1850.514855,-1532.190996,8142.265362
916.898498,1110.308913,0.000000,6735.874072
916.898823,2368.659014,-459.657299,8216.285956
916.899148,148.041188,-689.485948,9770.718434
916.899473,-1184.329507,-536.266849,9474.636058
916.899797,0.000000,689.485948,11695.253884
916.900122,1776.494261,0.000000,11769.274478
916.900447,666.185348,-612.876398,11473.192101
916.900772,1480.411884,0.000000,9474.636058
916.901097,3256.906145,1455.581446,9178.553681
916.901422,5477.523971,1302.362347,9992.780217
916.901747,2590.720797,612.876398,12213.398043
916.902072,148.041188,-536.266849,10214.842000
916.902396,-1776.494261,459.657299,9178.553681
916.902721,222.061783,229.828649,9844.739029
916.903046,-1184.329507,306.438199,10732.986159
916.903371,-2442.679609,-306.438199,9474.636058
916.903696,-740.205942,0.000000,7772.162391
916.904021,1036.288319,689.485948,7624.121203
916.904346,444.123565,1302.362347,8882.471304
916.904670,-1776.494261,536.266849,7402.059420
916.904995,-2664.741391,1608.800546,7624.121203
916.905320,-1332.370696,2145.067394,8216.285956
916.905645,-1258.350101,2451.505594,9104.533087
916.905970,-1110.308913,1072.533697,7254.018232
916.906295,-222.061783,2451.505594,7031.956449
916.906620,1036.288319,2145.067394,7698.141797
916.906944,0.000000,1378.971896,8586.388927
916.907269,-592.164754,-383.047749,9474.636058
916.907594,-1998.556043,689.485948,9844.739029
916.907919,-2738.761985,1532.190996,10881.027347
916.908244,-1998.556043,76.609550,11695.253884
916.908568,-814.226536,-689.485948,10658.965565
916.908893,888.247130,612.876398,10584.944971
916.909218,2220.617826,2451.505594,9104.533087
916.909543,2220.617826,2145.067394,10288.862594
916.909867,0.000000,-766.095498,9474.636058
916.910192,-1110.308913,383.047749,8660.409521
916.910517,-1776.494261,1378.971896,9252.574275
916.910842,-2442.679609,1685.410096,9622.677246
916.911166,-1554.432478,0.000000,9178.553681
916.911491,740.205942,-76.609550,8660.409521
916.911816,2368.659014,383.047749,7994.224174
916.912141,74.020594,995.924147,9400.615463
916.912465,-1184.329507,-383.047749,9400.615463
916.912790,-962.267725,76.609550,8660.409521
916.913115,-592.164754,306.438199,8512.368333
916.913440,74.020594,0.000000,8438.347739
916.913765,592.164754,1762.019645,8956.491898
916.914089,2146.597232,1608.800546,7920.203579
916.914414,3997.112087,383.047749,7105.977043
916.914739,3182.885551,-1225.752797,7846.182985
916.915064,444.123565,-689.485948,8660.409521
916.915388,370.102971,1072.533697,10066.800811
916.915713,592.164754,766.095498,12139.377449
916.916038,-592.164754,-1225.752797,13619.789333
916.916363,-1554.432478,-1991.848295,11621.233289
916.916687,1184.329507,-2221.676944,8734.430116
916.917012,2664.741391,-383.047749,8216.285956
916.917337,1628.453072,229.828649,10881.027347
916.917662,222.061783,76.609550,10881.027347
916.917987,74.020594,0.000000,9770.718434
916.918311,-518.144159,0.000000,9030.512492
916.918636,-1258.350101,0.000000,8364.327145
916.918961,-888.247130,766.095498,8586.388927
916.919286,888.247130,1455.581446,9622.677246
916.919610,1036.288319,1072.533697,9326.594869
916.919935,666.185348,-1455.581446,9104.533087
916.920260,148.041188,-1532.190996,9030.512492
916.920585,-296.082377,1149.143247,9326.594869
916.920909,-2368.659014,1915.238745,10510.924376
916.921234,-1924.535449,689.485948,10066.800811
916.921559,-962.267725,-229.828649,8734.430116
916.921884,1110.308913,1532.190996,7624.121203
916.922208,2590.720797,3294.210641,5625.565159
916.922533,1184.329507,2221.676944,6883.915261
916.922858,148.041188,766.095498,8586.388927
916.923183,-592.164754,1532.190996,9178.553681
916.923508,-1776.494261,2451.505594,9844.739029
916.923832,-2664.741391,995.924147,9548.656652
916.924157,-3182.885551,153.219100,8364.327145
916.924482,-2072.576638,459.657299,9474.636058
916.924807,296.082377,1685.410096,10362.883188
916.925131,666.185348,1302.362347,10288.862594
916.925456,-592.164754,-383.047749,10658.965565
916.925781,-740.205942,0.000000,8512.368333
916.926106,-1332.370696,2528.115143,10510.924376
916.926430,-1554.432478,2681.334243,10362.883188
916.926755,-1628.453072,1532.190996,9696.697840
916.927080,-666.185348,76.609550,9178.553681
916.927405,1406.391290,2528.115143,8290.306550
916.927729,2220.617826,2681.334243,8512.368333
916.928054,296.082377,1225.752797,8586.388927
916.928379,592.164754,612.876398,8290.306550
916.928704,-370.102971,1762.019645,11695.253884
916.929029,-1036.288319,2451.505594,10140.821405
916.929353,-2146.597232,306.438199,9178.553681
916.929678,-444.123565,-1991.848295,6365.771101
916.930003,1850.514855,1991.848295,5773.606348
916.930328,2220.617826,2298.286494,8438.347739
916.930652,888.247130,1072.533697,9252.574275
916.930977,-518.144159,-1455.581446,8216.285956
916.931302,-666.185348,-1149.143247,8364.327145
916.931627,444.123565,612.876398,9178.553681
916.931951,0.000000,842.705048,10362.883188
916.932276,2886.803174,-995.924147,8808.450710
916.932601,4219.173869,-612.876398,10510.924376
916.932926,3330.926739,383.047749,11177.109724
916.933250,1628.453072,383.047749,10955.047942
916.933575,1850.514855,-2221.676944,9844.739029
916.933900,0.000000,-1838.629195,11547.212695
916.934225,-1332.370696,-1378.971896,12435.459826
916.934550,-2146.597232,-842.705048,11621.233289
916.934874,-1480.411884,-2298.286494,9326.594869
916.935199,-370.102971,-2834.553343,8808.450710
916.935524,444.123565,1225.752797,7994.224174
916.935849,518.144159,306.438199,8882.471304
916.936173,-888.247130,-919.314598,8216.285956
916.936498,0.000000,-459.657299,8808.450710
916.936823,0.000000,2451.505594,9696.697840
916.937148,-1628.453072,1915.238745,8438.347739
916.937472,-2146.597232,0.000000,8216.285956
916.937797,2368.659014,0.000000,7179.997637
916.938122,3404.947333,2451.505594,8142.265362
916.938447,1258.350101,1915.238745,9030.512492
916.938771,-518.144159,459.657299,8956.491898
916.939096,-222.061783,612.876398,9622.677246
916.939421,-296.082377,2528.115143,10955.047942
916.939746,-1480.411884,1378.971896,11251.130318
916.940071,-2812.782580,0.000000,7254.018232
916.940395,0.000000,766.095498,6735.874072
916.940720,2664.741391,1302.362347,7031.956449
916.941045,-148.041188,1762.019645,9696.697840
916.941370,-4515.256246,306.438199,10584.944971
916.941694,-5921.647536,-459.657299,9030.512492
916.942019,-3701.029710,-612.876398,9844.739029
916.942344,-2886.803174,-229.828649,10807.006753
916.942669,-2738.761985,536.266849,9178.553681
916.942993,-370.102971,1838.629195,8438.347739
916.943318,3701.029710,2145.067394,9104.533087
916.943643,3478.967927,2451.505594,10436.903782
916.943968,1110.308913,2221.676944,9178.553681
916.944292,1406.391290,3524.039291,9252.574275
916.944617,3997.112087,2987.772442,9918.759623
916.944942,2812.782580,1915.238745,10881.027347
916.945267,888.247130,229.828649,10658.965565
916.945592,1258.350101,1991.848295,8290.306550
916.945916,3552.988522,1915.238745,7476.080014
916.946241,2368.659014,612.876398,8956.491898
916.946566,-1628.453072,-612.876398,7550.100608
916.946891,-2812.782580,1072.533697,7624.121203
916.947215,-740.205942,536.266849,7846.182985
916.947540,-2294.638420,-919.314598,8586.388927
916.947865,-3478.967927,-1378.971896,8660.409521
916.948190,-1702.473667,0.000000,8142.265362
916.948514,1184.329507,1455.581446,7994.224174
916.948839,1184.329507,-229.828649,10510.924376
916.949164,-962.267725,-2374.896044,10955.047942
916.949489,-888.247130,-1915.238745,8808.450710
916.949814,1628.453072,0.000000,10732.986159
916.950138,2368.659014,842.705048,12139.377449
916.950463,-592.164754,306.438199,12509.480420
916.950788,1480.411884,-383.047749,9474.636058
916.951113,4441.235652,153.219100,8734.430116
916.951437,4293.194464,1225.752797,9030.512492
916.951762,1628.453072,612.876398,10658.965565
916.952087,370.102971,76.609550,9400.615463
916.952412,-518.144159,919.314598,10584.944971
916.952736,-962.267725,229.828649,10214.842000
916.953061,-3108.864956,-919.314598,8216.285956
916.953386,-2812.782580,0.000000,6365.771101
916.953711,1258.350101,1532.190996,8216.285956
916.954035,148.041188,2145.067394,10066.800811
916.954360,-3256.906145,-1762.019645,9252.574275
916.954685,-4219.173869,-2298.286494,5773.606348
916.955010,-2886.803174,383.047749,7994.224174
916.955335,-1332.370696,3447.429741,9696.697840
916.955659,-740.205942,766.095498,8734.430116
916.955984,-2146.597232,-1991.848295,8438.347739
916.956309,666.185348,306.438199,8364.327145
916.956634,2590.720797,2987.772442,10066.800811
916.956958,2516.700203,1838.629195,9252.574275
916.957283,0.000000,-919.314598,9474.636058
916.957608,-296.082377,-459.657299,10881.027347
916.957933,2146.597232,3677.258390,11917.315666
916.958257,1332.370696,2145.067394,12731.542202
916.958582,-296.082377,-1072.533697,9104.533087
916.958907,1480.411884,153.219100,7105.977043
916.959232,4145.153275,2757.943793,9178.553681
916.959556,2442.679609,3447.429741,11029.068536
916.959881,0.000000,1608.800546,10066.800811
916.960206,-2072.576638,536.266849,9104.533087
916.960531,-962.267725,1149.143247,8216.285956
916.960856,-1850.514855,1915.238745,9622.677246
916.961180,-1406.391290,-383.047749,6957.935855
916.961505,-888.247130,-229.828649,7031.956449
916.961830,296.082377,1455.581446,9252.574275
916.962155,-444.123565,2221.676944,11769.274478
916.962479,-1850.514855,-1072.533697,7550.100608
916.962804,-3552.988522,-2451.505594,6883.915261
916.963129,-3034.844362,-536.266849,8290.306550
916.963454,-1776.494261,2604.724693,10881.027347
916.963778,-962.267725,919.314598,10732.986159
916.964103,-296.082377,-536.266849,9252.574275
916.964428,1036.288319,76.609550,8290.306550
916.964753,2072.576638,2451.505594,8956.491898
916.965077,1480.411884,842.705048,7698.141797
916.965402,518.144159,842.705048,9770.718434
916.965727,592.164754,1378.971896,10362.883188
916.966052,1110.308913,1072.533697,11177.109724
916.966377,814.226536,-612.876398,10288.862594
916.966701,1924.535449,153.219100,8734.430116
916.967026,4441.235652,536.266849,8956.491898
916.967351,3552.988522,536.266849,10066.800811
916.967676,1850.514855,-459.657299,10584.944971
916.968000,666.185348,919.314598,10362.883188
916.968325,888.247130,1532.190996,9178.553681
916.968650,814.226536,1378.971896,9326.594869
916.968975,74.020594,919.314598,10066.800811
916.969299,-518.144159,995.924147,8956.491898
916.969624,1406.391290,536.266849,7698.141797
916.969949,296.082377,-766.095498,8956.491898
916.970274,-2590.720797,-229.828649,9548.656652
916.970598,-4441.235652,-229.828649,8808.450710
916.970923,-2886.803174,-919.314598,7846.182985
916.971248,-2664.741391,-1302.362347,10288.862594
916.971573,-1702.473667,-306.438199,9844.739029
916.971898,962.267725,1532.190996,7031.956449
916.972222,4293.194464,1225.752797,6883.915261
916.972547,4515.256246,2298.286494,8882.471304
916.972872,3182.885551,1072.533697,9844.739029
916.973197,1554.432478,1991.848295,9474.636058
916.973521,1036.288319,1838.629195,9252.574275
916.973846,518.144159,1149.143247,11325.150913
916.974171,740.205942,612.876398,11029.068536
916.974496,296.082377,383.047749,9622.677246
916.974820,-296.082377,306.438199,9178.553681
916.975145,0.000000,-306.438199,9770.718434
916.975470,-1332.370696,0.000000,9252.574275
916.975795,-2886.803174,536.266849,8142.265362
916.976119,-3404.947333,612.876398,9178.553681
916.976444,-2738.761985,842.705048,8586.388927
916.976769,-3478.967927,306.438199,9548.656652
916.977094,-2442.679609,0.000000,9178.553681
916.977419,-1406.391290,-306.438199,6883.915261
916.977743,-1258.350101,0.000000,8808.450710
916.978068,-962.267725,-383.047749,9622.677246
916.978393,-2146.597232,-536.266849,9548.656652
916.978718,-2294.638420,-689.485948,9326.594869
916.979042,-962.267725,0.000000,9918.759623
916.979367,-814.226536,1149.143247,10955.047942
916.979692,1036.288319,995.924147,9252.574275
916.980017,4219.173869,1762.019645,8216.285956
916.980341,3256.906145,1685.410096,8512.368333
916.980666,2516.700203,2298.286494,8586.388927
916.980991,2886.803174,1762.019645,9252.574275
916.981316,1850.514855,1378.971896,9696.697840
916.981641,444.123565,1302.362347,9696.697840
916.981965,-296.082377,0.000000,11473.192101
916.982290,740.205942,-612.876398,9326.594869
916.982615,1924.535449,229.828649,9326.594869
916.982940,962.267725,0.000000,9030.512492
916.983264,-222.061783,306.438199,9548.656652
916.983589,74.020594,-612.876398,9770.718434
916.983914,222.061783,612.876398,9844.739029
916.984239,-888.247130,766.095498,9992.780217
916.984563,-1924.535449,76.609550,10066.800811
916.984888,740.205942,306.438199,7550.100608
916.985213,3034.844362,1915.238745,8586.388927
916.985538,3182.885551,2068.457845,8660.409521
916.985862,-370.102971,1532.190996,8438.347739
916.986187,-666.185348,0.000000,6957.935855
916.986512,-518.144159,536.266849,8438.347739
916.986837,-2442.679609,536.266849,10732.986159
916.987162,-1776.494261,1762.019645,10436.903782
916.987486,148.041188,-612.876398,9252.574275
916.987811,1036.288319,-1302.362347,7179.997637
916.988136,1998.556043,229.828649,8512.368333
916.988461,1480.411884,2374.896044,11029.068536
916.988785,1110.308913,2221.676944,9030.512492
916.989110,370.102971,383.047749,10214.842000
916.989435,0.000000,153.219100,11103.089130
916.989760,-1184.329507,2528.115143,9178.553681
916.990084,-296.082377,1225.752797,8956.491898
916.990409,74.020594,-306.438199,9400.615463
916.990734,-740.205942,153.219100,9474.636058
916.991059,-1258.350101,229.828649,9548.656652
916.991383,-2294.638420,-536.266849,8586.388927
916.991708,-3108.864956,-766.095498,8586.388927
916.992033,-2146.597232,919.314598,9474.636058
916.992358,-2072.576638,2528.115143,11325.150913
916.992683,-888.247130,229.828649,9622.677246
916.993007,962.267725,-842.705048,8068.244768
916.993332,1258.350101,153.219100,7550.100608
916.993657,148.041188,2298.286494,8586.388927
916.993982,-1258.350101,995.924147,10436.903782
916.994306,-962.267725,-995.924147,9770.718434
916.994631,-1628.453072,0.000000,11103.089130
916.994956,-2368.659014,-383.047749,10658.965565
916.995281,-2664.741391,0.000000,9326.594869
916.995605,148.041188,-383.047749,8142.265362
916.995930,2072.576638,1685.410096,9178.553681
916.996255,1258.350101,1762.019645,10658.965565
916.996580,1480.411884,612.876398,7179.997637
916.996904,1184.329507,919.314598,8660.409521
916.997229,1406.391290,1991.848295,10510.924376
916.997554,0.000000,3064.381992,9770.718434
916.997879,1776.494261,-766.095498,8808.450710
916.998204,4219.173869,-536.266849,7476.080014
916.998528,4589.276840,2834.553343,9252.574275
916.998853,2960.823768,3830.477490,10881.027347
916.999178,1998.556043,76.609550,7698.141797
916.999503,592.164754,-1838.629195,8808.450710
916.999827,-1110.308913,766.095498,10584.944971
917.000152,-666.185348,2528.115143,10584.944971
917.000477,-1110.308913,383.047749,10066.800811
917.000802,222.061783,-1378.971896,9474.636058
917.001126,740.205942,-459.657299,9252.574275
917.001451,518.144159,1685.410096,9326.594869
917.001776,0.000000,229.828649,8364.327145
917.002101,-1628.453072,-919.314598,7550.100608
917.002425,-1036.288319,383.047749,10584.944971
917.002750,-518.144159,1838.629195,10658.965565
917.003075,-1036.288319,842.705048,8734.430116
917.003400,0.000000,-1302.362347,7772.162391
917.003725,2442.679609,0.000000,7994.224174
917.004049,2294.638420,2604.724693,8364.327145
917.004374,1036.288319,1685.410096,9844.739029
917.004699,1110.308913,-612.876398,9770.718434
917.005024,1628.453072,0.000000,9696.697840
917.005348,1110.308913,1378.971896,10658.965565
917.005673,-814.226536,1149.143247,9918.759623
917.005998,-444.123565,0.000000,8734.430116
917.006323,2294.638420,-229.828649,9030.512492
917.006647,2072.576638,1302.362347,9400.615463
917.006972,-1184.329507,612.876398,9474.636058
917.007297,-2590.720797,-383.047749,7624.121203
917.007622,-2960.823768,-459.657299,9400.615463
917.007946,-3182.885551,-459.657299,10881.027347
917.008271,-4367.215058,-689.485948,10066.800811
917.008596,-3182.885551,-3447.429741,8068.244768
917.008921,-666.185348,-1455.581446,8512.368333
917.009246,-1110.308913,306.438199,9992.780217
917.009570,-2220.617826,383.047749,9548.656652
917.009895,-2442.679609,-766.095498,7402.059420
917.010220,-2516.700203,-1149.143247,9548.656652
917.010545,-1258.350101,0.000000,10658.965565
917.010869,-1702.473667,1991.848295,11399.171507
917.011194,-962.267725,306.438199,8882.471304
917.011519,1406.391290,-612.876398,7846.182985
917.011844,2368.659014,306.438199,10066.800811
917.012168,2072.576638,3217.601092,9326.594869
917.012493,1702.473667,2145.067394,9400.615463
917.012818,814.226536,153.219100,8438.347739
917.013143,888.247130,1149.143247,8512.368333
917.013467,1554.432478,2987.772442,9992.780217
917.013792,1406.391290,2834.553343,7920.203579
917.014117,1480.411884,76.609550,7550.100608
917.014442,1480.411884,-995.924147,8512.368333
917.014766,962.267725,2145.067394,8808.450710
917.015091,74.020594,2374.896044,9474.636058
917.015416,444.123565,1302.362347,9104.533087
917.015741,222.061783,536.266849,8734.430116
917.016065,0.000000,1762.019645,10510.924376
917.016390,0.000000,2374.896044,9326.594869
917.016715,296.082377,1072.533697,7476.080014
917.017040,3330.926739,1225.752797,7846.182985
917.017364,2590.720797,1685.410096,11399.171507
917.017689,-1480.411884,1149.143247,9844.739029
917.018014,-1924.535449,-153.219100,9918.759623
917.018339,444.123565,-2298.286494,10584.944971
917.018663,0.000000,306.438199,12509.480420
917.018988,0.000000,2068.457845,10510.924376
917.019313,1924.535449,2298.286494,8660.409521
917.019638,3775.050304,-383.047749,7772.162391
917.019963,2368.659014,842.705048,7994.224174
917.020287,222.061783,2528.115143,8660.409521
917.020612,-296.082377,3064.381992,8882.471304
917.020937,888.247130,1915.238745,9992.780217
917.021262,74.020594,306.438199,11621.233289
917.021586,-1924.535449,-306.438199,9104.533087
917.021911,-1332.370696,0.000000,5699.585753
917.022236,1702.473667,0.000000,6513.812290
917.022561,1406.391290,842.705048,9992.780217
917.022885,-3256.906145,919.314598,11547.212695
917.023210,-4219.173869,0.000000,8438.347739
917.023535,-2738.761985,-1302.362347,8142.265362
917.023860,-3256.906145,-1915.238745,9104.533087
917.024184,-3256.906145,-842.705048,8956.491898
917.024509,-1480.411884,612.876398,9252.574275
917.024834,592.164754,536.266849,9030.512492
917.025159,518.144159,-1302.362347,9992.780217
917.025483,-1480.411884,-1149.143247,10510.924376
917.025808,-2812.782580,229.828649,9178.553681
917.026133,-2442.679609,689.485948,9918.759623
917.026458,-1776.494261,-1608.800546,11991.336260
917.026782,-1554.432478,-1455.581446,12065.356855
917.027107,-740.205942,-1455.581446,8882.471304
917.027432,1332.370696,383.047749,7476.080014
917.027757,2368.659014,1302.362347,8586.388927
917.028081,1110.308913,2374.896044,10510.924376
917.028406,1036.288319,1608.800546,9252.574275
917.028731,1554.432478,689.485948,7328.038826
917.029056,1702.473667,1762.019645,8660.409521
917.029380,1258.350101,2987.772442,9548.656652
917.029705,2442.679609,2298.286494,7846.182985
917.030030,3330.926739,-383.047749,6513.812290
917.030355,2960.823768,-612.876398,8734.430116
917.030680,444.123565,1225.752797,11399.171507
917.031004,-1332.370696,1455.581446,9548.656652
917.031329,-1110.308913,-153.219100,10436.903782
917.031654,-518.144159,-1915.238745,9918.759623
917.031979,-1924.535449,-383.047749,11029.068536
917.032303,1258.350101,459.657299,8068.244768
917.032628,3404.947333,2911.162892,8364.327145
917.032953,3330.926739,2298.286494,8660.409521
917.033278,1702.473667,1149.143247,9770.718434
917.033602,1258.350101,459.657299,7624.121203
917.033927,-2072.576638,1991.848295,9844.739029
917.034252,-1406.391290,1915.238745,11917.315666
917.034577,-888.247130,76.609550,11029.068536
917.034901,74.020594,-2757.943793,8438.347739
917.035226,0.000000,-2681.334243,10140.821405
917.035551,296.082377,842.705048,9696.697840
917.035876,1110.308913,2604.724693,9622.677246
917.036200,814.226536,766.095498,9696.697840
917.036525,-1776.494261,995.924147,9252.574275
917.036850,-1258.350101,2987.772442,7846.182985
917.037175,1110.308913,2911.162892,7920.203579
917.037499,1110.308913,689.485948,8660.409521
917.037824,-370.102971,1532.190996,8586.388927
917.038149,962.267725,2604.724693,7402.059420
917.038474,518.144159,1455.581446,8660.409521
917.038798,-2442.679609,-766.095498,8882.471304
917.039123,-5033.400406,0.000000,9178.553681
917.039448,-4441.235652,766.095498,9326.594869
917.039773,-3182.885551,306.438199,9622.677246
917.040097,-4071.132681,-689.485948,9400.615463
917.040422,-2146.597232,-1072.533697,7105.977043
917.040747,222.061783,1302.362347,7105.977043
917.041072,-666.185348,2681.334243,10584.944971
917.041396,-888.247130,1991.848295,8660.409521
917.041721,0.000000,689.485948,9326.594869
917.042046,0.000000,0.000000,10288.862594
917.042371,-740.205942,1685.410096,11843.295072
917.042696,0.000000,1225.752797,10881.027347
917.043020,2146.597232,536.266849,9844.739029
917.043345,2738.761985,-1838.629195,9326.594869
917.043670,2220.617826,-919.314598,10807.006753
917.043995,0.000000,1302.362347,10881.027347
917.044319,0.000000,1072.533697,10510.924376
917.044644,518.144159,689.485948,9844.739029
917.044969,962.267725,-153.219100,9030.512492
917.045294,814.226536,1072.533697,6735.874072
917.045618,2516.700203,1762.019645,5699.585753
917.045943,2368.659014,2221.676944,7994.224174
917.046268,1924.535449,689.485948,8142.265362
917.046593,-370.102971,-229.828649,8290.306550
917.046917,-962.267725,-612.876398,7105.977043
917.047242,-1924.535449,459.657299,10140.821405
917.047567,-1998.556043,229.828649,10140.821405
917.047892,-1850.514855,-995.924147,9178.553681
917.048216,592.164754,-3753.867940,9252.574275
917.048541,3256.906145,-766.095498,9252.574275
917.048866,2220.617826,1302.362347,9178.553681
917.049191,1480.411884,1149.143247,11695.253884
917.049515,2368.659014,995.924147,10881.027347
917.049840,1184.329507,1915.238745,11547.212695
917.050165,1628.453072,306.438199,10288.862594
917.050490,1036.288319,0.000000,8956.491898
917.050814,1036.288319,0.000000,10140.821405
917.051139,1628.453072,689.485948,9326.594869
917.051464,296.082377,689.485948,9992.780217
917.051789,-1776.494261,-459.657299,9992.780217
917.052113,-2146.597232,229.828649,9178.553681
917.052438,-2516.700203,766.095498,8956.491898
917.052763,-2664.741391,1302.362347,9104.533087
917.053088,-1850.514855,536.266849,8512.368333
917.053413,0.000000,995.924147,8142.265362
917.053737,1406.391290,2451.505594,7105.977043
917.054062,222.061783,2374.896044,8068.244768
917.054387,-888.247130,766.095498,8142.265362
917.054712,-666.185348,153.219100,6883.915261
917.055036,-962.267725,1685.410096,9474.636058
917.055361,-2368.659014,2528.115143,9918.759623
917.055686,-2738.761985,1455.581446,9992.780217
917.056011,-1110.308913,-995.924147,9326.594869
917.056335,518.144159,-1378.971896,8068.244768
917.056660,1406.391290,766.095498,8956.491898
917.056985,0.000000,2068.457845,11547.212695
917.057310,-444.123565,2451.505594,9770.718434
917.057634,-222.061783,383.047749,10214.842000
917.057959,-1776.494261,-995.924147,10288.862594
917.058284,-2960.823768,-842.705048,9770.718434
917.058609,0.000000,689.485948,8956.491898
917.058933,2294.638420,2145.067394,10955.047942
917.059258,1850.514855,1762.019645,10288.862594
917.059583,0.000000,459.657299,8808.450710
917.059908,-814.226536,-689.485948,6661.853478
917.060232,-740.205942,919.314598,8586.388927
917.060557,-222.061783,2987.772442,9474.636058
917.060882,74.020594,2451.505594,10066.800811
917.061207,1554.432478,536.266849,7402.059420
917.061531,3701.029710,229.828649,6735.874072
917.061856,2590.720797,1455.581446,7550.100608
917.062181,-222.061783,1149.143247,8512.368333
917.062506,-148.041188,0.000000,9104.533087
917.062830,74.020594,153.219100,10881.027347
917.063155,-1184.329507,-229.828649,11621.233289
917.063480,-2590.720797,-1072.533697,9030.512492
917.063805,-1258.350101,-2068.457845,8216.285956
917.064130,1850.514855,-919.314598,7698.141797
917.064454,2812.782580,1149.143247,8882.471304
917.064779,962.267725,1302.362347,11695.253884
917.065104,0.000000,1608.800546,11177.109724
917.065429,444.123565,919.314598,11029.068536
917.065753,222.061783,-536.266849,10658.965565
917.066078,-1998.556043,-459.657299,10881.027347
917.066403,-666.185348,-766.095498,10288.862594
917.066728,2738.761985,-306.438199,10066.800811
917.067052,2812.782580,536.266849,10436.903782
917.067377,-592.164754,383.047749,11251.130318
917.067702,-370.102971,229.828649,7105.977043
917.068027,518.144159,306.438199,7846.182985
917.068351,814.226536,1685.410096,9178.553681
917.068676,-222.061783,2987.772442,9622.677246
917.069001,-296.082377,2451.505594,7179.997637
917.069326,1480.411884,689.485948,5995.668130
917.069650,1702.473667,306.438199,6957.935855
917.069975,-888.247130,1685.410096,9474.636058
917.070300,-2220.617826,1378.971896,8438.347739
917.070625,-1850.514855,-536.266849,9474.636058
917.070949,-2146.597232,-2068.457845,9992.780217
917.071274,-2664.741391,-1149.143247,9844.739029
917.071599,-2442.679609,689.485948,7550.100608
917.071924,0.000000,1225.752797,8660.409521
917.072248,2664.741391,153.219100,8660.409521
917.072573,1702.473667,1225.752797,12361.439231
917.072898,0.000000,1455.581446,10362.883188
917.073223,-740.205942,2298.286494,10140.821405
917.073547,1406.391290,306.438199,8808.450710
917.073872,740.205942,306.438199,11473.192101
917.074197,-1850.514855,842.705048,10658.965565
917.074522,-740.205942,2145.067394,10510.924376
917.074847,2294.638420,536.266849,10436.903782
917.075171,962.267725,-1149.143247,10881.027347
917.075496,-1998.556043,0.000000,7328.038826
917.075821,-2220.617826,536.266849,7476.080014
917.076146,-1850.514855,1838.629195,7994.224174
917.076470,-1628.453072,1838.629195,9548.656652
917.076795,-1924.535449,1225.752797,9474.636058
917.077120,-222.061783,1378.971896,6365.771101
917.077445,1406.391290,1915.238745,4959.379811
917.077769,1480.411884,2757.943793,8586.388927
917.078094,-888.247130,1072.533697,9178.553681
917.078419,-1850.514855,-229.828649,6439.791695
917.078744,-222.061783,-995.924147,8142.265362
917.079068,0.000000,-229.828649,10214.842000
917.079393,-888.247130,1762.019645,10955.047942
917.079718,740.205942,689.485948,10362.883188
917.080043,3108.864956,-1608.800546,9622.677246
917.080367,2368.659014,-2145.067394,10510.924376
917.080692,740.205942,-536.266849,11177.109724
917.081017,740.205942,1225.752797,8734.430116
917.081342,1554.432478,612.876398,9474.636058
917.081666,2368.659014,-306.438199,12509.480420
917.081991,222.061783,842.705048,13101.645173
917.082316,592.164754,1532.190996,10362.883188
917.082641,3997.112087,-383.047749,9622.677246
917.082965,3997.112087,-1455.581446,10140.821405
917.083290,-814.226536,-766.095498,8808.450710
917.083615,-1628.453072,0.000000,6735.874072
917.083940,0.000000,766.095498,9844.739029
917.084264,296.082377,1378.971896,10066.800811
917.084589,-1332.370696,1302.362347,9844.739029
917.084914,-740.205942,306.438199,6069.688724
917.085239,1332.370696,612.876398,5403.503377
917.085564,2886.803174,689.485948,6439.791695
917.085888,0.000000,1455.581446,8364.327145
917.086213,-1776.494261,1149.143247,7031.956449
917.086538,-1998.556043,1455.581446,8660.409521
917.086863,-1036.288319,536.266849,7698.141797
917.087187,-2072.576638,689.485948,9992.780217
917.087512,-1924.535449,536.266849,9178.553681
917.087837,0.000000,76.609550,8512.368333
917.088162,1258.350101,-612.876398,9992.780217
917.088486,-370.102971,153.219100,12805.562797
917.088811,-1850.514855,1149.143247,9918.759623
917.089136,-518.144159,1225.752797,9326.594869
917.089461,814.226536,995.924147,11029.068536
917.089785,592.164754,2145.067394,12065.356855
917.090110,148.041188,2451.505594,10955.047942
917.090435,2220.617826,919.314598,8216.285956
917.090760,2368.659014,229.828649,8438.347739
917.091084,-444.123565,153.219100,10214.842000
917.091409,-1554.432478,1149.143247,8660.409521
917.091734,-2442.679609,1072.533697,8808.450710
917.092059,-1702.473667,0.000000,9918.759623
917.092383,-2886.803174,-383.047749,10436.903782
917.092708,-3182.885551,0.000000,9474.636058
917.093033,-1036.288319,229.828649,6661.853478
917.093358,888.247130,842.705048,7698.141797
917.093682,592.164754,1225.752797,9474.636058
917.094007,-370.102971,2451.505594,7402.059420
917.094332,-814.226536,2145.067394,7105.977043
917.094657,-222.061783,1149.143247,7920.203579
917.094981,-148.041188,842.705048,9400.615463
917.095306,-592.164754,459.657299,9474.636058
917.095631,1332.370696,306.438199,8216.285956
917.095956,2886.803174,-766.095498,9548.656652
917.096281,2368.659014,-995.924147,10881.027347
917.096605,1036.288319,-1072.533697,10362.883188
917.096930,592.164754,-153.219100,10732.986159
917.097255,1036.288319,0.000000,10362.883188
917.097580,1332.370696,995.924147,12805.562797
917.097904,2294.638420,1302.362347,11695.253884
917.098229,2886.803174,1378.971896,9918.759623
917.098554,3034.844362,536.266849,8290.306550
917.098879,1850.514855,-153.219100,8808.450710
917.099203,0.000000,229.828649,8068.244768
917.099528,-3108.864956,1915.238745,9622.677246
917.099853,-3552.988522,689.485948,8364.327145
917.100178,-3034.844362,306.438199,9770.718434
917.100502,-2368.659014,-2604.724693,7031.956449
917.100827,-1850.514855,-1685.410096,6809.894666
917.101152,0.000000,1149.143247,8808.450710
917.101477,1554.432478,2451.505594,10214.842000
917.101801,1406.391290,842.705048,8586.388927
917.102126,-370.102971,-766.095498,7550.100608
917.102451,-1110.308913,1225.752797,8364.327145
917.102776,1184.329507,3830.477490,8586.388927
917.103100,2072.576638,2987.772442,10140.821405
917.103425,2960.823768,0.000000,9474.636058
917.103750,3182.885551,766.095498,8216.285956
917.104075,1776.494261,2374.896044,9770.718434
917.104399,296.082377,1455.581446,9844.739029
917.104724,-1924.535449,-306.438199,10362.883188
917.105049,-1850.514855,-1608.800546,11177.109724
917.105374,-1110.308913,153.219100,11695.253884
917.105698,-1110.308913,229.828649,11621.233289
917.106023,-1480.411884,-612.876398,9992.780217
917.106348,-444.123565,-1072.533697,8956.491898
917.106673,-814.226536,-842.705048,7328.038826
917.106998,-888.247130,459.657299,8068.244768
917.107322,-1554.432478,919.314598,9548.656652
917.107647,-1998.556043,1991.848295,8512.368333
917.107972,-1998.556043,1072.533697,8216.285956
917.108297,-222.061783,-1378.971896,8438.347739
917.108621,296.082377,229.828649,8142.265362
917.108946,2664.741391,2298.286494,9178.553681
917.109271,2294.638420,2528.115143,10140.821405
917.109596,-222.061783,842.705048,10066.800811
917.109921,-1332.370696,-612.876398,8586.388927
917.110246,-1332.370696,-383.047749,5995.668130
917.110571,-2294.638420,536.266849,7994.224174
917.110896,-2146.597232,1762.019645,9400.615463
917.111221,-1332.370696,2145.067394,9770.718434
917.111546,74.020594,-766.095498,7624.121203
917.111871,518.144159,-2451.505594,7254.018232
917.112196,-518.144159,-1455.581446,9178.553681
917.112520,-222.061783,1838.629195,10658.965565
917.112845,1258.350101,2604.724693,11621.233289
917.113170,666.185348,-612.876398,12065.356855
917.113495,370.102971,-1532.190996,11695.253884
917.113820,2294.638420,306.438199,10214.842000
917.114145,3627.009116,2834.553343,9474.636058
917.114470,3997.112087,1685.410096,11325.150913
917.114795,2368.659014,-536.266849,11769.274478
917.115120,444.123565,76.609550,8660.409521
917.115445,-296.082377,536.266849,8142.265362
917.115770,-1628.453072,1455.581446,8882.471304
917.116095,-2590.720797,1072.533697,8586.388927
917.116419,-518.144159,0.000000,7105.977043
917.116744,1480.411884,0.000000,7920.203579
917.117069,666.185348,919.314598,7476.080014
917.117394,-1036.288319,2221.676944,8068.244768
917.117719,-1184.329507,383.047749,7994.224174
917.118044,-814.226536,-383.047749,9400.615463
917.118369,-296.082377,1149.143247,9696.697840
917.118694,222.061783,2757.943793,10658.965565
917.119019,2368.659014,1455.581446,9770.718434
917.119344,3256.906145,459.657299,9474.636058
917.119669,2664.741391,229.828649,8290.306550
917.119994,1776.494261,1532.190996,9844.739029
917.120318,1184.329507,1455.581446,9844.739029
917.120643,518.144159,1149.143247,10362.883188
917.120968,0.000000,306.438199,11177.109724
917.121293,-1628.453072,1225.752797,10066.800811
917.121618,-1850.514855,536.266849,9104.533087
917.121943,1258.350101,-1762.019645,8068.244768
917.122268,518.144159,0.000000,7772.162391
917.122593,-2072.576638,612.876398,9918.759623
917.122918,-3330.926739,536.266849,9178.553681
917.123243,-2368.659014,0.000000,9474.636058
917.123568,-2516.700203,-229.828649,9474.636058
917.123893,-3108.864956,229.828649,10436.903782
917.124217,-2516.700203,-383.047749,8586.388927
917.124542,-444.123565,229.828649,8734.430116
917.124867,2294.638420,229.828649,9252.574275
917.125192,222.061783,1302.362347,9992.780217
917.125517,-222.061783,689.485948,7550.100608
917.125842,222.061783,1455.581446,8660.409521
917.126167,74.020594,2068.457845,10436.903782
917.126492,-1998.556043,1991.848295,9474.636058
917.126817,-1332.370696,-1608.800546,6957.935855
917.127142,0.000000,-1378.971896,7698.141797
917.127467,888.247130,229.828649,8586.388927
917.127792,222.061783,689.485948,9474.636058
917.128116,-1554.432478,-536.266849,9474.636058
917.128441,-2146.597232,-1149.143247,10214.842000
917.128766,-1554.432478,-383.047749,9770.718434
917.129091,-222.061783,689.485948,9992.780217
917.129416,148.041188,1378.971896,10214.842000
917.129741,2294.638420,536.266849,9844.739029
917.130066,4515.256246,689.485948,9326.594869
917.130391,3404.947333,1072.533697,10288.862594
917.130716,-148.041188,1838.629195,10510.924376
917.131041,74.020594,995.924147,9104.533087
917.131366,1998.556043,-536.266849,9474.636058
917.131691,1184.329507,-689.485948,10807.006753
917.132015,0.000000,383.047749,10288.862594
917.132340,2442.679609,766.095498,8512.368333
917.132665,4293.194464,919.314598,8512.368333
917.132990,3034.844362,229.828649,9400.615463
917.133315,148.041188,1532.190996,8734.430116
917.133640,444.123565,1532.190996,6217.729913
917.133965,2072.576638,1915.238745,8216.285956
917.134290,370.102971,1838.629195,10510.924376
917.134615,-1776.494261,2374.896044,9474.636058
917.134940,0.000000,1149.143247,7994.224174
917.135265,1628.453072,919.314598,7994.224174
917.135590,1036.288319,0.000000,8216.285956
917.135914,-2146.597232,766.095498,8290.306550
917.136239,-3256.906145,1762.019645,8364.327145
917.136564,-1924.535449,2374.896044,9770.718434
917.136889,-1850.514855,919.314598,10140.821405
917.137214,-2960.823768,-1378.971896,9548.656652
917.137539,-1332.370696,-919.314598,8364.327145
917.137864,2368.659014,1378.971896,9844.739029
917.138189,3552.988522,2681.334243,11251.130318
917.138514,1036.288319,2145.067394,12287.418637
917.138839,-740.205942,76.609550,9992.780217
917.139164,1110.308913,383.047749,9918.759623
917.139489,518.144159,1838.629195,10436.903782
917.139813,-2442.679609,2145.067394,10214.842000
917.140138,-1332.370696,995.924147,9030.512492
917.140463,-518.144159,689.485948,8586.388927
917.140788,0.000000,0.000000,7550.100608
917.141113,-3256.906145,153.219100,9326.594869
917.141438,-5107.421000,-383.047749,8216.285956
917.141763,-3182.885551,0.000000,7698.141797
917.142088,-2516.700203,76.609550,9844.739029
917.142413,-3256.906145,-306.438199,9696.697840
917.142738,-2812.782580,-1991.848295,7772.162391
917.143063,0.000000,-995.924147,7105.977043
917.143388,2516.700203,0.000000,8734.430116
917.143712,888.247130,766.095498,9770.718434
917.144037,0.000000,229.828649,8142.265362
917.144362,1554.432478,0.000000,9696.697840
917.144687,2368.659014,0.000000,11177.109724
917.145012,814.226536,995.924147,10881.027347
917.145337,2294.638420,76.609550,9030.512492
917.145662,4145.153275,-536.266849,9622.677246
917.145987,5773.606348,689.485948,10066.800811
917.146312,3552.988522,1762.019645,11843.295072
917.146637,296.082377,995.924147,9622.677246
917.146962,-518.144159,0.000000,8586.388927
917.147287,888.247130,-1302.362347,8734.430116
917.147611,-296.082377,0.000000,10955.047942
917.147936,-148.041188,612.876398,8364.327145
917.148261,1776.494261,-229.828649,8216.285956
917.148586,0.000000,-612.876398,9400.615463
917.148911,370.102971,-842.705048,8364.327145
917.149236,-148.041188,612.876398,7550.100608
917.149561,666.185348,766.095498,8216.285956
917.149886,-444.123565,2145.067394,9696.697840
917.150211,0.000000,2298.286494,10066.800811
917.150536,-814.226536,1455.581446,9548.656652
917.150861,296.082377,-229.828649,7179.997637
917.151185,888.247130,-536.266849,8512.368333
917.151510,1110.308913,1915.238745,10140.821405
917.151835,0.000000,1991.848295,9622.677246
917.152160,-2368.659014,2145.067394,8512.368333
917.152485,-888.247130,0.000000,8956.491898
917.152810,-1036.288319,536.266849,9474.636058
917.153135,-1036.288319,1378.971896,8364.327145
917.153460,-296.082377,1838.629195,9326.594869
917.153785,2664.741391,2068.457845,9844.739029
917.154110,1480.411884,1685.410096,10362.883188
917.154435,-444.123565,612.876398,10807.006753
917.154760,-3034.844362,612.876398,10140.821405
917.155084,-2590.720797,689.485948,10807.006753
917.155409,-1776.494261,229.828649,10584.944971
917.155734,-1850.514855,-842.705048,9474.636058
917.156059,-2146.597232,-229.828649,6809.894666
917.156384,444.123565,1302.362347,8438.347739
917.156709,1332.370696,2528.115143,8734.430116
917.157034,-2072.576638,2604.724693,9474.636058
917.157359,-2812.782580,-229.828649,7031.956449
917.157684,-2220.617826,0.000000,7105.977043
917.158009,-1628.453072,919.314598,8586.388927
917.158334,-666.185348,1302.362347,9992.780217
917.158659,-666.185348,612.876398,9178.553681
917.158983,740.205942,153.219100,7698.141797
917.159308,1850.514855,0.000000,9770.718434
917.159633,-296.082377,-612.876398,9770.718434
917.159958,-2368.659014,229.828649,8808.450710
917.160283,518.144159,-229.828649,10288.862594
917.160608,1628.453072,1149.143247,12139.377449
917.160933,1702.473667,995.924147,9400.615463
917.161258,3182.885551,689.485948,8512.368333
917.161583,2812.782580,1072.533697,8882.471304
917.161908,3182.885551,1685.410096,7994.224174
917.162233,2072.576638,919.314598,10140.821405
917.162558,666.185348,76.609550,10214.842000
917.162882,-962.267725,689.485948,9696.697840
917.163207,-1480.411884,-459.657299,9474.636058
917.163532,-1924.535449,-1915.238745,9474.636058
917.163857,-1850.514855,-1915.238745,9474.636058
917.164182,-592.164754,-229.828649,9104.533087
917.164507,1776.494261,229.828649,8808.450710
917.164832,2072.576638,76.609550,9474.636058
917.165157,-1480.411884,995.924147,10066.800811
917.165482,-148.041188,1225.752797,8216.285956
917.165807,2294.638420,2604.724693,8512.368333
917.166132,1850.514855,1532.190996,11177.109724
917.166457,1998.556043,1455.581446,10140.821405
917.166781,3478.967927,1838.629195,7994.224174
917.167106,2738.761985,842.705048,8882.471304
917.167431,962.267725,0.000000,10214.842000
917.167756,-1702.473667,76.609550,9474.636058
917.168081,-1554.432478,612.876398,9178.553681
917.168406,-666.185348,689.485948,10807.006753
917.168731,-2368.659014,459.657299,11103.089130
917.169056,-2368.659014,842.705048,8734.430116
917.169381,148.041188,0.000000,6809.894666
917.169706,666.185348,0.000000,7105.977043
917.170031,-296.082377,2374.896044,9696.697840
917.170356,-370.102971,3983.696590,9178.553681
917.170680,-2664.741391,2681.334243,8364.327145
917.171005,-2664.741391,-76.609550,7920.203579
917.171330,-2664.741391,-306.438199,9918.759623
917.171655,-2220.617826,919.314598,10214.842000
917.171980,444.123565,1149.143247,9474.636058
917.172305,1406.391290,-919.314598,8956.491898
917.172630,-1036.288319,-2374.896044,10658.965565
917.172955,-2664.741391,459.657299,9474.636058
917.173280,-1258.350101,1762.019645,9992.780217
917.173605,370.102971,842.705048,9474.636058
917.173930,-1850.514855,383.047749,10955.047942
917.174255,-740.205942,459.657299,9548.656652
917.174579,2220.617826,1915.238745,7254.018232
917.174904,1480.411884,1072.533697,7105.977043
917.175229,-1850.514855,-612.876398,9918.759623
917.175554,-1332.370696,-919.314598,9696.697840
917.175879,296.082377,0.000000,9844.739029
917.176204,-888.247130,-459.657299,11103.089130
917.176529,-2738.761985,-842.705048,11991.336260
917.176854,-1406.391290,-536.266849,11029.068536
917.177179,3775.050304,-766.095498,8734.430116
917.177504,4145.153275,-995.924147,7328.038826
917.177829,2146.597232,0.000000,8660.409521
917.178154,3034.844362,2298.286494,8660.409521
917.178478,3478.967927,3524.039291,9474.636058
917.178803,1554.432478,2145.067394,10066.800811
917.179128,0.000000,919.314598,9770.718434
917.179453,1036.288319,459.657299,8068.244768
917.179778,1998.556043,153.219100,7476.080014
917.180103,1850.514855,0.000000,7550.100608
917.180428,-814.226536,766.095498,9548.656652
917.180753,-2442.679609,612.876398,9252.574275
917.181078,-2516.700203,536.266849,7328.038826
917.181403,-3775.050304,689.485948,9030.512492
917.181728,-2960.823768,612.876398,10584.944971
917.182053,-1184.329507,919.314598,9400.615463
917.182377,1628.453072,-1532.190996,8216.285956
917.182702,3108.864956,-766.095498,9252.574275
917.183027,3108.864956,2374.896044,11029.068536
917.183352,2368.659014,3983.696590,11473.192101
917.183677,2368.659014,2451.505594,10436.903782
917.184002,0.000000,-766.095498,8808.450710
917.184327,-518.144159,-919.314598,9178.553681
917.184652,592.164754,1072.533697,9252.574275
917.184977,2368.659014,2681.334243,8734.430116
917.185302,1628.453072,2221.676944,9400.615463
917.185627,-1036.288319,842.705048,10066.800811
917.185952,-2368.659014,536.266849,8068.244768
917.186276,-1998.556043,0.000000,6439.791695
917.186601,-3256.906145,-1762.019645,7772.162391
917.186926,-3849.070898,-306.438199,10066.800811
917.187251,-3034.844362,1915.238745,10436.903782
917.187576,-444.123565,1991.848295,9548.656652
917.187901,222.061783,-1455.581446,7254.018232
917.188226,-370.102971,-1762.019645,7550.100608
917.188551,-962.267725,-306.438199,8956.491898
917.188876,0.000000,2451.505594,10510.924376
917.189201,518.144159,842.705048,10584.944971
917.189526,592.164754,-459.657299,12287.418637
917.189851,-222.061783,-612.876398,12287.418637
917.190175,2072.576638,612.876398,9548.656652
917.190500,4071.132681,1685.410096,10658.965565
917.190825,2442.679609,229.828649,10658.965565
917.191150,296.082377,-306.438199,9844.739029
917.191475,-222.061783,-536.266849,8290.306550
917.191800,-370.102971,229.828649,8290.306550
917.192125,-2368.659014,1991.848295,9104.533087
917.192450,-2590.720797,1378.971896,7920.203579
917.192775,-1628.453072,-459.657299,6365.771101
917.193100,370.102971,-766.095498,6291.750507
917.193425,-370.102971,995.924147,8216.285956
917.193750,-1258.350101,1072.533697,9474.636058
917.194074,-1184.329507,-306.438199,7031.956449
917.194399,0.000000,-1608.800546,9548.656652
917.194724,0.000000,-229.828649,11473.192101
917.195049,-518.144159,2681.334243,11547.212695
917.195374,1776.494261,1072.533697,10362.883188
917.195699,4367.215058,-1532.190996,9622.677246
917.196024,3775.050304,0.000000,9770.718434
917.196349,2442.679609,2528.115143,10288.862594
917.196674,2812.782580,2987.772442,8068.244768
917.196999,1480.411884,1225.752797,9918.759623
917.197324,370.102971,766.095498,11843.295072
917.197649,-518.144159,1532.190996,10436.903782
917.197973,-296.082377,689.485948,9030.512492
917.198298,888.247130,-612.876398,9548.656652
917.198623,814.226536,-1072.533697,9400.615463
917.198948,-1480.411884,76.609550,9770.718434
917.199273,-2072.576638,-306.438199,8068.244768
917.199598,-2738.761985,536.266849,9474.636058
917.199923,-2442.679609,1149.143247,8882.471304
917.200248,-1554.432478,1838.629195,8660.409521
917.200573,-592.164754,383.047749,7254.018232
917.200898,444.123565,919.314598,6587.832884
917.201223,2516.700203,2834.553343,7254.018232
917.201548,2368.659014,3447.429741,9400.615463
917.201872,814.226536,2145.067394,8142.265362
917.202197,1036.288319,612.876398,7402.059420
917.202522,1036.288319,1225.752797,9696.697840
917.202847,0.000000,1455.581446,11547.212695
917.203172,-518.144159,1838.629195,10584.944971
917.203497,1332.370696,-1225.752797,9326.594869
917.203822,1924.535449,-1991.848295,10066.800811
917.204147,0.000000,-383.047749,10807.006753
917.204472,-2368.659014,995.924147,10362.883188
917.204797,-1480.411884,766.095498,10214.842000
917.205122,-1776.494261,-459.657299,11325.150913
917.205447,-1554.432478,229.828649,10510.924376
917.205771,-1998.556043,153.219100,8882.471304
917.206096,1110.308913,306.438199,7254.018232
917.206421,74.020594,2068.457845,10807.006753
917.206746,-370.102971,1149.143247,10066.800811
917.207071,-2294.638420,-306.438199,9030.512492
917.207396,-2368.659014,-2374.896044,7254.018232
917.207721,-2886.803174,-1762.019645,9696.697840
917.208046,-2516.700203,-459.657299,8882.471304
917.208371,-2220.617826,689.485948,9844.739029
917.208696,592.164754,0.000000,7179.997637
917.209021,1554.432478,-995.924147,7328.038826
917.209345,2738.761985,0.000000,7031.956449
917.209670,1628.453072,2681.334243,9104.533087
917.209995,0.000000,3830.477490,8364.327145
917.210320,2368.659014,1225.752797,7550.100608
917.210645,1184.329507,-995.924147,9696.697840
917.210970,222.061783,-612.876398,10066.800811
917.211295,148.041188,1685.410096,9548.656652
917.211620,3034.844362,689.485948,10732.986159
917.211944,1480.411884,-612.876398,11917.315666
917.212269,-1036.288319,-2221.676944,11325.150913
917.212594,-1924.535449,-1685.410096,7994.224174
917.212919,74.020594,-995.924147,9326.594869
917.213244,-814.226536,842.705048,12657.521608
917.213569,-962.267725,2145.067394,11547.212695
917.213894,1702.473667,536.266849,7402.059420
917.214219,3552.988522,-1072.533697,7624.121203
917.214543,3627.009116,1225.752797,11029.068536
917.214868,1702.473667,3983.696590,10436.903782
917.215193,148.041188,3140.991542,8438.347739
917.215518,518.144159,-1991.848295,7031.956449
917.215843,-148.041188,-995.924147,9770.718434
917.216168,-1628.453072,2834.553343,10732.986159
917.216493,-518.144159,4749.792088,9104.533087
917.216818,1110.308913,153.219100,6883.915261
917.217142,666.185348,-2681.334243,7772.162391
917.217467,-1332.370696,459.657299,8290.306550
917.217792,-1850.514855,4596.572988,7476.080014
917.218117,148.041188,3907.087040,8068.244768
917.218442,1036.288319,612.876398,9474.636058
917.218767,-1258.350101,842.705048,10140.821405
917.219092,-1332.370696,3140.991542,7624.121203
917.219416,1702.473667,2068.457845,7105.977043
917.219741,1628.453072,-1608.800546,9326.594869
917.220066,-740.205942,-1838.629195,11843.295072
917.220391,-2442.679609,1225.752797,10732.986159
917.220716,-1850.514855,2298.286494,10140.821405
917.221041,-740.205942,-306.438199,11251.130318
917.221366,-1850.514855,-1762.019645,12435.459826
917.221691,-1702.473667,-459.657299,9474.636058
917.222015,1554.432478,1762.019645,7254.018232
917.222340,1702.473667,2604.724693,9474.636058
917.222665,444.123565,1302.362347,10436.903782
917.222990,-592.164754,306.438199,7105.977043
917.223315,-1924.535449,0.000000,6439.791695
917.223640,-2812.782580,995.924147,9030.512492
917.223965,-2368.659014,1991.848295,11029.068536
917.224290,-1850.514855,0.000000,8956.491898
917.224614,-1332.370696,-3907.087040,6439.791695
917.224939,-1998.556043,-3064.381992,8660.409521
917.225264,-1554.432478,919.314598,10584.944971
917.225589,666.185348,2451.505594,9104.533087
917.225914,888.247130,-995.924147,9400.615463
917.226239,222.061783,-919.314598,9474.636058
917.226564,1924.535449,1072.533697,10807.006753
917.226888,3256.906145,2145.067394,9104.533087
917.227213,3256.906145,1149.143247,8734.430116
917.227538,3034.844362,-919.314598,10214.842000
917.227863,3182.885551,306.438199,10881.027347
917.228188,2146.597232,1225.752797,9622.677246
917.228513,0.000000,-689.485948,9992.780217
917.228838,-1628.453072,-2221.676944,11103.089130
917.229163,-1184.329507,0.000000,11029.068536
917.229487,-518.144159,995.924147,11103.089130
917.229812,-296.082377,-766.095498,8734.430116
917.230137,666.185348,-1378.971896,7105.977043
917.230462,888.247130,0.000000,8808.450710
917.230787,-370.102971,1991.848295,9548.656652
917.231112,-1036.288319,2681.334243,7624.121203
917.231437,148.041188,919.314598,8364.327145
917.231762,-962.267725,995.924147,9918.759623
917.232086,-518.144159,689.485948,7698.141797
917.232411,962.267725,1302.362347,7328.038826
917.232736,3478.967927,919.314598,8660.409521
917.233061,2738.761985,2221.676944,9474.636058
917.233386,1628.453072,1532.190996,7476.080014
917.233711,444.123565,1302.362347,8808.450710
917.234036,444.123565,1991.848295,9252.574275
917.234360,148.041188,2298.286494,10288.862594
917.234685,1036.288319,1225.752797,9844.739029
917.235010,1480.411884,-536.266849,8438.347739
917.235335,-444.123565,459.657299,9474.636058
917.235660,444.123565,-1149.143247,8882.471304
917.235985,-2146.597232,-919.314598,11473.192101
917.236310,-4293.194464,-1762.019645,9918.759623
917.236635,-4589.276840,-383.047749,10288.862594
917.236959,-1850.514855,-1685.410096,9770.718434
917.237284,-2738.761985,-1532.190996,10658.965565
917.237609,-1924.535449,-919.314598,8068.244768
917.237934,-370.102971,1685.410096,8216.285956
917.238259,2368.659014,1455.581446,8808.450710
917.238584,3627.009116,1149.143247,9992.780217
917.238909,1776.494261,689.485948,10584.944971
917.239234,2516.700203,0.000000,7254.018232
917.239558,3701.029710,689.485948,9548.656652
917.239883,3627.009116,1072.533697,11991.336260
917.240208,4589.276840,2068.457845,9030.512492
917.240533,4367.215058,-306.438199,7476.080014
917.240858,3775.050304,-1762.019645,8142.265362
917.241183,1702.473667,-1072.533697,8586.388927
917.241508,-1184.329507,0.000000,8142.265362
917.241833,-888.247130,0.000000,8660.409521
917.242157,-666.185348,-2681.334243,8808.450710
917.242482,-2146.597232,-2451.505594,9918.759623
917.242807,-1036.288319,-2604.724693,9622.677246
917.243132,-74.020594,-2068.457845,9400.615463
917.243457,518.144159,-2451.505594,8586.388927
917.243782,1850.514855,-3524.039291,9548.656652
917.244107,2368.659014,-2834.553343,8956.491898
917.244431,1110.308913,-536.266849,8956.491898
917.244756,2072.576638,-919.314598,9992.780217
917.245081,1628.453072,-2068.457845,11029.068536
917.245406,2294.638420,-3447.429741,9992.780217
917.245731,5033.400406,-3217.601092,11029.068536
917.246056,4441.235652,-1225.752797,11399.171507
917.246381,4885.359217,-1302.362347,9030.512492
917.246706,6439.791695,-2374.896044,9030.512492
917.247030,5329.482782,-1762.019645,9030.512492
917.247355,3627.009116,536.266849,8068.244768
917.247680,3627.009116,1532.190996,8586.388927
917.248005,3997.112087,0.000000,10584.944971
917.248330,1924.535449,-995.924147,10362.883188
917.248655,-888.247130,-2451.505594,7994.224174
917.248980,370.102971,-3140.991542,7105.977043
917.249305,3034.844362,-2221.676944,7698.141797
917.249629,3330.926739,-842.705048,8734.430116
917.249954,2516.700203,-689.485948,7772.162391
917.250279,1850.514855,-919.314598,8438.347739
917.250604,962.267725,-1685.410096,9548.656652
917.250929,1258.350101,-2298.286494,11399.171507
917.251254,1036.288319,-2451.505594,11029.068536
917.251579,296.082377,-3677.258390,10510.924376
917.251903,1480.411884,-3524.039291,10732.986159
917.252228,1554.432478,-2068.457845,11547.212695
917.252553,2442.679609,-842.705048,8068.244768
917.252878,3701.029710,-689.485948,5995.668130
917.253203,4885.359217,-536.266849,6661.853478
917.253528,3701.029710,1378.971896,8586.388927
917.253853,2590.720797,1991.848295,8882.471304
917.254178,814.226536,-383.047749,10584.944971
917.254502,-296.082377,-5286.058936,10881.027347
917.254827,-518.144159,-5209.449386,10955.047942
917.255152,-296.082377,-2451.505594,11991.336260
917.255477,0.000000,-689.485948,11029.068536
917.255802,1036.288319,-1455.581446,8512.368333
917.256127,3478.967927,-3064.381992,8142.265362
917.256452,5181.441594,-1455.581446,5107.421000
917.256777,5033.400406,919.314598,3923.091493
917.257101,2812.782580,842.705048,7402.059420
917.257426,1702.473667,-383.047749,9252.574275
917.257751,444.123565,-1762.019645,11103.089130
917.258076,-222.061783,-4060.306139,12361.439231
917.258401,-666.185348,-4903.011187,12509.480420
917.258726,0.000000,-3217.601092,13249.686362
917.259051,518.144159,-1608.800546,13027.624579
917.259375,1110.308913,-842.705048,10732.986159
917.259700,1628.453072,-459.657299,9770.718434
917.260025,4071.132681,1302.362347,7179.997637
917.260350,6809.894666,1838.629195,3034.844362
917.260675,4663.297435,1302.362347,3330.926739
917.261000,3256.906145,0.000000,6439.791695
917.261325,2368.659014,-459.657299,9400.615463
917.261650,1332.370696,-1991.848295,10955.047942
917.261974,0.000000,-5439.278036,13101.645173
917.262299,-1628.453072,-6128.763984,13989.892304
917.262624,-444.123565,-2298.286494,13397.727550
917.262949,2146.597232,0.000000,13027.624579
917.263274,2220.617826,-689.485948,10584.944971
917.263599,3256.906145,229.828649,6735.874072
917.263924,6735.874072,3294.210641,4441.235652
917.264249,7550.100608,5439.278036,2294.638420
917.264573,5995.668130,3753.867940,1628.453072
917.264898,4959.379811,842.705048,1998.556043
917.265223,3256.906145,-1532.190996,5625.565159
917.265548,296.082377,-3217.601092,9770.718434
917.265873,-1628.453072,-6511.811733,13693.809927
917.266198,-4663.297435,-8273.831378,17098.757260
917.266523,-5181.441594,-9116.536426,17098.757260
917.266847,-3330.926739,-7737.564530,17468.860231
917.267172,-1184.329507,-5362.668486,16358.551318
917.267497,0.000000,-1302.362347,13323.706956
917.267822,2072.576638,2374.896044,9918.759623
917.268147,5329.482782,2451.505594,4811.338623
917.268472,6957.935855,4366.744339,2220.617826
917.268797,6661.853478,4979.620737,740.205942
917.269122,7994.224174,3983.696590,1258.350101
917.269446,9696.697840,1225.752797,2960.823768
917.269771,7624.121203,-2145.067394,7624.121203
917.270096,4293.194464,-4596.572988,10362.883188
917.270421,1998.556043,-7354.516781,13027.624579
917.270746,1628.453072,-10189.070123,15840.407159
917.271071,74.020594,-9806.022374,18949.272115
917.271396,-1998.556043,-7124.688131,19393.395680
917.271721,-1554.432478,-4903.011187,16210.510130
917.272045,444.123565,-2145.067394,11991.336260
917.272370,962.267725,1532.190996,8956.491898
917.272695,2072.576638,6128.763984,3849.070898
917.273020,3775.050304,8580.269578,666.185348
917.273345,3775.050304,7048.078582,-370.102971
917.273670,2738.761985,5209.449386,-0.000000
917.273995,444.123565,2681.334243,1924.535449
917.274320,-1332.370696,-1225.752797,3775.050304
917.274644,-2442.679609,-7354.516781,6735.874072
917.274969,-4071.132681,-11184.994271,12583.501014
917.275294,-2812.782580,-12563.966167,16432.571912
917.275619,-1332.370696,-11721.261119,18431.127956
917.275944,518.144159,-11491.432470,18431.127956
917.276269,4293.194464,-9499.584175,16284.530724
917.276594,8660.409521,-4596.572988,14137.933492
917.276918,11325.150913,4290.134789,11843.295072
917.277243,12435.459826,9652.803275,8956.491898
917.277568,12065.356855,9499.584175,6217.729913
917.277893,8660.409521,7660.954980,5477.523971
917.278218,6513.812290,8350.440928,5181.441594
917.278543,2368.659014,10035.851024,5551.544565
917.278868,-2146.597232,5822.325785,4737.318029
917.279193,-7179.997637,-1915.238745,6587.832884
917.279517,-10362.883188,-7354.516781,7105.977043
917.279842,-10807.006753,-9576.193725,7328.038826
917.280167,-9992.780217,-10035.851024,8956.491898
917.280492,-7994.224174,-10495.508323,10288.862594
917.280817,-5699.585753,-10112.460574,10807.006753
917.281142,-518.144159,-7354.516781,11251.130318
917.281467,4959.379811,-3600.648841,11473.192101
917.281792,9104.533087,76.609550,10807.006753
917.282116,12953.603985,3294.210641,9622.677246
917.282441,16432.571912,7048.078582,7994.224174
917.282766,17172.777854,8810.098227,7105.977043
917.283091,14508.036463,7354.516781,8364.327145
917.283416,11843.295072,5822.325785,8142.265362
917.283741,9104.533087,4673.182538,8142.265362
917.284066,4959.379811,1991.848295,8882.471304
917.284390,-962.267725,-3294.210641,8660.409521
917.284715,-5033.400406,-8963.317327,7624.121203
917.285040,-7402.059420,-11951.089769,9844.739029
917.285365,-8660.409521,-12257.527968,11029.068536
917.285690,-8068.244768,-10342.289223,11177.109724
917.286015,-6291.750507,-9193.145976,11769.274478
917.286340,-3182.885551,-6665.030833,12139.377449
917.286665,740.205942,-3983.696590,13027.624579
917.286989,4071.132681,-919.314598,13619.789333
917.287314,4589.276840,2451.505594,11473.192101
917.287639,5477.523971,3753.867940,10288.862594
917.287964,7402.059420,5132.839837,9844.739029
917.288289,6957.935855,5056.230287,9326.594869
917.288614,3997.112087,5822.325785,8882.471304
917.288939,2072.576638,4213.525239,7846.182985
917.289264,-370.102971,1838.629195,6587.832884
917.289588,-2516.700203,-1302.362347,4885.359217
917.289913,-3849.070898,-2911.162892,4885.359217
917.290238,-5181.441594,-3907.087040,5181.441594
917.290563,-5699.585753,-3907.087040,4959.379811
917.290888,-3182.885551,-4673.182538,7476.080014
917.291213,-1480.411884,-3907.087040,9326.594869
917.291538,-1184.329507,-2145.067394,9400.615463
917.291862,740.205942,-1225.752797,9030.512492
917.292187,4737.318029,-689.485948,9918.759623
917.292512,6217.729913,0.000000,11769.274478
917.292837,6069.688724,2145.067394,11621.233289
917.293162,7920.203579,2528.115143,9918.759623
917.293487,8882.471304,2451.505594,9548.656652
917.293812,8142.265362,612.876398,8364.327145
917.294137,7105.977043,766.095498,9474.636058
917.294461,5847.626942,1455.581446,9844.739029
917.294786,3997.112087,-995.924147,10288.862594
917.295111,2146.597232,-5209.449386,11399.171507
917.295436,0.000000,-7814.174080,12139.377449
917.295761,-1332.370696,-6435.202183,11991.336260
917.296086,814.226536,-4366.744339,11399.171507
917.296411,1332.370696,-4749.792088,10732.986159
917.296736,444.123565,-5362.668486,10362.883188
917.297060,222.061783,-2757.943793,9548.656652
917.297385,1776.494261,919.314598,8660.409521
917.297710,2368.659014,2145.067394,7105.977043
917.298035,3256.906145,1762.019645,6809.894666
917.298360,3849.070898,2528.115143,7846.182985
917.298685,4293.194464,4290.134789,7179.997637
917.299010,3775.050304,3370.820191,6365.771101
917.299334,3108.864956,-459.657299,7031.956449
917.299659,1776.494261,-1378.971896,8882.471304
917.299984,1332.370696,-766.095498,9252.574275
917.300309,222.061783,76.609550,9474.636058
917.300634,-1184.329507,-3294.210641,9770.718434
917.300959,-2220.617826,-5515.887586,10807.006753
917.301284,-1480.411884,-3753.867940,10510.924376
917.301609,-1258.350101,-995.924147,10807.006753
917.301933,-2294.638420,0.000000,9474.636058
917.302258,-1184.329507,-1302.362347,8438.347739
917.302583,0.000000,-1532.190996,7179.997637
917.302908,296.082377,536.266849,7105.977043
917.303233,-814.226536,2374.896044,7476.080014
917.303558,-888.247130,306.438199,7920.203579
917.303883,0.000000,-2604.724693,8438.347739
917.304208,296.082377,-3600.648841,9474.636058
917.304532,-148.041188,-2681.334243,10658.965565
917.304857,222.061783,-2604.724693,10807.006753
917.305182,2590.720797,-4519.963438,10288.862594
917.305507,5477.523971,-4903.011187,10955.047942
917.305832,6291.750507,-2604.724693,10436.903782
917.306157,7105.977043,0.000000,9104.533087
917.306482,9992.780217,0.000000,8956.491898
917.306807,11843.295072,-612.876398,8586.388927
917.307132,11473.192101,0.000000,7994.224174
917.307457,9992.780217,1072.533697,7476.080014
917.307781,9252.574275,76.609550,7772.162391
917.308106,7994.224174,-2145.067394,8660.409521
917.308431,6661.853478,-3907.087040,10214.842000
917.308756,3182.885551,-4519.963438,9844.739029
917.309081,1184.329507,-4903.011187,9548.656652
917.309406,888.247130,-6665.030833,10288.862594
917.309731,222.061783,-7354.516781,11473.192101
917.310056,-814.226536,-6281.983084,11473.192101
917.310381,-2072.576638,-5286.058936,11103.089130
917.310706,-1554.432478,-4903.011187,10955.047942
917.311031,-296.082377,-4366.744339,11991.336260
917.311356,-962.267725,-2911.162892,12287.418637
917.311681,-2368.659014,-536.266849,10658.965565
917.312006,-1554.432478,-383.047749,9844.739029
917.312331,370.102971,-459.657299,9548.656652
917.312656,370.102971,0.000000,9104.533087
917.312981,-444.123565,1455.581446,7624.121203
917.313306,-296.082377,2374.896044,6883.915261
917.313631,592.164754,1915.238745,6957.935855
917.313956,1332.370696,919.314598,7031.956449
917.314281,0.000000,383.047749,6957.935855
917.314606,-1036.288319,612.876398,6883.915261
917.314931,222.061783,-306.438199,7476.080014
917.315256,962.267725,-612.876398,9178.553681
917.315581,-518.144159,0.000000,9400.615463
917.315906,-1258.350101,459.657299,8882.471304
917.316231,-370.102971,842.705048,8808.450710
917.316555,370.102971,153.219100,9178.553681
917.316880,592.164754,153.219100,8808.450710
917.317205,1332.370696,1072.533697,6661.853478
917.317530,2368.659014,1685.410096,7105.977043
917.317855,3849.070898,1072.533697,7476.080014
917.318180,5255.462188,-229.828649,7994.224174
917.318505,5699.585753,-1532.190996,8734.430116
917.318830,5699.585753,-2451.505594,9622.677246
917.319155,5625.565159,-3370.820191,11917.315666
917.319480,4737.318029,-4060.306139,14582.057057
917.319805,4071.132681,-4443.353888,15174.221811
917.320130,3849.070898,-4596.572988,15248.242405
917.320455,4515.256246,-2834.553343,14656.077652
917.320780,5181.441594,-1455.581446,13323.706956
917.321105,5255.462188,919.314598,11029.068536
917.321430,5625.565159,2451.505594,8142.265362
917.321755,5625.565159,3370.820191,5625.565159
917.322080,5921.647536,3600.648841,3330.926739
917.322405,5477.523971,3064.381992,2960.823768
917.322730,4293.194464,2298.286494,2368.659014
917.323055,3108.864956,766.095498,3108.864956
917.323380,2590.720797,-2298.286494,5181.441594
917.323705,1628.453072,-5209.449386,7179.997637
917.324030,2146.597232,-7584.345430,8364.327145
917.324355,2516.700203,-9193.145976,9400.615463
917.324680,3034.844362,-8733.488677,10510.924376
917.325005,2960.823768,-7507.735880,12139.377449
917.325329,2812.782580,-6128.763984,13841.851115
917.325654,1628.453072,-4903.011187,15544.324782
917.325979,814.226536,-4213.525239,15914.427753
917.326304,444.123565,-2604.724693,15544.324782
917.326629,0.000000,-2374.896044,13841.851115
917.326954,-962.267725,-842.705048,11621.233289
917.327279,-2664.741391,153.219100,9770.718434
917.327604,-4219.173869,766.095498,8734.430116
917.327929,-5995.668130,76.609550,7624.121203
917.328254,-6735.874072,-2374.896044,6661.853478
917.328579,-6809.894666,-3830.477490,4441.235652
917.328904,-5403.503377,-5132.839837,4441.235652
917.329229,-3478.967927,-6281.983084,6365.771101
917.329554,592.164754,-6052.154434,7328.038826
917.329879,3849.070898,-5669.106685,9252.574275
917.330204,5107.421000,-5209.449386,10732.986159
917.330529,6217.729913,-2221.676944,12213.398043
917.330854,9696.697840,1762.019645,12583.501014
917.331179,13027.624579,4136.915689,12879.583391
917.331504,11695.253884,5209.449386,11029.068536
917.331829,9474.636058,6665.030833,8290.306550
917.332154,8734.430116,8197.221829,5699.585753
917.332479,6513.812290,8044.002729,5181.441594
917.332804,370.102971,6205.373534,4959.379811
917.333129,-3775.050304,5132.839837,3182.885551
917.333454,-4737.318029,1225.752797,3404.947333
917.333778,-5033.400406,-3753.867940,3330.926739
917.334103,-5921.647536,-8656.879127,4441.235652
917.334428,-6217.729913,-10418.898773,6883.915261
917.334753,-4441.235652,-9422.974625,11251.130318
917.335078,-1628.453072,-8197.221829,16580.613101
917.335403,3108.864956,-9576.193725,19171.333898
917.335728,4959.379811,-7277.907231,20577.725188
917.336053,7698.141797,-4213.525239,19911.539840
917.336378,12435.459826,1149.143247,17690.922014
917.336703,15692.365970,6281.983084,15100.201217
917.337028,16802.674883,10725.336972,10510.924376
917.337353,16210.510130,11261.603821,4737.318029
917.337678,14656.077652,10112.460574,1702.473667
917.338003,11177.109724,8120.612279,-0.000000
917.338328,5551.544565,6281.983084,740.205942
917.338653,-2294.638420,3600.648841,296.082377
917.338978,-6439.791695,-3753.867940,1110.308913
917.339303,-10807.006753,-10801.946522,5551.544565
917.339628,-14730.098246,-13942.938064,10362.883188
917.339953,-16580.613101,-13100.233016,13989.892304
917.340278,-14211.954086,-12717.185267,15026.180623
917.340603,-9696.697840,-12104.308868,15248.242405
917.340928,-1776.494261,-9346.365076,14359.995275
917.341253,4959.379811,-2068.457845,12731.542202
917.341578,9104.533087,6281.983084,9030.512492
917.341903,11547.212695,9806.022374,6069.688724
917.342228,12361.439231,6205.373534,7698.141797
917.342552,10288.862594,4979.620737,6883.915261
917.342877,8068.244768,5745.716235,8364.327145
917.343202,2812.782580,5132.839837,11251.130318
917.343527,-1776.494261,-2911.162892,11843.295072
917.343852,-7254.018232,-11031.775171,11843.295072
917.344177,-8660.409521,-14172.766713,11991.336260
917.344502,-8956.491898,-10189.070123,11325.150913
917.344827,-7105.977043,-8120.612279,8142.265362
917.345152,-5551.544565,-7737.564530,7254.018232
917.345477,-1924.535449,-6281.983084,7105.977043
917.345802,2442.679609,-1225.752797,7550.100608
917.346127,3701.029710,2451.505594,8290.306550
917.346452,6809.894666,3217.601092,7402.059420
917.346777,11103.089130,3064.381992,7476.080014
917.347102,14804.118840,6894.859482,9030.512492
917.347427,14211.954086,8273.831378,8364.327145
917.347752,13101.645173,4903.011187,8734.430116
917.348077,11325.150913,612.876398,9252.574275
917.348402,8364.327145,229.828649,8586.388927
917.348727,3182.885551,1685.410096,9918.759623
917.349052,666.185348,-1991.848295,10362.883188
917.349377,-2590.720797,-6818.249932,11177.109724
917.349702,-4515.256246,-10801.946522,10658.965565
917.350027,-4885.359217,-9422.974625,11547.212695
917.350352,-3404.947333,-6588.421283,9548.656652
917.350677,-666.185348,-3217.601092,8438.347739
917.351002,2664.741391,-1838.629195,9030.512492
917.351326,3775.050304,1608.800546,10362.883188
917.351651,3997.112087,5209.449386,8734.430116
917.351976,5551.544565,6205.373534,10436.903782
917.352301,7105.977043,4213.525239,9844.739029
917.352626,5329.482782,3370.820191,9918.759623
917.352951,2812.782580,3830.477490,11177.109724
917.353276,3034.844362,4136.915689,10732.986159
917.353601,1554.432478,153.219100,8586.388927
917.353926,0.000000,-2528.115143,8956.491898
917.354251,-814.226536,-2911.162892,6439.791695
917.354576,-2812.782580,0.000000,5181.441594
917.354901,-2960.823768,0.000000,5995.668130
917.355226,-2368.659014,-2145.067394,7476.080014
917.355551,-3330.926739,-2681.334243,8660.409521
917.355876,-740.205942,-1685.410096,8364.327145
917.356201,740.205942,689.485948,9918.759623
917.356526,-2516.700203,1225.752797,11473.192101
917.356851,-3627.009116,306.438199,10288.862594
917.357176,-2590.720797,-612.876398,10288.862594
917.357501,-3552.988522,1455.581446,10658.965565
917.357826,-5255.462188,3064.381992,11843.295072
917.358151,-4737.318029,1915.238745,9326.594869
917.358476,-3182.885551,689.485948,7624.121203
917.358801,-1628.453072,-1072.533697,8364.327145
917.359126,-1998.556043,-1072.533697,7698.141797
917.359451,-2368.659014,-1225.752797,7994.224174
917.359775,-740.205942,-2451.505594,7846.182985
917.360100,-592.164754,-2451.505594,8068.244768
917.360425,-1924.535449,-3217.601092,10436.903782
917.360750,-962.267725,-2298.286494,12139.377449
917.361075,1998.556043,-1991.848295,10658.965565
917.361400,5255.462188,-1915.238745,11325.150913
917.361725,5995.668130,-919.314598,11547.212695
917.362050,3330.926739,2834.553343,11547.212695
917.362375,6291.750507,5592.497135,8660.409521
917.362700,8216.285956,5669.106685,10140.821405
917.363025,5551.544565,4443.353888,7105.977043
917.363350,3330.926739,4903.011187,5625.565159
917.363675,4959.379811,4596.572988,5329.482782
917.364000,4071.132681,3830.477490,5477.523971
917.364325,518.144159,306.438199,6809.894666
917.364650,-2072.576638,-3524.039291,8586.388927
917.364975,-3552.988522,-3830.477490,6883.915261
917.365300,-2960.823768,-5209.449386,10140.821405
917.365625,-3034.844362,-4596.572988,14137.933492
917.365950,-3627.009116,-4903.011187,14137.933492
917.366275,-1628.453072,-4060.306139,12213.398043
917.366600,3330.926739,-2451.505594,11843.295072
917.366925,4589.276840,1762.019645,12509.480420
917.367250,4959.379811,5056.230287,10807.006753
917.367575,4885.359217,5898.935335,8068.244768
917.367900,4293.194464,4903.011187,7328.038826
917.368225,1702.473667,4673.182538,8364.327145
917.368549,222.061783,5132.839837,8142.265362
917.368874,-962.267725,3983.696590,7105.977043
917.369199,-2590.720797,1149.143247,7105.977043
917.369524,-4811.338623,-1838.629195,9030.512492
917.369849,-6143.709319,-2681.334243,8068.244768
917.370174,-6809.894666,-3064.381992,8290.306550
917.370499,-6439.791695,-4213.525239,7846.182985
917.370824,-7179.997637,-2681.334243,9400.615463
917.371149,-4515.256246,-842.705048,10436.903782
917.371474,-888.247130,1991.848295,10362.883188
917.371799,2294.638420,2145.067394,8808.450710
917.372124,1554.432478,2987.772442,10288.862594
917.372449,2516.700203,3064.381992,9696.697840
917.372774,3627.009116,3677.258390,8882.471304
917.373099,2812.782580,3524.039291,8956.491898
917.373424,-814.226536,4213.525239,11029.068536
917.373749,-3108.864956,3140.991542,9918.759623
917.374074,-1258.350101,1608.800546,8142.265362
917.374399,-1850.514855,-1532.190996,7994.224174
917.374724,-4293.194464,-2987.772442,9474.636058
917.375049,-7624.121203,-1608.800546,8734.430116
917.375374,-3330.926739,-3370.820191,7402.059420
917.375699,-296.082377,-3830.477490,9474.636058
917.376024,-4145.153275,-1072.533697,11621.233289
917.376349,-3923.091493,536.266849,9622.677246
917.376674,666.185348,0.000000,8808.450710
917.376999,6143.709319,-229.828649,8734.430116
917.377323,5329.482782,3064.381992,10658.965565
917.377648,6217.729913,4903.011187,9400.615463
917.377973,8512.368333,5362.668486,9548.656652
917.378298,8142.265362,4366.744339,11473.192101
917.378623,5107.421000,3064.381992,10658.965565
917.378948,3108.864956,2451.505594,7476.080014
917.379273,4293.194464,2068.457845,7624.121203
917.379598,3997.112087,2451.505594,8512.368333
917.379923,1480.411884,306.438199,8216.285956
917.380248,-1702.473667,-2834.553343,6809.894666
917.380573,-2960.823768,-4366.744339,6883.915261
917.380898,-3182.885551,-2911.162892,7328.038826
917.381223,-4589.276840,-1378.971896,10436.903782
917.381548,-4145.153275,-1378.971896,10140.821405
917.381873,-3701.029710,-2604.724693,10955.047942
917.382198,-370.102971,-2604.724693,8808.450710
917.382523,1554.432478,536.266849,10732.986159
917.382848,3330.926739,2911.162892,11103.089130
917.383173,3552.988522,4366.744339,10955.047942
917.383498,3182.885551,4136.915689,10436.903782
917.383823,2294.638420,2604.724693,11399.171507
917.384148,444.123565,1915.238745,10362.883188
917.384473,-148.041188,1072.533697,9696.697840
917.384798,-518.144159,-689.485948,7105.977043
917.385123,-1110.308913,-1378.971896,10510.924376
917.385448,-2960.823768,-766.095498,10584.944971
917.385772,-4811.338623,-1455.581446,7624.121203
917.386097,-6291.750507,-3600.648841,6735.874072
917.386422,-7254.018232,-3524.039291,7179.997637
917.386747,-6365.771101,-612.876398,8660.409521
917.387072,-2368.659014,2451.505594,9474.636058
917.387397,-740.205942,4213.525239,8438.347739
917.387722,296.082377,2145.067394,7772.162391
917.388047,74.020594,1532.190996,7846.182985
917.388372,1258.350101,1762.019645,6957.935855
917.388697,1258.350101,2834.553343,7772.162391
917.389022,1258.350101,2987.772442,10362.883188
917.389347,-296.082377,2374.896044,11399.171507
917.389672,-1332.370696,1532.190996,11325.150913
917.389997,666.185348,-306.438199,9770.718434
917.390322,888.247130,-2834.553343,9400.615463
917.390647,0.000000,-1991.848295,10362.883188
917.390972,0.000000,383.047749,10436.903782
917.391297,1036.288319,1072.533697,10288.862594
917.391622,1406.391290,-766.095498,9400.615463
917.391947,-1924.535449,0.000000,11251.130318
917.392272,-1702.473667,2221.676944,9178.553681
917.392597,2368.659014,3753.867940,7550.100608
917.392922,5551.544565,2451.505594,8882.471304
917.393247,3775.050304,2451.505594,9326.594869
917.393572,2368.659014,3140.991542,7772.162391
917.393897,1924.535449,3140.991542,7698.141797
917.394222,2442.679609,1991.848295,7846.182985
917.394546,814.226536,1149.143247,10066.800811
917.394871,-1406.391290,1532.190996,9622.677246
917.395196,0.000000,229.828649,6957.935855
917.395521,2590.720797,-2145.067394,8142.265362
917.395846,1702.473667,-1302.362347,10584.944971
917.396171,444.123565,0.000000,8512.368333
917.396496,-1184.329507,-459.657299,7772.162391
917.396821,-444.123565,-1455.581446,9104.533087
917.397146,-518.144159,229.828649,11843.295072
917.397471,-2590.720797,-153.219100,10214.842000
917.397796,-1184.329507,612.876398,9326.594869
917.398121,2220.617826,-229.828649,8956.491898
917.398446,1628.453072,536.266849,10955.047942
917.398771,1406.391290,842.705048,11029.068536
917.399096,0.000000,1455.581446,10658.965565
917.399421,-1924.535449,1608.800546,10584.944971
917.399746,-518.144159,459.657299,10510.924376
917.400071,-814.226536,-612.876398,10658.965565
917.400396,-2368.659014,-383.047749,9252.574275
917.400721,-296.082377,0.000000,8142.265362
917.401046,0.000000,-995.924147,9622.677246
917.401371,-1628.453072,-2145.067394,9326.594869
917.401696,-2516.700203,-1532.190996,7476.080014
917.402021,-2516.700203,-459.657299,7772.162391
917.402346,-2442.679609,2374.896044,9178.553681
917.402671,-1554.432478,919.314598,9104.533087
917.402996,-1036.288319,1072.533697,8586.388927
917.403320,1702.473667,2604.724693,6957.935855
917.403645,1850.514855,3524.039291,9030.512492
917.403970,0.000000,2681.334243,7920.203579
917.404295,0.000000,306.438199,8364.327145
917.404620,444.123565,-842.705048,7402.059420
917.404945,-1332.370696,1072.533697,10140.821405
917.405270,-740.205942,229.828649,10955.047942
917.405595,-1258.350101,0.000000,11399.171507
917.405920,518.144159,-2604.724693,8068.244768
917.406245,2516.700203,-995.924147,10510.924376
917.406570,1702.473667,0.000000,10807.006753
917.406895,888.247130,1608.800546,10066.800811
917.407220,1480.411884,689.485948,9992.780217
917.407545,2220.617826,0.000000,11251.130318
917.407870,370.102971,2145.067394,10436.903782
917.408195,370.102971,3294.210641,9548.656652
917.408520,2220.617826,2298.286494,8216.285956
917.408845,3404.947333,919.314598,8734.430116
917.409170,2516.700203,229.828649,8808.450710
917.409495,-1036.288319,1225.752797,10584.944971
917.409820,-1776.494261,995.924147,8734.430116
917.410145,-888.247130,459.657299,9030.512492
917.410470,-1554.432478,-1762.019645,8660.409521
917.410796,-3775.050304,-766.095498,7402.059420
917.411121,-1406.391290,383.047749,6439.791695
917.411446,2886.803174,2145.067394,8068.244768
917.411771,3330.926739,689.485948,8882.471304
917.412095,888.247130,76.609550,9918.759623
917.412420,-2072.576638,1532.190996,9696.697840
917.412745,1776.494261,842.705048,8586.388927
917.413070,2664.741391,383.047749,11103.089130
917.413395,-1184.329507,383.047749,11547.212695
917.413720,-888.247130,1762.019645,7920.203579
917.414045,1850.514855,2298.286494,9918.759623
917.414370,2072.576638,536.266849,12139.377449
917.414695,-1554.432478,-1378.971896,9252.574275
917.415020,-2664.741391,-1991.848295,7550.100608
917.415345,-666.185348,383.047749,10140.821405
917.415670,-1110.308913,2221.676944,11399.171507
917.415995,-3034.844362,-153.219100,10510.924376
917.416320,-1258.350101,-4060.306139,6883.915261
917.416645,666.185348,-1991.848295,7179.997637
917.416969,518.144159,2221.676944,9844.739029
917.417294,1480.411884,2681.334243,10362.883188
917.417619,148.041188,-612.876398,7920.203579
917.417944,-2072.576638,-2451.505594,6883.915261
917.418269,-2220.617826,306.438199,9696.697840
917.418594,-888.247130,2757.943793,9400.615463
917.418919,814.226536,3830.477490,8364.327145
917.419244,2294.638420,1302.362347,8216.285956
917.419569,1184.329507,0.000000,7254.018232
917.419894,1184.329507,1762.019645,8142.265362
917.420219,1628.453072,2681.334243,9400.615463
917.420544,814.226536,2604.724693,10881.027347
917.420869,-1406.391290,995.924147,11177.109724
917.421194,-1332.370696,-1149.143247,10066.800811
917.421519,-1776.494261,-1225.752797,9548.656652
917.421843,518.144159,-612.876398,8808.450710
917.422168,1702.473667,153.219100,10732.986159
917.422493,666.185348,153.219100,11547.212695
917.422818,-740.205942,842.705048,11917.315666
917.423143,0.000000,536.266849,10881.027347
917.423468,-814.226536,76.609550,10436.903782
917.423793,-1628.453072,0.000000,10510.924376
917.424118,-1184.329507,1225.752797,9252.574275
917.424443,1702.473667,2681.334243,7105.977043
917.424768,3034.844362,1915.238745,7994.224174
917.425093,592.164754,766.095498,7254.018232
917.425418,-1480.411884,1378.971896,6883.915261
917.425743,-1998.556043,2068.457845,7031.956449
917.426068,-1406.391290,1685.410096,7994.224174
917.426393,-2738.761985,-536.266849,7772.162391
917.426717,-2368.659014,-2221.676944,7698.141797
917.427042,518.144159,-689.485948,8364.327145
917.427367,1702.473667,1991.848295,10732.986159
917.427692,2072.576638,766.095498,11325.150913
917.428017,1406.391290,-689.485948,10362.883188
917.428342,1258.350101,-459.657299,9030.512492
917.428667,888.247130,1532.190996,10288.862594
917.428992,444.123565,1991.848295,10362.883188
917.429317,296.082377,1455.581446,9400.615463
917.429642,2886.803174,766.095498,8808.450710
917.429967,1332.370696,1302.362347,10807.006753
917.430292,148.041188,0.000000,9474.636058
917.430617,0.000000,-1378.971896,9326.594869
917.430942,-1924.535449,-995.924147,9844.739029
917.431267,-2738.761985,-1608.800546,9400.615463
917.431591,-3404.947333,-995.924147,9992.780217
917.431916,-666.185348,-995.924147,10510.924376
917.432241,666.185348,0.000000,10140.821405
917.432566,444.123565,459.657299,9696.697840
917.432891,666.185348,842.705048,9104.533087
917.433216,2886.803174,1225.752797,8882.471304
917.433541,1776.494261,1149.143247,7624.121203
917.433866,0.000000,1532.190996,7254.018232
917.434191,888.247130,2298.286494,9400.615463
917.434516,0.000000,3830.477490,10584.944971
917.434841,2294.638420,2374.896044,8512.368333
917.435166,1924.535449,76.609550,8734.430116
917.435491,444.123565,-995.924147,8438.347739
917.435816,-444.123565,766.095498,9400.615463
917.436141,518.144159,1225.752797,8586.388927
917.436465,-1554.432478,1378.971896,9474.636058
917.436790,-3552.988522,459.657299,10584.944971
917.437115,-4071.132681,612.876398,9992.780217
917.437440,-740.205942,229.828649,5773.606348
917.437765,0.000000,-766.095498,8068.244768
917.438090,-740.205942,536.266849,10436.903782
917.438415,-1258.350101,3370.820191,10140.821405
917.438740,148.041188,1838.629195,8808.450710
917.439065,-370.102971,0.000000,10658.965565
917.439390,-3034.844362,0.000000,11621.233289
917.439715,-2368.659014,3064.381992,9770.718434
917.440040,1850.514855,1991.848295,7994.224174
917.440365,2072.576638,76.609550,11029.068536
917.440690,148.041188,-536.266849,9548.656652
917.441014,-148.041188,1838.629195,8808.450710
917.441339,370.102971,1149.143247,7698.141797
917.441664,-666.185348,612.876398,9178.553681
917.441989,-3775.050304,306.438199,9178.553681
917.442314,-1924.535449,689.485948,7846.182985
917.442639,1702.473667,995.924147,8068.244768
917.442964,962.267725,1685.410096,10510.924376
917.443289,-518.144159,1302.362347,9474.636058
917.443614,444.123565,-689.485948,8068.244768
917.443939,518.144159,-153.219100,9178.553681
917.444264,518.144159,842.705048,11029.068536
917.444589,-1776.494261,2374.896044,10807.006753
917.444914,-814.226536,229.828649,9696.697840
917.445239,1258.350101,-1991.848295,9030.512492
917.445564,1258.350101,-1838.629195,9474.636058
917.445888,222.061783,229.828649,9992.780217
917.446213,1184.329507,995.924147,10658.965565
917.446538,2516.700203,-919.314598,7772.162391
917.446863,2072.576638,-1378.971896,7772.162391
917.447188,518.144159,0.000000,9326.594869
917.447513,-666.185348,3370.820191,9474.636058
917.447838,3478.967927,2068.457845,8290.306550
917.448163,4663.297435,1455.581446,10140.821405
917.448488,2664.741391,-153.219100,9844.739029
917.448813,444.123565,1532.190996,8068.244768
917.449138,1184.329507,1455.581446,7994.224174
917.449463,518.144159,612.876398,9030.512492
917.449788,-2368.659014,536.266849,8882.471304
917.450113,-2590.720797,612.876398,9918.759623
917.450438,-814.226536,1685.410096,8808.450710
917.450762,-444.123565,1838.629195,9030.512492
917.451087,-1258.350101,-1149.143247,9548.656652
917.451412,-2294.638420,-1991.848295,8438.347739
917.451737,-814.226536,-459.657299,7920.203579
917.452062,1628.453072,1608.800546,9474.636058
917.452387,-740.205942,1072.533697,13101.645173
917.452712,-3108.864956,612.876398,10288.862594
917.453037,-1332.370696,229.828649,9474.636058
917.453362,2072.576638,76.609550,8956.491898
917.453687,1258.350101,995.924147,10510.924376
917.454012,-296.082377,689.485948,9474.636058
917.454337,-444.123565,1378.971896,9844.739029
917.454662,-148.041188,229.828649,8364.327145
917.454987,-1406.391290,1838.629195,10140.821405
917.455312,-2146.597232,1378.971896,9400.615463
917.455636,-222.061783,2374.896044,7846.182985
917.455961,2812.782580,1072.533697,7772.162391
917.456286,2886.803174,76.609550,9918.759623
917.456611,74.020594,842.705048,9474.636058
917.456936,-1110.308913,995.924147,8512.368333
917.457261,1110.308913,76.609550,7772.162391
917.457586,-666.185348,76.609550,11769.274478
917.457911,-2368.659014,0.000000,9622.677246
917.458236,-2886.803174,306.438199,8290.306550
917.458561,518.144159,-766.095498,6439.791695
917.458886,1184.329507,306.438199,10584.944971
917.459211,-592.164754,1838.629195,11251.130318
917.459536,-1850.514855,1455.581446,10288.862594
917.459861,0.000000,-153.219100,8142.265362
917.460186,-148.041188,-306.438199,10066.800811
917.460510,-2516.700203,995.924147,9400.615463
917.460835,-1850.514855,1915.238745,8142.265362
917.461160,666.185348,842.705048,8068.244768
917.461485,1850.514855,306.438199,10214.842000
917.461810,888.247130,995.924147,9992.780217
917.462135,296.082377,459.657299,8290.306550
917.462460,666.185348,536.266849,7328.038826
917.462785,444.123565,919.314598,9548.656652
917.463110,0.000000,383.047749,10140.821405
917.463435,1036.288319,1225.752797,9252.574275
917.463760,3701.029710,1915.238745,8734.430116
917.464085,4737.318029,3600.648841,10881.027347
917.464410,4441.235652,3600.648841,11029.068536
917.464735,814.226536,1991.848295,10881.027347
917.465060,1924.535449,0.000000,6957.935855
917.465384,592.164754,459.657299,7994.224174
917.465709,-2146.597232,1455.581446,10807.006753
917.466034,-2738.761985,2145.067394,9844.739029
917.466359,-2072.576638,306.438199,7254.018232
917.466684,-1406.391290,-2221.676944,8956.491898
917.467009,-2294.638420,-2145.067394,11029.068536
917.467334,-3404.947333,0.000000,10140.821405
917.467659,-1776.494261,-1072.533697,7328.038826
917.467984,-592.164754,-2757.943793,9030.512492
917.468309,-1776.494261,-1532.190996,11843.295072
917.468634,-1258.350101,3370.820191,9844.739029
917.468959,1628.453072,2528.115143,8290.306550
917.469284,3775.050304,612.876398,8290.306550
917.469609,3775.050304,0.000000,8290.306550
917.469934,1480.411884,1608.800546,7402.059420
917.470258,888.247130,1302.362347,6883.915261
917.470583,1184.329507,919.314598,9252.574275
917.470908,74.020594,919.314598,11695.253884
917.471233,-888.247130,1225.752797,11029.068536
917.471558,-148.041188,-383.047749,7476.080014
917.471883,1554.432478,-1838.629195,8438.347739
917.472208,2072.576638,-689.485948,11177.109724
917.472533,222.061783,995.924147,10140.821405
917.472858,-1628.453072,536.266849,8660.409521
917.473183,-1480.411884,-689.485948,9252.574275
917.473508,-2960.823768,153.219100,10510.924376
917.473833,-2146.597232,229.828649,7698.141797
917.474158,74.020594,1685.410096,9696.697840
917.474483,-592.164754,1072.533697,10584.944971
917.474808,-1480.411884,536.266849,9252.574275
