#time,accel_x,accel_y,accel_z
1628.823647,1332.370696,1072.533697,9548.656652
1628.823973,0.000000,1072.533697,8956.491898
1628.824299,-740.205942,1455.581446,8734.430116
1628.824625,148.041188,229.828649,9548.656652
1628.824951,518.144159,229.828649,9918.759623
1628.825277,-592.164754,306.438199,9104.533087
1628.825604,-592.164754,689.485948,9178.553681
1628.825930,-296.082377,766.095498,9622.677246
1628.826256,148.041188,153.219100,9622.677246
1628.826582,370.102971,842.705048,9622.677246
1628.826908,222.061783,1302.362347,9326.594869
1628.827234,222.061783,1225.752797,8734.430116
1628.827560,1036.288319,229.828649,9474.636058
1628.827886,1258.350101,995.924147,9622.677246
1628.828213,0.000000,1532.190996,9104.533087
1628.828539,-444.123565,1072.533697,9104.533087
1628.828865,0.000000,0.000000,9918.759623
1628.829191,-370.102971,76.609550,9918.759623
1628.829517,-1480.411884,842.705048,8956.491898
1628.829843,-1332.370696,612.876398,9030.512492
1628.830169,-814.226536,383.047749,9474.636058
1628.830495,-814.226536,612.876398,9622.677246
1628.830822,-740.205942,1302.362347,9474.636058
1628.831148,-888.247130,1685.410096,8956.491898
1628.831474,-296.082377,995.924147,8956.491898
1628.831800,518.144159,1072.533697,9400.615463
1628.832126,-148.041188,1915.238745,9252.574275
1628.832452,-1258.350101,1915.238745,8808.450710
1628.832778,-370.102971,842.705048,9178.553681
1628.833104,74.020594,536.266849,9918.759623
1628.833431,-1480.411884,1302.362347,9622.677246
1628.833757,-2072.576638,1685.410096,9252.574275
1628.834083,-1406.391290,1302.362347,9844.739029
1628.834409,-1554.432478,842.705048,9918.759623
1628.834735,-2146.597232,1915.238745,9400.615463
1628.835061,-2294.638420,2987.772442,9400.615463
1628.835387,-2294.638420,3294.210641,9030.512492
1628.835714,-1702.473667,2757.943793,9696.697840
1628.836040,-1406.391290,3064.381992,10436.903782
1628.836366,-3404.947333,4213.525239,9252.574275
1628.836692,-3849.070898,3677.258390,8882.471304
1628.837018,-2886.803174,2528.115143,9696.697840
1628.837344,-3330.926739,2451.505594,9696.697840
1628.837670,-5403.503377,3677.258390,8438.347739
1628.837996,-5033.400406,3677.258390,8956.491898
1628.838323,-4293.194464,3064.381992,9178.553681
1628.838649,-4219.173869,3294.210641,8660.409521
1628.838975,-4589.276840,4290.134789,8364.327145
1628.839301,-3627.009116,5515.887586,7920.203579
1628.839627,-2664.741391,4903.011187,7476.080014
1628.839953,-1850.514855,4596.572988,8734.430116
1628.840279,-2220.617826,4979.620737,8290.306550
1628.840605,-2738.761985,5362.668486,7402.059420
1628.840932,-1554.432478,4136.915689,7920.203579
1628.841258,-666.185348,2451.505594,8660.409521
1628.841584,-1480.411884,3677.258390,8438.347739
1628.841910,-1332.370696,4596.572988,8216.285956
1628.842236,-666.185348,3217.601092,9326.594869
1628.842562,0.000000,2298.286494,9696.697840
1628.842888,74.020594,2221.676944,9918.759623
1628.843214,0.000000,3294.210641,9548.656652
1628.843541,444.123565,2911.162892,9104.533087
1628.843867,1554.432478,1608.800546,9844.739029
1628.844193,1554.432478,1072.533697,10288.862594
1628.844519,888.247130,1762.019645,10214.842000
1628.844845,74.020594,1685.410096,9770.718434
1628.845171,444.123565,229.828649,10807.006753
1628.845497,-1036.288319,-612.876398,11251.130318
1628.845823,-2886.803174,0.000000,10658.965565
1628.846150,-3627.009116,919.314598,10807.006753
1628.846476,-4293.194464,459.657299,11917.315666
1628.846802,-4959.379811,-229.828649,11843.295072
1628.847128,-5625.565159,1378.971896,11473.192101
1628.847454,-5773.606348,2681.334243,10881.027347
1628.847780,-5625.565159,3294.210641,9992.780217
1628.848106,-4145.153275,3600.648841,9400.615463
1628.848433,-4145.153275,4136.915689,7624.121203
1628.848759,-4293.194464,5898.935335,5477.523971
1628.849085,-3034.844362,4749.792088,4367.215058
1628.849411,-962.267725,3370.820191,5329.482782
1628.849737,-1480.411884,3064.381992,5255.462188
1628.850063,-2516.700203,3140.991542,5625.565159
1628.850389,-2294.638420,1838.629195,7328.038826
1628.850715,-2812.782580,-995.924147,9030.512492
1628.851042,-3552.988522,-229.828649,9696.697840
1628.851368,-3478.967927,536.266849,10288.862594
1628.851694,-3108.864956,1762.019645,10584.944971
1628.852020,-1480.411884,2068.457845,11621.233289
1628.852346,-296.082377,3217.601092,11547.212695
1628.852672,-296.082377,5898.935335,9992.780217
1628.852998,1258.350101,5669.106685,7476.080014
1628.853324,3404.947333,4979.620737,7402.059420
1628.853651,2294.638420,4136.915689,7624.121203
1628.853977,592.164754,3830.477490,8216.285956
1628.854303,-1406.391290,2604.724693,10362.883188
1628.854629,-3034.844362,-153.219100,12435.459826
1628.854955,-5625.565159,-3064.381992,13915.871710
1628.855281,-7254.018232,-2987.772442,14508.036463
1628.855607,-7105.977043,-842.705048,15174.221811
1628.855933,-6365.771101,689.485948,14952.160028
1628.856260,-3330.926739,2068.457845,13841.851115
1628.856586,-1480.411884,4673.182538,10362.883188
1628.856912,0.000000,8197.221829,5847.626942
1628.857238,1924.535449,11184.994271,3478.967927
1628.857564,3627.009116,11261.603821,2294.638420
1628.857890,2220.617826,10801.946522,1998.556043
1628.858216,518.144159,8503.660028,2072.576638
1628.858542,-888.247130,5209.449386,3330.926739
1628.858869,-1850.514855,1608.800546,4885.359217
1628.859195,-2664.741391,-1149.143247,7254.018232
1628.859521,-4145.153275,-2068.457845,9622.677246
1628.859847,-4515.256246,-2681.334243,10584.944971
1628.860173,-4071.132681,-1608.800546,12213.398043
1628.860499,-3330.926739,-1225.752797,13323.706956
1628.860825,-4367.215058,1149.143247,13323.706956
1628.861152,-4959.379811,4290.134789,12583.501014
1628.861478,-3627.009116,6052.154434,12805.562797
1628.861804,-2442.679609,7354.516781,12065.356855
1628.862130,-2146.597232,7048.078582,9770.718434
1628.862456,-1998.556043,7737.564530,9030.512492
1628.862782,-2220.617826,7201.297681,9178.553681
1628.863108,-2220.617826,5209.449386,8438.347739
1628.863434,-1776.494261,2451.505594,8438.347739
1628.863761,-2294.638420,-459.657299,7994.224174
1628.864087,-2886.803174,-2145.067394,6291.750507
1628.864413,-1628.453072,-2451.505594,6661.853478
1628.864739,-962.267725,-2604.724693,9696.697840
1628.865065,-2664.741391,-3140.991542,10955.047942
1628.865391,-3182.885551,-3524.039291,11103.089130
1628.865717,-2442.679609,-2451.505594,12731.542202
1628.866043,-3701.029710,995.924147,14211.954086
1628.866370,-4885.359217,5286.058936,12731.542202
1628.866696,-2442.679609,7277.907231,10288.862594
1628.867022,-1406.391290,7967.393179,7994.224174
1628.867348,-1406.391290,9959.241474,6735.874072
1628.867674,518.144159,13023.623466,4293.194464
1628.868000,3997.112087,13406.671215,2146.597232
1628.868326,2886.803174,9499.584175,1776.494261
1628.868652,148.041188,4596.572988,2368.659014
1628.868979,-666.185348,1378.971896,2738.761985
1628.869305,-2590.720797,-1991.848295,6143.709319
1628.869631,-5995.668130,-7354.516781,9844.739029
1628.869957,-8660.409521,-10878.556072,13693.809927
1628.870283,-9992.780217,-10725.336972,17098.757260
1628.870609,-9474.636058,-8273.831378,19837.519246
1628.870935,-5847.626942,-4673.182538,20133.601622
1628.871262,-2442.679609,76.609550,17912.983796
1628.871588,-740.205942,6358.592633,15396.283594
1628.871914,4071.132681,12334.137518,9548.656652
1628.872240,8956.491898,15704.957709,5773.606348
1628.872566,9474.636058,15321.909960,2220.617826
1628.872892,7402.059420,14555.814462,740.205942
1628.873218,4589.276840,12717.185267,2516.700203
1628.873544,0.000000,6971.469032,5329.482782
1628.873871,-6069.688724,-689.485948,8216.285956
1628.874197,-10140.821405,-7201.297681,10362.883188
1628.874523,-10807.006753,-9499.584175,11769.274478
1628.874849,-11251.130318,-8350.440928,11843.295072
1628.875175,-10510.924376,-6205.373534,14063.912898
1628.875501,-7846.182985,-2451.505594,12435.459826
1628.875827,-3108.864956,1915.238745,9252.574275
1628.876153,2738.761985,6281.983084,6069.688724
1628.876480,5847.626942,11031.775171,4589.276840
1628.876806,4367.215058,15321.909960,3849.070898
1628.877132,2590.720797,13713.109414,3849.070898
1628.877458,1184.329507,9346.365076,6587.832884
1628.877784,222.061783,5439.278036,10584.944971
1628.878110,-2590.720797,4060.306139,12361.439231
1628.878436,-4811.338623,1149.143247,11991.336260
1628.878762,-6439.791695,-1838.629195,12879.583391
1628.879089,-4737.318029,-4290.134789,13471.748144
1628.879414,-2516.700203,-2451.505594,11621.233289
1628.879740,-1702.473667,-383.047749,8290.306550
1628.880066,-3478.967927,383.047749,5699.585753
1628.880392,-3034.844362,1608.800546,5995.668130
1628.880718,-1924.535449,2911.162892,9474.636058
1628.881044,-3034.844362,4596.572988,9696.697840
1628.881370,-4293.194464,2374.896044,8956.491898
1628.881696,-4367.215058,1762.019645,11399.171507
1628.882022,-1924.535449,2681.334243,11843.295072
1628.882348,-518.144159,4136.915689,10510.924376
1628.882674,-222.061783,4213.525239,10288.862594
1628.882999,-2072.576638,3907.087040,11029.068536
1628.883325,-1406.391290,4366.744339,9918.759623
1628.883651,814.226536,5975.544884,10066.800811
1628.883977,-148.041188,4136.915689,9548.656652
1628.884303,-3552.988522,995.924147,6883.915261
1628.884629,-4441.235652,689.485948,5107.421000
1628.884955,-814.226536,1915.238745,5033.400406
1628.885281,-1258.350101,1838.629195,7105.977043
1628.885607,-2960.823768,-306.438199,6883.915261
1628.885933,-4367.215058,-459.657299,7994.224174
1628.886259,-4219.173869,995.924147,9918.759623
1628.886584,-5329.482782,2145.067394,11103.089130
1628.886910,-5255.462188,1915.238745,11621.233289
1628.887236,-4515.256246,229.828649,11399.171507
1628.887562,-3849.070898,1991.848295,11325.150913
1628.887888,-1110.308913,3907.087040,10436.903782
1628.888214,1702.473667,4443.353888,8586.388927
1628.888540,1258.350101,4673.182538,9400.615463
1628.888866,1036.288319,4903.011187,10288.862594
1628.889192,2220.617826,6358.592633,10288.862594
1628.889518,2368.659014,5132.839837,9770.718434
1628.889843,-888.247130,1455.581446,9104.533087
1628.890169,-2442.679609,919.314598,7698.141797
1628.890495,-222.061783,919.314598,7105.977043
1628.890821,518.144159,76.609550,9474.636058
1628.891147,-1628.453072,-842.705048,11325.150913
1628.891473,-4959.379811,229.828649,11695.253884
1628.891799,-5181.441594,2298.286494,11251.130318
1628.892125,-3997.112087,3294.210641,11843.295072
1628.892451,-3478.967927,2145.067394,10066.800811
1628.892777,-3034.844362,3064.381992,8068.244768
1628.893103,-222.061783,7354.516781,5551.544565
1628.893428,1850.514855,8503.660028,6439.791695
1628.893754,222.061783,6281.983084,6735.874072
1628.894080,-962.267725,5362.668486,7031.956449
1628.894406,-444.123565,5898.935335,8586.388927
1628.894732,-1258.350101,4903.011187,7624.121203
1628.895058,-3330.926739,919.314598,6291.750507
1628.895384,-1332.370696,-2298.286494,6957.935855
1628.895710,222.061783,-306.438199,8364.327145
1628.896036,-592.164754,919.314598,9474.636058
1628.896362,-4219.173869,-1532.190996,11251.130318
1628.896688,-4293.194464,-2834.553343,11325.150913
1628.897013,-1998.556043,-842.705048,12805.562797
1628.897339,-2146.597232,2604.724693,14952.160028
1628.897665,-2664.741391,2528.115143,11103.089130
1628.897991,370.102971,2221.676944,7846.182985
1628.898317,3552.988522,2451.505594,9844.739029
1628.898643,666.185348,5286.058936,10881.027347
1628.898969,-2442.679609,7354.516781,8586.388927
1628.899295,-518.144159,3907.087040,9178.553681
1628.899621,814.226536,229.828649,9252.574275
1628.899947,-1702.473667,306.438199,8882.471304
1628.900272,-592.164754,1302.362347,6735.874072
1628.900598,-962.267725,842.705048,7476.080014
1628.900924,-3404.947333,-3830.477490,9474.636058
1628.901250,-5921.647536,-5056.230287,10881.027347
1628.901576,-5551.544565,-2604.724693,10732.986159
1628.901902,-4737.318029,-2451.505594,10362.883188
1628.902228,-3849.070898,-3677.258390,9474.636058
1628.902554,518.144159,-1072.533697,8438.347739
1628.902880,1850.514855,4749.792088,8364.327145
1628.903206,0.000000,5132.839837,8142.265362
1628.903532,-2146.597232,2604.724693,6809.894666
1628.903857,1036.288319,1608.800546,7698.141797
1628.904183,2590.720797,3600.648841,8586.388927
1628.904509,2146.597232,4673.182538,6513.812290
1628.904835,4663.297435,1685.410096,5699.585753
1628.905161,6291.750507,-383.047749,10658.965565
1628.905487,3627.009116,-459.657299,13249.686362
1628.905813,74.020594,0.000000,11991.336260
1628.906139,1036.288319,-2757.943793,10436.903782
1628.906465,1998.556043,-4519.963438,11843.295072
1628.906791,148.041188,-2604.724693,11473.192101
1628.907117,1628.453072,0.000000,9104.533087
1628.907442,2812.782580,766.095498,9178.553681
1628.907768,-1554.432478,1685.410096,12731.542202
1628.908094,-3775.050304,1915.238745,9918.759623
1628.908420,-592.164754,2681.334243,6735.874072
1628.908746,370.102971,2987.772442,9252.574275
1628.909072,-592.164754,1685.410096,10658.965565
1628.909398,296.082377,3294.210641,5921.647536
1628.909724,2812.782580,2911.162892,6143.709319
1628.910050,-1184.329507,0.000000,11029.068536
1628.910376,-2738.761985,-2068.457845,7476.080014
1628.910702,-1702.473667,-459.657299,7402.059420
1628.911027,-592.164754,-536.266849,10436.903782
1628.911353,-962.267725,-1072.533697,10140.821405
1628.911679,2368.659014,76.609550,7698.141797
1628.912005,5107.421000,-306.438199,8142.265362
1628.912331,962.267725,2068.457845,9252.574275
1628.912657,-296.082377,3830.477490,7550.100608
1628.912983,1702.473667,4596.572988,9844.739029
1628.913309,1850.514855,4290.134789,10510.924376
1628.913635,-1702.473667,3294.210641,9474.636058
1628.913961,-1850.514855,2681.334243,6365.771101
1628.914286,148.041188,306.438199,7031.956449
1628.914612,-3478.967927,0.000000,12509.480420
1628.914938,-6735.874072,76.609550,11843.295072
1628.915264,-5551.544565,-383.047749,10288.862594
1628.915590,-3552.988522,-3064.381992,11473.192101
1628.915916,-2738.761985,-3753.867940,10436.903782
1628.916242,74.020594,-766.095498,7254.018232
1628.916568,0.000000,1532.190996,9252.574275
1628.916894,-1702.473667,153.219100,10881.027347
1628.917220,-1406.391290,-153.219100,10214.842000
1628.917546,592.164754,-689.485948,9104.533087
1628.917871,-1406.391290,0.000000,9400.615463
1628.918197,-2738.761985,689.485948,8660.409521
1628.918523,3256.906145,0.000000,7920.203579
1628.918849,4441.235652,842.705048,10881.027347
1628.919175,1036.288319,1915.238745,9918.759623
1628.919501,962.267725,4213.525239,9400.615463
1628.919827,5329.482782,2298.286494,7476.080014
1628.920153,5403.503377,1608.800546,8438.347739
1628.920479,4589.276840,2221.676944,7772.162391
1628.920805,6217.729913,3370.820191,4885.359217
1628.921131,5255.462188,3294.210641,8068.244768
1628.921456,2072.576638,-1532.190996,11547.212695
1628.921782,-962.267725,-1608.800546,10807.006753
1628.922108,-740.205942,-689.485948,8956.491898
1628.922434,-1184.329507,-842.705048,12805.562797
1628.922760,-2220.617826,-2757.943793,10955.047942
1628.923086,666.185348,-2528.115143,7624.121203
1628.923412,-444.123565,0.000000,11547.212695
1628.923738,-3775.050304,1302.362347,11621.233289
1628.924064,-4071.132681,2298.286494,7846.182985
1628.924390,-222.061783,842.705048,7920.203579
1628.924715,-1184.329507,229.828649,10510.924376
1628.925041,-1332.370696,2757.943793,7031.956449
1628.925367,3552.988522,2298.286494,4959.379811
1628.925693,2516.700203,306.438199,10807.006753
1628.926019,-2368.659014,-536.266849,11917.315666
1628.926345,-1850.514855,1225.752797,9770.718434
1628.926671,2442.679609,-1072.533697,10807.006753
1628.926997,-296.082377,-2298.286494,14211.954086
1628.927323,-1036.288319,-919.314598,8586.388927
1628.927649,4367.215058,1915.238745,6661.853478
1628.927975,4367.215058,1149.143247,9326.594869
1628.928300,-2368.659014,689.485948,10584.944971
1628.928626,-2442.679609,3447.429741,7772.162391
1628.928952,444.123565,4443.353888,9030.512492
1628.929278,-2146.597232,1302.362347,9770.718434
1628.929604,-2516.700203,-459.657299,7105.977043
1628.929930,-962.267725,0.000000,5329.482782
1628.930256,-2220.617826,-306.438199,9104.533087
1628.930582,-7179.997637,-766.095498,11769.274478
1628.930908,-5921.647536,-1685.410096,10140.821405
1628.931234,-3923.091493,-1608.800546,10362.883188
1628.931560,-3923.091493,-2757.943793,9030.512492
1628.931885,-1924.535449,-1225.752797,6883.915261
1628.932211,4367.215058,0.000000,5921.647536
1628.932537,2738.761985,2221.676944,11325.150913
1628.932863,-1554.432478,2451.505594,10881.027347
1628.933189,1258.350101,1838.629195,8734.430116
1628.933515,3478.967927,689.485948,10658.965565
1628.933841,2960.823768,459.657299,12509.480420
1628.934167,3775.050304,2987.772442,8808.450710
1628.934493,8734.430116,3753.867940,8068.244768
1628.934819,7179.997637,3140.991542,12509.480420
1628.935144,2146.597232,1838.629195,11473.192101
1628.935470,2072.576638,3140.991542,7105.977043
1628.935796,2368.659014,2221.676944,8882.471304
1628.936122,-1332.370696,0.000000,9844.739029
1628.936448,74.020594,76.609550,5625.565159
1628.936774,3627.009116,459.657299,5773.606348
1628.937100,370.102971,0.000000,11399.171507
1628.937426,-5403.503377,-459.657299,9622.677246
1628.937752,-2516.700203,-766.095498,7920.203579
1628.938078,-740.205942,-1532.190996,11621.233289
1628.938404,-3701.029710,-689.485948,10658.965565
1628.938729,-1406.391290,995.924147,6513.812290
1628.939055,5107.421000,842.705048,6291.750507
1628.939381,1702.473667,842.705048,10436.903782
1628.939707,-3849.070898,2834.553343,11251.130318
1628.940033,-592.164754,2911.162892,8364.327145
1628.940359,592.164754,1225.752797,9844.739029
1628.940685,-1184.329507,-1762.019645,10658.965565
1628.941011,-592.164754,0.000000,8216.285956
1628.941337,3701.029710,2528.115143,8068.244768
1628.941663,1702.473667,1685.410096,13323.706956
1628.941989,-3034.844362,-995.924147,13619.789333
1628.942314,-2590.720797,-1225.752797,9252.574275
1628.942640,-1776.494261,0.000000,9696.697840
1628.942966,-1554.432478,-842.705048,10436.903782
1628.943292,74.020594,0.000000,7698.141797
1628.943618,1184.329507,-383.047749,6513.812290
1628.943944,-2516.700203,0.000000,10584.944971
1628.944270,-5181.441594,383.047749,10140.821405
1628.944596,-3775.050304,0.000000,8068.244768
1628.944922,-3701.029710,-1762.019645,9252.574275
1628.945248,-4441.235652,-1149.143247,8364.327145
1628.945573,-1480.411884,1302.362347,6661.853478
1628.945899,3627.009116,1378.971896,7402.059420
1628.946225,0.000000,229.828649,11621.233289
1628.946551,-4441.235652,0.000000,9104.533087
1628.946877,-1036.288319,1302.362347,6957.935855
1628.947203,1702.473667,2145.067394,9400.615463
1628.947529,1110.308913,842.705048,9770.718434
1628.947855,4071.132681,1149.143247,5921.647536
1628.948181,7920.203579,1225.752797,7105.977043
1628.948507,4515.256246,2145.067394,12287.418637
1628.948833,1110.308913,2068.457845,11695.253884
1628.949158,2072.576638,2528.115143,10362.883188
1628.949484,2738.761985,459.657299,11769.274478
1628.949810,1628.453072,-229.828649,11547.212695
1628.950136,3923.091493,1685.410096,8364.327145
1628.950462,5477.523971,2451.505594,9104.533087
1628.950788,74.020594,1225.752797,10807.006753
1628.951114,-2072.576638,536.266849,9326.594869
1628.951440,-1480.411884,1072.533697,9918.759623
1628.951766,-2960.823768,842.705048,11325.150913
1628.952092,-3034.844362,1149.143247,8068.244768
1628.952418,1554.432478,-612.876398,4367.215058
1628.952743,2738.761985,-1225.752797,5699.585753
1628.953069,-2368.659014,1378.971896,10066.800811
1628.953395,-3923.091493,3217.601092,9992.780217
1628.953721,-1258.350101,1532.190996,8660.409521
1628.954047,-1924.535449,-2145.067394,10955.047942
1628.954373,-2368.659014,-1838.629195,9474.636058
1628.954699,2220.617826,2987.772442,4737.318029
1628.955025,5181.441594,3140.991542,7105.977043
1628.955351,1036.288319,153.219100,13175.665768
1628.955677,-2738.761985,1455.581446,10807.006753
1628.956002,-888.247130,3294.210641,9400.615463
1628.956328,-518.144159,689.485948,11177.109724
1628.956654,-1924.535449,-766.095498,8882.471304
1628.956980,1036.288319,612.876398,6957.935855
1628.957306,1554.432478,2145.067394,10658.965565
1628.957632,-4737.318029,536.266849,11473.192101
1628.957958,-6661.853478,-2757.943793,9474.636058
1628.958284,-3701.029710,-4443.353888,10214.842000
1628.958610,-5995.668130,-1915.238745,13989.892304
1628.958936,-6439.791695,-1762.019645,9474.636058
1628.959262,-518.144159,-1685.410096,8142.265362
1628.959587,1554.432478,-2987.772442,10732.986159
1628.959913,-2368.659014,-1915.238745,8734.430116
1628.960239,-2146.597232,3294.210641,5847.626942
1628.960565,1554.432478,4136.915689,7772.162391
1628.960891,370.102971,2834.553343,12065.356855
1628.961217,1258.350101,1455.581446,7328.038826
1628.961543,5773.606348,3370.820191,4515.256246
1628.961869,6069.688724,2374.896044,6735.874072
1628.962195,1998.556043,1072.533697,9770.718434
1628.962521,740.205942,2757.943793,8364.327145
1628.962847,2664.741391,2987.772442,9992.780217
1628.963172,444.123565,689.485948,11917.315666
1628.963498,962.267725,-1532.190996,7031.956449
1628.963824,3701.029710,229.828649,3404.947333
1628.964150,1554.432478,2451.505594,8586.388927
1628.964476,-2294.638420,2451.505594,12731.542202
1628.964802,-1776.494261,1378.971896,8882.471304
1628.965128,148.041188,-612.876398,10732.986159
1628.965454,148.041188,-1532.190996,11991.336260
1628.965780,2220.617826,1762.019645,8882.471304
1628.966106,7920.203579,4979.620737,7328.038826
1628.966431,6661.853478,2911.162892,13101.645173
1628.966757,-370.102971,2145.067394,14211.954086
1628.967083,-296.082377,2068.457845,8882.471304
1628.967409,2220.617826,306.438199,8364.327145
1628.967735,-1110.308913,-1378.971896,10658.965565
1628.968061,-2220.617826,-459.657299,7994.224174
1628.968387,3775.050304,1378.971896,7698.141797
1628.968713,888.247130,-612.876398,11843.295072
1628.969039,-6069.688724,-3830.477490,11103.089130
1628.969365,-4293.194464,-1915.238745,7698.141797
1628.969691,-1406.391290,2834.553343,9178.553681
1628.970016,-2590.720797,2681.334243,11547.212695
1628.970342,222.061783,919.314598,7772.162391
1628.970668,2960.823768,76.609550,5921.647536
1628.970994,592.164754,459.657299,8216.285956
1628.971320,-4441.235652,2221.676944,9474.636058
1628.971646,-3034.844362,2145.067394,8216.285956
1628.971972,-2590.720797,-536.266849,9474.636058
1628.972298,-6365.771101,-1608.800546,10658.965565
1628.972624,-4219.173869,-536.266849,9548.656652
1628.972950,444.123565,-842.705048,7179.997637
1628.973276,-2072.576638,-2374.896044,9104.533087
1628.973601,-6883.915261,-2987.772442,10140.821405
1628.973927,-4071.132681,76.609550,8512.368333
1628.974253,-444.123565,2068.457845,9030.512492
1628.974579,-74.020594,76.609550,12213.398043
1628.974905,444.123565,0.000000,8216.285956
1628.975231,3627.009116,2451.505594,6217.729913
1628.975557,5033.400406,1225.752797,10066.800811
1628.975883,1332.370696,0.000000,11621.233289
1628.976209,74.020594,1302.362347,10214.842000
1628.976535,1332.370696,1838.629195,11103.089130
1628.976860,2072.576638,306.438199,9992.780217
1628.977186,5033.400406,-306.438199,7105.977043
1628.977512,6143.709319,1378.971896,9400.615463
1628.977838,3478.967927,3064.381992,10881.027347
1628.978164,1036.288319,3677.258390,10807.006753
1628.978490,3108.864956,689.485948,9252.574275
1628.978816,1110.308913,0.000000,10436.903782
1628.979142,-2590.720797,1225.752797,7328.038826
1628.979468,518.144159,1838.629195,5033.400406
1628.979794,4145.153275,995.924147,7402.059420
1628.980120,1480.411884,0.000000,11177.109724
1628.980446,-3404.947333,1378.971896,9252.574275
1628.980772,-444.123565,2528.115143,6809.894666
1628.981098,0.000000,1838.629195,9548.656652
1628.981424,-962.267725,-766.095498,9474.636058
1628.981750,962.267725,229.828649,6587.832884
1628.982075,5107.421000,2374.896044,7031.956449
1628.982401,2368.659014,1608.800546,11251.130318
1628.982727,-888.247130,1072.533697,11769.274478
1628.983053,296.082377,1302.362347,10140.821405
1628.983379,666.185348,766.095498,11251.130318
1628.983705,-1110.308913,-383.047749,11991.336260
1628.984031,0.000000,-689.485948,9104.533087
1628.984357,1480.411884,-153.219100,9252.574275
1628.984683,-1702.473667,-766.095498,9696.697840
1628.985009,-4515.256246,-1072.533697,10140.821405
1628.985335,-4737.318029,0.000000,10584.944971
1628.985661,-5033.400406,0.000000,12361.439231
1628.985987,-6957.935855,-1378.971896,11029.068536
1628.986313,-3330.926739,-2834.553343,6735.874072
1628.986639,-1110.308913,-2068.457845,7624.121203
1628.986965,-3108.864956,-536.266849,9548.656652
1628.987291,-4737.318029,3447.429741,8364.327145
1628.987617,-1628.453072,2987.772442,7402.059420
1628.987943,-814.226536,0.000000,9178.553681
1628.988269,-3182.885551,459.657299,7179.997637
1628.988595,74.020594,2681.334243,3849.070898
1628.988921,4811.338623,2451.505594,5699.585753
1628.989247,666.185348,306.438199,10807.006753
1628.989573,-1924.535449,-1302.362347,9474.636058
1628.989899,0.000000,1455.581446,10584.944971
1628.990225,-1702.473667,306.438199,12805.562797
1628.990551,-592.164754,-4290.134789,9326.594869
1628.990877,4811.338623,-2298.286494,8290.306550
1628.991203,8882.471304,1762.019645,10288.862594
1628.991529,2220.617826,5669.106685,12657.521608
1628.991855,1850.514855,4290.134789,9252.574275
1628.992181,4737.318029,612.876398,10436.903782
1628.992507,1554.432478,-919.314598,9622.677246
1628.992833,-518.144159,1685.410096,6735.874072
1628.993159,3701.029710,4673.182538,7105.977043
1628.993485,6069.688724,2298.286494,10436.903782
1628.993811,-148.041188,-919.314598,11917.315666
1628.994137,-2220.617826,-1915.238745,8956.491898
1628.994463,-1406.391290,842.705048,8586.388927
1628.994789,-592.164754,1072.533697,10510.924376
1628.995115,-1036.288319,919.314598,8808.450710
1628.995441,2368.659014,919.314598,4293.194464
1628.995767,1332.370696,1149.143247,7846.182985
1628.996093,-2146.597232,766.095498,8438.347739
1628.996419,-1924.535449,2068.457845,6883.915261
1628.996745,-592.164754,2528.115143,8364.327145
1628.997071,-148.041188,612.876398,11695.253884
1628.997397,296.082377,2068.457845,9474.636058
1628.997723,4367.215058,2834.553343,8290.306550
1628.998049,3330.926739,1455.581446,10510.924376
1628.998375,-888.247130,0.000000,10732.986159
1628.998701,-2442.679609,1302.362347,9400.615463
1628.999027,-296.082377,1608.800546,12435.459826
1628.999353,-3034.844362,-153.219100,12657.521608
1628.999679,-3775.050304,-2528.115143,8882.471304
1629.000005,-740.205942,-3447.429741,8364.327145
1629.000331,-1924.535449,-2528.115143,10066.800811
1629.000657,-6069.688724,0.000000,12065.356855
1629.000983,-4737.318029,-919.314598,9548.656652
1629.001309,-3923.091493,-1685.410096,10955.047942
1629.001635,-4959.379811,-2451.505594,9770.718434
1629.001961,-2368.659014,76.609550,7105.977043
1629.002287,2886.803174,2145.067394,5107.421000
1629.002613,2146.597232,1915.238745,7994.224174
1629.002939,-1776.494261,1455.581446,10288.862594
1629.003265,-370.102971,1532.190996,8512.368333
1629.003591,-1406.391290,1915.238745,9104.533087
1629.003917,-1480.411884,-1838.629195,9400.615463
1629.004243,518.144159,-1608.800546,7698.141797
1629.004569,3997.112087,995.924147,7772.162391
1629.004895,3182.885551,536.266849,10510.924376
1629.005221,0.000000,-995.924147,9770.718434
1629.005547,814.226536,-1072.533697,8882.471304
1629.005873,2516.700203,2528.115143,10214.842000
1629.006199,2738.761985,3753.867940,9178.553681
1629.006525,4145.153275,2451.505594,6661.853478
1629.006851,7920.203579,-153.219100,6957.935855
1629.007177,4441.235652,2298.286494,11991.336260
1629.007503,518.144159,3524.039291,10807.006753
1629.007829,148.041188,2145.067394,10214.842000
1629.008155,962.267725,-1302.362347,11029.068536
1629.008481,-592.164754,-1915.238745,12583.501014
1629.008807,0.000000,1149.143247,7402.059420
1629.009133,3256.906145,1149.143247,5921.647536
1629.009459,-888.247130,-919.314598,11177.109724
1629.009785,-2960.823768,-1225.752797,10140.821405
1629.010111,-1258.350101,3370.820191,9104.533087
1629.010437,-592.164754,1838.629195,9548.656652
1629.010763,-2368.659014,0.000000,9992.780217
1629.011089,74.020594,1072.533697,7179.997637
1629.011415,3997.112087,1991.848295,7624.121203
1629.011741,-296.082377,1532.190996,10066.800811
1629.012067,-4589.276840,153.219100,9252.574275
1629.012393,-444.123565,229.828649,9178.553681
1629.012719,296.082377,1225.752797,10362.883188
1629.013045,-3108.864956,1915.238745,9622.677246
1629.013371,-666.185348,1762.019645,7179.997637
1629.013697,3256.906145,536.266849,6069.688724
1629.014023,-148.041188,995.924147,10732.986159
1629.014349,-3775.050304,1685.410096,10214.842000
1629.014675,-2368.659014,3064.381992,8290.306550
1629.015001,-1702.473667,1072.533697,9326.594869
1629.015327,-4071.132681,-2221.676944,10955.047942
1629.015653,-3849.070898,-153.219100,8142.265362
1629.015979,-1406.391290,-1378.971896,7105.977043
1629.016305,-3034.844362,-3600.648841,11325.150913
1629.016631,-3478.967927,-2528.115143,10955.047942
1629.016957,-2812.782580,766.095498,11399.171507
1629.017283,-2812.782580,1302.362347,11029.068536
1629.017609,-2220.617826,-2604.724693,8808.450710
1629.017935,1776.494261,-3447.429741,6661.853478
1629.018261,5107.421000,1072.533697,8660.409521
1629.018587,2368.659014,5592.497135,10658.965565
1629.018913,2072.576638,4290.134789,9400.615463
1629.019239,4441.235652,229.828649,9326.594869
1629.019564,2664.741391,459.657299,11769.274478
1629.019890,2072.576638,1915.238745,7698.141797
1629.020216,4811.338623,4749.792088,7031.956449
1629.020542,6957.935855,306.438199,7476.080014
1629.020868,1554.432478,-1838.629195,10881.027347
1629.021194,-1184.329507,459.657299,8586.388927
1629.021520,962.267725,2834.553343,9178.553681
1629.021846,-1110.308913,1378.971896,10436.903782
1629.022172,-1258.350101,-2451.505594,7698.141797
1629.022498,1554.432478,76.609550,4737.318029
1629.022824,2960.823768,1608.800546,6957.935855
1629.023150,-1036.288319,1838.629195,11103.089130
1629.023476,-888.247130,1762.019645,10362.883188
1629.023802,148.041188,1991.848295,11177.109724
1629.024128,0.000000,766.095498,10807.006753
1629.024454,814.226536,-383.047749,9400.615463
1629.024780,3775.050304,536.266849,7994.224174
1629.025106,2960.823768,919.314598,10140.821405
1629.025432,-370.102971,689.485948,11103.089130
1629.025758,-740.205942,0.000000,10732.986159
1629.026084,-962.267725,76.609550,11251.130318
1629.026410,-2960.823768,153.219100,12361.439231
1629.026736,-3256.906145,0.000000,9548.656652
1629.027062,1184.329507,-1072.533697,6661.853478
1629.027388,2146.597232,-1225.752797,9178.553681
1629.027714,-2516.700203,383.047749,11399.171507
1629.028040,-5329.482782,2834.553343,9474.636058
1629.028366,-3034.844362,2298.286494,9400.615463
1629.028692,-3627.009116,-1302.362347,10732.986159
1629.029018,-2886.803174,-1762.019645,7698.141797
1629.029344,740.205942,1685.410096,3775.050304
1629.029670,1406.391290,3140.991542,7624.121203
1629.029996,-1924.535449,919.314598,10288.862594
1629.030322,-2664.741391,-612.876398,7402.059420
1629.030648,-1184.329507,-229.828649,7402.059420
1629.030974,-2664.741391,383.047749,10288.862594
1629.031300,-2368.659014,1378.971896,8882.471304
1629.031626,3849.070898,-383.047749,7031.956449
1629.031952,3627.009116,-2068.457845,10288.862594
1629.032278,-1850.514855,-1225.752797,11399.171507
1629.032604,-1924.535449,1455.581446,10436.903782
1629.032930,740.205942,2451.505594,10881.027347
1629.033256,-1036.288319,-995.924147,11177.109724
1629.033582,-444.123565,-1608.800546,9474.636058
1629.033908,4293.194464,1685.410096,7254.018232
1629.034234,5181.441594,3830.477490,9696.697840
1629.034560,962.267725,2298.286494,10807.006753
1629.034886,0.000000,1608.800546,9770.718434
1629.035212,2368.659014,2834.553343,10214.842000
1629.035538,1924.535449,3064.381992,11621.233289
1629.035864,1850.514855,1915.238745,9326.594869
1629.036190,4663.297435,919.314598,5625.565159
1629.036516,4145.153275,383.047749,8290.306550
1629.036842,888.247130,766.095498,10955.047942
1629.037168,-740.205942,2604.724693,9030.512492
1629.037494,0.000000,2604.724693,7476.080014
1629.037820,-1998.556043,995.924147,10066.800811
1629.038146,-1554.432478,229.828649,7031.956449
1629.038472,1850.514855,919.314598,5699.585753
1629.038798,222.061783,1149.143247,9622.677246
1629.039124,-3849.070898,0.000000,10732.986159
1629.039450,-2516.700203,1225.752797,8586.388927
1629.039776,592.164754,2987.772442,8808.450710
1629.040102,-1776.494261,2068.457845,10436.903782
1629.040428,-2664.741391,689.485948,7179.997637
1629.040754,2368.659014,-306.438199,5107.421000
1629.041080,2590.720797,0.000000,10732.986159
1629.041406,-3404.947333,612.876398,12583.501014
1629.041732,-3923.091493,0.000000,8882.471304
1629.042058,-1036.288319,-1608.800546,10510.924376
1629.042384,-5255.462188,-2451.505594,15766.386565
1629.042710,-5773.606348,-1991.848295,11251.130318
1629.043036,888.247130,-1378.971896,8068.244768
1629.043362,3627.009116,-3370.820191,9548.656652
1629.043688,-740.205942,-1915.238745,13175.665768
1629.044014,-2812.782580,3677.258390,9474.636058
1629.044340,-518.144159,5745.716235,10658.965565
1629.044666,-1332.370696,0.000000,11399.171507
1629.044992,370.102971,-4366.744339,5403.503377
1629.045318,3256.906145,76.609550,2812.782580
1629.045644,2220.617826,2911.162892,7105.977043
1629.045970,-3330.926739,2911.162892,11177.109724
1629.046296,-1702.473667,-1378.971896,8586.388927
1629.046622,74.020594,-3064.381992,9326.594869
1629.046948,-2886.803174,-1532.190996,9030.512492
1629.047274,444.123565,536.266849,4441.235652
1629.047600,5995.668130,2604.724693,6217.729913
1629.047926,5995.668130,153.219100,12065.356855
1629.048252,-370.102971,612.876398,12213.398043
1629.048578,0.000000,3140.991542,8290.306550
1629.048904,3182.885551,2757.943793,10732.986159
1629.049230,-148.041188,1225.752797,10584.944971
1629.049556,666.185348,689.485948,6069.688724
1629.049882,4145.153275,1608.800546,7328.038826
1629.050208,2886.803174,995.924147,11843.295072
1629.050534,-1110.308913,1915.238745,12065.356855
1629.050860,296.082377,2298.286494,9326.594869
1629.051186,592.164754,1225.752797,9030.512492
1629.051512,-2368.659014,1225.752797,10510.924376
1629.051838,2146.597232,1072.533697,7328.038826
1629.052164,5033.400406,1225.752797,8438.347739
1629.052490,444.123565,0.000000,10955.047942
1629.052816,-4145.153275,-842.705048,10362.883188
1629.053142,-1702.473667,1838.629195,9696.697840
1629.053468,-666.185348,2298.286494,12583.501014
1629.053794,-2812.782580,1455.581446,10658.965565
1629.054120,1110.308913,919.314598,6217.729913
1629.054446,4589.276840,766.095498,6439.791695
1629.054772,1406.391290,2528.115143,10140.821405
1629.055098,-2812.782580,3983.696590,9474.636058
1629.055424,-2146.597232,3753.867940,8290.306550
1629.055750,-1332.370696,306.438199,9474.636058
1629.056076,-3404.947333,-1685.410096,9104.533087
1629.056402,-2294.638420,229.828649,6513.812290
1629.056727,0.000000,0.000000,7328.038826
1629.057053,-3034.844362,-2221.676944,11325.150913
1629.057379,-4885.359217,-3907.087040,11251.130318
1629.057705,-5033.400406,-766.095498,10955.047942
1629.058031,-4737.318029,76.609550,10807.006753
1629.058357,-3256.906145,-1455.581446,9030.512492
1629.058683,0.000000,-2221.676944,5477.523971
1629.059009,2220.617826,76.609550,7698.141797
1629.059335,222.061783,2681.334243,10362.883188
1629.059661,814.226536,2451.505594,8438.347739
1629.059987,1406.391290,995.924147,11325.150913
1629.060313,74.020594,-459.657299,13249.686362
1629.060639,-444.123565,1455.581446,9474.636058
1629.060965,5551.544565,1302.362347,6365.771101
1629.061291,7105.977043,-2068.457845,9844.739029
1629.061617,1332.370696,-1225.752797,12509.480420
1629.061943,740.205942,1455.581446,8586.388927
1629.062269,2664.741391,3370.820191,10362.883188
1629.062595,1702.473667,-306.438199,10214.842000
1629.062921,148.041188,0.000000,7550.100608
1629.063247,4145.153275,1608.800546,4293.194464
1629.063573,4885.359217,2374.896044,7920.203579
1629.063899,444.123565,459.657299,9844.739029
1629.064225,-1110.308913,-1225.752797,8068.244768
1629.064551,-2368.659014,612.876398,8364.327145
1629.064877,-3108.864956,76.609550,10955.047942
1629.065203,-1850.514855,-919.314598,10732.986159
1629.065529,2294.638420,-2374.896044,7698.141797
1629.065855,1332.370696,-1149.143247,9326.594869
1629.066181,-1036.288319,0.000000,9770.718434
1629.066507,0.000000,1608.800546,7846.182985
1629.066833,296.082377,1455.581446,10140.821405
1629.067159,-1406.391290,0.000000,11843.295072
1629.067485,-3256.906145,2145.067394,10362.883188
1629.067811,2220.617826,842.705048,6587.832884
1629.068137,4663.297435,-689.485948,10732.986159
1629.068463,888.247130,-1302.362347,10955.047942
1629.068789,-1924.535449,2451.505594,10288.862594
1629.069115,-518.144159,4136.915689,12953.603985
1629.069441,-814.226536,1915.238745,14730.098246
1629.069767,-2442.679609,-1608.800546,9474.636058
1629.070093,518.144159,-995.924147,3404.947333
1629.070419,1258.350101,1378.971896,6069.688724
1629.070745,-1998.556043,3983.696590,10732.986159
1629.071071,-2368.659014,4060.306139,9030.512492
1629.071397,-3034.844362,2145.067394,9474.636058
1629.071723,-6439.791695,-995.924147,8956.491898
1629.072049,-6143.709319,-1532.190996,4145.153275
1629.072375,-2220.617826,459.657299,3849.070898
1629.072701,-888.247130,153.219100,8216.285956
1629.073027,-5921.647536,766.095498,12657.521608
1629.073353,-3997.112087,-76.609550,9770.718434
1629.073679,-2146.597232,-1072.533697,9696.697840
1629.074005,-4811.338623,-1991.848295,8734.430116
1629.074331,-4145.153275,689.485948,7179.997637
1629.074657,3256.906145,2757.943793,5107.421000
1629.074983,6069.688724,2911.162892,11399.171507
1629.075309,3182.885551,919.314598,11991.336260
1629.075635,3478.967927,2604.724693,9474.636058
1629.075961,5551.544565,5745.716235,9844.739029
1629.076287,6069.688724,4443.353888,13323.706956
1629.076613,5625.565159,2451.505594,10807.006753
1629.076939,7846.182985,1838.629195,7179.997637
1629.077265,6809.894666,2068.457845,11843.295072
1629.077591,2368.659014,459.657299,12065.356855
1629.077917,-666.185348,1149.143247,9178.553681
1629.078243,-296.082377,229.828649,9696.697840
1629.078569,-2960.823768,153.219100,11695.253884
1629.078895,-2516.700203,612.876398,6809.894666
1629.079221,1480.411884,-689.485948,4737.318029
1629.079547,74.020594,-689.485948,7846.182985
1629.079873,-3182.885551,0.000000,7402.059420
1629.080199,-2220.617826,1915.238745,5995.668130
1629.080525,518.144159,1762.019645,9992.780217
1629.080851,-1850.514855,689.485948,12213.398043
1629.081177,-518.144159,306.438199,6809.894666
1629.081503,3404.947333,-1149.143247,5033.400406
1629.081829,3330.926739,-3064.381992,9178.553681
1629.082155,-1850.514855,-459.657299,10955.047942
1629.082481,666.185348,1685.410096,9548.656652
1629.082807,1036.288319,766.095498,12509.480420
1629.083134,-2590.720797,-1608.800546,12139.377449
1629.083460,-740.205942,-842.705048,8438.347739
1629.083786,2590.720797,229.828649,6217.729913
1629.084112,-888.247130,76.609550,10510.924376
1629.084438,-4515.256246,-1149.143247,12509.480420
1629.084764,-2442.679609,-766.095498,10436.903782
1629.085090,-3775.050304,-612.876398,11103.089130
1629.085416,-5847.626942,-2987.772442,10955.047942
1629.085743,-3552.988522,-1685.410096,7105.977043
1629.086069,740.205942,-1072.533697,6957.935855
1629.086395,-518.144159,-2221.676944,10881.027347
1629.086721,-3627.009116,-1838.629195,10881.027347
1629.087047,-1480.411884,-1225.752797,8808.450710
1629.087373,-592.164754,536.266849,10732.986159
1629.087699,-518.144159,612.876398,9918.759623
1629.088025,1924.535449,689.485948,6809.894666
1629.088352,5477.523971,0.000000,7994.224174
1629.088678,3923.091493,153.219100,11843.295072
1629.089004,-148.041188,2221.676944,10881.027347
1629.089330,-222.061783,2374.896044,8438.347739
1629.089656,-370.102971,459.657299,10066.800811
1629.089982,-2368.659014,0.000000,9992.780217
1629.090308,148.041188,536.266849,6291.750507
1629.090634,3034.844362,1532.190996,6513.812290
1629.090961,592.164754,0.000000,9030.512492
1629.091287,-1332.370696,1762.019645,8882.471304
1629.091613,1924.535449,3983.696590,8142.265362
1629.091939,2072.576638,4213.525239,10881.027347
1629.092265,518.144159,2298.286494,10214.842000
1629.092591,4885.359217,2068.457845,6661.853478
1629.092917,8142.265362,4826.401637,7402.059420
1629.093244,5625.565159,4060.306139,10214.842000
1629.093570,2886.803174,3830.477490,10066.800811
1629.093896,4219.173869,3677.258390,10807.006753
1629.094222,888.247130,4519.963438,13175.665768
1629.094548,-1998.556043,4366.744339,10732.986159
1629.094874,1184.329507,2604.724693,5329.482782
1629.095200,3034.844362,-612.876398,3849.070898
1629.095526,-3627.009116,0.000000,9548.656652
1629.095853,-6513.812290,2911.162892,11251.130318
1629.096179,-5551.544565,3294.210641,9770.718434
1629.096505,-5699.585753,-1838.629195,11251.130318
1629.096831,-6735.874072,-4979.620737,9178.553681
1629.097157,-4367.215058,-536.266849,4589.276840
1629.097483,296.082377,2221.676944,4663.297435
1629.097809,-1554.432478,-229.828649,10362.883188
1629.098135,-3997.112087,-2298.286494,11029.068536
1629.098462,-1924.535449,76.609550,9474.636058
1629.098788,-1850.514855,2911.162892,11769.274478
1629.099114,-1850.514855,459.657299,11251.130318
1629.099440,1480.411884,-2068.457845,7254.018232
1629.099766,4663.297435,-1991.848295,9326.594869
1629.100092,888.247130,0.000000,11917.315666
1629.100418,-1702.473667,459.657299,8364.327145
1629.100744,-1184.329507,383.047749,10658.965565
1629.101071,-1332.370696,-1762.019645,12287.418637
1629.101397,-3404.947333,-766.095498,9326.594869
1629.101723,518.144159,-459.657299,6217.729913
1629.102049,2368.659014,-3524.039291,7550.100608
1629.102375,-1924.535449,-2374.896044,10436.903782
1629.102701,-3108.864956,-76.609550,8142.265362
1629.103027,-1258.350101,-459.657299,9918.759623
1629.103353,-1998.556043,-2451.505594,10584.944971
1629.103680,-740.205942,-3140.991542,9474.636058
1629.104006,4737.318029,0.000000,8068.244768
1629.104332,6957.935855,2374.896044,8956.491898
1629.104658,3775.050304,459.657299,10881.027347
1629.104984,3256.906145,0.000000,9548.656652
1629.105310,3478.967927,2451.505594,9696.697840
1629.105636,1776.494261,2451.505594,11399.171507
1629.105962,2886.803174,536.266849,9622.677246
1629.106289,5329.482782,919.314598,8142.265362
1629.106615,3552.988522,229.828649,9918.759623
1629.106941,296.082377,76.609550,9918.759623
1629.107267,518.144159,229.828649,7920.203579
1629.107593,-296.082377,1532.190996,9622.677246
1629.107919,-2368.659014,1838.629195,10955.047942
1629.108245,-1110.308913,1762.019645,6513.812290
1629.108571,3478.967927,1225.752797,6143.709319
1629.108898,3034.844362,1225.752797,8956.491898
1629.109224,-814.226536,2145.067394,9326.594869
1629.109550,-1110.308913,4060.306139,6957.935855
1629.109876,518.144159,3370.820191,9844.739029
1629.110202,-1480.411884,1608.800546,12435.459826
1629.110528,-962.267725,1455.581446,7402.059420
1629.110854,1924.535449,2604.724693,6513.812290
1629.111180,1924.535449,1991.848295,9548.656652
1629.111507,-1850.514855,1915.238745,12139.377449
1629.111833,-1702.473667,2528.115143,9400.615463
1629.112159,-2146.597232,1762.019645,10214.842000
1629.112485,-5773.606348,306.438199,9918.759623
1629.112811,-5033.400406,919.314598,7772.162391
1629.113137,-666.185348,1149.143247,6883.915261
1629.113463,-2368.659014,-229.828649,9992.780217
1629.113789,-7179.997637,-1915.238745,9474.636058
1629.114116,-5181.441594,-1225.752797,8216.285956
1629.114442,-4811.338623,1072.533697,10881.027347
1629.114768,-5995.668130,1225.752797,10955.047942
1629.115094,-2886.803174,306.438199,6587.832884
1629.115420,1776.494261,-1532.190996,6587.832884
1629.115746,444.123565,-766.095498,10066.800811
1629.116072,-592.164754,2834.553343,10658.965565
1629.116398,1850.514855,2834.553343,9474.636058
1629.116725,2738.761985,689.485948,10140.821405
1629.117051,2146.597232,-1302.362347,10140.821405
1629.117377,3775.050304,1838.629195,7994.224174
1629.117703,6143.709319,3370.820191,7698.141797
1629.118029,4367.215058,612.876398,10955.047942
1629.118355,2368.659014,-2374.896044,11325.150913
1629.118681,2442.679609,-1072.533697,9326.594869
1629.119007,370.102971,2604.724693,11103.089130
1629.119334,-888.247130,842.705048,10510.924376
1629.119660,666.185348,-1532.190996,6365.771101
1629.119986,3478.967927,-1302.362347,6439.791695
1629.120312,666.185348,612.876398,10584.944971
1629.120638,-1554.432478,919.314598,7179.997637
1629.120964,888.247130,0.000000,8142.265362
1629.121290,74.020594,-1225.752797,13915.871710
1629.121616,-2368.659014,995.924147,12287.418637
1629.121943,1554.432478,1991.848295,6217.729913
1629.122269,7105.977043,-2681.334243,6883.915261
1629.122595,2442.679609,-3217.601092,10214.842000
1629.122921,-740.205942,1149.143247,8882.471304
1629.123247,2886.803174,5132.839837,10362.883188
1629.123573,2738.761985,2145.067394,12139.377449
1629.123899,-2146.597232,-1302.362347,11621.233289
1629.124225,888.247130,-306.438199,5403.503377
1629.124552,3775.050304,3064.381992,6365.771101
1629.124878,0.000000,2451.505594,10214.842000
1629.125204,-2294.638420,153.219100,9992.780217
1629.125530,-2590.720797,1072.533697,8216.285956
1629.125856,-5551.544565,2298.286494,9622.677246
1629.126182,-7328.038826,1915.238745,9252.574275
1629.126508,-2812.782580,-536.266849,4885.359217
1629.126834,-1554.432478,-1608.800546,6217.729913
1629.127161,-5181.441594,-919.314598,10584.944971
1629.127487,-6587.832884,1532.190996,10288.862594
1629.127813,-3775.050304,1915.238745,10288.862594
1629.128139,-4589.276840,-2298.286494,12361.439231
1629.128465,-5181.441594,-2451.505594,10140.821405
1629.128791,-1036.288319,459.657299,6291.750507
1629.129117,2294.638420,1915.238745,9326.594869
1629.129443,1110.308913,766.095498,12805.562797
1629.129770,0.000000,459.657299,10436.903782
1629.130096,814.226536,2221.676944,8364.327145
1629.130422,888.247130,1225.752797,10510.924376
1629.130748,222.061783,1608.800546,10066.800811
1629.131074,3404.947333,2068.457845,5921.647536
1629.131400,5033.400406,1302.362347,7624.121203
1629.131726,3108.864956,0.000000,9400.615463
1629.132052,1184.329507,1608.800546,8290.306550
1629.132379,1628.453072,3524.039291,9400.615463
1629.132705,222.061783,2451.505594,10658.965565
1629.133031,0.000000,1455.581446,8882.471304
1629.133357,5255.462188,919.314598,6069.688724
1629.133683,5255.462188,766.095498,7698.141797
1629.134009,1628.453072,1455.581446,7550.100608
1629.134335,518.144159,1838.629195,8438.347739
1629.134661,1702.473667,1838.629195,11177.109724
1629.134988,-888.247130,2298.286494,12139.377449
1629.135314,-740.205942,-153.219100,8364.327145
1629.135640,2738.761985,-1532.190996,5625.565159
1629.135966,2886.803174,-766.095498,7105.977043
1629.136292,814.226536,1302.362347,9918.759623
1629.136618,740.205942,3677.258390,10881.027347
1629.136944,2368.659014,2987.772442,11029.068536
1629.137271,0.000000,919.314598,12361.439231
1629.137597,666.185348,-612.876398,8808.450710
1629.137923,2886.803174,0.000000,5699.585753
1629.138249,2294.638420,0.000000,8438.347739
1629.138575,0.000000,-383.047749,11621.233289
1629.138901,-1184.329507,153.219100,11473.192101
1629.139227,-1036.288319,-612.876398,9252.574275
1629.139553,-3552.988522,-1915.238745,11473.192101
1629.139880,-4589.276840,-1302.362347,9326.594869
1629.140206,-1184.329507,-153.219100,6513.812290
1629.140532,1406.391290,-1149.143247,8142.265362
1629.140858,-3256.906145,-1915.238745,10732.986159
1629.141184,-5329.482782,-689.485948,8734.430116
1629.141510,-3923.091493,1455.581446,11251.130318
1629.141836,-4811.338623,306.438199,10510.924376
1629.142162,-7105.977043,-2681.334243,7624.121203
1629.142489,-3034.844362,-3753.867940,6143.709319
1629.142815,0.000000,-1378.971896,9474.636058
1629.143141,-4293.194464,1302.362347,11843.295072
1629.143467,-4811.338623,-842.705048,9104.533087
1629.143793,-1258.350101,-2451.505594,9252.574275
1629.144119,-592.164754,-842.705048,11325.150913
1629.144445,-370.102971,2298.286494,9918.759623
1629.144771,4293.194464,3447.429741,7254.018232
1629.145098,5033.400406,459.657299,8586.388927
1629.145424,2220.617826,229.828649,11991.336260
1629.145750,1776.494261,2911.162892,10066.800811
1629.146076,2072.576638,5209.449386,7846.182985
1629.146402,1628.453072,1608.800546,11251.130318
1629.146728,2294.638420,306.438199,10510.924376
1629.147054,4737.318029,2451.505594,7328.038826
1629.147380,3923.091493,3140.991542,7476.080014
1629.147707,-592.164754,842.705048,9178.553681
1629.148033,-962.267725,383.047749,8734.430116
1629.148359,962.267725,2298.286494,7698.141797
1629.148685,-222.061783,4519.963438,10362.883188
1629.149011,-1184.329507,2528.115143,8364.327145
1629.149337,3552.988522,0.000000,3034.844362
1629.149663,3701.029710,1608.800546,7772.162391
1629.149989,0.000000,1608.800546,10362.883188
1629.150316,-2294.638420,3983.696590,8068.244768
1629.150642,444.123565,3753.867940,9474.636058
1629.150968,-148.041188,612.876398,12879.583391
1629.151294,-1924.535449,2145.067394,9030.512492
1629.151620,2812.782580,1762.019645,3849.070898
1629.151946,4293.194464,1302.362347,9178.553681
1629.152272,740.205942,1991.848295,11473.192101
1629.152598,148.041188,4903.011187,10658.965565
1629.152925,2738.761985,5975.544884,10881.027347
1629.153251,0.000000,1685.410096,10584.944971
1629.153577,-1036.288319,-1762.019645,7105.977043
1629.153903,2442.679609,-1149.143247,5477.523971
1629.154229,0.000000,1685.410096,10362.883188
1629.154555,-5181.441594,0.000000,12953.603985
1629.154881,-4515.256246,-3677.258390,11621.233289
1629.155207,-5255.462188,-3447.429741,13175.665768
1629.155534,-8216.285956,-3983.696590,11843.295072
1629.155860,-5699.585753,-3140.991542,6661.853478
1629.156186,-148.041188,-2834.553343,6661.853478
1629.156512,-1036.288319,-2145.067394,10732.986159
1629.156838,-4663.297435,995.924147,10288.862594
1629.157164,-2442.679609,1762.019645,7031.956449
1629.157490,-1406.391290,-459.657299,7105.977043
1629.157816,-2812.782580,-1762.019645,9326.594869
1629.158143,-814.226536,536.266849,6809.894666
1629.158469,2960.823768,1225.752797,7105.977043
1629.158795,1110.308913,-2528.115143,11917.315666
1629.159121,-2516.700203,-4903.011187,12065.356855
1629.159447,-1406.391290,-2068.457845,8586.388927
1629.159773,0.000000,1302.362347,9104.533087
1629.160099,666.185348,612.876398,11547.212695
1629.160425,4441.235652,153.219100,8438.347739
1629.160752,7328.038826,1149.143247,7402.059420
1629.161078,4737.318029,2528.115143,10732.986159
1629.161404,2072.576638,2451.505594,8956.491898
1629.161730,3330.926739,3217.601092,8438.347739
1629.162056,4367.215058,2834.553343,11325.150913
1629.162382,2294.638420,1915.238745,10362.883188
1629.162708,2294.638420,766.095498,5477.523971
1629.163034,4737.318029,-766.095498,6735.874072
1629.163361,888.247130,0.000000,11843.295072
1629.163687,-2812.782580,2068.457845,9770.718434
1629.164013,-444.123565,1302.362347,8290.306550
1629.164339,-888.247130,-842.705048,11769.274478
1629.164665,-2590.720797,-919.314598,10807.006753
1629.164991,74.020594,1915.238745,6069.688724
1629.165317,3182.885551,2451.505594,5625.565159
1629.165643,1406.391290,612.876398,9770.718434
1629.165970,148.041188,2145.067394,10436.903782
1629.166296,1184.329507,5822.325785,10436.903782
1629.166622,-296.082377,6358.592633,11843.295072
1629.166948,0.000000,1915.238745,8734.430116
1629.167274,2738.761985,689.485948,5773.606348
1629.167600,3108.864956,1685.410096,5699.585753
1629.167926,-2294.638420,3907.087040,9992.780217
1629.168252,-3849.070898,2987.772442,11399.171507
1629.168579,-1850.514855,-306.438199,10658.965565
1629.168905,-3256.906145,-1225.752797,10881.027347
1629.169231,-6365.771101,766.095498,9548.656652
1629.169557,-2738.761985,1072.533697,5255.462188
1629.169883,814.226536,-1608.800546,6513.812290
1629.170209,-2516.700203,-2987.772442,11695.253884
1629.170535,-5773.606348,76.609550,10732.986159
1629.170861,-3997.112087,4443.353888,10214.842000
1629.171188,-1332.370696,1378.971896,10807.006753
1629.171514,-3627.009116,-3217.601092,10732.986159
1629.171840,-1702.473667,-4519.963438,3552.988522
1629.172166,0.000000,306.438199,7105.977043
1629.172492,-1628.453072,2298.286494,11917.315666
1629.172818,-1702.473667,-1149.143247,10732.986159
1629.173144,0.000000,-1915.238745,10140.821405
1629.173470,-296.082377,-995.924147,12213.398043
1629.173797,-740.205942,1149.143247,10140.821405
1629.174123,5329.482782,919.314598,5107.421000
1629.174449,7328.038826,-1378.971896,8068.244768
1629.174775,3034.844362,-153.219100,10732.986159
1629.175101,888.247130,4136.915689,9696.697840
1629.175427,3997.112087,3677.258390,9696.697840
1629.175753,1628.453072,919.314598,11695.253884
1629.176079,222.061783,-1072.533697,7772.162391
1629.176406,3256.906145,229.828649,5329.482782
1629.176732,4885.359217,2451.505594,7550.100608
1629.177058,-740.205942,689.485948,11473.192101
1629.177384,-2590.720797,153.219100,9252.574275
1629.177710,444.123565,306.438199,7846.182985
1629.178036,-740.205942,1302.362347,10066.800811
1629.178362,-296.082377,995.924147,9104.533087
1629.178688,3256.906145,1762.019645,6143.709319
1629.179015,4071.132681,0.000000,7846.182985
1629.179341,518.144159,-1149.143247,11399.171507
1629.179667,-444.123565,1378.971896,10288.862594
1629.179993,0.000000,2987.772442,10140.821405
1629.180319,-814.226536,383.047749,10510.924376
1629.180645,-666.185348,-1915.238745,9696.697840
1629.180971,1924.535449,766.095498,8142.265362
1629.181298,2516.700203,1685.410096,9770.718434
1629.181624,-888.247130,1608.800546,10807.006753
1629.181950,-1924.535449,0.000000,9178.553681
1629.182276,-1110.308913,766.095498,10658.965565
1629.182602,-1628.453072,1532.190996,11399.171507
1629.182928,-2368.659014,1532.190996,10658.965565
1629.183254,444.123565,-459.657299,5847.626942
1629.183580,-148.041188,-2604.724693,6143.709319
1629.183907,-4441.235652,-1991.848295,8438.347739
1629.184233,-5033.400406,1225.752797,9474.636058
1629.184559,-3849.070898,3217.601092,12139.377449
1629.184885,-4293.194464,-306.438199,13175.665768
1629.185211,-3997.112087,-3140.991542,8068.244768
1629.185537,-370.102971,-2451.505594,4293.194464
1629.185863,74.020594,-383.047749,6513.812290
1629.186189,-3478.967927,1225.752797,10955.047942
1629.186516,-2072.576638,1302.362347,10066.800811
1629.186842,-444.123565,1838.629195,11843.295072
1629.187168,-962.267725,1378.971896,12287.418637
1629.187494,444.123565,995.924147,7476.080014
1629.187820,4737.318029,-459.657299,3849.070898
1629.188146,3849.070898,229.828649,9918.759623
1629.188472,1406.391290,1302.362347,13027.624579
1629.188798,2738.761985,4060.306139,11029.068536
1629.189125,3923.091493,3140.991542,11695.253884
1629.189451,1924.535449,383.047749,10955.047942
1629.189777,962.267725,2221.676944,6957.935855
1629.190103,6291.750507,1991.848295,2664.741391
1629.190429,6439.791695,1915.238745,9474.636058
1629.190755,592.164754,1915.238745,10510.924376
1629.191081,-2368.659014,3753.867940,8660.409521
1629.191408,-1184.329507,2911.162892,9474.636058
1629.191734,-2960.823768,-919.314598,10510.924376
1629.192060,-2664.741391,-1762.019645,7328.038826
1629.192386,1406.391290,-919.314598,3478.967927
1629.192712,1184.329507,383.047749,8364.327145
1629.193038,-1110.308913,229.828649,9770.718434
1629.193364,-444.123565,2757.943793,9326.594869
1629.193690,962.267725,3140.991542,9992.780217
1629.194017,0.000000,766.095498,9622.677246
1629.194343,2220.617826,689.485948,7550.100608
1629.194669,6883.915261,995.924147,9326.594869
1629.194995,3627.009116,1685.410096,12509.480420
1629.195321,-74.020594,0.000000,11103.089130
1629.195647,444.123565,-1991.848295,9326.594869
1629.195973,-962.267725,-766.095498,12213.398043
1629.196300,-3330.926739,995.924147,13323.706956
1629.196626,-888.247130,1455.581446,9622.677246
1629.196952,1110.308913,-2068.457845,7920.203579
1629.197278,-3552.988522,-4136.915689,10140.821405
1629.197604,-6809.894666,-2145.067394,7846.182985
1629.197930,-3997.112087,1072.533697,7254.018232
1629.198256,-3478.967927,842.705048,11029.068536
1629.198582,-5847.626942,-1302.362347,12435.459826
1629.198909,-3701.029710,-459.657299,7179.997637
1629.199235,296.082377,-1302.362347,4811.338623
1629.199561,-2146.597232,-2987.772442,7698.141797
1629.199887,-3923.091493,-2298.286494,9400.615463
1629.200213,-1332.370696,536.266849,7994.224174
1629.200539,0.000000,2987.772442,11843.295072
1629.200865,-888.247130,229.828649,11399.171507
1629.201191,740.205942,-1838.629195,5699.585753
1629.201518,4737.318029,-689.485948,6217.729913
1629.201844,2590.720797,1455.581446,10658.965565
1629.202170,148.041188,4213.525239,9844.739029
1629.202496,3923.091493,3294.210641,9992.780217
1629.202822,3108.864956,1762.019645,11769.274478
1629.203148,0.000000,1149.143247,9474.636058
1629.203474,1850.514855,2221.676944,5551.544565
1629.203801,7105.977043,1455.581446,7624.121203
1629.204127,2368.659014,1455.581446,13101.645173
1629.204453,-814.226536,2221.676944,11843.295072
1629.204779,222.061783,1838.629195,9622.677246
1629.205105,-1406.391290,-612.876398,10732.986159
1629.205431,-3034.844362,-2451.505594,9326.594869
1629.205757,518.144159,1455.581446,5551.544565
1629.206083,3849.070898,4060.306139,6365.771101
1629.206410,1702.473667,1149.143247,10658.965565
1629.206736,-222.061783,1762.019645,10288.862594
1629.207062,888.247130,3524.039291,8364.327145
1629.207388,-1110.308913,3447.429741,9474.636058
1629.207714,-666.185348,842.705048,6735.874072
1629.208040,3775.050304,-689.485948,4663.297435
1629.208366,3627.009116,2528.115143,10288.862594
1629.208692,-296.082377,2528.115143,10732.986159
1629.209019,-2220.617826,1762.019645,9030.512492
1629.209345,0.000000,-612.876398,8734.430116
1629.209671,-1924.535449,-229.828649,12065.356855
1629.209997,-2886.803174,2451.505594,9770.718434
1629.210323,1554.432478,2374.896044,6365.771101
1629.210649,3256.906145,-612.876398,8882.471304
1629.210975,-148.041188,-2987.772442,11177.109724
1629.211302,-4071.132681,1225.752797,9474.636058
1629.211628,-2738.761985,2681.334243,9252.574275
1629.211954,-2220.617826,-2068.457845,11991.336260
1629.212280,-3997.112087,-4213.525239,11621.233289
1629.212606,-1850.514855,-2298.286494,7772.162391
1629.212932,-1702.473667,766.095498,8068.244768
1629.213258,-2738.761985,-2681.334243,11843.295072
1629.213584,-3775.050304,-4979.620737,11177.109724
1629.213911,-3997.112087,-2145.067394,10955.047942
1629.214237,-3034.844362,229.828649,11917.315666
1629.214563,-888.247130,536.266849,8956.491898
1629.214889,3404.947333,-919.314598,5329.482782
1629.215215,2516.700203,-995.924147,7476.080014
1629.215541,148.041188,1455.581446,7698.141797
1629.215867,1110.308913,2757.943793,8512.368333
1629.216193,1406.391290,766.095498,11695.253884
1629.216520,-666.185348,-612.876398,11547.212695
1629.216846,74.020594,536.266849,7476.080014
1629.217172,5255.462188,0.000000,4959.379811
1629.217498,4515.256246,612.876398,9474.636058
1629.217824,2442.679609,229.828649,11325.150913
1629.218150,1110.308913,3830.477490,9696.697840
1629.218476,1776.494261,3753.867940,8734.430116
1629.218803,888.247130,995.924147,9844.739029
1629.219129,888.247130,612.876398,7920.203579
1629.219455,2812.782580,2757.943793,7328.038826
1629.219781,1702.473667,2298.286494,9400.615463
1629.220107,-592.164754,-612.876398,10807.006753
1629.220433,-2294.638420,-612.876398,10362.883188
1629.220759,-2072.576638,2528.115143,10584.944971
1629.221085,-2516.700203,2757.943793,10066.800811
1629.221412,-1036.288319,842.705048,7920.203579
1629.221738,2664.741391,-1072.533697,6957.935855
1629.222064,2886.803174,995.924147,10510.924376
1629.222390,444.123565,5286.058936,10214.842000
1629.222716,-444.123565,3830.477490,8586.388927
1629.223042,148.041188,306.438199,9104.533087
1629.223368,-962.267725,-612.876398,10955.047942
1629.223695,-296.082377,1762.019645,8364.327145
1629.224021,2590.720797,2451.505594,7476.080014
1629.224347,1998.556043,-1225.752797,10881.027347
1629.224673,-1480.411884,-1302.362347,10288.862594
1629.224999,-2590.720797,1532.190996,8364.327145
1629.225325,-2368.659014,1838.629195,8734.430116
1629.225651,-3552.988522,229.828649,9770.718434
1629.225977,-2590.720797,0.000000,8290.306550
1629.226304,740.205942,229.828649,7031.956449
1629.226630,-518.144159,0.000000,9104.533087
1629.226956,-2960.823768,-1225.752797,8364.327145
1629.227282,-3923.091493,-1149.143247,8512.368333
1629.227608,-5847.626942,1455.581446,10807.006753
1629.227934,-4663.297435,306.438199,11843.295072
1629.228260,-666.185348,-2068.457845,8956.491898
1629.228586,2368.659014,-4903.011187,6513.812290
1629.228913,-370.102971,-2528.115143,10066.800811
1629.229239,74.020594,2298.286494,11621.233289
1629.229565,3108.864956,3983.696590,11695.253884
1629.229891,3478.967927,-153.219100,12879.583391
1629.230217,888.247130,-3447.429741,10510.924376
1629.230543,1406.391290,306.438199,6513.812290
1629.230869,6069.688724,2681.334243,6809.894666
1629.231196,3849.070898,1762.019645,11473.192101
1629.231522,592.164754,-2145.067394,10584.944971
1629.231848,1480.411884,-766.095498,9178.553681
1629.232174,1258.350101,2681.334243,11473.192101
1629.232500,0.000000,1149.143247,11029.068536
1629.232826,370.102971,0.000000,6439.791695
1629.233152,4219.173869,-1838.629195,4515.256246
1629.233478,2368.659014,-153.219100,8068.244768
1629.233805,222.061783,1149.143247,6957.935855
1629.234131,444.123565,3677.258390,8216.285956
1629.234457,0.000000,3370.820191,11769.274478
1629.234783,-1036.288319,612.876398,9326.594869
1629.235109,1332.370696,-459.657299,6217.729913
1629.235435,4367.215058,-1685.410096,6587.832884
1629.235761,0.000000,1532.190996,11103.089130
1629.236087,-1480.411884,1532.190996,10140.821405
1629.236414,1554.432478,842.705048,11029.068536
1629.236740,-148.041188,306.438199,12583.501014
1629.237066,-3108.864956,-153.219100,9918.759623
1629.237392,222.061783,1072.533697,6957.935855
1629.237718,4441.235652,459.657299,7402.059420
1629.238044,296.082377,1532.190996,13027.624579
1629.238370,-2516.700203,2298.286494,11473.192101
1629.238697,222.061783,1608.800546,7550.100608
1629.239023,-1628.453072,0.000000,10436.903782
1629.239349,-3108.864956,-1532.190996,11843.295072
1629.239675,-1776.494261,1455.581446,8808.450710
1629.240001,1850.514855,1302.362347,7624.121203
1629.240327,-518.144159,-1072.533697,11399.171507
1629.240653,-4663.297435,-766.095498,9844.739029
1629.240979,-5921.647536,1378.971896,7031.956449
1629.241306,-4737.318029,1532.190996,8142.265362
1629.241632,-4959.379811,-689.485948,8734.430116
1629.241958,-3256.906145,-842.705048,5625.565159
1629.242284,0.000000,1302.362347,6291.750507
1629.242610,-1332.370696,1685.410096,9918.759623
1629.242936,-3923.091493,1378.971896,9696.697840
1629.243262,-2146.597232,-536.266849,7920.203579
1629.243588,-814.226536,-306.438199,10362.883188
1629.243915,-1332.370696,459.657299,9696.697840
1629.244241,2294.638420,1225.752797,6957.935855
1629.244567,6809.894666,0.000000,7624.121203
1629.244893,4293.194464,76.609550,13027.624579
1629.245219,518.144159,2068.457845,12805.562797
1629.245545,3256.906145,3907.087040,10362.883188
1629.245871,3775.050304,1149.143247,12361.439231
1629.246198,2516.700203,-919.314598,11547.212695
1629.246524,4737.318029,1532.190996,7920.203579
1629.246850,7179.997637,2374.896044,7476.080014
1629.247176,4293.194464,1532.190996,10510.924376
1629.247502,296.082377,612.876398,9696.697840
1629.247828,222.061783,2068.457845,8586.388927
1629.248154,-740.205942,2681.334243,9844.739029
1629.248480,-814.226536,0.000000,8808.450710
1629.248807,518.144159,-2681.334243,5181.441594
1629.249133,666.185348,-2451.505594,5403.503377
1629.249459,-4071.132681,0.000000,8290.306550
1629.249785,-5107.421000,76.609550,7846.182985
1629.250111,-2146.597232,-1149.143247,7846.182985
1629.250437,-1850.514855,-842.705048,11177.109724
1629.250763,-2072.576638,1685.410096,9696.697840
1629.251090,2368.659014,3753.867940,6143.709319
1629.251416,5181.441594,1532.190996,8660.409521
1629.251742,1850.514855,-1378.971896,11843.295072
1629.252068,-592.164754,2145.067394,8956.491898
1629.252394,1480.411884,4060.306139,9622.677246
1629.252720,1480.411884,2068.457845,13249.686362
1629.253046,-444.123565,-153.219100,11991.336260
1629.253372,1998.556043,-612.876398,8512.368333
1629.253699,2368.659014,-1225.752797,9400.615463
1629.254025,-2886.803174,-842.705048,11399.171507
1629.254351,-5551.544565,0.000000,8956.491898
1629.254677,-4441.235652,766.095498,9474.636058
1629.255003,-5255.462188,0.000000,10732.986159
1629.255329,-5255.462188,-2145.067394,8512.368333
1629.255655,-2072.576638,-1378.971896,7402.059420
1629.255981,-1184.329507,689.485948,8142.265362
1629.256308,-3552.988522,1608.800546,9030.512492
1629.256634,-2516.700203,459.657299,8216.285956
1629.256960,-592.164754,0.000000,8956.491898
1629.257286,-3330.926739,919.314598,9918.759623
1629.257612,-1702.473667,842.705048,6957.935855
1629.257938,2590.720797,459.657299,5551.544565
1629.258264,1924.535449,-459.657299,10436.903782
1629.258591,666.185348,-1149.143247,11473.192101
1629.258917,148.041188,2451.505594,11843.295072
1629.259243,2220.617826,2068.457845,10436.903782
1629.259569,3404.947333,689.485948,11103.089130
1629.259895,5403.503377,1838.629195,8290.306550
1629.260221,7994.224174,4136.915689,7328.038826
1629.260547,5921.647536,5745.716235,9918.759623
1629.260873,4515.256246,2834.553343,9474.636058
1629.261200,2294.638420,2757.943793,9474.636058
1629.261526,1184.329507,3830.477490,8956.491898
1629.261852,-1406.391290,4443.353888,10807.006753
1629.262178,0.000000,2068.457845,8216.285956
1629.262504,2220.617826,-1915.238745,6661.853478
1629.262830,592.164754,-2068.457845,8956.491898
1629.263156,-3108.864956,1608.800546,10066.800811
1629.263482,-1554.432478,3370.820191,7179.997637
1629.263809,370.102971,1762.019645,9252.574275
1629.264135,-2738.761985,-1225.752797,10510.924376
1629.264461,-2442.679609,919.314598,7624.121203
1629.264787,2294.638420,1685.410096,6143.709319
1629.265113,1406.391290,-1225.752797,9326.594869
1629.265439,-4071.132681,-2911.162892,10584.944971
1629.265765,-2960.823768,-383.047749,9696.697840
1629.266092,-592.164754,2911.162892,12361.439231
1629.266418,-444.123565,1072.533697,12509.480420
1629.266744,0.000000,-1378.971896,8586.388927
1629.267070,2368.659014,-383.047749,5847.626942
1629.267396,1850.514855,1455.581446,7994.224174
1629.267722,-592.164754,2451.505594,10881.027347
1629.268048,-1184.329507,1532.190996,10807.006753
1629.268374,-370.102971,0.000000,9844.739029
1629.268701,-2886.803174,-995.924147,11547.212695
1629.269027,-3552.988522,-2987.772442,8882.471304
1629.269353,-888.247130,-3677.258390,6365.771101
1629.269679,-2294.638420,-3217.601092,9474.636058
1629.270005,-3552.988522,-2451.505594,12435.459826
1629.270331,-3552.988522,919.314598,9030.512492
1629.270657,-1554.432478,1838.629195,9474.636058
1629.270983,-2516.700203,-459.657299,10955.047942
1629.271310,-1184.329507,-766.095498,6513.812290
1629.271636,2812.782580,689.485948,4811.338623
1629.271962,2812.782580,306.438199,9696.697840
1629.272288,-1480.411884,383.047749,12805.562797
1629.272614,-1702.473667,1532.190996,10955.047942
1629.272940,1258.350101,-306.438199,11029.068536
1629.273266,740.205942,-1838.629195,10881.027347
1629.273593,296.082377,-766.095498,7105.977043
1629.273919,4737.318029,306.438199,5403.503377
1629.274245,4663.297435,1685.410096,11399.171507
1629.274571,888.247130,2374.896044,12435.459826
1629.274897,1258.350101,3677.258390,9548.656652
1629.275223,2516.700203,4213.525239,8512.368333
1629.275549,2886.803174,2528.115143,8808.450710
1629.275875,3256.906145,2528.115143,7402.059420
1629.276202,4737.318029,3217.601092,7179.997637
1629.276528,1998.556043,3447.429741,10362.883188
1629.276854,-1110.308913,2681.334243,8512.368333
1629.277180,-592.164754,2987.772442,8956.491898
1629.277506,-1554.432478,3370.820191,9548.656652
1629.277832,-2960.823768,2528.115143,9104.533087
1629.278158,-888.247130,1378.971896,6365.771101
1629.278485,2368.659014,-612.876398,5921.647536
1629.278811,-666.185348,995.924147,9918.759623
1629.279137,-2812.782580,3294.210641,9844.739029
1629.279463,-1258.350101,3753.867940,8660.409521
1629.279789,-1036.288319,1072.533697,9252.574275
1629.280115,-1702.473667,-842.705048,9918.759623
1629.280441,740.205942,2068.457845,7624.121203
1629.280767,4071.132681,3217.601092,7402.059420
1629.281094,444.123565,689.485948,12065.356855
1629.281420,-3330.926739,-536.266849,11621.233289
1629.281746,-1702.473667,612.876398,9030.512492
1629.282072,-1332.370696,1072.533697,9696.697840
1629.282398,-2812.782580,-1532.190996,10955.047942
1629.282724,-1924.535449,-1915.238745,7476.080014
1629.283050,1850.514855,-842.705048,8068.244768
1629.283376,-1924.535449,0.000000,12509.480420
1629.283703,-5625.565159,-1762.019645,9844.739029
1629.284029,-3849.070898,-2374.896044,8956.491898
1629.284355,-2368.659014,-1915.238745,11769.274478
1629.284681,-4145.153275,-383.047749,12509.480420
1629.285007,-740.205942,-1685.410096,6809.894666
1629.285333,3108.864956,-3217.601092,7994.224174
1629.285660,888.247130,-1991.848295,10955.047942
1629.285986,-2294.638420,1915.238745,9178.553681
1629.286312,-592.164754,2451.505594,6365.771101
1629.286638,1406.391290,-1225.752797,10214.842000
1629.286964,-148.041188,-1838.629195,9400.615463
1629.287290,2368.659014,1149.143247,6883.915261
1629.287617,4959.379811,2068.457845,7105.977043
1629.287943,2812.782580,-995.924147,11399.171507
1629.288269,962.267725,-919.314598,10955.047942
1629.288595,2368.659014,1072.533697,9548.656652
1629.288921,1184.329507,1838.629195,11399.171507
1629.289247,1258.350101,0.000000,9548.656652
1629.289574,3997.112087,-1072.533697,6439.791695
1629.289900,4219.173869,-383.047749,7105.977043
1629.290226,-740.205942,306.438199,9918.759623
1629.290552,-2368.659014,2068.457845,8734.430116
1629.290878,-1036.288319,1915.238745,10362.883188
1629.291204,-3552.988522,0.000000,11695.253884
1629.291531,-3108.864956,-919.314598,9696.697840
1629.291857,1776.494261,-229.828649,6069.688724
1629.292183,3256.906145,-766.095498,8216.285956
1629.292509,-1406.391290,1838.629195,11029.068536
1629.292835,-1184.329507,4749.792088,9252.574275
1629.293161,2516.700203,4443.353888,8216.285956
1629.293488,1702.473667,689.485948,10066.800811
1629.293814,-666.185348,1455.581446,9326.594869
1629.294140,3108.864956,3907.087040,6439.791695
1629.294466,4515.256246,4290.134789,9622.677246
1629.294792,1332.370696,-229.828649,10510.924376
1629.295118,-1258.350101,0.000000,10584.944971
1629.295444,-740.205942,3447.429741,9622.677246
1629.295771,-1924.535449,4136.915689,9548.656652
1629.296097,-1998.556043,2451.505594,7994.224174
1629.296423,740.205942,-842.705048,6735.874072
1629.296749,-888.247130,306.438199,7846.182985
1629.297075,-5033.400406,1225.752797,7920.203579
1629.297401,-5625.565159,229.828649,8956.491898
1629.297728,-3923.091493,-919.314598,11177.109724
1629.298054,-5403.503377,-689.485948,12361.439231
1629.298380,-4219.173869,153.219100,9474.636058
1629.298706,0.000000,-2528.115143,6661.853478
1629.299032,-74.020594,-3600.648841,9178.553681
1629.299358,-2368.659014,-1225.752797,11177.109724
1629.299685,-1554.432478,2987.772442,9548.656652
1629.300011,1998.556043,2987.772442,10288.862594
1629.300337,2368.659014,0.000000,12139.377449
1629.300663,2368.659014,-689.485948,8438.347739
1629.300989,3034.844362,1915.238745,5921.647536
1629.301315,4663.297435,1762.019645,10066.800811
1629.301642,2516.700203,0.000000,13027.624579
1629.301968,962.267725,0.000000,9844.739029
1629.302294,1332.370696,766.095498,9400.615463
1629.302620,1184.329507,1915.238745,9770.718434
1629.302946,2442.679609,1838.629195,7179.997637
1629.303272,5033.400406,842.705048,6439.791695
1629.303599,3923.091493,153.219100,9030.512492
1629.303925,0.000000,1072.533697,8956.491898
1629.304251,518.144159,1455.581446,8660.409521
1629.304577,1406.391290,995.924147,10955.047942
1629.304903,-1628.453072,-995.924147,10510.924376
1629.305229,-1406.391290,-1302.362347,7328.038826
1629.305556,3182.885551,-1762.019645,7031.956449
1629.305882,1628.453072,-2451.505594,9548.656652
1629.306208,-2442.679609,-1532.190996,9844.739029
1629.306534,-1776.494261,459.657299,8512.368333
1629.306860,-444.123565,1762.019645,10436.903782
1629.307186,-518.144159,-612.876398,9992.780217
1629.307512,1036.288319,-1072.533697,7179.997637
1629.307839,3404.947333,766.095498,6587.832884
1629.308165,1036.288319,919.314598,11473.192101
1629.308491,-740.205942,842.705048,11843.295072
1629.308817,-814.226536,919.314598,10140.821405
1629.309143,-592.164754,919.314598,10807.006753
1629.309469,-1258.350101,1455.581446,10362.883188
1629.309796,814.226536,919.314598,7476.080014
1629.310122,2516.700203,0.000000,8068.244768
1629.310448,-1554.432478,76.609550,11177.109724
1629.310774,-4589.276840,0.000000,9992.780217
1629.311100,-3034.844362,766.095498,7476.080014
1629.311426,-2442.679609,2068.457845,10584.944971
1629.311753,-3182.885551,2068.457845,10881.027347
1629.312079,-2220.617826,2451.505594,5329.482782
1629.312405,1258.350101,-766.095498,4071.132681
1629.312731,-1850.514855,-2145.067394,9252.574275
1629.313057,-6069.688724,2221.676944,10732.986159
1629.313383,-3997.112087,4596.572988,8660.409521
1629.313710,-2664.741391,919.314598,10066.800811
1629.314036,-3627.009116,-2681.334243,10658.965565
1629.314362,-3256.906145,-1225.752797,7772.162391
1629.314688,1332.370696,689.485948,6365.771101
1629.315014,2146.597232,-153.219100,10807.006753
1629.315340,0.000000,153.219100,11843.295072
1629.315667,1628.453072,3524.039291,10288.862594
1629.315993,2368.659014,5286.058936,9474.636058
1629.316319,3849.070898,2528.115143,8808.450710
1629.316645,5921.647536,153.219100,8290.306550
1629.316971,7624.121203,1915.238745,8882.471304
1629.317297,4219.173869,4519.963438,11695.253884
1629.317624,2886.803174,3370.820191,11103.089130
1629.317950,2960.823768,76.609550,11103.089130
1629.318276,444.123565,-919.314598,10584.944971
1629.318602,222.061783,842.705048,7254.018232
1629.318928,3552.988522,2757.943793,6587.832884
1629.319254,2664.741391,1991.848295,8586.388927
1629.319581,-888.247130,229.828649,9030.512492
1629.319907,-1924.535449,1225.752797,7179.997637
1629.320233,-1554.432478,1838.629195,6513.812290
1629.320559,-2886.803174,76.609550,9474.636058
1629.320885,-2590.720797,-306.438199,9178.553681
1629.321211,0.000000,153.219100,8142.265362
1629.321537,1332.370696,-2068.457845,7550.100608
1629.321864,-1480.411884,-2987.772442,10140.821405
1629.322190,-2072.576638,-1072.533697,10066.800811
1629.322516,-370.102971,2068.457845,10436.903782
1629.322842,-444.123565,1685.410096,11769.274478
1629.323168,0.000000,-383.047749,12731.542202
1629.323494,2590.720797,-2298.286494,8438.347739
1629.323821,4219.173869,-383.047749,8734.430116
1629.324147,-370.102971,459.657299,11473.192101
1629.324473,-1332.370696,229.828649,10510.924376
1629.324799,-814.226536,306.438199,10066.800811
1629.325125,-1554.432478,-1532.190996,10955.047942
1629.325451,-4367.215058,-842.705048,9992.780217
1629.325778,-1702.473667,0.000000,6735.874072
1629.326104,-740.205942,-1762.019645,8216.285956
1629.326430,-5033.400406,-3830.477490,9104.533087
1629.326756,-6587.832884,-2604.724693,7179.997637
1629.327082,-4737.318029,0.000000,8956.491898
1629.327408,-2294.638420,459.657299,9770.718434
1629.327735,-2072.576638,0.000000,8290.306550
1629.328061,518.144159,-919.314598,5403.503377
1629.328387,2220.617826,229.828649,7179.997637
1629.328713,2146.597232,612.876398,10510.924376
1629.329039,2664.741391,766.095498,10288.862594
1629.329365,2886.803174,1991.848295,10214.842000
1629.329692,2590.720797,1455.581446,10362.883188
1629.330018,5107.421000,459.657299,9178.553681
1629.330344,7624.121203,536.266849,7254.018232
1629.330670,7031.956449,689.485948,8956.491898
1629.330996,3478.967927,1072.533697,11991.336260
1629.331322,2960.823768,2528.115143,10510.924376
1629.331649,4145.153275,1225.752797,10140.821405
1629.331975,1406.391290,-536.266849,11399.171507
1629.332301,-592.164754,-612.876398,9326.594869
1629.332627,2960.823768,153.219100,5699.585753
1629.332953,5329.482782,-995.924147,8438.347739
1629.333279,370.102971,153.219100,11843.295072
1629.333606,-2072.576638,1455.581446,8734.430116
1629.333932,0.000000,1838.629195,7846.182985
1629.334258,1628.453072,-766.095498,8512.368333
1629.334584,-518.144159,-229.828649,8586.388927
1629.334910,1480.411884,1532.190996,6291.750507
1629.335236,5107.421000,1072.533697,6069.688724
1629.335562,3330.926739,-995.924147,8586.388927
1629.335889,0.000000,-612.876398,9992.780217
1629.336215,222.061783,2681.334243,10436.903782
1629.336541,4367.215058,3294.210641,10584.944971
1629.336867,3923.091493,-536.266849,10955.047942
1629.337193,2960.823768,-3370.820191,8290.306550
1629.337519,4071.132681,-1915.238745,6513.812290
1629.337846,4737.318029,2221.676944,9696.697840
1629.338172,3182.885551,1685.410096,11473.192101
1629.338498,-1332.370696,-229.828649,10510.924376
1629.338824,-962.267725,-3447.429741,8956.491898
1629.339150,-1036.288319,-2068.457845,11547.212695
1629.339476,-2368.659014,-2451.505594,10362.883188
1629.339803,-2812.782580,-5975.544884,7772.162391
1629.340129,-592.164754,-6665.030833,8364.327145
1629.340455,-370.102971,-3907.087040,10510.924376
1629.340781,-3330.926739,-842.705048,10658.965565
1629.341107,-2738.761985,-3140.991542,8512.368333
1629.341433,-2294.638420,-5592.497135,9622.677246
1629.341760,-2960.823768,-4979.620737,10584.944971
1629.342086,-2368.659014,-4366.744339,8216.285956
1629.342412,2072.576638,-4519.963438,6661.853478
1629.342738,3923.091493,-4060.306139,9252.574275
1629.343064,3256.906145,-2374.896044,11103.089130
1629.343390,3849.070898,-995.924147,8808.450710
1629.343717,6069.688724,-2145.067394,8586.388927
1629.344043,6513.812290,-2298.286494,11103.089130
1629.344369,5107.421000,-995.924147,10140.821405
1629.344695,6661.853478,919.314598,8364.327145
1629.345021,9696.697840,-612.876398,9622.677246
1629.345347,8808.450710,-1532.190996,9844.739029
1629.345674,6735.874072,-1532.190996,7994.224174
1629.346000,5773.606348,-842.705048,8068.244768
1629.346326,5773.606348,-1455.581446,9400.615463
1629.346652,3182.885551,-1838.629195,11177.109724
1629.346978,1850.514855,-2987.772442,9178.553681
1629.347304,666.185348,-1991.848295,7920.203579
1629.347630,370.102971,-1608.800546,7698.141797
1629.347957,888.247130,-1915.238745,8882.471304
1629.348283,2294.638420,-2757.943793,7846.182985
1629.348609,2072.576638,-1762.019645,9548.656652
1629.348935,1850.514855,-2145.067394,8808.450710
1629.349261,1406.391290,-1378.971896,8660.409521
1629.349587,888.247130,-1149.143247,10214.842000
1629.349914,1776.494261,-766.095498,11843.295072
1629.350240,2294.638420,306.438199,11843.295072
1629.350566,2590.720797,-1762.019645,10140.821405
1629.350892,814.226536,-2604.724693,8956.491898
1629.351218,2220.617826,-1225.752797,8438.347739
1629.351544,4145.153275,1302.362347,8808.450710
1629.351871,4145.153275,1762.019645,8438.347739
1629.352197,2738.761985,1072.533697,8586.388927
1629.352523,1110.308913,1072.533697,9252.574275
1629.352849,518.144159,306.438199,8882.471304
1629.353175,0.000000,-1685.410096,9252.574275
1629.353501,-1554.432478,-1915.238745,11473.192101
1629.353828,-2738.761985,-1149.143247,10436.903782
1629.354154,-2886.803174,-306.438199,10140.821405
1629.354480,0.000000,-2221.676944,9178.553681
1629.354806,-296.082377,-2681.334243,8216.285956
1629.355132,-888.247130,-1455.581446,4589.276840
1629.355458,74.020594,0.000000,4367.215058
1629.355785,0.000000,76.609550,6957.935855
1629.356111,-740.205942,-383.047749,10288.862594
1629.356437,-2146.597232,-1302.362347,11991.336260
1629.356763,-666.185348,-2911.162892,11029.068536
1629.357089,518.144159,-3677.258390,12139.377449
1629.357415,962.267725,-2834.553343,12805.562797
1629.357742,2368.659014,-1455.581446,10807.006753
1629.358068,4441.235652,-919.314598,9622.677246
1629.358394,7476.080014,-306.438199,9252.574275
1629.358720,8216.285956,229.828649,6883.915261
1629.359046,7105.977043,2451.505594,5107.421000
1629.359372,6217.729913,1915.238745,7402.059420
1629.359699,5329.482782,383.047749,10658.965565
1629.360025,3478.967927,-1762.019645,11103.089130
1629.360351,2368.659014,-3294.210641,11399.171507
1629.360677,1036.288319,-3600.648841,11029.068536
1629.361003,888.247130,-2451.505594,11251.130318
1629.361329,2516.700203,-2298.286494,11843.295072
1629.361655,3627.009116,-1225.752797,9844.739029
1629.361982,3701.029710,919.314598,6809.894666
1629.362308,5255.462188,1225.752797,3330.926739
1629.362634,7624.121203,689.485948,962.267725
1629.362960,5255.462188,1302.362347,2516.700203
1629.363286,1924.535449,-383.047749,6809.894666
1629.363612,444.123565,-1685.410096,10362.883188
1629.363939,148.041188,-5975.544884,13397.727550
1629.364265,-1776.494261,-8886.707777,17098.757260
1629.364591,-3775.050304,-7584.345430,16284.530724
1629.364917,-2442.679609,-4826.401637,14211.954086
1629.365243,296.082377,-4596.572988,13397.727550
1629.365569,2590.720797,-3064.381992,11473.192101
1629.365896,3330.926739,1302.362347,8290.306550
1629.366222,5255.462188,4290.134789,4219.173869
1629.366548,6883.915261,4136.915689,2738.761985
1629.366874,6809.894666,612.876398,2516.700203
1629.367200,5107.421000,-1302.362347,3478.967927
1629.367526,4293.194464,-1991.848295,7624.121203
1629.367853,2368.659014,-4903.011187,11769.274478
1629.368179,0.000000,-8733.488677,15248.242405
1629.368505,-1924.535449,-9806.022374,17320.819043
1629.368831,-3775.050304,-7584.345430,18061.024985
1629.369157,-3034.844362,-4060.306139,15544.324782
1629.369483,-222.061783,-2834.553343,12731.542202
1629.369810,148.041188,-383.047749,9474.636058
1629.370136,74.020594,4136.915689,5403.503377
1629.370462,1776.494261,7354.516781,2368.659014
1629.370788,3552.988522,6358.592633,296.082377
1629.371114,1924.535449,3294.210641,-0.000000
1629.371440,888.247130,1685.410096,370.102971
1629.371767,1702.473667,-306.438199,3404.947333
1629.372093,1332.370696,-3447.429741,7772.162391
1629.372419,518.144159,-7967.393179,10955.047942
1629.372745,0.000000,-9959.241474,14508.036463
1629.373071,222.061783,-9576.193725,15766.386565
1629.373397,1258.350101,-7354.516781,18135.045579
1629.373724,2812.782580,-4903.011187,21021.848753
1629.374050,4219.173869,-1455.581446,18653.189738
1629.374376,4885.359217,2604.724693,14063.912898
1629.374702,6809.894666,5745.716235,10510.924376
1629.375028,7031.956449,8350.440928,5995.668130
1629.375354,6809.894666,10648.727422,2146.597232
1629.375680,7254.018232,11644.651570,444.123565
1629.376007,6069.688724,9806.022374,222.061783
1629.376333,3256.906145,5592.497135,296.082377
1629.376659,-222.061783,536.266849,2812.782580
1629.376985,-3478.967927,-4673.182538,5403.503377
1629.377311,-5477.523971,-9193.145976,8512.368333
1629.377637,-5033.400406,-12180.918418,13323.706956
1629.377964,-4441.235652,-13866.328514,15470.304188
1629.378290,-3997.112087,-12027.699319,16580.613101
1629.378616,0.000000,-9652.803275,15988.448347
1629.378942,6143.709319,-4903.011187,14063.912898
1629.379268,9992.780217,306.438199,11177.109724
1629.379594,11917.315666,5669.106685,7550.100608
1629.379921,13027.624579,9422.974625,4811.338623
1629.380247,12065.356855,10878.556072,4145.153275
1629.380573,9030.512492,8733.488677,5477.523971
1629.380899,5551.544565,6435.202183,7698.141797
1629.381225,814.226536,3140.991542,9474.636058
1629.381551,-5033.400406,-2374.896044,12139.377449
1629.381878,-9622.677246,-8580.269578,12953.603985
1629.382204,-11103.089130,-12257.527968,13323.706956
1629.382530,-10584.944971,-13406.671215,13397.727550
1629.382856,-8956.491898,-11874.480219,11547.212695
1629.383182,-5625.565159,-8886.707777,10214.842000
1629.383508,-1850.514855,-6358.592633,9030.512492
1629.383834,1924.535449,-3217.601092,8734.430116
1629.384161,7031.956449,153.219100,8512.368333
1629.384487,9474.636058,2757.943793,8142.265362
1629.384813,9326.594869,4060.306139,6217.729913
1629.385139,10955.047942,3677.258390,6069.688724
1629.385465,11029.068536,2911.162892,7846.182985
1629.385791,7994.224174,2834.553343,8586.388927
1629.386117,4737.318029,1378.971896,9030.512492
1629.386444,3478.967927,-306.438199,9400.615463
1629.386770,1480.411884,-2068.457845,8956.491898
1629.387096,-1702.473667,-3753.867940,8512.368333
1629.387422,-3034.844362,-4826.401637,7846.182985
1629.387748,-3552.988522,-5439.278036,6957.935855
1629.388074,-2738.761985,-6894.859482,7772.162391
1629.388400,-814.226536,-6588.421283,10362.883188
1629.388727,-222.061783,-4749.792088,10658.965565
1629.389053,666.185348,-3677.258390,10955.047942
1629.389379,4515.256246,-3677.258390,12805.562797
1629.389705,7328.038826,-1608.800546,13693.809927
1629.390031,7254.018232,1149.143247,13175.665768
1629.390357,6587.832884,2987.772442,13175.665768
1629.390683,7698.141797,2145.067394,11843.295072
1629.391010,8290.306550,0.000000,9770.718434
1629.391336,5477.523971,766.095498,9178.553681
1629.391662,3034.844362,3217.601092,9400.615463
1629.391988,1924.535449,3677.258390,8660.409521
1629.392314,1332.370696,0.000000,6217.729913
1629.392640,-370.102971,-3600.648841,5995.668130
1629.392967,-2960.823768,-766.095498,5033.400406
1629.393293,-3923.091493,1532.190996,4811.338623
1629.393619,-2294.638420,-306.438199,6661.853478
1629.393945,-1702.473667,-4213.525239,8660.409521
1629.394271,-3849.070898,-3907.087040,9030.512492
1629.394597,-3552.988522,-383.047749,8364.327145
1629.394923,0.000000,689.485948,9622.677246
1629.395250,1036.288319,-766.095498,10510.924376
1629.395576,148.041188,-995.924147,10436.903782
1629.395902,888.247130,1838.629195,10066.800811
1629.396228,3034.844362,2451.505594,8956.491898
1629.396554,3627.009116,766.095498,8142.265362
1629.396880,3404.947333,766.095498,9030.512492
1629.397206,3256.906145,3830.477490,9400.615463
1629.397533,3627.009116,3907.087040,8438.347739
1629.397859,3478.967927,-1225.752797,8956.491898
1629.398185,1850.514855,-4979.620737,9770.718434
1629.398511,-222.061783,-2911.162892,10288.862594
1629.398837,222.061783,-383.047749,10584.944971
1629.399163,1332.370696,-2374.896044,11399.171507
1629.399489,222.061783,-6665.030833,11399.171507
1629.399816,222.061783,-5515.887586,10732.986159
1629.400142,1406.391290,-766.095498,10140.821405
1629.400468,1628.453072,612.876398,11325.150913
1629.400794,2072.576638,-1149.143247,9252.574275
1629.401120,3627.009116,-1991.848295,8882.471304
1629.401446,4441.235652,306.438199,9030.512492
1629.401772,3404.947333,2757.943793,8364.327145
1629.402099,3775.050304,459.657299,7772.162391
1629.402425,5403.503377,-1455.581446,6883.915261
1629.402751,4737.318029,-1838.629195,7550.100608
1629.403077,4145.153275,-766.095498,7920.203579
1629.403403,4145.153275,-536.266849,8808.450710
1629.403729,3849.070898,-3140.991542,9030.512492
1629.404055,3701.029710,-4366.744339,9326.594869
1629.404382,3775.050304,-2911.162892,8586.388927
1629.404708,4293.194464,-1455.581446,8956.491898
1629.405034,3404.947333,-1685.410096,9178.553681
1629.405360,4071.132681,-2911.162892,8808.450710
1629.405686,4663.297435,-2145.067394,8956.491898
1629.406012,3701.029710,-995.924147,8808.450710
1629.406339,2220.617826,-1378.971896,9548.656652
1629.406665,888.247130,-3064.381992,9104.533087
1629.406991,222.061783,-5286.058936,10510.924376
1629.407317,-222.061783,-5898.935335,12213.398043
1629.407643,-1184.329507,-5975.544884,12435.459826
1629.407969,-2294.638420,-6281.983084,11621.233289
1629.408295,-1702.473667,-7124.688131,12361.439231
1629.408622,-888.247130,-5822.325785,13323.706956
1629.408948,-222.061783,-3983.696590,12879.583391
1629.409274,370.102971,-2221.676944,12139.377449
1629.409600,1406.391290,-1455.581446,10658.965565
1629.409926,2590.720797,-306.438199,9400.615463
1629.410252,3256.906145,1532.190996,8660.409521
1629.410578,2516.700203,2911.162892,7846.182985
1629.410905,1998.556043,1838.629195,5625.565159
1629.411231,3552.988522,459.657299,5181.441594
1629.411557,2738.761985,536.266849,5255.462188
1629.411883,518.144159,1072.533697,5107.421000
1629.412209,-148.041188,-383.047749,5699.585753
1629.412535,814.226536,-2834.553343,7179.997637
1629.412861,518.144159,-3447.429741,8364.327145
1629.413188,370.102971,-2145.067394,8734.430116
1629.413514,370.102971,-1072.533697,8882.471304
1629.413840,1480.411884,-1685.410096,9474.636058
1629.414166,2812.782580,-2068.457845,11325.150913
1629.414492,2886.803174,-306.438199,11547.212695
1629.414818,2146.597232,2145.067394,10510.924376
1629.415144,2886.803174,1532.190996,10362.883188
1629.415471,4441.235652,383.047749,9622.677246
1629.415797,4071.132681,919.314598,9474.636058
1629.416123,3701.029710,1455.581446,8512.368333
1629.416449,4589.276840,612.876398,9030.512492
1629.416775,5107.421000,-1302.362347,8956.491898
1629.417101,5477.523971,-2757.943793,9400.615463
1629.417427,5625.565159,-2451.505594,10140.821405
1629.417754,5699.585753,-2451.505594,9992.780217
1629.418080,5773.606348,-4443.353888,10807.006753
1629.418406,6143.709319,-4136.915689,12509.480420
1629.418732,4145.153275,-2451.505594,12953.603985
1629.419058,2664.741391,-995.924147,12435.459826
1629.419384,3108.864956,-1225.752797,11843.295072
1629.419711,2812.782580,-919.314598,10732.986159
1629.420037,740.205942,1915.238745,8364.327145
1629.420363,296.082377,4060.306139,6587.832884
1629.420689,296.082377,3907.087040,4737.318029
1629.421015,-888.247130,1915.238745,4071.132681
1629.421341,-1554.432478,995.924147,3627.009116
1629.421667,-2812.782580,1072.533697,3256.906145
1629.421994,-3997.112087,-919.314598,5033.400406
1629.422320,-3478.967927,-4596.572988,8142.265362
1629.422646,-3404.947333,-7201.297681,10140.821405
1629.422972,-3478.967927,-7737.564530,11251.130318
1629.423298,-962.267725,-8044.002729,11917.315666
1629.423624,1924.535449,-8350.440928,12435.459826
1629.423950,4589.276840,-6818.249932,12435.459826
1629.424277,6661.853478,-2987.772442,11843.295072
1629.424603,9252.574275,383.047749,11547.212695
1629.424929,8586.388927,766.095498,11843.295072
1629.425255,7328.038826,1072.533697,10955.047942
1629.425581,5625.565159,2681.334243,11399.171507
1629.425907,3849.070898,2451.505594,11621.233289
1629.426233,1036.288319,842.705048,11251.130318
1629.426560,-1850.514855,-1378.971896,11029.068536
1629.426886,-3701.029710,-3140.991542,10214.842000
1629.427212,-5551.544565,-3907.087040,8956.491898
1629.427538,-6069.688724,-4903.011187,8364.327145
1629.427864,-5773.606348,-4596.572988,9104.533087
1629.428190,-4293.194464,-4213.525239,7105.977043
1629.428516,-1924.535449,-3830.477490,4959.379811
1629.428843,2368.659014,-3907.087040,5329.482782
1629.429169,5551.544565,-2451.505594,5773.606348
1629.429495,7920.203579,-689.485948,5847.626942
1629.429821,11547.212695,689.485948,7920.203579
1629.430147,13249.686362,919.314598,9474.636058
1629.430473,11029.068536,689.485948,11103.089130
1629.430799,9104.533087,1685.410096,12139.377449
1629.431126,8364.327145,2911.162892,12213.398043
1629.431452,7105.977043,2528.115143,12361.439231
1629.431778,4145.153275,1762.019645,11843.295072
1629.432104,518.144159,1685.410096,8882.471304
1629.432430,-1628.453072,1378.971896,7402.059420
1629.432756,-2886.803174,1532.190996,8216.285956
1629.433083,-3849.070898,-153.219100,7105.977043
1629.433409,-3701.029710,-1532.190996,4811.338623
1629.433735,-2294.638420,-3217.601092,5181.441594
1629.434061,-370.102971,-3830.477490,6661.853478
1629.434387,1258.350101,-4596.572988,8068.244768
1629.434713,2886.803174,-5745.716235,10955.047942
1629.435039,1850.514855,-5898.935335,14730.098246
1629.435366,2072.576638,-6128.763984,16358.551318
1629.435692,4885.359217,-5515.887586,18209.066173
1629.436018,4663.297435,-3294.210641,18209.066173
1629.436344,2738.761985,-995.924147,14434.015869
1629.436670,5329.482782,536.266849,9252.574275
1629.436996,6217.729913,4903.011187,7698.141797
1629.437322,4737.318029,6588.421283,4589.276840
1629.437649,2738.761985,7431.126331,296.082377
1629.437975,1998.556043,6128.763984,-2812.782580
1629.438301,962.267725,1991.848295,-1628.453072
1629.438627,-962.267725,-536.266849,222.061783
1629.438953,-3997.112087,-2068.457845,3627.009116
1629.439279,-7105.977043,-7277.907231,8068.244768
1629.439605,-8142.265362,-12334.137518,13471.748144
1629.439932,-6661.853478,-13866.328514,18061.024985
1629.440258,-4219.173869,-11721.261119,19763.498651
1629.440584,-2368.659014,-7431.126331,19097.313304
1629.440910,3182.885551,-3447.429741,17838.963202
1629.441236,9918.759623,-842.705048,13175.665768
1629.441562,13619.789333,4290.134789,8586.388927
1629.441888,14952.160028,9039.926876,4515.256246
1629.442215,14878.139434,11644.651570,1702.473667
1629.442541,11251.130318,10648.727422,2664.741391
1629.442867,6957.935855,4903.011187,5255.462188
1629.443193,1332.370696,-766.095498,7846.182985
1629.443519,-5181.441594,-5439.278036,9696.697840
1629.443845,-9548.656652,-10418.898773,12805.562797
1629.444171,-10881.027347,-13176.842566,13767.830521
1629.444498,-10807.006753,-14096.157163,14285.974681
1629.444824,-7846.182985,-12257.527968,13027.624579
1629.445150,-3404.947333,-7507.735880,10732.986159
1629.445476,962.267725,-2528.115143,8290.306550
1629.445802,6069.688724,1225.752797,6661.853478
1629.446128,9030.512492,7201.297681,6587.832884
1629.446455,12065.356855,9193.145976,6513.812290
1629.446781,12879.583391,8733.488677,6217.729913
1629.447107,11917.315666,6511.811733,6291.750507
1629.447433,10658.965565,5132.839837,9178.553681
1629.447759,9622.677246,3600.648841,9844.739029
1629.448085,7846.182985,689.485948,9696.697840
1629.448411,4441.235652,-4673.182538,8512.368333
1629.448738,-370.102971,-6665.030833,9104.533087
1629.449064,-4145.153275,-4519.963438,10288.862594
1629.449390,-4219.173869,-4749.792088,10436.903782
1629.449716,-6069.688724,-5898.935335,12213.398043
1629.450042,-7846.182985,-8733.488677,10066.800811
1629.450368,-6809.894666,-7507.735880,9474.636058
1629.450694,-1998.556043,-4673.182538,8512.368333
1629.451021,1776.494261,-1762.019645,10436.903782
1629.451347,2220.617826,1455.581446,8956.491898
1629.451673,4959.379811,2911.162892,6883.915261
1629.451999,7402.059420,3140.991542,8142.265362
1629.452325,7031.956449,2987.772442,9400.615463
1629.452651,3701.029710,3447.429741,9992.780217
1629.452977,2738.761985,1608.800546,11029.068536
1629.453304,2072.576638,-1455.581446,11029.068536
1629.453630,2368.659014,-5056.230287,10584.944971
1629.453956,2442.679609,-6281.983084,10955.047942
1629.454282,888.247130,-5745.716235,9400.615463
1629.454608,-148.041188,-3294.210641,8290.306550
1629.454934,2220.617826,-2451.505594,7550.100608
1629.455260,3108.864956,-919.314598,8438.347739
1629.455587,962.267725,995.924147,6661.853478
1629.455913,1406.391290,1532.190996,5921.647536
1629.456239,4145.153275,1838.629195,6069.688724
1629.456565,4589.276840,1685.410096,8290.306550
1629.456891,2960.823768,306.438199,10140.821405
1629.457217,1628.453072,-995.924147,9622.677246
1629.457543,666.185348,-2221.676944,7920.203579
1629.457870,74.020594,-2528.115143,11843.295072
1629.458196,-296.082377,-459.657299,12509.480420
1629.458522,888.247130,0.000000,9548.656652
1629.458848,1850.514855,-2145.067394,8216.285956
1629.459174,3034.844362,-4060.306139,8438.347739
1629.459500,1554.432478,-2451.505594,8290.306550
1629.459827,814.226536,-2911.162892,8882.471304
1629.460153,518.144159,-2757.943793,10066.800811
1629.460479,962.267725,-4673.182538,11843.295072
1629.460805,-296.082377,-4290.134789,12361.439231
1629.461131,74.020594,-2451.505594,10658.965565
1629.461457,3775.050304,-1762.019645,9252.574275
1629.461783,4737.318029,-612.876398,10732.986159
1629.462110,2960.823768,1991.848295,12361.439231
1629.462436,3849.070898,3753.867940,8882.471304
1629.462762,5847.626942,3524.039291,7846.182985
1629.463088,2664.741391,2604.724693,9474.636058
1629.463414,222.061783,1455.581446,7920.203579
1629.463740,2220.617826,1302.362347,4885.359217
1629.464066,4145.153275,-842.705048,4737.318029
1629.464393,-1036.288319,-3753.867940,7328.038826
1629.464719,-5329.482782,-3600.648841,6217.729913
1629.465045,-2664.741391,-2145.067394,6587.832884
1629.465371,-1628.453072,-2911.162892,11177.109724
1629.465697,-4959.379811,-4519.963438,12731.542202
1629.466023,-3923.091493,-4443.353888,8364.327145
1629.466349,1628.453072,-2911.162892,7105.977043
1629.466676,2664.741391,0.000000,12287.418637
1629.467002,296.082377,2681.334243,15100.201217
1629.467328,2072.576638,4213.525239,11991.336260
1629.467654,4441.235652,4673.182538,12731.542202
1629.467980,2960.823768,2528.115143,11843.295072
1629.468306,2812.782580,1455.581446,7179.997637
1629.468632,4811.338623,3447.429741,4737.318029
1629.468959,3775.050304,4136.915689,8734.430116
1629.469285,-962.267725,2834.553343,9696.697840
1629.469611,-1184.329507,-383.047749,7772.162391
1629.469937,-962.267725,-2145.067394,9844.739029
1629.470263,-3552.988522,-2145.067394,12213.398043
1629.470589,-3552.988522,-1915.238745,9178.553681
1629.470915,814.226536,-1915.238745,8290.306550
1629.471242,888.247130,-842.705048,11103.089130
1629.471568,-1924.535449,1762.019645,9400.615463
1629.471894,-1184.329507,3677.258390,4737.318029
1629.472220,1036.288319,4060.306139,7031.956449
1629.472546,370.102971,4366.744339,8882.471304
1629.472872,74.020594,5822.325785,5107.421000
1629.473199,2886.803174,3907.087040,3404.947333
1629.473525,2812.782580,919.314598,7179.997637
1629.473851,-1628.453072,919.314598,9326.594869
1629.474177,-1258.350101,689.485948,7772.162391
1629.474503,-1184.329507,-1149.143247,9474.636058
1629.474829,-3034.844362,-3524.039291,12509.480420
1629.475155,-666.185348,-3907.087040,12657.521608
1629.475482,3256.906145,-1532.190996,10288.862594
1629.475808,2146.597232,-689.485948,11325.150913
1629.476134,-296.082377,-1072.533697,12509.480420
1629.476460,1406.391290,-383.047749,11177.109724
1629.476786,-444.123565,2604.724693,14582.057057
1629.477112,444.123565,-842.705048,11177.109724
1629.477438,1850.514855,-1455.581446,7772.162391
1629.477765,2590.720797,153.219100,7624.121203
1629.478091,1258.350101,1302.362347,10881.027347
1629.478417,-2664.741391,4673.182538,10436.903782
1629.478743,-1998.556043,-995.924147,8364.327145
1629.479069,-4219.173869,-5822.325785,7772.162391
1629.479395,-5551.544565,-3907.087040,6661.853478
1629.479721,-3997.112087,153.219100,6365.771101
1629.480048,-296.082377,-995.924147,6217.729913
1629.480374,-2072.576638,-4673.182538,9770.718434
1629.480700,-3256.906145,-5515.887586,9992.780217
1629.481026,-1850.514855,0.000000,7402.059420
1629.481352,-1036.288319,3370.820191,9178.553681
1629.481678,444.123565,76.609550,10584.944971
1629.482004,2812.782580,-536.266849,6735.874072
1629.482331,5995.668130,3064.381992,8142.265362
1629.482657,6291.750507,4903.011187,11621.233289
1629.482983,4811.338623,6052.154434,10658.965565
1629.483309,3849.070898,4290.134789,9548.656652
1629.483635,2812.782580,1532.190996,11769.274478
1629.483961,0.000000,2451.505594,9770.718434
1629.484287,2368.659014,1991.848295,8364.327145
1629.484614,2664.741391,-306.438199,9474.636058
1629.484940,-1406.391290,-1225.752797,10288.862594
1629.485266,-4885.359217,-689.485948,9992.780217
1629.485592,-3701.029710,459.657299,10066.800811
1629.485918,-3923.091493,995.924147,11843.295072
1629.486244,-4515.256246,-153.219100,9770.718434
1629.486570,-1406.391290,383.047749,5033.400406
1629.486897,1110.308913,2681.334243,5699.585753
1629.487223,0.000000,3753.867940,9252.574275
1629.487549,-1480.411884,5209.449386,8142.265362
1629.487875,222.061783,5362.668486,6513.812290
1629.488201,0.000000,3370.820191,8660.409521
1629.488527,-222.061783,3217.601092,9474.636058
1629.488853,2072.576638,4290.134789,6809.894666
1629.489179,3997.112087,1378.971896,5921.647536
1629.489506,666.185348,-383.047749,8808.450710
1629.489832,0.000000,0.000000,8660.409521
1629.490158,1554.432478,2681.334243,9474.636058
1629.490484,592.164754,2834.553343,12213.398043
1629.490810,-370.102971,-383.047749,11621.233289
1629.491136,1776.494261,-1072.533697,8512.368333
1629.491462,4293.194464,-383.047749,9326.594869
1629.491789,1776.494261,2757.943793,11251.130318
1629.492115,-1850.514855,2528.115143,10362.883188
1629.492441,-2516.700203,306.438199,10288.862594
1629.492767,-3108.864956,-1302.362347,11399.171507
1629.493093,-5181.441594,-842.705048,9252.574275
1629.493419,-2812.782580,-612.876398,6513.812290
1629.493745,0.000000,-2834.553343,7031.956449
1629.494071,-2664.741391,-3524.039291,10510.924376
1629.494398,-4663.297435,-2451.505594,10584.944971
1629.494724,-3404.947333,-1225.752797,10807.006753
1629.495050,-3404.947333,-3064.381992,11103.089130
1629.495376,-1332.370696,-5669.106685,9104.533087
1629.495702,3552.988522,-3217.601092,7624.121203
1629.496028,4885.359217,1378.971896,10658.965565
1629.496354,2368.659014,1685.410096,12065.356855
1629.496681,2516.700203,383.047749,9696.697840
1629.497007,3997.112087,-153.219100,10881.027347
1629.497333,2368.659014,1991.848295,11177.109724
1629.497659,1258.350101,3983.696590,8512.368333
1629.497985,4367.215058,2068.457845,5033.400406
1629.498311,4367.215058,-536.266849,7476.080014
1629.498637,666.185348,-459.657299,7846.182985
1629.498963,-2146.597232,3524.039291,7328.038826
1629.499290,-740.205942,2068.457845,7105.977043
1629.499616,-1850.514855,0.000000,11473.192101
1629.499942,-2960.823768,-1302.362347,10510.924376
1629.500268,1036.288319,-1608.800546,6809.894666
1629.500594,370.102971,-1532.190996,7698.141797
1629.500920,-2738.761985,-1915.238745,10362.883188
1629.501246,-2738.761985,459.657299,10362.883188
1629.501573,-1332.370696,4136.915689,10807.006753
1629.501899,-2590.720797,2604.724693,11843.295072
1629.502225,-3404.947333,-689.485948,8586.388927
1629.502551,814.226536,-766.095498,3849.070898
1629.502877,2294.638420,3983.696590,9474.636058
1629.503203,592.164754,4749.792088,11621.233289
1629.503529,-222.061783,4596.572988,11103.089130
1629.503856,1184.329507,1302.362347,10362.883188
1629.504182,-888.247130,0.000000,11843.295072
1629.504508,-1628.453072,2451.505594,8586.388927
1629.504834,3404.947333,1838.629195,6069.688724
1629.505160,3108.864956,689.485948,9918.759623
1629.505486,296.082377,0.000000,11251.130318
1629.505812,0.000000,3217.601092,9104.533087
1629.506138,370.102971,3677.258390,9770.718434
1629.506465,-962.267725,1532.190996,9326.594869
1629.506791,-740.205942,919.314598,6735.874072
1629.507117,4071.132681,2221.676944,4959.379811
1629.507443,3256.906145,4136.915689,8808.450710
1629.507769,-740.205942,2987.772442,9326.594869
1629.508095,-2516.700203,2068.457845,8586.388927
1629.508421,-2220.617826,0.000000,7920.203579
1629.508748,-5255.462188,0.000000,10584.944971
1629.509074,-3997.112087,-1532.190996,7624.121203
1629.509400,-1184.329507,-2451.505594,7031.956449
1629.509726,-1850.514855,-3294.210641,9622.677246
1629.510052,-2812.782580,-2298.286494,12213.398043
1629.510378,-666.185348,0.000000,10955.047942
1629.510704,1184.329507,0.000000,12509.480420
1629.511030,-1628.453072,-842.705048,12657.521608
1629.511357,2294.638420,-842.705048,9252.574275
1629.511683,7846.182985,689.485948,7846.182985
1629.512009,7624.121203,1378.971896,11251.130318
1629.512335,3256.906145,2374.896044,11177.109724
1629.512661,3404.947333,2987.772442,8956.491898
1629.512987,3182.885551,1378.971896,9918.759623
1629.513313,444.123565,-1225.752797,10881.027347
1629.513640,-740.205942,-919.314598,7105.977043
1629.513966,1850.514855,153.219100,6069.688724
1629.514292,888.247130,-153.219100,9178.553681
1629.514618,-2220.617826,-2451.505594,8660.409521
1629.514944,-2442.679609,-1455.581446,8586.388927
1629.515270,-3552.988522,383.047749,9400.615463
1629.515596,-3404.947333,306.438199,8808.450710
1629.515923,-1184.329507,-766.095498,6587.832884
1629.516249,1406.391290,-919.314598,7031.956449
1629.516575,-740.205942,536.266849,9622.677246
1629.516901,-1480.411884,306.438199,8660.409521
1629.517227,592.164754,-689.485948,9104.533087
1629.517553,-1776.494261,459.657299,12583.501014
1629.517879,-4293.194464,1838.629195,12287.418637
1629.518205,592.164754,1915.238745,6735.874072
1629.518532,4071.132681,-1608.800546,7105.977043
1629.518858,0.000000,-1838.629195,12287.418637
1629.519184,-2516.700203,2681.334243,12065.356855
1629.519510,1702.473667,4596.572988,8808.450710
1629.519836,888.247130,612.876398,11325.150913
1629.520162,-3108.864956,-1991.848295,10732.986159
1629.520488,-2590.720797,1302.362347,5921.647536
1629.520815,2368.659014,3447.429741,6735.874072
1629.521141,296.082377,76.609550,11621.233289
1629.521467,-3330.926739,-1762.019645,10140.821405
1629.521793,-2516.700203,919.314598,7772.162391
1629.522119,-1480.411884,3830.477490,9326.594869
1629.522445,-2516.700203,1838.629195,9548.656652
1629.522771,-1332.370696,0.000000,5477.523971
1629.523097,3108.864956,306.438199,6439.791695
1629.523424,1850.514855,2834.553343,9548.656652
1629.523750,1628.453072,3677.258390,8734.430116
1629.524076,2146.597232,3524.039291,10436.903782
1629.524402,518.144159,689.485948,10955.047942
1629.524728,-1924.535449,1225.752797,9622.677246
1629.525054,2368.659014,1915.238745,5403.503377
1629.525380,5773.606348,-383.047749,7031.956449
1629.525707,2368.659014,-612.876398,9696.697840
1629.526033,518.144159,2221.676944,11399.171507
1629.526359,814.226536,4596.572988,10732.986159
1629.526685,0.000000,766.095498,12879.583391
1629.527011,-2664.741391,-3524.039291,10214.842000
1629.527337,1258.350101,-1455.581446,6809.894666
1629.527663,3034.844362,2298.286494,8364.327145
1629.527990,1628.453072,2528.115143,11843.295072
1629.528316,296.082377,1225.752797,10881.027347
1629.528642,740.205942,229.828649,9474.636058
1629.528968,-2146.597232,2451.505594,10955.047942
1629.529294,-1924.535449,2298.286494,9030.512492
1629.529620,1554.432478,919.314598,6217.729913
1629.529946,1184.329507,-612.876398,6365.771101
1629.530272,-814.226536,-1455.581446,8142.265362
1629.530599,-2072.576638,689.485948,7994.224174
1629.530925,-2294.638420,1455.581446,11029.068536
1629.531251,-3478.967927,0.000000,12065.356855
1629.531577,-3997.112087,-1991.848295,10066.800811
1629.531903,0.000000,-1838.629195,6883.915261
1629.532229,1110.308913,-1072.533697,8956.491898
1629.532555,-2220.617826,383.047749,9178.553681
1629.532882,-740.205942,689.485948,7254.018232
1629.533208,74.020594,2298.286494,10658.965565
1629.533534,-1406.391290,1915.238745,12361.439231
1629.533860,-2738.761985,1915.238745,9030.512492
1629.534186,1628.453072,-306.438199,5403.503377
1629.534512,2072.576638,-1378.971896,9474.636058
1629.534838,-666.185348,-306.438199,11473.192101
1629.535164,-1332.370696,1762.019645,9622.677246
1629.535491,-296.082377,0.000000,10214.842000
1629.535817,-3478.967927,-3907.087040,11473.192101
1629.536143,-3108.864956,-2221.676944,10214.842000
1629.536469,1110.308913,-229.828649,9548.656652
1629.536795,444.123565,153.219100,10510.924376
1629.537121,-1776.494261,-2757.943793,10066.800811
1629.537447,-592.164754,-2528.115143,8438.347739
1629.537774,518.144159,1685.410096,9400.615463
1629.538100,-444.123565,3907.087040,10955.047942
1629.538426,444.123565,3524.039291,8734.430116
1629.538752,5551.544565,383.047749,4959.379811
1629.539078,6735.874072,1225.752797,6883.915261
1629.539404,2960.823768,4136.915689,8808.450710
1629.539730,2072.576638,4903.011187,7254.018232
1629.540056,3849.070898,2757.943793,9030.512492
1629.540383,2072.576638,383.047749,12805.562797
1629.540709,444.123565,689.485948,11547.212695
1629.541035,3108.864956,1225.752797,6809.894666
1629.541361,4737.318029,-1685.410096,9326.594869
1629.541687,1924.535449,-2757.943793,11843.295072
1629.542013,-814.226536,1762.019645,9548.656652
1629.542339,0.000000,4749.792088,9844.739029
1629.542666,-1554.432478,2374.896044,11917.315666
1629.542992,-3108.864956,-536.266849,7105.977043
1629.543318,-1406.391290,-229.828649,4293.194464
1629.543644,-296.082377,1608.800546,6143.709319
1629.543970,-3552.988522,3677.258390,9844.739029
1629.544296,-3478.967927,1991.848295,9622.677246
1629.544622,-2368.659014,689.485948,11621.233289
1629.544949,-5033.400406,-306.438199,11325.150913
1629.545275,-5033.400406,0.000000,8956.491898
1629.545601,-444.123565,612.876398,6661.853478
1629.545927,1628.453072,0.000000,8956.491898
1629.546253,-1110.308913,536.266849,10362.883188
1629.546579,444.123565,2221.676944,9474.636058
1629.546905,1332.370696,3447.429741,9992.780217
1629.547231,-370.102971,2528.115143,11103.089130
1629.547558,444.123565,1225.752797,7476.080014
1629.547884,2812.782580,1685.410096,6365.771101
1629.548210,4367.215058,1072.533697,11029.068536
1629.548536,1924.535449,1532.190996,12731.542202
1629.548862,0.000000,1685.410096,8290.306550
1629.549188,-2368.659014,1072.533697,9326.594869
1629.549514,-4071.132681,-689.485948,10732.986159
1629.549841,-3034.844362,-383.047749,7476.080014
1629.550167,-2146.597232,-459.657299,5403.503377
1629.550493,-2664.741391,-2987.772442,6883.915261
1629.550819,-4663.297435,-1762.019645,8734.430116
1629.551145,-3404.947333,-306.438199,6809.894666
1629.551471,-3701.029710,0.000000,9030.512492
1629.551797,-4145.153275,-1762.019645,10362.883188
1629.552123,370.102971,-2221.676944,8512.368333
1629.552450,4737.318029,842.705048,10362.883188
1629.552776,4885.359217,1072.533697,11843.295072
1629.553102,2220.617826,1302.362347,11695.253884
1629.553428,5033.400406,1302.362347,9918.759623
1629.553754,6069.688724,1762.019645,13545.768739
1629.554080,2812.782580,3140.991542,13397.727550
1629.554406,4219.173869,2604.724693,7920.203579
1629.554733,6735.874072,2221.676944,7550.100608
1629.555059,4441.235652,-689.485948,10436.903782
1629.555385,-222.061783,1685.410096,10288.862594
1629.555711,1110.308913,3294.210641,7846.182985
1629.556037,-148.041188,1378.971896,9622.677246
1629.556363,-3701.029710,-1149.143247,7994.224174
1629.556689,-1554.432478,-766.095498,5033.400406
1629.557016,-296.082377,1685.410096,5403.503377
1629.557342,-2294.638420,-306.438199,8364.327145
1629.557668,-3997.112087,-2911.162892,8290.306550
1629.557994,-2368.659014,-1455.581446,9178.553681
1629.558320,-2368.659014,459.657299,10288.862594
1629.558646,-4219.173869,2987.772442,12731.542202
1629.558972,-666.185348,76.609550,7031.956449
1629.559298,3552.988522,-1532.190996,6809.894666
1629.559625,2368.659014,-1225.752797,8290.306550
1629.559951,296.082377,2528.115143,9770.718434
1629.560277,1332.370696,6894.859482,11103.089130
1629.560603,1776.494261,4290.134789,14137.933492
1629.560929,-888.247130,536.266849,12805.562797
1629.561255,814.226536,-459.657299,5625.565159
1629.561581,1776.494261,919.314598,7550.100608
1629.561908,-592.164754,0.000000,10658.965565
1629.562234,-3923.091493,-919.314598,10584.944971
1629.562560,-3256.906145,0.000000,11917.315666
1629.562886,-4071.132681,-766.095498,14359.995275
1629.563212,-6661.853478,-306.438199,9474.636058
1629.563538,-1998.556043,0.000000,3997.112087
1629.563864,518.144159,536.266849,7254.018232
1629.564190,-1332.370696,842.705048,7624.121203
1629.564517,-888.247130,2528.115143,6439.791695
1629.564843,1924.535449,2145.067394,8142.265362
1629.565169,-2294.638420,2221.676944,11325.150913
1629.565495,-3404.947333,1608.800546,8068.244768
1629.565821,2590.720797,459.657299,5921.647536
1629.566147,3849.070898,-1302.362347,7920.203579
1629.566473,444.123565,-1991.848295,9622.677246
1629.566800,814.226536,612.876398,9622.677246
1629.567126,4145.153275,2221.676944,11991.336260
1629.567452,888.247130,1378.971896,14582.057057
1629.567778,0.000000,229.828649,10288.862594
1629.568104,5107.421000,536.266849,6513.812290
1629.568430,6809.894666,1762.019645,7105.977043
1629.568756,4145.153275,2298.286494,10140.821405
1629.569083,2368.659014,4213.525239,10807.006753
1629.569409,1776.494261,3217.601092,10214.842000
1629.569735,-1554.432478,919.314598,12139.377449
1629.570061,-1554.432478,-2298.286494,8660.409521
1629.570387,1480.411884,-1608.800546,6217.729913
1629.570713,1480.411884,459.657299,9400.615463
1629.571039,-1480.411884,1072.533697,10732.986159
1629.571365,-1776.494261,76.609550,8586.388927
1629.571692,0.000000,-1991.848295,7994.224174
1629.572018,-4219.173869,-153.219100,12139.377449
1629.572344,-3182.885551,1915.238745,7994.224174
1629.572670,2146.597232,2374.896044,4959.379811
1629.572996,4589.276840,-229.828649,8882.471304
1629.573322,222.061783,-689.485948,10288.862594
1629.573648,-1998.556043,2834.553343,7846.182985
1629.573975,1110.308913,3064.381992,10140.821405
1629.574301,-1184.329507,689.485948,13101.645173
1629.574627,-2960.823768,383.047749,9104.533087
1629.574953,2294.638420,1072.533697,6587.832884
1629.575279,3034.844362,0.000000,8364.327145
1629.575605,-1554.432478,-766.095498,9104.533087
1629.575931,-1850.514855,0.000000,9030.512492
1629.576257,-1184.329507,1608.800546,11399.171507
1629.576584,-3701.029710,1991.848295,12213.398043
1629.576910,-2960.823768,76.609550,9252.574275
1629.577236,-888.247130,-2681.334243,6809.894666
1629.577562,-1184.329507,-3600.648841,7550.100608
1629.577888,-4145.153275,-995.924147,9104.533087
1629.578214,-1850.514855,689.485948,9030.512492
1629.578540,-2664.741391,766.095498,11251.130318
1629.578867,-5773.606348,-229.828649,12287.418637
1629.579193,-3256.906145,-1991.848295,8216.285956
1629.579519,962.267725,-1532.190996,5033.400406
1629.579845,962.267725,-689.485948,8734.430116
1629.580171,-296.082377,1072.533697,11177.109724
1629.580497,2590.720797,2681.334243,7402.059420
1629.580823,3034.844362,2068.457845,10807.006753
1629.581150,740.205942,-536.266849,13841.851115
1629.581476,1480.411884,1762.019645,9400.615463
1629.581802,5699.585753,3830.477490,6735.874072
1629.582128,7328.038826,0.000000,9400.615463
1629.582454,4145.153275,0.000000,11177.109724
1629.582780,2220.617826,3217.601092,9252.574275
1629.583106,1924.535449,2987.772442,9252.574275
1629.583432,-74.020594,689.485948,9474.636058
1629.583758,-1110.308913,-842.705048,7698.141797
1629.584085,1628.453072,1302.362347,6883.915261
1629.584411,1776.494261,3064.381992,6883.915261
1629.584737,518.144159,229.828649,8882.471304
1629.585063,-592.164754,-229.828649,9474.636058
1629.585389,-1554.432478,2068.457845,10362.883188
1629.585715,-3627.009116,3294.210641,10288.862594
1629.586041,0.000000,766.095498,6661.853478
1629.586367,2664.741391,-1532.190996,7031.956449
1629.586693,592.164754,-383.047749,8882.471304
1629.587019,-1776.494261,3830.477490,9696.697840
1629.587345,0.000000,3217.601092,9548.656652
1629.587671,-962.267725,-1302.362347,12583.501014
1629.587997,-2886.803174,-1225.752797,13101.645173
1629.588323,-1036.288319,1915.238745,8734.430116
1629.588649,1480.411884,2834.553343,8586.388927
1629.588975,1480.411884,76.609550,9548.656652
1629.589301,518.144159,-612.876398,10955.047942
1629.589627,0.000000,3217.601092,9326.594869
1629.589953,-1850.514855,4673.182538,10510.924376
1629.590279,-2960.823768,1991.848295,10436.903782
1629.590605,-1258.350101,-766.095498,7179.997637
1629.590931,-296.082377,-766.095498,4885.359217
1629.591257,-2442.679609,-842.705048,6587.832884
1629.591583,-5107.421000,306.438199,10066.800811
1629.591909,-3923.091493,-459.657299,9770.718434
1629.592235,-3997.112087,-1762.019645,11177.109724
1629.592561,-5551.544565,-2528.115143,10732.986159
1629.592888,-3256.906145,-1685.410096,6291.750507
1629.593214,2738.761985,229.828649,7105.977043
1629.593540,2516.700203,-1225.752797,8512.368333
1629.593866,-1924.535449,459.657299,9696.697840
1629.594192,1110.308913,2145.067394,10066.800811
1629.594518,2368.659014,2298.286494,12657.521608
1629.594844,148.041188,0.000000,11251.130318
1629.595170,1628.453072,-1685.410096,5847.626942
1629.595496,5033.400406,459.657299,8142.265362
1629.595822,5329.482782,2451.505594,11547.212695
1629.596148,2072.576638,1762.019645,11473.192101
1629.596474,1702.473667,229.828649,10732.986159
1629.596800,592.164754,-1532.190996,11991.336260
1629.597126,-370.102971,153.219100,10732.986159
1629.597452,2664.741391,1608.800546,9104.533087
1629.597778,3478.967927,842.705048,7698.141797
1629.598104,1110.308913,-1991.848295,7624.121203
1629.598430,0.000000,-1225.752797,7550.100608
1629.598756,592.164754,1608.800546,8068.244768
1629.599082,-962.267725,3370.820191,10214.842000
1629.599408,-1332.370696,2451.505594,9474.636058
1629.599734,1628.453072,766.095498,6291.750507
1629.600060,2664.741391,383.047749,6143.709319
1629.600386,148.041188,1225.752797,8364.327145
1629.600712,-1480.411884,1302.362347,6809.894666
1629.601038,296.082377,1149.143247,8216.285956
1629.601365,148.041188,1072.533697,13249.686362
1629.601691,-2664.741391,2604.724693,13545.768739
1629.602017,-1110.308913,1915.238745,7105.977043
1629.602343,1850.514855,-1378.971896,7031.956449
1629.602669,0.000000,-3753.867940,9326.594869
1629.602995,-2516.700203,612.876398,9474.636058
1629.603321,-814.226536,5286.058936,10066.800811
1629.603647,-1036.288319,2374.896044,12805.562797
1629.603973,-3330.926739,-1838.629195,11547.212695
1629.604299,-1110.308913,-2451.505594,6069.688724
1629.604625,518.144159,2221.676944,8290.306550
1629.604951,-1036.288319,3140.991542,10732.986159
1629.605277,-1480.411884,1378.971896,10658.965565
1629.605603,-222.061783,-459.657299,10140.821405
1629.605929,-4145.153275,-612.876398,10881.027347
1629.606255,-5551.544565,-919.314598,6143.709319
1629.606581,-1406.391290,766.095498,5847.626942
1629.606907,814.226536,689.485948,9030.512492
1629.607233,-444.123565,383.047749,9622.677246
1629.607559,-1258.350101,459.657299,8586.388927
1629.607885,-1110.308913,-536.266849,10066.800811
1629.608211,-4219.173869,536.266849,10066.800811
1629.608537,-1110.308913,1149.143247,7624.121203
1629.608863,3997.112087,1455.581446,7105.977043
1629.609189,4515.256246,229.828649,6735.874072
1629.609515,2516.700203,689.485948,9770.718434
1629.609841,3182.885551,3140.991542,10955.047942
1629.610168,2294.638420,4749.792088,13027.624579
1629.610494,518.144159,842.705048,11029.068536
1629.610820,1480.411884,-1915.238745,8882.471304
1629.611146,4589.276840,-1991.848295,5107.421000
1629.611472,3923.091493,1149.143247,8068.244768
1629.611798,1554.432478,2451.505594,12805.562797
1629.612124,2442.679609,1532.190996,11103.089130
1629.612450,1258.350101,766.095498,10362.883188
1629.612776,-1628.453072,-689.485948,10510.924376
1629.613102,-1406.391290,0.000000,6439.791695
1629.613428,1776.494261,2681.334243,6809.894666
1629.613754,2516.700203,1685.410096,9548.656652
1629.614080,-666.185348,-1072.533697,9770.718434
1629.614406,-1406.391290,-1685.410096,8586.388927
1629.614732,-518.144159,-153.219100,13397.727550
1629.615058,-2442.679609,2068.457845,14211.954086
1629.615384,-2664.741391,612.876398,7476.080014
1629.615710,1850.514855,-1838.629195,4737.318029
1629.616036,3849.070898,-919.314598,7105.977043
1629.616362,1702.473667,2681.334243,8734.430116
1629.616688,666.185348,4443.353888,9252.574275
1629.617014,-444.123565,2374.896044,11399.171507
1629.617340,-1036.288319,76.609550,11621.233289
1629.617666,0.000000,-306.438199,8512.368333
1629.617992,3034.844362,-459.657299,4737.318029
1629.618318,888.247130,0.000000,8882.471304
1629.618644,-2442.679609,-1378.971896,10732.986159
1629.618971,-962.267725,459.657299,11991.336260
1629.619297,-2220.617826,383.047749,12657.521608
1629.619623,-6291.750507,-1838.629195,12065.356855
1629.619949,-5181.441594,-2681.334243,6735.874072
1629.620275,0.000000,-919.314598,5477.523971
1629.620601,148.041188,1149.143247,9548.656652
1629.620927,-2516.700203,1302.362347,9474.636058
1629.621253,-2442.679609,153.219100,6957.935855
1629.621579,-2960.823768,-689.485948,11843.295072
1629.621905,-4441.235652,-1225.752797,11473.192101
1629.622231,-2664.741391,1991.848295,8512.368333
1629.622557,2812.782580,459.657299,7920.203579
1629.622883,2072.576638,-2145.067394,9622.677246
1629.623209,-592.164754,-1072.533697,8586.388927
1629.623535,962.267725,1685.410096,9400.615463
1629.623861,1110.308913,2681.334243,12361.439231
1629.624187,1554.432478,2451.505594,12435.459826
1629.624513,4219.173869,2451.505594,7772.162391
1629.624839,7031.956449,2987.772442,5255.462188
1629.625165,4071.132681,3294.210641,7476.080014
1629.625491,3923.091493,2911.162892,7254.018232
1629.625817,4219.173869,4826.401637,9178.553681
1629.626143,962.267725,2681.334243,11399.171507
1629.626469,-3627.009116,689.485948,10658.965565
1629.626795,-888.247130,-995.924147,6291.750507
1629.627121,1184.329507,-1915.238745,7254.018232
1629.627447,-3182.885551,-1225.752797,10658.965565
1629.627774,-1776.494261,-306.438199,7772.162391
1629.628100,0.000000,1149.143247,9178.553681
1629.628426,-1554.432478,842.705048,11695.253884
1629.628752,-5329.482782,1378.971896,10807.006753
1629.629078,-74.020594,2298.286494,5847.626942
1629.629404,4737.318029,1455.581446,7105.977043
1629.629730,3404.947333,0.000000,9104.533087
1629.630056,1184.329507,2298.286494,10066.800811
1629.630382,1332.370696,4979.620737,10881.027347
