#time,accel_x,accel_y,accel_z
28558.532458,3108.864956,2298.286494,8882.471304
28558.532787,4515.256246,1532.190996,8734.430116
28558.533116,4219.173869,1455.581446,8956.491898
28558.533445,3997.112087,2221.676944,9030.512492
28558.533774,3923.091493,2528.115143,7920.203579
28558.534103,3849.070898,1915.238745,8438.347739
28558.534431,3627.009116,1838.629195,8734.430116
28558.534760,2442.679609,1225.752797,9104.533087
28558.535089,1776.494261,1302.362347,7994.224174
28558.535418,2220.617826,1762.019645,8216.285956
28558.535747,2886.803174,1455.581446,8364.327145
28558.536075,2368.659014,2298.286494,7476.080014
28558.536404,2146.597232,3217.601092,6735.874072
28558.536733,2812.782580,2834.553343,7402.059420
28558.537062,2294.638420,3600.648841,7846.182985
28558.537391,1406.391290,2834.553343,8364.327145
28558.537719,1332.370696,2221.676944,9030.512492
28558.538048,1036.288319,2374.896044,9844.739029
28558.538377,740.205942,2757.943793,10807.006753
28558.538706,1110.308913,1378.971896,11991.336260
28558.539035,1036.288319,1455.581446,11843.295072
28558.539363,1628.453072,1608.800546,11769.274478
28558.539692,2812.782580,2451.505594,11547.212695
28558.540021,3256.906145,3370.820191,11103.089130
28558.540350,3552.988522,4060.306139,10214.842000
28558.540679,4663.297435,4519.963438,9030.512492
28558.541008,5625.565159,5056.230287,8216.285956
28558.541336,5033.400406,6205.373534,7476.080014
28558.541665,4737.318029,6511.811733,7772.162391
28558.541994,4737.318029,5975.544884,8216.285956
28558.542323,4071.132681,5439.278036,8438.347739
28558.542652,2960.823768,4826.401637,9178.553681
28558.542980,1628.453072,3830.477490,9474.636058
28558.543309,888.247130,3677.258390,9104.533087
28558.543638,518.144159,3600.648841,9178.553681
28558.543967,-740.205942,3217.601092,9474.636058
28558.544296,-2294.638420,2987.772442,8512.368333
28558.544624,-1702.473667,3064.381992,8216.285956
28558.544953,-814.226536,3294.210641,8438.347739
28558.545282,-1258.350101,3983.696590,8216.285956
28558.545611,0.000000,4443.353888,8364.327145
28558.545940,1332.370696,4443.353888,8364.327145
28558.546268,2664.741391,4903.011187,8660.409521
28558.546597,3849.070898,5132.839837,9622.677246
28558.546926,4959.379811,5439.278036,10066.800811
28558.547255,6661.853478,6205.373534,10436.903782
28558.547584,7698.141797,6358.592633,11325.150913
28558.547913,7105.977043,5132.839837,11547.212695
28558.548241,5551.544565,3524.039291,11251.130318
28558.548570,4811.338623,3064.381992,11103.089130
28558.548899,4145.153275,2068.457845,11399.171507
28558.549228,1998.556043,1608.800546,11325.150913
28558.549557,814.226536,1455.581446,10140.821405
28558.549885,296.082377,766.095498,8808.450710
28558.550214,-666.185348,-459.657299,7402.059420
28558.550543,-1850.514855,306.438199,7105.977043
28558.550872,-2072.576638,1302.362347,6069.688724
28558.551201,-1480.411884,1378.971896,5403.503377
28558.551529,-740.205942,919.314598,5625.565159
28558.551858,-296.082377,766.095498,6587.832884
28558.552187,-518.144159,1072.533697,7624.121203
28558.552516,444.123565,0.000000,8882.471304
28558.552845,2146.597232,-1225.752797,10510.924376
28558.553173,1924.535449,-1608.800546,12657.521608
28558.553502,1628.453072,-2145.067394,13101.645173
28558.553831,2960.823768,-2987.772442,14211.954086
28558.554160,3404.947333,-3753.867940,14656.077652
28558.554488,2960.823768,-1991.848295,14211.954086
28558.554817,3701.029710,-1838.629195,12509.480420
28558.555145,4071.132681,-689.485948,9622.677246
28558.555474,5033.400406,919.314598,8660.409521
28558.555802,5255.462188,3600.648841,7846.182985
28558.556131,3775.050304,5209.449386,6217.729913
28558.556459,2516.700203,4673.182538,4663.297435
28558.556788,1036.288319,2221.676944,3997.112087
28558.557116,-1776.494261,1378.971896,4737.318029
28558.557445,-4885.359217,842.705048,6069.688724
28558.557773,-6661.853478,-1072.533697,8142.265362
28558.558102,-8512.368333,-3753.867940,10584.944971
28558.558430,-9548.656652,-5669.106685,12509.480420
28558.558759,-9178.553681,-6128.763984,13471.748144
28558.559087,-7698.141797,-5745.716235,12287.418637
28558.559416,-4441.235652,-4136.915689,11251.130318
28558.559744,296.082377,-1455.581446,11843.295072
28558.560073,3034.844362,3370.820191,10732.986159
28558.560401,6587.832884,6971.469032,7772.162391
28558.560730,9844.739029,7660.954980,6217.729913
28558.561058,10732.986159,8580.269578,4885.359217
28558.561387,9400.615463,9652.803275,4737.318029
28558.561715,7772.162391,9576.193725,5625.565159
28558.562044,4589.276840,7201.297681,8142.265362
28558.562372,1110.308913,2834.553343,10140.821405
28558.562701,-2368.659014,0.000000,11695.253884
28558.563029,-5477.523971,-2451.505594,10881.027347
28558.563358,-5699.585753,-3064.381992,10140.821405
28558.563686,-4071.132681,-2528.115143,11621.233289
28558.564015,-2738.761985,919.314598,11399.171507
28558.564343,-1332.370696,3677.258390,8734.430116
28558.564672,1628.453072,3677.258390,6365.771101
28558.565000,2368.659014,4366.744339,4663.297435
28558.565329,2368.659014,6511.811733,4219.173869
28558.565657,2590.720797,6665.030833,5551.544565
28558.565986,1036.288319,4903.011187,7179.997637
28558.566314,-888.247130,153.219100,9326.594869
28558.566643,-2886.803174,-2911.162892,11251.130318
28558.566971,-4885.359217,-4443.353888,11843.295072
28558.567300,-5329.482782,-4826.401637,12435.459826
28558.567628,-3330.926739,-5515.887586,13693.809927
28558.567957,-2146.597232,-3677.258390,14359.995275
28558.568285,148.041188,-842.705048,13101.645173
28558.568614,2516.700203,842.705048,10732.986159
28558.568942,4293.194464,1991.848295,9400.615463
28558.569271,4959.379811,2987.772442,7994.224174
28558.569599,5403.503377,4519.963438,8512.368333
28558.569928,4367.215058,4060.306139,8734.430116
28558.570256,1998.556043,1225.752797,7772.162391
28558.570585,0.000000,-1225.752797,8586.388927
28558.570913,-1258.350101,-2451.505594,9474.636058
28558.571242,-1036.288319,-1532.190996,9696.697840
28558.571570,-814.226536,-1532.190996,10066.800811
28558.571898,-888.247130,-2451.505594,9696.697840
28558.572227,-1628.453072,-1762.019645,7328.038826
28558.572555,-1776.494261,-383.047749,6143.709319
28558.572884,-1332.370696,383.047749,6735.874072
28558.573212,-2590.720797,536.266849,6957.935855
28558.573541,-3182.885551,-995.924147,8808.450710
28558.573869,-4071.132681,-2221.676944,10436.903782
28558.574198,-5551.544565,-3907.087040,11473.192101
28558.574526,-6217.729913,-5592.497135,11769.274478
28558.574855,-4145.153275,-5362.668486,11843.295072
28558.575183,-518.144159,-4290.134789,13619.789333
28558.575512,2220.617826,-153.219100,13323.706956
28558.575840,3923.091493,1838.629195,12583.501014
28558.576169,5403.503377,2451.505594,10288.862594
28558.576497,6957.935855,3677.258390,8364.327145
28558.576826,7994.224174,5132.839837,7254.018232
28558.577154,6069.688724,6511.811733,7772.162391
28558.577483,3923.091493,4519.963438,7846.182985
28558.577811,1554.432478,1685.410096,7624.121203
28558.578140,-592.164754,-459.657299,9252.574275
28558.578468,-3256.906145,-1149.143247,9252.574275
28558.578797,-4145.153275,-1072.533697,8882.471304
28558.579125,-2664.741391,-536.266849,8882.471304
28558.579454,-1184.329507,459.657299,8438.347739
28558.579782,-1554.432478,2834.553343,8068.244768
28558.580111,-1924.535449,3753.867940,6291.750507
28558.580439,-1036.288319,2834.553343,4663.297435
28558.580768,0.000000,2374.896044,5699.585753
28558.581096,-1406.391290,2451.505594,7698.141797
28558.581425,-3330.926739,1838.629195,8512.368333
28558.581753,-4589.276840,-919.314598,9474.636058
28558.582082,-3997.112087,-4826.401637,10955.047942
28558.582410,-2516.700203,-4903.011187,12139.377449
28558.582739,-1776.494261,-1991.848295,13471.748144
28558.583067,296.082377,-153.219100,13471.748144
28558.583396,3478.967927,229.828649,12731.542202
28558.583724,5625.565159,1149.143247,12509.480420
28558.584053,5255.462188,3983.696590,10214.842000
28558.584381,5255.462188,5439.278036,7550.100608
28558.584710,5625.565159,4443.353888,7179.997637
28558.585038,3256.906145,2987.772442,8290.306550
28558.585367,148.041188,1838.629195,7920.203579
28558.585695,-1480.411884,-766.095498,7254.018232
28558.586024,-2738.761985,-1915.238745,7105.977043
28558.586352,-2442.679609,-2834.553343,7772.162391
28558.586681,-2368.659014,-919.314598,8586.388927
28558.587009,-1554.432478,612.876398,7772.162391
28558.587338,-888.247130,689.485948,6069.688724
28558.587666,0.000000,-459.657299,5625.565159
28558.587995,-666.185348,383.047749,5477.523971
28558.588323,-1628.453072,2145.067394,5921.647536
28558.588652,-1628.453072,383.047749,7994.224174
28558.588980,-2442.679609,-1915.238745,9622.677246
28558.589309,-4367.215058,-5132.839837,11769.274478
28558.589637,-5403.503377,-6128.763984,12287.418637
28558.589966,-3478.967927,-6435.202183,13249.686362
28558.590294,-1480.411884,-5286.058936,14359.995275
28558.590623,1036.288319,-2911.162892,14952.160028
28558.590951,3701.029710,-766.095498,13989.892304
28558.591280,5847.626942,1302.362347,12139.377449
28558.591608,7179.997637,2834.553343,9918.759623
28558.591937,7179.997637,4290.134789,8364.327145
28558.592265,5699.585753,5362.668486,7179.997637
28558.592594,4515.256246,4136.915689,7550.100608
28558.592922,1924.535449,1991.848295,8142.265362
28558.593250,-1628.453072,-689.485948,7402.059420
28558.593579,-3923.091493,-1762.019645,7772.162391
28558.593907,-4441.235652,-3140.991542,8364.327145
28558.594236,-4589.276840,-2374.896044,9030.512492
28558.594564,-3923.091493,-1149.143247,9326.594869
28558.594893,-3627.009116,-459.657299,7920.203579
28558.595221,-2886.803174,459.657299,5995.668130
28558.595550,-1406.391290,919.314598,6365.771101
28558.595878,-814.226536,2834.553343,7031.956449
28558.596207,-2294.638420,2757.943793,7698.141797
28558.596535,-2146.597232,153.219100,9252.574275
28558.596864,-1924.535449,-2604.724693,10510.924376
28558.597192,-2886.803174,-3140.991542,11251.130318
28558.597521,-1924.535449,-2911.162892,11917.315666
28558.597849,666.185348,-1532.190996,13841.851115
28558.598178,2886.803174,76.609550,14211.954086
28558.598506,5181.441594,1991.848295,14730.098246
28558.598835,5699.585753,3064.381992,12287.418637
28558.599163,6291.750507,4136.915689,9770.718434
28558.599492,7031.956449,4826.401637,8290.306550
28558.599820,5847.626942,5286.058936,8808.450710
28558.600149,2886.803174,5362.668486,8660.409521
28558.600477,370.102971,2987.772442,7846.182985
28558.600806,-518.144159,-229.828649,8586.388927
28558.601134,-2738.761985,-1532.190996,7994.224174
28558.601463,-3923.091493,-842.705048,7550.100608
28558.601791,-2590.720797,153.219100,7772.162391
28558.602120,-888.247130,766.095498,7328.038826
28558.602448,-814.226536,1608.800546,6217.729913
28558.602777,-518.144159,2374.896044,5921.647536
28558.603105,74.020594,3064.381992,4959.379811
28558.603434,888.247130,3524.039291,5699.585753
28558.603762,518.144159,2451.505594,8216.285956
28558.604091,-1628.453072,1072.533697,9622.677246
28558.604419,-3552.988522,-1455.581446,9770.718434
28558.604748,-2886.803174,-4443.353888,11991.336260
28558.605076,-2220.617826,-5362.668486,12879.583391
28558.605405,-2220.617826,-2834.553343,13619.789333
28558.605733,888.247130,-1302.362347,14508.036463
28558.606062,3182.885551,76.609550,14063.912898
28558.606390,4589.276840,1225.752797,11917.315666
28558.606719,5107.421000,2987.772442,10214.842000
28558.607047,5181.441594,3524.039291,7772.162391
28558.607376,5181.441594,4596.572988,6957.935855
28558.607704,3478.967927,3294.210641,8586.388927
28558.608033,-518.144159,1608.800546,8438.347739
28558.608361,-3034.844362,-842.705048,7179.997637
28558.608690,-3108.864956,-3294.210641,7772.162391
28558.609018,-4145.153275,-3524.039291,8216.285956
28558.609347,-4737.318029,-1838.629195,7772.162391
28558.609675,-2812.782580,-689.485948,7994.224174
28558.610004,-2146.597232,-766.095498,6809.894666
28558.610332,-2294.638420,-612.876398,5625.565159
28558.610661,-1850.514855,766.095498,5773.606348
28558.610989,-962.267725,2145.067394,6291.750507
28558.611318,-370.102971,2374.896044,7698.141797
28558.611646,-666.185348,-383.047749,9474.636058
28558.611975,-2442.679609,-3140.991542,10436.903782
28558.612303,-3034.844362,-3140.991542,10955.047942
28558.612632,-666.185348,-3677.258390,12361.439231
28558.612960,888.247130,-2987.772442,14211.954086
28558.613289,1480.411884,-919.314598,14582.057057
28558.613617,3552.988522,536.266849,13471.748144
28558.613946,5847.626942,919.314598,11769.274478
28558.614274,5403.503377,2987.772442,9770.718434
28558.614603,5699.585753,4749.792088,8808.450710
28558.614931,4811.338623,5132.839837,8216.285956
28558.615259,3182.885551,4519.963438,8216.285956
28558.615588,1406.391290,2451.505594,9474.636058
28558.615916,-1258.350101,76.609550,8956.491898
28558.616245,-3478.967927,0.000000,7624.121203
28558.616573,-2516.700203,-1225.752797,7772.162391
28558.616902,-1850.514855,-459.657299,8734.430116
28558.617230,-1776.494261,2068.457845,8438.347739
28558.617559,-1406.391290,2604.724693,7105.977043
28558.617887,-962.267725,2374.896044,5403.503377
28558.618216,-592.164754,2757.943793,5107.421000
28558.618544,-518.144159,4213.525239,6513.812290
28558.618873,-962.267725,4213.525239,7920.203579
28558.619201,-1924.535449,1991.848295,8808.450710
28558.619530,-2294.638420,-1378.971896,10881.027347
28558.619858,-2812.782580,-2681.334243,12361.439231
28558.620187,-2516.700203,-1838.629195,12583.501014
28558.620515,370.102971,-919.314598,13841.851115
28558.620844,2368.659014,0.000000,15100.201217
28558.621172,3108.864956,2298.286494,14359.995275
28558.621501,3923.091493,3294.210641,11843.295072
28558.621829,4811.338623,3370.820191,9696.697840
28558.622158,4811.338623,3677.258390,8142.265362
28558.622486,4071.132681,4596.572988,8438.347739
28558.622815,2516.700203,4290.134789,8734.430116
28558.623143,74.020594,2834.553343,7920.203579
28558.623472,-962.267725,-536.266849,7772.162391
28558.623800,-2516.700203,-1608.800546,8660.409521
28558.624129,-3552.988522,-153.219100,8290.306550
28558.624457,-2590.720797,0.000000,8216.285956
28558.624786,-1036.288319,-459.657299,8290.306550
28558.625114,-1406.391290,0.000000,7179.997637
28558.625443,-1776.494261,1072.533697,6439.791695
28558.625771,-1184.329507,1838.629195,5847.626942
28558.626100,-1332.370696,1302.362347,6957.935855
28558.626428,-1554.432478,0.000000,8882.471304
28558.626757,-2590.720797,-612.876398,10140.821405
28558.627085,-3182.885551,-2068.457845,10362.883188
28558.627414,-2516.700203,-3983.696590,11251.130318
28558.627742,-962.267725,-4290.134789,12435.459826
28558.628071,0.000000,-1991.848295,12805.562797
28558.628399,2146.597232,-459.657299,13619.789333
28558.628728,4959.379811,-306.438199,13397.727550
28558.629056,5181.441594,1149.143247,11547.212695
28558.629385,5107.421000,2451.505594,9178.553681
28558.629713,5329.482782,3064.381992,7476.080014
28558.630042,3775.050304,3524.039291,7476.080014
28558.630370,1924.535449,1991.848295,8512.368333
28558.630699,-740.205942,459.657299,9178.553681
28558.631027,-2516.700203,-1378.971896,8290.306550
28558.631356,-2886.803174,-2911.162892,8068.244768
28558.631684,-2738.761985,-2298.286494,8290.306550
28558.632013,-3478.967927,-459.657299,8364.327145
28558.632341,-2368.659014,766.095498,7550.100608
28558.632670,-666.185348,-229.828649,6883.915261
28558.632998,-1480.411884,459.657299,5625.565159
28558.633327,-1998.556043,2145.067394,5551.544565
28558.633655,-1702.473667,2604.724693,5847.626942
28558.633984,-2072.576638,1149.143247,7772.162391
28558.634312,-3404.947333,-459.657299,9696.697840
28558.634641,-4219.173869,-2604.724693,11029.068536
28558.634969,-3552.988522,-2911.162892,11473.192101
28558.635298,-1480.411884,-3217.601092,11917.315666
28558.635626,1258.350101,-2221.676944,13397.727550
28558.635955,2220.617826,689.485948,13545.768739
28558.636283,3775.050304,3217.601092,12805.562797
28558.636612,6439.791695,2834.553343,10807.006753
28558.636940,6661.853478,3370.820191,9178.553681
28558.637268,4663.297435,5209.449386,7698.141797
28558.637597,3775.050304,5515.887586,7772.162391
28558.637925,1776.494261,3753.867940,8216.285956
28558.638254,-592.164754,766.095498,8660.409521
28558.638582,-2664.741391,-995.924147,8956.491898
28558.638911,-3997.112087,-2374.896044,8142.265362
28558.639239,-3775.050304,-1455.581446,7105.977043
28558.639568,-1480.411884,0.000000,8512.368333
28558.639896,-1554.432478,1455.581446,8142.265362
28558.640225,-1406.391290,2681.334243,6513.812290
28558.640553,0.000000,1991.848295,5551.544565
28558.640882,518.144159,1608.800546,6217.729913
28558.641210,-444.123565,2451.505594,6809.894666
28558.641539,-1554.432478,1762.019645,8438.347739
28558.641867,-1258.350101,-1225.752797,10362.883188
28558.642196,-2960.823768,-3447.429741,11547.212695
28558.642524,-3330.926739,-4290.134789,13101.645173
28558.642853,-1924.535449,-3600.648841,13767.830521
28558.643181,0.000000,-2068.457845,14063.912898
28558.643510,3552.988522,-766.095498,14508.036463
28558.643838,4441.235652,1072.533697,13249.686362
28558.644167,4515.256246,2374.896044,11251.130318
28558.644495,5625.565159,2911.162892,9400.615463
28558.644824,5773.606348,3677.258390,8216.285956
28558.645152,3627.009116,3294.210641,7994.224174
28558.645481,1036.288319,2604.724693,8068.244768
28558.645809,-518.144159,-306.438199,8216.285956
28558.646138,-2738.761985,-1991.848295,7846.182985
28558.646466,-3923.091493,-3447.429741,8586.388927
28558.646795,-3997.112087,-2221.676944,8956.491898
28558.647123,-2812.782580,-766.095498,8364.327145
28558.647452,-592.164754,0.000000,7846.182985
28558.647780,-148.041188,995.924147,7105.977043
28558.648109,-962.267725,1149.143247,5995.668130
28558.648437,-222.061783,1915.238745,5625.565159
28558.648766,740.205942,1915.238745,7254.018232
28558.649094,-1258.350101,689.485948,8586.388927
28558.649423,-3478.967927,-995.924147,9474.636058
28558.649751,-4219.173869,-3753.867940,10510.924376
28558.650080,-3849.070898,-4826.401637,11177.109724
28558.650408,-2590.720797,-4596.572988,12583.501014
28558.650737,-1036.288319,-2451.505594,13989.892304
28558.651065,888.247130,-689.485948,13545.768739
28558.651394,4441.235652,689.485948,12509.480420
28558.651722,5921.647536,2145.067394,11547.212695
28558.652051,5033.400406,4366.744339,9104.533087
28558.652379,5477.523971,4826.401637,7846.182985
28558.652708,5403.503377,3524.039291,7846.182985
28558.653036,2516.700203,3447.429741,8956.491898
28558.653365,-1184.329507,919.314598,8068.244768
28558.653693,-2812.782580,-1991.848295,7624.121203
28558.654022,-3627.009116,-3447.429741,7920.203579
28558.654350,-3108.864956,-2298.286494,8660.409521
28558.654679,-2516.700203,76.609550,9030.512492
28558.655007,-1702.473667,1455.581446,7254.018232
28558.655336,-518.144159,1838.629195,6069.688724
28558.655664,296.082377,1991.848295,5181.441594
28558.655993,-592.164754,3524.039291,4959.379811
28558.656321,-740.205942,3524.039291,5921.647536
28558.656649,-592.164754,1685.410096,8068.244768
28558.656978,-2146.597232,-383.047749,9474.636058
28558.657306,-4959.379811,-1915.238745,10362.883188
28558.657634,-3701.029710,-3217.601092,11399.171507
28558.657963,-1480.411884,-4060.306139,12509.480420
28558.658291,666.185348,-2528.115143,13989.892304
28558.658620,2368.659014,0.000000,14730.098246
28558.658948,4145.153275,2221.676944,12953.603985
28558.659276,5921.647536,2834.553343,10584.944971
28558.659605,6587.832884,4443.353888,8734.430116
28558.659933,5403.503377,4903.011187,7846.182985
28558.660262,3256.906145,5515.887586,7698.141797
28558.660590,2072.576638,3294.210641,8438.347739
28558.660918,-962.267725,459.657299,8660.409521
28558.661247,-4663.297435,-1762.019645,7772.162391
28558.661575,-5181.441594,-2681.334243,7698.141797
28558.661903,-4959.379811,-2757.943793,7772.162391
28558.662232,-3849.070898,-919.314598,8142.265362
28558.662560,-2146.597232,383.047749,8438.347739
28558.662889,-1480.411884,1685.410096,7254.018232
28558.663217,0.000000,1685.410096,5403.503377
28558.663545,1332.370696,2528.115143,5995.668130
28558.663874,592.164754,3140.991542,7031.956449
28558.664202,-1406.391290,2834.553343,8142.265362
28558.664531,-1258.350101,0.000000,9548.656652
28558.664859,-2072.576638,-3983.696590,11769.274478
28558.665187,-2960.823768,-3907.087040,13027.624579
28558.665516,-1776.494261,-3447.429741,13397.727550
28558.665844,444.123565,-2757.943793,13767.830521
28558.666172,3034.844362,-1225.752797,14730.098246
28558.666501,4589.276840,919.314598,14137.933492
28558.666829,5181.441594,2834.553343,11695.253884
28558.667158,5847.626942,3830.477490,8956.491898
28558.667486,6661.853478,3677.258390,8142.265362
28558.667814,4145.153275,4213.525239,8586.388927
28558.668143,1110.308913,4366.744339,8660.409521
28558.668471,-592.164754,842.705048,8586.388927
28558.668800,-2294.638420,-2757.943793,8734.430116
28558.669128,-4959.379811,-3753.867940,8660.409521
28558.669456,-4737.318029,-2298.286494,8438.347739
28558.669785,-2812.782580,-766.095498,8290.306550
28558.670113,-1628.453072,0.000000,8068.244768
28558.670441,-740.205942,842.705048,7328.038826
28558.670770,0.000000,2221.676944,5995.668130
28558.671098,1110.308913,3600.648841,5921.647536
28558.671427,666.185348,3907.087040,6661.853478
28558.671755,0.000000,2374.896044,8586.388927
28558.672083,-2368.659014,1149.143247,9474.636058
28558.672412,-3034.844362,-1378.971896,10214.842000
28558.672740,-2516.700203,-4213.525239,12213.398043
28558.673068,-2368.659014,-3600.648841,12139.377449
28558.673397,-370.102971,-1762.019645,14359.995275
28558.673725,2294.638420,-459.657299,14063.912898
28558.674054,3923.091493,1225.752797,13323.706956
28558.674382,5625.565159,2757.943793,11695.253884
28558.674710,5995.668130,4443.353888,9770.718434
28558.675039,5551.544565,5822.325785,7698.141797
28558.675367,5329.482782,5286.058936,6365.771101
28558.675696,3330.926739,3447.429741,8660.409521
28558.676024,-740.205942,2911.162892,7846.182985
28558.676352,-3108.864956,-153.219100,7476.080014
28558.676681,-3256.906145,-2451.505594,8068.244768
28558.677009,-4219.173869,-2528.115143,7920.203579
28558.677337,-3849.070898,-229.828649,7550.100608
28558.677666,-2442.679609,766.095498,7254.018232
28558.677994,-1554.432478,1225.752797,6587.832884
28558.678323,-1406.391290,1608.800546,5403.503377
28558.678651,-740.205942,2451.505594,5995.668130
28558.678979,-592.164754,3370.820191,6217.729913
28558.679308,-518.144159,2374.896044,7698.141797
28558.679636,-1110.308913,-842.705048,9622.677246
28558.679965,-3108.864956,-1455.581446,10584.944971
28558.680293,-3182.885551,-2757.943793,11621.233289
28558.680621,-518.144159,-4060.306139,12805.562797
28558.680950,444.123565,-2757.943793,13841.851115
28558.681278,1628.453072,-689.485948,14582.057057
28558.681606,4367.215058,1072.533697,13175.665768
28558.681935,5699.585753,1915.238745,10807.006753
28558.682263,5921.647536,3524.039291,9696.697840
28558.682592,5255.462188,4366.744339,8882.471304
28558.682920,3404.947333,4826.401637,7698.141797
28558.683248,2146.597232,3140.991542,8068.244768
28558.683577,148.041188,0.000000,8882.471304
28558.683905,-3256.906145,-995.924147,8364.327145
28558.684234,-4737.318029,-1608.800546,7920.203579
28558.684562,-3404.947333,-2681.334243,7698.141797
28558.684890,-3404.947333,-2451.505594,8438.347739
28558.685219,-3034.844362,76.609550,7920.203579
28558.685547,-1628.453072,842.705048,6291.750507
28558.685875,-666.185348,689.485948,5625.565159
28558.686204,-444.123565,1762.019645,6069.688724
28558.686532,-370.102971,3140.991542,7179.997637
28558.686861,-1184.329507,2068.457845,8512.368333
28558.687189,-1776.494261,153.219100,9326.594869
28558.687517,-1850.514855,-3064.381992,11029.068536
28558.687846,-2368.659014,-4213.525239,12435.459826
28558.688174,-1480.411884,-3140.991542,12879.583391
28558.688503,814.226536,-1915.238745,14359.995275
28558.688831,2442.679609,-1149.143247,14804.118840
28558.689159,4219.173869,1149.143247,13397.727550
28558.689488,4737.318029,2987.772442,11251.130318
28558.689816,5181.441594,3217.601092,9696.697840
28558.690144,4885.359217,4290.134789,8364.327145
28558.690473,3552.988522,4366.744339,8956.491898
28558.690801,1406.391290,3753.867940,9030.512492
28558.691130,-814.226536,1302.362347,8142.265362
28558.691458,-1998.556043,-1455.581446,8438.347739
28558.691786,-2960.823768,-1378.971896,8808.450710
28558.692115,-3849.070898,-306.438199,8290.306550
28558.692443,-2368.659014,229.828649,7846.182985
28558.692771,-740.205942,306.438199,7550.100608
28558.693100,-888.247130,1455.581446,6587.832884
28558.693428,-1480.411884,2987.772442,5551.544565
28558.693757,-518.144159,2987.772442,5625.565159
28558.694085,-444.123565,2528.115143,6439.791695
28558.694413,-1258.350101,1532.190996,8660.409521
28558.694742,-2886.803174,153.219100,10066.800811
28558.695070,-3552.988522,-1608.800546,10584.944971
28558.695399,-1924.535449,-3294.210641,11843.295072
28558.695727,0.000000,-3524.039291,13397.727550
28558.696055,814.226536,-995.924147,14582.057057
28558.696384,3108.864956,459.657299,13545.768739
28558.696712,6217.729913,1762.019645,12879.583391
28558.697040,6439.791695,2604.724693,11029.068536
28558.697369,5329.482782,3907.087040,8956.491898
28558.697697,5477.523971,4826.401637,7994.224174
28558.698026,4515.256246,3907.087040,7698.141797
28558.698354,1924.535449,1838.629195,8956.491898
28558.698682,-1258.350101,-229.828649,9104.533087
28558.699011,-3330.926739,-1838.629195,7846.182985
28558.699339,-3330.926739,-2987.772442,7698.141797
28558.699668,-3108.864956,-2451.505594,8808.450710
28558.699996,-3701.029710,-383.047749,8216.285956
28558.700324,-2664.741391,766.095498,6661.853478
28558.700653,-1332.370696,612.876398,5847.626942
28558.700981,-1110.308913,0.000000,5107.421000
28558.701309,-1776.494261,2221.676944,5107.421000
28558.701638,-1110.308913,1915.238745,6365.771101
28558.701966,-1554.432478,689.485948,7772.162391
28558.702295,-2590.720797,-1991.848295,9474.636058
28558.702623,-2960.823768,-3447.429741,10955.047942
28558.702951,-2368.659014,-3064.381992,11769.274478
28558.703280,-222.061783,-2987.772442,12509.480420
28558.703608,2294.638420,-2451.505594,14508.036463
28558.703937,3404.947333,-612.876398,14359.995275
28558.704265,4737.318029,1532.190996,12731.542202
28558.704593,6439.791695,2068.457845,11177.109724
28558.704922,6291.750507,2834.553343,9252.574275
28558.705250,4441.235652,3907.087040,8142.265362
28558.705578,2960.823768,4136.915689,8438.347739
28558.705907,444.123565,1915.238745,8586.388927
28558.706235,-1924.535449,-459.657299,8364.327145
28558.706564,-3997.112087,-2528.115143,8956.491898
28558.706892,-5107.421000,-2528.115143,7920.203579
28558.707220,-3997.112087,-1685.410096,7328.038826
28558.707549,-2442.679609,-995.924147,8364.327145
28558.707877,-2664.741391,1225.752797,7772.162391
28558.708206,-2294.638420,1838.629195,6291.750507
28558.708534,-296.082377,842.705048,5329.482782
28558.708862,0.000000,1378.971896,5995.668130
28558.709191,-1110.308913,2834.553343,7254.018232
28558.709519,-2146.597232,2145.067394,8808.450710
28558.709847,-3330.926739,-1072.533697,9252.574275
28558.710176,-2442.679609,-3064.381992,10807.006753
28558.710504,-2368.659014,-3600.648841,12879.583391
28558.710833,-1036.288319,-2145.067394,13249.686362
28558.711161,1776.494261,-536.266849,13397.727550
28558.711489,4737.318029,459.657299,14508.036463
28558.711818,5477.523971,2068.457845,12953.603985
28558.712146,4959.379811,4136.915689,10140.821405
28558.712474,5847.626942,4136.915689,8068.244768
28558.712803,5847.626942,4290.134789,8512.368333
28558.713131,2886.803174,4136.915689,8660.409521
28558.713460,296.082377,2757.943793,8882.471304
28558.713788,-1702.473667,0.000000,8364.327145
28558.714116,-3182.885551,-1608.800546,8290.306550
28558.714445,-3701.029710,-2987.772442,8808.450710
28558.714773,-3849.070898,-995.924147,8734.430116
28558.715102,-2738.761985,536.266849,7994.224174
28558.715430,0.000000,536.266849,7402.059420
28558.715758,222.061783,919.314598,6957.935855
28558.716087,-962.267725,2221.676944,5995.668130
28558.716415,74.020594,3140.991542,5329.482782
28558.716743,666.185348,2451.505594,7254.018232
28558.717072,-1332.370696,689.485948,8586.388927
28558.717400,-3478.967927,-1149.143247,10214.842000
28558.717729,-4145.153275,-3370.820191,11177.109724
28558.718057,-3330.926739,-4826.401637,12139.377449
28558.718385,-1702.473667,-4366.744339,13471.748144
28558.718714,74.020594,-2221.676944,15100.201217
28558.719042,2294.638420,-306.438199,12805.562797
28558.719371,5847.626942,1225.752797,12139.377449
28558.719699,6513.812290,2221.676944,11547.212695
28558.720027,5699.585753,4596.572988,9400.615463
28558.720356,5921.647536,5132.839837,7476.080014
28558.720684,5551.544565,4136.915689,8068.244768
28558.721012,2072.576638,1991.848295,8290.306550
28558.721341,-1332.370696,1302.362347,8290.306550
28558.721669,-2664.741391,-1991.848295,8216.285956
28558.721998,-3627.009116,-3677.258390,7994.224174
28558.722326,-3701.029710,-3217.601092,8290.306550
28558.722654,-3182.885551,-1072.533697,8290.306550
28558.722983,-2368.659014,1225.752797,6661.853478
28558.723311,-1184.329507,1685.410096,5181.441594
28558.723640,-222.061783,1455.581446,5773.606348
28558.723968,-1258.350101,2145.067394,5625.565159
28558.724296,-1554.432478,2757.943793,5847.626942
28558.724625,-888.247130,612.876398,7846.182985
28558.724953,-2738.761985,-1532.190996,9696.697840
28558.725281,-4663.297435,-3370.820191,10510.924376
28558.725610,-3701.029710,-3983.696590,11473.192101
28558.725938,-1702.473667,-4366.744339,12509.480420
28558.726267,592.164754,-2374.896044,14434.015869
28558.726595,2590.720797,153.219100,15100.201217
28558.726923,4293.194464,2298.286494,12805.562797
28558.727252,5995.668130,2528.115143,10140.821405
28558.727580,7105.977043,3753.867940,9326.594869
28558.727909,5255.462188,5209.449386,8216.285956
28558.728237,3478.967927,5898.935335,7698.141797
28558.728565,2368.659014,3370.820191,8290.306550
28558.728894,-814.226536,0.000000,8586.388927
28558.729222,-4219.173869,-2068.457845,7772.162391
28558.729550,-4885.359217,-2528.115143,7476.080014
28558.729879,-4663.297435,-1991.848295,7698.141797
28558.730207,-3478.967927,-995.924147,7624.121203
28558.730536,-1998.556043,-229.828649,7402.059420
28558.730864,-1480.411884,1149.143247,6291.750507
28558.731192,-518.144159,2528.115143,5181.441594
28558.731521,888.247130,2987.772442,6587.832884
28558.731849,444.123565,2911.162892,7846.182985
28558.732177,-1554.432478,2451.505594,8438.347739
28558.732506,-1258.350101,-229.828649,9474.636058
28558.732834,-1110.308913,-2834.553343,11695.253884
28558.733163,-2368.659014,-3064.381992,13175.665768
28558.733491,-1110.308913,-2451.505594,14063.912898
28558.733819,1258.350101,-2145.067394,14434.015869
28558.734148,3182.885551,0.000000,14063.912898
28558.734476,4959.379811,1838.629195,12805.562797
28558.734805,5847.626942,4903.011187,10584.944971
28558.735133,5773.606348,5056.230287,8142.265362
28558.735461,6069.688724,5362.668486,7698.141797
28558.735790,3330.926739,4366.744339,8438.347739
28558.736118,-370.102971,3064.381992,7920.203579
28558.736446,-2368.659014,153.219100,8364.327145
28558.736775,-3330.926739,-3140.991542,8882.471304
28558.737103,-5033.400406,-3140.991542,8586.388927
28558.737432,-4737.318029,-1685.410096,8586.388927
28558.737760,-2886.803174,-995.924147,8586.388927
28558.738088,-1332.370696,-153.219100,7772.162391
28558.738417,-592.164754,919.314598,7402.059420
28558.738745,0.000000,2221.676944,6587.832884
28558.739074,518.144159,3830.477490,5625.565159
28558.739402,1554.432478,3294.210641,7031.956449
28558.739730,740.205942,1532.190996,9548.656652
28558.740059,-2368.659014,-306.438199,10140.821405
28558.740387,-3182.885551,-2528.115143,10807.006753
28558.740715,-1776.494261,-4596.572988,12657.521608
28558.741044,-1702.473667,-3753.867940,13841.851115
28558.741372,-666.185348,-1685.410096,13693.809927
28558.741701,2442.679609,-459.657299,13545.768739
28558.742029,3552.988522,1378.971896,11399.171507
28558.742357,4441.235652,2681.334243,9770.718434
28558.742686,5181.441594,4366.744339,8364.327145
28558.743014,4737.318029,5439.278036,7105.977043
28558.743343,3775.050304,4443.353888,7698.141797
28558.743671,1776.494261,2221.676944,9252.574275
28558.743999,-1998.556043,0.000000,8734.430116
28558.744328,-3923.091493,-2221.676944,8068.244768
28558.744656,-2738.761985,-4060.306139,8216.285956
28558.744984,-3108.864956,-3140.991542,8660.409521
28558.745313,-2812.782580,-153.219100,8438.347739
28558.745641,-1110.308913,919.314598,7402.059420
28558.745970,0.000000,919.314598,5995.668130
28558.746298,148.041188,1378.971896,5181.441594
28558.746626,518.144159,3370.820191,5625.565159
28558.746955,0.000000,4060.306139,6439.791695
28558.747283,-296.082377,2298.286494,7698.141797
28558.747612,-1480.411884,-1149.143247,10066.800811
28558.747940,-3627.009116,-2911.162892,11251.130318
28558.748268,-4293.194464,-3217.601092,11029.068536
28558.748597,-1258.350101,-3370.820191,12953.603985
28558.748925,296.082377,-2451.505594,14804.118840
28558.749253,1184.329507,153.219100,13989.892304
28558.749582,3256.906145,1838.629195,12139.377449
28558.749910,5255.462188,1991.848295,9252.574275
28558.750239,5625.565159,3064.381992,7994.224174
28558.750567,5181.441594,6205.373534,8290.306550
28558.750895,3849.070898,6128.763984,7994.224174
28558.751224,2146.597232,3677.258390,7105.977043
28558.751552,0.000000,-612.876398,8586.388927
28558.751880,-2886.803174,-1532.190996,8586.388927
28558.752209,-4219.173869,-842.705048,7846.182985
28558.752537,-3034.844362,-1532.190996,8290.306550
28558.752866,-2294.638420,-1762.019645,8438.347739
28558.753194,-2664.741391,306.438199,8364.327145
28558.753522,-1554.432478,1072.533697,6735.874072
28558.753851,-592.164754,1608.800546,5625.565159
28558.754179,-592.164754,1991.848295,6217.729913
28558.754508,-740.205942,2604.724693,7476.080014
28558.754836,-962.267725,1915.238745,8660.409521
28558.755164,-1850.514855,536.266849,9548.656652
28558.755493,-2072.576638,-2987.772442,10955.047942
28558.755821,-1776.494261,-3753.867940,12583.501014
28558.756149,-1332.370696,-2374.896044,13693.809927
28558.756478,1554.432478,-1225.752797,14137.933492
28558.756806,3775.050304,-1149.143247,14508.036463
28558.757135,4145.153275,919.314598,13027.624579
28558.757463,4885.359217,2298.286494,10881.027347
28558.757791,5625.565159,3983.696590,9178.553681
28558.758120,4737.318029,3753.867940,8660.409521
28558.758448,2442.679609,3217.601092,8734.430116
28558.758777,296.082377,2221.676944,9178.553681
28558.759105,-1924.535449,459.657299,7994.224174
28558.759433,-2664.741391,-1915.238745,8364.327145
28558.759762,-3552.988522,-2298.286494,8364.327145
28558.760090,-4219.173869,-919.314598,8142.265362
28558.760418,-2960.823768,229.828649,7846.182985
28558.760747,-1406.391290,-919.314598,7550.100608
28558.761075,-1776.494261,76.609550,6587.832884
28558.761404,-1480.411884,2221.676944,5403.503377
28558.761732,222.061783,3064.381992,6217.729913
28558.762060,592.164754,2528.115143,7179.997637
28558.762389,-296.082377,1532.190996,8660.409521
28558.762717,-1332.370696,-229.828649,10584.944971
28558.763045,-1702.473667,-1378.971896,11103.089130
28558.763374,-296.082377,-2451.505594,11843.295072
28558.763702,888.247130,-3064.381992,13989.892304
28558.764031,1406.391290,-1072.533697,14211.954086
28558.764359,3330.926739,919.314598,13619.789333
28558.764687,5477.523971,1149.143247,13027.624579
28558.765016,4515.256246,2374.896044,10436.903782
28558.765344,3404.947333,3140.991542,8290.306550
28558.765672,3256.906145,3294.210641,7624.121203
28558.766001,1406.391290,3064.381992,7550.100608
28558.766329,-1332.370696,1225.752797,8586.388927
28558.766658,-3923.091493,-612.876398,8290.306550
28558.766986,-3923.091493,-2604.724693,7994.224174
28558.767314,-3923.091493,-3140.991542,7105.977043
28558.767643,-2368.659014,-1915.238745,8808.450710
28558.767971,-2220.617826,689.485948,8734.430116
28558.768300,-814.226536,1762.019645,6957.935855
28558.768628,1332.370696,689.485948,6291.750507
28558.768956,1406.391290,1532.190996,6069.688724
28558.769285,296.082377,2911.162892,5847.626942
28558.769613,-296.082377,3370.820191,6809.894666
28558.769941,-666.185348,1225.752797,8660.409521
28558.770270,-1776.494261,-1608.800546,10066.800811
28558.770598,-2368.659014,-2987.772442,11325.150913
28558.770927,-2146.597232,-3447.429741,11473.192101
28558.771255,-444.123565,-1991.848295,12583.501014
28558.771583,1776.494261,-1838.629195,14063.912898
28558.771912,2516.700203,536.266849,13619.789333
28558.772240,3256.906145,1455.581446,11029.068536
28558.772568,4663.297435,1915.238745,9548.656652
28558.772897,4293.194464,3140.991542,8512.368333
28558.773225,2738.761985,4979.620737,7846.182985
28558.773554,1184.329507,3140.991542,8068.244768
28558.773882,-370.102971,76.609550,8438.347739
28558.774210,-3108.864956,-1072.533697,8290.306550
28558.774539,-3997.112087,-2528.115143,8882.471304
28558.774867,-4441.235652,-2374.896044,8512.368333
28558.775195,-3627.009116,-1685.410096,8216.285956
28558.775524,-1184.329507,76.609550,8586.388927
28558.775852,-518.144159,1225.752797,7772.162391
28558.776181,-370.102971,2068.457845,6439.791695
28558.776509,518.144159,2068.457845,5477.523971
28558.776837,518.144159,1991.848295,6439.791695
28558.777166,-814.226536,2374.896044,7402.059420
28558.777494,-2294.638420,1072.533697,8882.471304
28558.777822,-2664.741391,-1838.629195,10807.006753
28558.778151,-3849.070898,-3370.820191,11547.212695
28558.778479,-3034.844362,-4979.620737,12879.583391
28558.778808,-740.205942,-2757.943793,13693.809927
28558.779136,1258.350101,-766.095498,13767.830521
28558.779464,3923.091493,612.876398,13767.830521
28558.779793,4959.379811,2068.457845,12953.603985
28558.780121,4515.256246,2987.772442,10362.883188
28558.780450,4737.318029,4366.744339,7920.203579
28558.780778,4737.318029,3753.867940,8142.265362
28558.781106,2368.659014,3524.039291,8586.388927
28558.781435,-592.164754,1608.800546,8882.471304
28558.781763,-2442.679609,-1302.362347,8734.430116
28558.782091,-3330.926739,-3294.210641,8734.430116
28558.782420,-3923.091493,-3524.039291,8512.368333
28558.782748,-3330.926739,-995.924147,8660.409521
28558.783077,-1480.411884,1455.581446,7772.162391
28558.783405,1110.308913,1455.581446,7402.059420
28558.783733,1258.350101,1225.752797,7402.059420
28558.784062,74.020594,2834.553343,6069.688724
28558.784390,1184.329507,3370.820191,6291.750507
28558.784718,2072.576638,2298.286494,8290.306550
28558.785047,-222.061783,1302.362347,9770.718434
28558.785375,-2368.659014,-1378.971896,10288.862594
28558.785704,-2072.576638,-3294.210641,11029.068536
28558.786032,-1258.350101,-3983.696590,11769.274478
28558.786360,-148.041188,-2528.115143,13249.686362
28558.786689,1554.432478,-383.047749,13767.830521
28558.787017,3182.885551,1532.190996,12287.418637
28558.787345,5773.606348,1838.629195,11103.089130
28558.787674,5403.503377,3064.381992,10436.903782
28558.788002,4663.297435,4903.011187,8438.347739
28558.788331,3627.009116,5439.278036,7402.059420
28558.788659,2812.782580,3294.210641,8216.285956
28558.788987,-444.123565,689.485948,8808.450710
28558.789316,-4071.132681,-306.438199,7624.121203
28558.789644,-4737.318029,-1915.238745,7698.141797
28558.789972,-4737.318029,-2681.334243,7254.018232
28558.790301,-4293.194464,-2145.067394,8142.265362
28558.790629,-2886.803174,306.438199,8438.347739
28558.790958,-1554.432478,1838.629195,7179.997637
28558.791286,-296.082377,1991.848295,5477.523971
28558.791614,518.144159,1838.629195,5847.626942
28558.791943,0.000000,3447.429741,6069.688724
28558.792271,-370.102971,4060.306139,6957.935855
28558.792600,-148.041188,1072.533697,9252.574275
28558.792928,-1776.494261,-1915.238745,10584.944971
28558.793256,-3552.988522,-2757.943793,11177.109724
28558.793585,-2442.679609,-3447.429741,11843.295072
28558.793913,-888.247130,-3753.867940,12953.603985
28558.794241,1036.288319,-1991.848295,13397.727550
28558.794570,3330.926739,229.828649,13841.851115
28558.794898,4441.235652,1762.019645,12213.398043
28558.795227,4885.359217,3140.991542,9844.739029
28558.795555,5773.606348,3140.991542,8364.327145
28558.795883,3997.112087,3677.258390,8068.244768
28558.796212,1702.473667,3830.477490,8216.285956
28558.796540,296.082377,1455.581446,8734.430116
28558.796868,-1258.350101,-1915.238745,8438.347739
28558.797197,-3849.070898,-3524.039291,8586.388927
28558.797525,-4515.256246,-3064.381992,8068.244768
28558.797854,-3108.864956,-1915.238745,7994.224174
28558.798182,-1406.391290,-766.095498,8142.265362
28558.798510,-222.061783,1378.971896,8586.388927
28558.798839,74.020594,2604.724693,6513.812290
28558.799167,1036.288319,3064.381992,5477.523971
28558.799495,1776.494261,2528.115143,6513.812290
28558.799824,666.185348,2221.676944,8142.265362
28558.800152,-1332.370696,1915.238745,8956.491898
28558.800481,-1480.411884,-459.657299,10288.862594
28558.800809,-1036.288319,-3447.429741,11991.336260
28558.801137,-2368.659014,-4443.353888,12509.480420
28558.801466,-1258.350101,-2451.505594,13323.706956
28558.801794,1332.370696,-995.924147,13693.809927
28558.802122,3034.844362,383.047749,13027.624579
28558.802451,4441.235652,2068.457845,12435.459826
28558.802779,4663.297435,3983.696590,10807.006753
28558.803108,4663.297435,5898.935335,7476.080014
28558.803436,5329.482782,4213.525239,8364.327145
28558.803764,2590.720797,3907.087040,8882.471304
28558.804093,-1036.288319,3140.991542,8438.347739
28558.804421,-2590.720797,612.876398,8808.450710
28558.804750,-3256.906145,-2298.286494,9326.594869
28558.805078,-4737.318029,-2604.724693,8586.388927
28558.805406,-4737.318029,-1532.190996,7550.100608
28558.805735,-2812.782580,0.000000,7179.997637
28558.806063,-1332.370696,1225.752797,6587.832884
28558.806391,-962.267725,2221.676944,5995.668130
28558.806720,0.000000,3524.039291,6291.750507
28558.807048,0.000000,3983.696590,5551.544565
28558.807377,814.226536,2987.772442,6883.915261
28558.807705,0.000000,1455.581446,8808.450710
28558.808033,-2146.597232,-766.095498,9770.718434
28558.808362,-1998.556043,-1762.019645,11325.150913
28558.808690,-370.102971,-4290.134789,13175.665768
28558.809018,0.000000,-3677.258390,14211.954086
28558.809347,666.185348,-2221.676944,14211.954086
28558.809675,2812.782580,-842.705048,13397.727550
28558.810004,4737.318029,689.485948,11621.233289
28558.810332,4737.318029,1762.019645,10436.903782
28558.810660,4589.276840,2911.162892,9030.512492
28558.810989,3849.070898,4060.306139,7624.121203
28558.811317,3034.844362,2987.772442,7402.059420
28558.811645,444.123565,536.266849,8660.409521
28558.811974,-2960.823768,-459.657299,8142.265362
28558.812302,-4589.276840,-1685.410096,7476.080014
28558.812631,-3330.926739,-2834.553343,7550.100608
28558.812959,-3256.906145,-2374.896044,7402.059420
28558.813287,-3478.967927,-1072.533697,7179.997637
28558.813616,-1998.556043,459.657299,6883.915261
28558.813944,-740.205942,766.095498,5921.647536
28558.814272,-148.041188,1149.143247,6513.812290
28558.814601,148.041188,1608.800546,6661.853478
28558.814929,-370.102971,2834.553343,7105.977043
28558.815258,296.082377,1455.581446,8364.327145
28558.815586,74.020594,-1149.143247,10584.944971
28558.815914,-2146.597232,-2374.896044,11547.212695
28558.816243,-1628.453072,-2221.676944,11695.253884
28558.816571,1110.308913,-2528.115143,12583.501014
28558.816900,2072.576638,-919.314598,13767.830521
28558.817228,2072.576638,919.314598,12879.583391
28558.817556,2738.761985,2451.505594,10955.047942
28558.817885,3849.070898,2298.286494,10140.821405
28558.818213,3552.988522,3064.381992,8586.388927
28558.818541,2146.597232,3907.087040,8290.306550
28558.818870,74.020594,3983.696590,8364.327145
28558.819198,-1850.514855,2221.676944,7994.224174
28558.819527,-2738.761985,-1225.752797,8734.430116
28558.819855,-4367.215058,-2145.067394,9178.553681
28558.820183,-4663.297435,-1608.800546,7476.080014
28558.820512,-2738.761985,-306.438199,7994.224174
28558.820840,-962.267725,612.876398,8290.306550
28558.821168,-592.164754,1991.848295,7254.018232
28558.821497,0.000000,2298.286494,6513.812290
28558.821825,666.185348,2987.772442,5477.523971
28558.822154,888.247130,3447.429741,5995.668130
28558.822482,888.247130,3524.039291,7994.224174
28558.822810,518.144159,2145.067394,9548.656652
28558.823139,-666.185348,-306.438199,9918.759623
28558.823467,-666.185348,-2451.505594,11177.109724
28558.823795,74.020594,-2528.115143,13101.645173
28558.824124,0.000000,-459.657299,13323.706956
28558.824452,1776.494261,-306.438199,14063.912898
28558.824781,3775.050304,-536.266849,13471.748144
28558.825109,3330.926739,689.485948,11843.295072
28558.825437,3256.906145,2451.505594,9548.656652
28558.825766,4071.132681,3064.381992,7846.182985
28558.826094,2886.803174,2757.943793,8142.265362
28558.826422,370.102971,2681.334243,9178.553681
28558.826751,-1406.391290,766.095498,9474.636058
28558.827079,-3034.844362,-1532.190996,8216.285956
28558.827408,-3701.029710,-3677.258390,8660.409521
28558.827736,-3849.070898,-3217.601092,9474.636058
28558.828064,-3849.070898,-459.657299,9030.512492
28558.828393,-2516.700203,-383.047749,7846.182985
28558.828721,-592.164754,-1149.143247,7105.977043
28558.829050,-1036.288319,-383.047749,6809.894666
28558.829378,-1332.370696,2451.505594,5847.626942
28558.829706,370.102971,2451.505594,6809.894666
28558.830035,444.123565,1072.533697,7772.162391
28558.830363,-814.226536,0.000000,9030.512492
28558.830691,-1406.391290,-1302.362347,9992.780217
28558.831020,-1554.432478,-2221.676944,10658.965565
28558.831348,0.000000,-3140.991542,12065.356855
28558.831677,1776.494261,-2451.505594,14137.933492
28558.832005,1924.535449,-153.219100,13841.851115
28558.832333,3627.009116,995.924147,12657.521608
28558.832662,5329.482782,766.095498,11177.109724
28558.832990,4737.318029,2221.676944,9770.718434
28558.833318,3775.050304,4366.744339,7920.203579
28558.833647,2738.761985,3600.648841,7031.956449
28558.833975,888.247130,2145.067394,8068.244768
28558.834304,-1850.514855,842.705048,8512.368333
28558.834632,-3701.029710,-995.924147,9030.512492
28558.834960,-5033.400406,-1532.190996,8068.244768
28558.835289,-4737.318029,-1762.019645,7328.038826
28558.835617,-2590.720797,-919.314598,8586.388927
28558.835945,-2368.659014,76.609550,7698.141797
28558.836274,-2072.576638,1762.019645,6365.771101
28558.836602,-296.082377,2068.457845,6513.812290
28558.836931,296.082377,2451.505594,6661.853478
28558.837259,222.061783,3830.477490,6069.688724
28558.837587,444.123565,3370.820191,7179.997637
28558.837916,222.061783,1685.410096,8734.430116
28558.838244,-370.102971,153.219100,10140.821405
28558.838572,-666.185348,-1302.362347,11917.315666
28558.838901,518.144159,-1915.238745,12213.398043
28558.839229,2960.823768,-689.485948,12879.583391
28558.839558,4589.276840,612.876398,13767.830521
28558.839886,4737.318029,2068.457845,13471.748144
28558.840214,4293.194464,3217.601092,10214.842000
28558.840543,5181.441594,2681.334243,9474.636058
28558.840871,4293.194464,2757.943793,8438.347739
28558.841200,1258.350101,3600.648841,7920.203579
28558.841528,-1258.350101,2221.676944,8438.347739
28558.841856,-3404.947333,-536.266849,8142.265362
28558.842185,-5329.482782,-3753.867940,8290.306550
28558.842513,-6439.791695,-4213.525239,9252.574275
28558.842841,-5699.585753,-3217.601092,8364.327145
28558.843170,-4441.235652,-1378.971896,8438.347739
28558.843498,-1332.370696,-919.314598,8882.471304
28558.843827,-592.164754,0.000000,8364.327145
28558.844155,-888.247130,1608.800546,6513.812290
28558.844483,1702.473667,1685.410096,6587.832884
28558.844812,2738.761985,1991.848295,7402.059420
28558.845140,1628.453072,2451.505594,9326.594869
28558.845468,148.041188,1378.971896,10288.862594
28558.845797,-592.164754,-2068.457845,10807.006753
28558.846125,-1036.288319,-4673.182538,11843.295072
28558.846454,-222.061783,-4443.353888,13249.686362
28558.846782,962.267725,-2987.772442,14434.015869
28558.847110,2294.638420,153.219100,12805.562797
28558.847439,4367.215058,0.000000,12287.418637
28558.847767,4515.256246,1072.533697,11843.295072
28558.848095,3478.967927,3447.429741,9400.615463
28558.848424,3552.988522,4136.915689,7402.059420
28558.848752,2368.659014,2604.724693,7920.203579
28558.849081,-444.123565,1455.581446,8364.327145
28558.849409,-2960.823768,536.266849,8068.244768
28558.849737,-4589.276840,-1762.019645,8364.327145
28558.850066,-5329.482782,-3370.820191,8142.265362
28558.850394,-5033.400406,-3217.601092,8660.409521
28558.850722,-3849.070898,-995.924147,9326.594869
28558.851051,-1998.556043,1455.581446,7772.162391
28558.851379,666.185348,2145.067394,7476.080014
28558.851708,1332.370696,1455.581446,7402.059420
28558.852036,962.267725,3217.601092,6069.688724
28558.852364,962.267725,3983.696590,6513.812290
28558.852693,1406.391290,3294.210641,8734.430116
28558.853021,-222.061783,1225.752797,9844.739029
28558.853350,-1998.556043,-995.924147,10214.842000
28558.853678,-1480.411884,-1378.971896,11399.171507
28558.854006,-148.041188,-2221.676944,11917.315666
28558.854335,740.205942,-689.485948,12879.583391
28558.854663,2220.617826,919.314598,13101.645173
28558.854991,3552.988522,2298.286494,11547.212695
28558.855320,5033.400406,3294.210641,9992.780217
28558.855648,5181.441594,3983.696590,9104.533087
28558.855977,3775.050304,5515.887586,7550.100608
28558.856305,2220.617826,4596.572988,7254.018232
28558.856633,1258.350101,2068.457845,8142.265362
28558.856962,-1924.535449,0.000000,8364.327145
28558.857290,-4737.318029,-1532.190996,7994.224174
28558.857618,-4737.318029,-2604.724693,7994.224174
28558.857947,-4219.173869,-2528.115143,8216.285956
28558.858275,-2516.700203,-1072.533697,8438.347739
28558.858604,-1998.556043,536.266849,7994.224174
28558.858932,0.000000,1991.848295,7105.977043
28558.859260,1406.391290,2374.896044,5847.626942
28558.859589,2368.659014,2681.334243,6439.791695
28558.859917,1184.329507,3064.381992,7105.977043
28558.860246,148.041188,2068.457845,8216.285956
28558.860574,222.061783,-1225.752797,9770.718434
28558.860902,-1406.391290,-3217.601092,11547.212695
28558.861231,-2664.741391,-3830.477490,12287.418637
28558.861559,-1480.411884,-4060.306139,12805.562797
28558.861888,148.041188,-2987.772442,13767.830521
28558.862216,1924.535449,-1378.971896,14063.912898
28558.862544,3849.070898,1608.800546,13175.665768
28558.862873,4441.235652,2528.115143,10732.986159
28558.863201,5255.462188,3447.429741,7994.224174
28558.863529,5255.462188,3830.477490,7476.080014
28558.863858,2960.823768,4366.744339,8216.285956
28558.864186,0.000000,3524.039291,7846.182985
28558.864515,-1924.535449,306.438199,8142.265362
28558.864843,-3627.009116,-3217.601092,8660.409521
28558.865171,-5921.647536,-4213.525239,8438.347739
28558.865500,-5403.503377,-2451.505594,8586.388927
28558.865828,-4515.256246,-2145.067394,8956.491898
28558.866157,-2738.761985,-1532.190996,8808.450710
28558.866485,-1480.411884,0.000000,8068.244768
28558.866813,0.000000,1608.800546,6809.894666
28558.867142,1702.473667,3600.648841,6143.709319
28558.867470,2590.720797,3753.867940,6957.935855
28558.867799,1258.350101,2987.772442,9104.533087
28558.868127,-518.144159,1608.800546,9622.677246
28558.868455,-1036.288319,-689.485948,10955.047942
28558.868784,-1184.329507,-3217.601092,12435.459826
28558.869112,-1406.391290,-3677.258390,12879.583391
28558.869440,-666.185348,-2221.676944,14063.912898
28558.869769,1776.494261,-229.828649,14285.974681
28558.870097,3701.029710,842.705048,12879.583391
28558.870426,4145.153275,2604.724693,11843.295072
28558.870754,3997.112087,4366.744339,9696.697840
28558.871082,3997.112087,4903.011187,7179.997637
28558.871411,3701.029710,4213.525239,6957.935855
28558.871739,1554.432478,3524.039291,7846.182985
28558.872068,-2442.679609,2145.067394,7698.141797
28558.872396,-3701.029710,-383.047749,7031.956449
28558.872724,-4071.132681,-2834.553343,8068.244768
28558.873053,-4441.235652,-2681.334243,9104.533087
28558.873381,-4293.194464,-459.657299,8216.285956
28558.873710,-2146.597232,383.047749,7402.059420
28558.874038,-222.061783,1225.752797,6957.935855
28558.874366,0.000000,1608.800546,6217.729913
28558.874695,1258.350101,2987.772442,6587.832884
28558.875023,1628.453072,4366.744339,6735.874072
28558.875351,1850.514855,3294.210641,7920.203579
28558.875680,740.205942,1149.143247,10066.800811
28558.876008,-1332.370696,-995.924147,10584.944971
28558.876337,-1776.494261,-1838.629195,11103.089130
28558.876665,-148.041188,-3064.381992,12361.439231
28558.876993,740.205942,-2834.553343,13693.809927
28558.877322,814.226536,-153.219100,13175.665768
28558.877650,2664.741391,459.657299,12287.418637
28558.877979,3627.009116,1532.190996,11103.089130
28558.878307,3256.906145,2451.505594,9030.512492
28558.878635,3404.947333,3064.381992,7846.182985
28558.878964,2590.720797,3524.039291,7105.977043
28558.879292,962.267725,2987.772442,7476.080014
28558.879621,-1332.370696,766.095498,8142.265362
28558.879949,-3552.988522,-2145.067394,8216.285956
28558.880277,-4589.276840,-3370.820191,7772.162391
28558.880606,-3404.947333,-3217.601092,7402.059420
28558.880934,-2442.679609,-766.095498,8882.471304
28558.881263,-1998.556043,459.657299,8290.306550
28558.881591,-888.247130,689.485948,7031.956449
28558.881919,-370.102971,229.828649,6291.750507
28558.882248,148.041188,1149.143247,6217.729913
28558.882576,222.061783,2145.067394,7624.121203
28558.882904,-74.020594,1991.848295,8808.450710
28558.883233,-592.164754,306.438199,9474.636058
28558.883561,-1332.370696,-2451.505594,10807.006753
28558.883890,-1480.411884,-3524.039291,11843.295072
28558.884218,-1184.329507,-3370.820191,11917.315666
28558.884546,740.205942,-2757.943793,13249.686362
28558.884875,2886.803174,-919.314598,14804.118840
28558.885203,3701.029710,1455.581446,13027.624579
28558.885532,4367.215058,1455.581446,11029.068536
28558.885860,4663.297435,1762.019645,8660.409521
28558.886188,4145.153275,2757.943793,7846.182985
28558.886517,2590.720797,3753.867940,8660.409521
28558.886845,592.164754,2757.943793,9252.574275
28558.887174,-1628.453072,459.657299,8956.491898
28558.887502,-3404.947333,-2528.115143,8660.409521
28558.887830,-4737.318029,-3294.210641,8808.450710
28558.888159,-5699.585753,-2145.067394,7698.141797
28558.888487,-3849.070898,-1455.581446,8216.285956
28558.888815,-1406.391290,-229.828649,8512.368333
28558.889144,-888.247130,1378.971896,7772.162391
28558.889472,-962.267725,2145.067394,6439.791695
28558.889801,0.000000,2834.553343,5995.668130
28558.890129,814.226536,2834.553343,6809.894666
28558.890457,962.267725,3140.991542,9030.512492
28558.890786,0.000000,1762.019645,10288.862594
28558.891114,-370.102971,-229.828649,10732.986159
28558.891443,370.102971,-2145.067394,11843.295072
28558.891771,888.247130,-2068.457845,13101.645173
28558.892099,2220.617826,919.314598,13841.851115
28558.892428,3849.070898,2145.067394,13101.645173
28558.892756,6069.688724,2451.505594,12657.521608
28558.893085,5551.544565,3140.991542,10881.027347
28558.893413,4071.132681,4749.792088,8660.409521
28558.893741,3404.947333,4749.792088,6957.935855
28558.894070,2368.659014,3753.867940,7105.977043
28558.894398,-518.144159,2145.067394,7402.059420
28558.894726,-3775.050304,842.705048,8586.388927
28558.895055,-4737.318029,-1072.533697,7994.224174
28558.895383,-5255.462188,-2757.943793,7994.224174
28558.895712,-4811.338623,-3064.381992,8290.306550
28558.896040,-4663.297435,-1149.143247,8216.285956
28558.896368,-2442.679609,459.657299,7550.100608
28558.896697,0.000000,842.705048,7698.141797
28558.897025,296.082377,842.705048,7105.977043
28558.897354,0.000000,2068.457845,5403.503377
28558.897682,1406.391290,2374.896044,6291.750507
28558.898010,1628.453072,1608.800546,8216.285956
28558.898339,740.205942,229.828649,10140.821405
28558.898667,-666.185348,-1378.971896,11399.171507
28558.898996,-592.164754,-3064.381992,11843.295072
28558.899324,814.226536,-3753.867940,12435.459826
28558.899652,2072.576638,-2528.115143,13767.830521
28558.899981,2368.659014,-612.876398,14137.933492
28558.900309,3478.967927,536.266849,12509.480420
28558.900637,4293.194464,383.047749,11029.068536
28558.900966,3034.844362,919.314598,9474.636058
28558.901294,1036.288319,2451.505594,7624.121203
28558.901623,-370.102971,2145.067394,6809.894666
28558.901951,-2146.597232,459.657299,7402.059420
28558.902279,-4441.235652,-1838.629195,8216.285956
28558.902608,-6069.688724,-2834.553343,8882.471304
28558.902936,-6217.729913,-3294.210641,7846.182985
28558.903265,-4515.256246,-2987.772442,7254.018232
28558.903593,-2072.576638,-1378.971896,8438.347739
28558.903921,-1036.288319,919.314598,7772.162391
28558.904250,222.061783,2145.067394,7476.080014
28558.904578,1702.473667,2911.162892,6957.935855
28558.904907,2442.679609,2374.896044,7179.997637
28558.905235,1998.556043,3217.601092,7846.182985
28558.905563,1184.329507,3064.381992,8882.471304
28558.905892,814.226536,1762.019645,9992.780217
28558.906220,222.061783,-766.095498,11843.295072
28558.906548,148.041188,-2145.067394,12213.398043
28558.906877,-74.020594,-995.924147,12139.377449
28558.907205,1110.308913,766.095498,12731.542202
28558.907534,3701.029710,2145.067394,13545.768739
28558.907862,4293.194464,2298.286494,12361.439231
28558.908190,3552.988522,3064.381992,10288.862594
28558.908519,3775.050304,4290.134789,8438.347739
28558.908847,3627.009116,4443.353888,7846.182985
28558.909176,1332.370696,4213.525239,7772.162391
28558.909504,-1184.329507,2451.505594,8216.285956
28558.909832,-2590.720797,306.438199,7920.203579
28558.910161,-3478.967927,-1685.410096,8216.285956
28558.910489,-3849.070898,-1608.800546,8956.491898
28558.910818,-3256.906145,-306.438199,8734.430116
28558.911146,-1702.473667,612.876398,8438.347739
28558.911474,592.164754,1378.971896,8364.327145
28558.911803,962.267725,1685.410096,7772.162391
28558.912131,518.144159,2451.505594,6661.853478
28558.912459,1480.411884,2911.162892,6587.832884
28558.912788,1776.494261,2451.505594,7846.182985
28558.913116,222.061783,1455.581446,8956.491898
28558.913445,-1776.494261,-689.485948,9474.636058
28558.913773,-2294.638420,-2834.553343,10807.006753
28558.914101,-2220.617826,-3753.867940,12435.459826
28558.914430,-2072.576638,-3447.429741,13989.892304
28558.914758,-592.164754,-2528.115143,13915.871710
28558.915087,1554.432478,-1378.971896,12731.542202
28558.915415,3256.906145,-306.438199,11399.171507
28558.915743,2886.803174,1455.581446,10955.047942
28558.916072,2294.638420,2451.505594,8734.430116
28558.916400,2664.741391,2681.334243,7624.121203
28558.916729,2368.659014,1378.971896,7994.224174
28558.917057,-444.123565,766.095498,8364.327145
28558.917385,-3256.906145,0.000000,7550.100608
28558.917714,-4441.235652,-2451.505594,7328.038826
28558.918042,-3256.906145,-3907.087040,7772.162391
28558.918370,-3701.029710,-2987.772442,8290.306550
28558.918699,-2664.741391,-612.876398,8734.430116
28558.919027,-740.205942,919.314598,7402.059420
28558.919356,740.205942,612.876398,6735.874072
28558.919684,1628.453072,689.485948,7179.997637
28558.920012,518.144159,2834.553343,6661.853478
28558.920341,1110.308913,3600.648841,6439.791695
28558.920669,1258.350101,766.095498,8512.368333
28558.920998,-962.267725,-766.095498,10436.903782
28558.921326,-2812.782580,-1455.581446,10732.986159
28558.921654,-1776.494261,-2987.772442,10955.047942
28558.921983,-444.123565,-3753.867940,12139.377449
28558.922311,592.164754,-2068.457845,13101.645173
28558.922640,2368.659014,612.876398,14211.954086
28558.922968,3627.009116,3140.991542,12435.459826
28558.923296,4885.359217,2834.553343,10140.821405
28558.923625,4811.338623,2451.505594,9030.512492
28558.923953,3478.967927,4903.011187,8512.368333
28558.924282,2220.617826,5822.325785,7402.059420
28558.924610,888.247130,3140.991542,7994.224174
28558.924938,-2442.679609,-689.485948,8734.430116
28558.925267,-4811.338623,-1532.190996,8512.368333
28558.925595,-4737.318029,-766.095498,7772.162391
28558.925923,-3256.906145,-919.314598,7328.038826
28558.926252,-2664.741391,383.047749,7772.162391
28558.926580,-962.267725,1532.190996,7772.162391
28558.926909,0.000000,5132.839837,6439.791695
28558.927237,962.267725,3524.039291,5107.421000
28558.927565,1776.494261,2681.334243,6217.729913
28558.927894,1110.308913,3753.867940,7179.997637
28558.928222,0.000000,4673.182538,8956.491898
28558.928551,-222.061783,1455.581446,9844.739029
28558.928879,-1184.329507,-2221.676944,10732.986159
28558.929207,-2738.761985,-3983.696590,12065.356855
28558.929536,-1480.411884,-2681.334243,12509.480420
28558.929864,222.061783,-919.314598,13027.624579
28558.930193,2220.617826,-612.876398,13989.892304
28558.930521,3404.947333,306.438199,13397.727550
28558.930849,3182.885551,2528.115143,11103.089130
28558.931178,4219.173869,3600.648841,9030.512492
28558.931506,3775.050304,3217.601092,8438.347739
28558.931834,1850.514855,2221.676944,9252.574275
28558.932163,-1036.288319,1991.848295,9030.512492
28558.932491,-2146.597232,-1072.533697,9252.574275
28558.932820,-3478.967927,-3677.258390,9548.656652
28558.933148,-4367.215058,-3753.867940,9178.553681
28558.933476,-4219.173869,-3447.429741,8290.306550
28558.933805,-1850.514855,-1149.143247,8068.244768
28558.934133,222.061783,76.609550,7920.203579
28558.934462,1184.329507,919.314598,7698.141797
28558.934790,1332.370696,1991.848295,6365.771101
28558.935118,2294.638420,2911.162892,5699.585753
28558.935447,3256.906145,2834.553343,6883.915261
28558.935775,1850.514855,1532.190996,9104.533087
28558.936104,-592.164754,459.657299,9844.739029
28558.936432,-1036.288319,-2374.896044,10140.821405
28558.936760,-666.185348,-4903.011187,11621.233289
28558.937089,-1184.329507,-4213.525239,13101.645173
28558.937417,-962.267725,-2374.896044,13545.768739
28558.937745,1110.308913,-919.314598,13101.645173
28558.938074,2368.659014,-995.924147,11473.192101
28558.938402,2664.741391,306.438199,10584.944971
28558.938731,2812.782580,2834.553343,9548.656652
28558.939059,2738.761985,4366.744339,7402.059420
28558.939387,2368.659014,2987.772442,7550.100608
28558.939716,0.000000,766.095498,8956.491898
28558.940044,-3404.947333,-306.438199,8586.388927
28558.940373,-3701.029710,-1149.143247,8364.327145
28558.940701,-3478.967927,-2757.943793,8882.471304
28558.941029,-3552.988522,-2604.724693,9178.553681
28558.941358,-2738.761985,0.000000,8586.388927
28558.941686,-1036.288319,1915.238745,7550.100608
28558.942015,0.000000,1378.971896,6439.791695
28558.942343,-148.041188,1608.800546,6069.688724
28558.942671,148.041188,3370.820191,6957.935855
28558.943000,592.164754,4366.744339,6365.771101
28558.943328,592.164754,2757.943793,7179.997637
28558.943656,0.000000,0.000000,9252.574275
28558.943985,-2146.597232,-1225.752797,9696.697840
28558.944313,-1924.535449,-1608.800546,10584.944971
28558.944642,592.164754,-2374.896044,12361.439231
28558.944970,1998.556043,-2145.067394,13693.809927
28558.945298,2072.576638,919.314598,12509.480420
28558.945627,3256.906145,1685.410096,11177.109724
28558.945955,3849.070898,1991.848295,9696.697840
28558.946284,3775.050304,2681.334243,9252.574275
28558.946612,3108.864956,3600.648841,8586.388927
28558.946940,1258.350101,3524.039291,7994.224174
28558.947269,222.061783,1685.410096,8438.347739
28558.947597,-1258.350101,-612.876398,9252.574275
28558.947926,-3478.967927,-1762.019645,9030.512492
28558.948254,-4071.132681,-2604.724693,8216.285956
28558.948582,-2960.823768,-2451.505594,8586.388927
28558.948911,-1406.391290,-842.705048,9030.512492
28558.949239,-592.164754,1225.752797,7772.162391
28558.949567,0.000000,1072.533697,7031.956449
28558.949896,1036.288319,1225.752797,6661.853478
28558.950224,1110.308913,2145.067394,6735.874072
28558.950553,1702.473667,2451.505594,8660.409521
28558.950881,222.061783,1762.019645,10288.862594
28558.951209,-962.267725,-612.876398,10584.944971
28558.951538,-1110.308913,-2834.553343,11769.274478
28558.951866,-1702.473667,-4366.744339,13249.686362
28558.952195,-1110.308913,-3447.429741,12731.542202
28558.952523,1628.453072,-2145.067394,13989.892304
28558.952851,2960.823768,-459.657299,14063.912898
28558.953180,3256.906145,1762.019645,11621.233289
28558.953508,3627.009116,2451.505594,9696.697840
28558.953837,4071.132681,2911.162892,7550.100608
28558.954165,3775.050304,3600.648841,6439.791695
28558.954493,1702.473667,3140.991542,7550.100608
28558.954822,-666.185348,2374.896044,9104.533087
28558.955150,-3552.988522,229.828649,8290.306550
28558.955478,-4219.173869,-2834.553343,8808.450710
28558.955807,-4589.276840,-3447.429741,9326.594869
28558.956135,-5403.503377,-1532.190996,8438.347739
28558.956464,-3627.009116,0.000000,8660.409521
28558.956792,-1554.432478,766.095498,8586.388927
28558.957120,-1628.453072,1378.971896,7772.162391
28558.957449,-1850.514855,2451.505594,5995.668130
28558.957777,-592.164754,2757.943793,5625.565159
28558.958106,0.000000,2911.162892,6513.812290
28558.958434,-518.144159,3294.210641,9400.615463
28558.958762,-1406.391290,1991.848295,11177.109724
28558.959091,-1776.494261,-536.266849,10362.883188
28558.959419,-740.205942,-3140.991542,11029.068536
28558.959747,518.144159,-2451.505594,13323.706956
28558.960076,1850.514855,766.095498,13323.706956
28558.960404,4219.173869,3677.258390,13101.645173
28558.960732,6809.894666,2681.334243,12361.439231
28558.961061,6365.771101,3217.601092,10584.944971
28558.961389,5477.523971,5209.449386,7254.018232
28558.961717,5403.503377,5822.325785,6957.935855
28558.962046,3627.009116,4903.011187,6291.750507
28558.962374,592.164754,2298.286494,7402.059420
28558.962702,-2072.576638,459.657299,8364.327145
28558.963031,-4515.256246,0.000000,9252.574275
28558.963359,-4515.256246,-2528.115143,8660.409521
28558.963687,-4367.215058,-3753.867940,7624.121203
28558.964016,-5329.482782,-2757.943793,7328.038826
28558.964344,-4367.215058,0.000000,7550.100608
28558.964673,-1480.411884,1225.752797,6735.874072
28558.965001,-888.247130,536.266849,6439.791695
28558.965329,-1480.411884,459.657299,6291.750507
28558.965658,0.000000,612.876398,7105.977043
28558.965986,222.061783,2528.115143,8882.471304
28558.966314,666.185348,766.095498,10288.862594
28558.966643,-222.061783,-2681.334243,11991.336260
28558.966971,-370.102971,-4136.915689,12435.459826
28558.967299,1924.535449,-2757.943793,12953.603985
28558.967628,4515.256246,-842.705048,14656.077652
28558.967956,4219.173869,-306.438199,14508.036463
28558.968284,5033.400406,459.657299,12509.480420
28558.968613,5551.544565,842.705048,11177.109724
28558.968941,4959.379811,1991.848295,9696.697840
28558.969269,3108.864956,2911.162892,8142.265362
28558.969598,666.185348,1915.238745,7550.100608
28558.969926,-2220.617826,76.609550,7328.038826
28558.970254,-5403.503377,-1762.019645,7994.224174
28558.970583,-6735.874072,-3294.210641,8512.368333
28558.970911,-7698.141797,-3983.696590,7846.182985
28558.971239,-6365.771101,-3677.258390,7105.977043
28558.971568,-4145.153275,-2451.505594,8734.430116
28558.971896,-3478.967927,-153.219100,8808.450710
28558.972224,-2960.823768,1532.190996,6957.935855
28558.972553,-444.123565,766.095498,6291.750507
28558.972881,888.247130,306.438199,7105.977043
28558.973210,0.000000,2451.505594,7698.141797
28558.973538,296.082377,3370.820191,9844.739029
28558.973866,1036.288319,919.314598,11177.109724
28558.974195,148.041188,-2374.896044,11769.274478
28558.974523,444.123565,-2757.943793,12287.418637
28558.974851,2590.720797,-1302.362347,12731.542202
28558.975180,4367.215058,1991.848295,13841.851115
28558.975508,6587.832884,3370.820191,14359.995275
28558.975836,6957.935855,3677.258390,13397.727550
28558.976165,5255.462188,4290.134789,9992.780217
28558.976493,5551.544565,4749.792088,7846.182985
28558.976821,4145.153275,4596.572988,7105.977043
28558.977150,740.205942,4903.011187,7550.100608
28558.977478,-1628.453072,3600.648841,7476.080014
28558.977806,-4145.153275,-153.219100,7254.018232
28558.978135,-6513.812290,-3064.381992,6661.853478
28558.978463,-6809.894666,-2528.115143,6439.791695
28558.978791,-5403.503377,-153.219100,7994.224174
28558.979120,-3552.988522,1378.971896,6809.894666
28558.979448,-1554.432478,459.657299,6661.853478
28558.979776,0.000000,1378.971896,7105.977043
28558.980105,0.000000,3064.381992,6143.709319
28558.980433,962.267725,3370.820191,5181.441594
28558.980761,2146.597232,1991.848295,8068.244768
28558.981090,1628.453072,1378.971896,10584.944971
28558.981418,222.061783,995.924147,10658.965565
28558.981747,148.041188,-2451.505594,12139.377449
28558.982075,0.000000,-3753.867940,12731.542202
28558.982403,444.123565,-2834.553343,14137.933492
28558.982732,2590.720797,-229.828649,14804.118840
28558.983060,3923.091493,1225.752797,13619.789333
28558.983388,4737.318029,1302.362347,11695.253884
28558.983717,4737.318029,1149.143247,9992.780217
28558.984045,3404.947333,3524.039291,7772.162391
28558.984373,2368.659014,3677.258390,6291.750507
28558.984702,1110.308913,1838.629195,7179.997637
28558.985030,-1184.329507,-76.609550,7772.162391
28558.985358,-4293.194464,-1225.752797,7105.977043
28558.985687,-5403.503377,-3524.039291,6883.915261
28558.986015,-5699.585753,-4596.572988,7328.038826
28558.986343,-4959.379811,-3447.429741,6957.935855
28558.986672,-2960.823768,-1915.238745,8660.409521
28558.987000,-2072.576638,0.000000,8142.265362
28558.987328,-1258.350101,536.266849,7031.956449
28558.987657,296.082377,153.219100,7402.059420
28558.987985,444.123565,1302.362347,7772.162391
28558.988313,-1036.288319,1072.533697,7179.997637
28558.988642,-222.061783,0.000000,9400.615463
28558.988970,-740.205942,-2757.943793,11103.089130
28558.989298,-2368.659014,-3370.820191,11991.336260
28558.989627,-2294.638420,-3447.429741,12805.562797
28558.989955,0.000000,-3064.381992,13693.809927
28558.990284,2442.679609,-1378.971896,14137.933492
28558.990612,4367.215058,383.047749,14508.036463
28558.990940,5181.441594,2911.162892,12583.501014
28558.991269,5847.626942,3983.696590,9918.759623
28558.991597,6587.832884,4519.963438,8882.471304
28558.991925,5255.462188,4749.792088,8734.430116
28558.992254,2368.659014,4903.011187,8660.409521
28558.992582,222.061783,2757.943793,7772.162391
28558.992910,-2294.638420,-383.047749,7550.100608
28558.993239,-4367.215058,-1532.190996,7698.141797
28558.993567,-4737.318029,-995.924147,7550.100608
28558.993895,-3552.988522,0.000000,7698.141797
28558.994224,-3330.926739,229.828649,7179.997637
28558.994552,-3108.864956,689.485948,6291.750507
28558.994880,-2294.638420,2298.286494,5403.503377
28558.995209,-592.164754,3677.258390,5477.523971
28558.995537,-1258.350101,5132.839837,7920.203579
28558.995865,-1776.494261,5209.449386,10510.924376
28558.996194,-1258.350101,1378.971896,7772.162391
28558.996522,-2146.597232,-2451.505594,8290.306550
28558.996850,-2368.659014,-2911.162892,11843.295072
28558.997179,-1554.432478,995.924147,13841.851115
28558.997507,2072.576638,1608.800546,13249.686362
28558.997835,4145.153275,-536.266849,13397.727550
28558.998164,6291.750507,-766.095498,12287.418637
28558.998492,7698.141797,5592.497135,11251.130318
28558.998821,9548.656652,9269.755526,9918.759623
28558.999149,9548.656652,6511.811733,8290.306550
28558.999477,7328.038826,3907.087040,9104.533087
28558.999806,5625.565159,3524.039291,8734.430116
28559.000134,1036.288319,4136.915689,7624.121203
28559.000462,-2738.761985,-612.876398,7550.100608
28559.000791,-5255.462188,-4903.011187,8216.285956
28559.001119,-6217.729913,-5132.839837,7994.224174
28559.001447,-6957.935855,-2834.553343,7698.141797
28559.001776,-6587.832884,-2451.505594,6883.915261
28559.002104,-6735.874072,-4826.401637,5995.668130
28559.002432,-6439.791695,-2451.505594,4959.379811
28559.002761,-4589.276840,-536.266849,5773.606348
28559.003089,-2960.823768,0.000000,6661.853478
28559.003417,-1628.453072,-612.876398,8068.244768
28559.003746,-1628.453072,-1991.848295,9918.759623
28559.004074,-2294.638420,-3217.601092,10955.047942
28559.004402,-1776.494261,-4290.134789,11917.315666
28559.004731,1998.556043,-4826.401637,13323.706956
28559.005059,3552.988522,-4519.963438,14952.160028
28559.005387,4737.318029,-1991.848295,15396.283594
28559.005716,6513.812290,383.047749,14730.098246
28559.006044,7772.162391,919.314598,12139.377449
28559.006372,7846.182985,2221.676944,9992.780217
28559.006701,6883.915261,2911.162892,9252.574275
28559.007029,4145.153275,3830.477490,7994.224174
28559.007358,1850.514855,2681.334243,7698.141797
28559.007686,-1406.391290,-153.219100,7772.162391
28559.008014,-5403.503377,-2451.505594,7476.080014
28559.008343,-7920.203579,-3524.039291,6291.750507
28559.008671,-7698.141797,-3677.258390,6365.771101
28559.008999,-6957.935855,-3370.820191,7920.203579
28559.009328,-7031.956449,-1685.410096,7846.182985
28559.009656,-5773.606348,-383.047749,6365.771101
28559.009984,-3256.906145,-306.438199,5255.462188
28559.010313,-1406.391290,995.924147,5995.668130
28559.010641,148.041188,2987.772442,7402.059420
28559.010969,1184.329507,4826.401637,8512.368333
28559.011298,1850.514855,3370.820191,9992.780217
28559.011626,2220.617826,2145.067394,11621.233289
28559.011954,1850.514855,0.000000,13101.645173
28559.012283,3034.844362,0.000000,12139.377449
28559.012611,5551.544565,919.314598,13471.748144
28559.012939,6439.791695,3064.381992,15396.283594
28559.013268,6143.709319,4366.744339,13693.809927
28559.013596,7105.977043,4903.011187,11177.109724
28559.013924,6513.812290,4596.572988,10510.924376
28559.014253,4737.318029,5132.839837,8512.368333
28559.014581,3256.906145,6281.983084,7105.977043
28559.014909,888.247130,5745.716235,7105.977043
28559.015238,-1850.514855,2681.334243,7550.100608
28559.015566,-3775.050304,153.219100,7328.038826
28559.015895,-5107.421000,-229.828649,8216.285956
28559.016223,-5995.668130,-1225.752797,7105.977043
28559.016551,-5773.606348,-842.705048,6883.915261
28559.016880,-3330.926739,-766.095498,7550.100608
28559.017208,-2516.700203,536.266849,7105.977043
28559.017536,-2368.659014,995.924147,6513.812290
28559.017865,-962.267725,2068.457845,5995.668130
28559.018193,0.000000,995.924147,6883.915261
28559.018521,0.000000,1685.410096,8586.388927
28559.018850,-296.082377,766.095498,10288.862594
28559.019178,-666.185348,-1225.752797,10658.965565
28559.019506,-888.247130,-4060.306139,11843.295072
28559.019835,296.082377,-4826.401637,13101.645173
28559.020163,1332.370696,-3217.601092,13693.809927
28559.020491,2146.597232,-1915.238745,13693.809927
28559.020820,4441.235652,-1455.581446,14211.954086
28559.021148,4663.297435,-919.314598,12953.603985
28559.021476,3923.091493,-229.828649,9770.718434
28559.021805,3478.967927,306.438199,8364.327145
28559.022133,2590.720797,1532.190996,7624.121203
28559.022461,444.123565,689.485948,7994.224174
28559.022790,-2368.659014,-1072.533697,8512.368333
28559.023118,-4811.338623,-4213.525239,7994.224174
28559.023446,-5329.482782,-5515.887586,7105.977043
28559.023775,-4737.318029,-5745.716235,7550.100608
28559.024103,-5107.421000,-3677.258390,7920.203579
28559.024432,-3923.091493,-1225.752797,7698.141797
28559.024760,-1258.350101,-1685.410096,6809.894666
28559.025088,-1332.370696,-995.924147,6735.874072
28559.025417,-592.164754,0.000000,6143.709319
28559.025745,222.061783,1302.362347,6143.709319
28559.026073,1110.308913,1455.581446,7698.141797
28559.026402,592.164754,306.438199,9696.697840
28559.026730,148.041188,-689.485948,11399.171507
28559.027058,-74.020594,-1455.581446,12657.521608
28559.027387,1332.370696,-1225.752797,12065.356855
28559.027715,2812.782580,-689.485948,13767.830521
28559.028043,3849.070898,1378.971896,14434.015869
28559.028372,4441.235652,3217.601092,14063.912898
28559.028700,5551.544565,3524.039291,12139.377449
28559.029028,5329.482782,4060.306139,10510.924376
28559.029357,3552.988522,5362.668486,8068.244768
28559.029685,1702.473667,6052.154434,6513.812290
28559.030013,1184.329507,5515.887586,7920.203579
28559.030342,-1406.391290,3907.087040,7920.203579
28559.030670,-3775.050304,1225.752797,7994.224174
28559.030998,-5033.400406,0.000000,7476.080014
28559.031327,-4515.256246,842.705048,7105.977043
28559.031655,-2368.659014,1838.629195,7179.997637
28559.031983,-2294.638420,3370.820191,7402.059420
28559.032312,-1628.453072,4519.963438,7105.977043
28559.032640,-666.185348,4519.963438,6809.894666
28559.032969,666.185348,4213.525239,6661.853478
28559.033297,518.144159,4136.915689,5625.565159
28559.033625,0.000000,3524.039291,6883.915261
28559.033954,-666.185348,2298.286494,8808.450710
28559.034282,-1184.329507,1455.581446,10288.862594
28559.034610,-1554.432478,-995.924147,12287.418637
28559.034939,-1332.370696,-2604.724693,13101.645173
28559.035267,518.144159,-2221.676944,12879.583391
28559.035595,3923.091493,0.000000,13915.871710
28559.035924,5329.482782,1685.410096,14359.995275
28559.036252,5551.544565,2068.457845,13249.686362
28559.036580,4959.379811,2298.286494,10436.903782
28559.036909,5773.606348,1455.581446,8586.388927
28559.037237,3552.988522,2221.676944,7920.203579
28559.037565,444.123565,2298.286494,8364.327145
28559.037894,-1184.329507,383.047749,8956.491898
28559.038222,-3108.864956,-2987.772442,8364.327145
28559.038550,-5329.482782,-6588.421283,8512.368333
28559.038879,-5847.626942,-4979.620737,8216.285956
28559.039207,-4811.338623,-3600.648841,7179.997637
28559.039535,-2442.679609,-2451.505594,7105.977043
28559.039864,-1332.370696,-2528.115143,8290.306550
28559.040192,-1332.370696,-842.705048,7550.100608
28559.040520,74.020594,612.876398,6365.771101
28559.040849,1850.514855,0.000000,6587.832884
28559.041177,814.226536,306.438199,7550.100608
28559.041506,-740.205942,-229.828649,9104.533087
28559.041834,-148.041188,-1532.190996,10584.944971
28559.042162,-518.144159,-3753.867940,11769.274478
28559.042491,-814.226536,-4903.011187,13101.645173
28559.042819,518.144159,-3524.039291,13767.830521
28559.043147,2220.617826,-689.485948,13249.686362
28559.043476,3775.050304,689.485948,12731.542202
28559.043804,5329.482782,1608.800546,12287.418637
28559.044132,3997.112087,2911.162892,9622.677246
28559.044461,3034.844362,4290.134789,7846.182985
28559.044789,2590.720797,3600.648841,7328.038826
28559.045117,222.061783,2221.676944,7624.121203
28559.045446,-2886.803174,2068.457845,7772.162391
28559.045774,-3775.050304,0.000000,7846.182985
28559.046102,-4589.276840,-2298.286494,7402.059420
28559.046431,-4959.379811,-1762.019645,7698.141797
28559.046759,-4145.153275,383.047749,7624.121203
28559.047087,-2368.659014,2068.457845,7476.080014
28559.047416,-666.185348,3447.429741,7624.121203
28559.047744,1332.370696,3524.039291,7772.162391
28559.048072,222.061783,3600.648841,6513.812290
28559.048401,148.041188,4673.182538,5847.626942
28559.048729,814.226536,3907.087040,7328.038826
28559.049057,0.000000,2374.896044,9326.594869
28559.049386,-1998.556043,383.047749,10214.842000
28559.049714,-2960.823768,-1225.752797,10584.944971
28559.050043,-1184.329507,-2068.457845,11843.295072
28559.050371,148.041188,-1455.581446,12805.562797
28559.050699,2368.659014,919.314598,14137.933492
28559.051028,3849.070898,2221.676944,13545.768739
28559.051356,5477.523971,3370.820191,11547.212695
28559.051684,6439.791695,4519.963438,11399.171507
28559.052013,5847.626942,5439.278036,9548.656652
28559.052341,3923.091493,5286.058936,8142.265362
28559.052669,2072.576638,2911.162892,7698.141797
28559.052998,740.205942,612.876398,8438.347739
28559.053326,-2442.679609,-536.266849,8882.471304
28559.053654,-4293.194464,-1685.410096,8438.347739
28559.053983,-3849.070898,-2911.162892,8438.347739
28559.054311,-3330.926739,-2604.724693,8142.265362
28559.054639,-2516.700203,-766.095498,8586.388927
28559.054968,-1554.432478,766.095498,7105.977043
28559.055296,-296.082377,1532.190996,6291.750507
28559.055624,518.144159,1455.581446,6439.791695
28559.055953,592.164754,1378.971896,7179.997637
28559.056281,-592.164754,1991.848295,7994.224174
28559.056609,-1184.329507,-229.828649,8364.327145
28559.056935,-2220.617826,-3753.867940,9770.718434
28559.057263,-2738.761985,-4979.620737,11103.089130
28559.057592,-2294.638420,-4519.963438,12213.398043
28559.057920,-592.164754,-3140.991542,14211.954086
28559.058249,1332.370696,-2604.724693,13989.892304
28559.058577,3108.864956,-1225.752797,13101.645173
28559.058905,3849.070898,612.876398,12879.583391
28559.059234,4145.153275,2834.553343,10288.862594
28559.059562,5551.544565,2987.772442,8438.347739
28559.059891,4219.173869,2068.457845,9178.553681
28559.060219,0.000000,1991.848295,9326.594869
28559.060548,-2738.761985,612.876398,8512.368333
28559.060876,-2664.741391,-2911.162892,7698.141797
28559.061205,-4441.235652,-4673.182538,8660.409521
28559.061533,-5995.668130,-3370.820191,7698.141797
28559.061861,-4293.194464,-689.485948,7846.182985
28559.062190,-2220.617826,0.000000,7254.018232
28559.062518,-1776.494261,0.000000,7179.997637
28559.062847,-1332.370696,1149.143247,6513.812290
28559.063175,-222.061783,3447.429741,5403.503377
28559.063504,1036.288319,3907.087040,5921.647536
28559.063832,1110.308913,2528.115143,8068.244768
28559.064161,-2072.576638,1302.362347,8734.430116
28559.064489,-1924.535449,0.000000,9104.533087
28559.064817,-1110.308913,-2221.676944,10732.986159
28559.065146,-592.164754,-2681.334243,12805.562797
28559.065474,148.041188,-766.095498,13323.706956
28559.065803,2886.803174,1225.752797,13323.706956
28559.066131,5107.421000,1991.848295,13841.851115
28559.066460,5255.462188,2987.772442,10807.006753
28559.066788,5551.544565,4443.353888,10140.821405
28559.067116,5625.565159,6511.811733,8660.409521
28559.067445,4737.318029,5975.544884,7772.162391
28559.067773,2590.720797,3370.820191,9104.533087
28559.068102,0.000000,1915.238745,9474.636058
28559.068430,-2590.720797,-536.266849,8364.327145
28559.068759,-2886.803174,-1455.581446,8216.285956
28559.069087,-3404.947333,-2374.896044,8364.327145
28559.069416,-3775.050304,-536.266849,8290.306550
28559.069744,-1998.556043,1072.533697,8142.265362
28559.070072,-370.102971,1838.629195,7105.977043
28559.070401,-592.164754,2681.334243,6587.832884
28559.070729,0.000000,1991.848295,6587.832884
28559.071058,444.123565,3907.087040,6513.812290
28559.071386,-296.082377,3447.429741,7254.018232
28559.071715,-592.164754,842.705048,9252.574275
28559.072043,-1998.556043,-1762.019645,10732.986159
28559.072372,-3034.844362,-2604.724693,11177.109724
28559.072700,-1036.288319,-3600.648841,12139.377449
28559.073028,814.226536,-3064.381992,14137.933492
28559.073357,1702.473667,-766.095498,14285.974681
28559.073685,2664.741391,842.705048,12953.603985
28559.074014,4367.215058,1149.143247,11695.253884
28559.074342,4663.297435,1915.238745,10658.965565
28559.074671,4071.132681,2911.162892,9178.553681
28559.074999,2886.803174,3140.991542,8734.430116
28559.075327,814.226536,1608.800546,8068.244768
28559.075656,-666.185348,-383.047749,8438.347739
28559.075984,-2664.741391,-2221.676944,9178.553681
28559.076313,-4515.256246,-2145.067394,8438.347739
28559.076641,-4663.297435,-3217.601092,7476.080014
28559.076970,-3404.947333,-3370.820191,8142.265362
28559.077298,-3034.844362,-1608.800546,7402.059420
28559.077627,-2368.659014,76.609550,6439.791695
28559.077955,-1628.453072,229.828649,6217.729913
28559.078283,-1184.329507,-459.657299,6439.791695
28559.078612,-1332.370696,0.000000,7328.038826
28559.078940,-1702.473667,612.876398,8660.409521
28559.079269,-2220.617826,-459.657299,8808.450710
28559.079597,-1850.514855,-2298.286494,9696.697840
28559.079926,-370.102971,-3753.867940,12139.377449
28559.080254,-222.061783,-2604.724693,12435.459826
28559.080583,1406.391290,-1149.143247,12805.562797
28559.080911,4293.194464,-612.876398,13619.789333
28559.081239,5255.462188,459.657299,13101.645173
28559.081568,5033.400406,1991.848295,11177.109724
28559.081896,5847.626942,4290.134789,9622.677246
28559.082225,5033.400406,3753.867940,8068.244768
28559.082553,3627.009116,3217.601092,7846.182985
28559.082882,1702.473667,2221.676944,8808.450710
28559.083210,-888.247130,1762.019645,8512.368333
28559.083538,-2072.576638,-383.047749,7550.100608
28559.083867,-2516.700203,-2451.505594,7254.018232
28559.084195,-3256.906145,-995.924147,7846.182985
28559.084524,-2812.782580,842.705048,6957.935855
28559.084852,-740.205942,1685.410096,6661.853478
28559.085181,-518.144159,1302.362347,6291.750507
28559.085509,-1110.308913,2068.457845,6217.729913
28559.085838,-740.205942,2911.162892,6217.729913
28559.086166,-592.164754,2221.676944,6957.935855
28559.086494,-1184.329507,842.705048,7772.162391
28559.086823,-2886.803174,-612.876398,10436.903782
28559.087151,-3478.967927,-919.314598,11177.109724
28559.087480,-2738.761985,-2681.334243,11473.192101
28559.087808,-666.185348,-3600.648841,13323.706956
28559.088137,296.082377,-2451.505594,13915.871710
28559.088465,1998.556043,995.924147,13989.892304
28559.088794,4737.318029,1991.848295,13249.686362
28559.089122,6291.750507,1762.019645,11399.171507
28559.089450,5329.482782,3677.258390,9622.677246
28559.089779,4367.215058,4749.792088,8586.388927
28559.090107,3701.029710,4596.572988,7846.182985
28559.090436,1850.514855,2451.505594,8142.265362
28559.090764,-222.061783,306.438199,9326.594869
28559.091093,-3108.864956,-1302.362347,8512.368333
28559.091421,-3775.050304,-1532.190996,8068.244768
28559.091749,-2590.720797,-2068.457845,8290.306550
28559.092078,-3108.864956,-1302.362347,9030.512492
28559.092406,-3552.988522,0.000000,8216.285956
28559.092735,-1924.535449,995.924147,7031.956449
28559.093063,-666.185348,536.266849,6291.750507
28559.093392,-1702.473667,1225.752797,5625.565159
28559.093720,-1924.535449,1072.533697,5995.668130
28559.094049,-1702.473667,1225.752797,7846.182985
28559.094377,-2368.659014,-536.266849,9030.512492
28559.094705,-2516.700203,-3524.039291,10140.821405
28559.095034,-2072.576638,-3677.258390,12287.418637
28559.095362,-148.041188,-1838.629195,12361.439231
28559.095691,2960.823768,0.000000,13545.768739
28559.096019,4959.379811,-995.924147,13915.871710
28559.096348,5403.503377,689.485948,13027.624579
28559.096676,6587.832884,2987.772442,11621.233289
28559.097005,7105.977043,4903.011187,11029.068536
28559.097333,5995.668130,4749.792088,9474.636058
28559.097661,3849.070898,3524.039291,7698.141797
28559.097990,1850.514855,2145.067394,7550.100608
28559.098318,-1406.391290,1225.752797,7624.121203
28559.098647,-4367.215058,-459.657299,9030.512492
28559.098975,-5477.523971,-2145.067394,8586.388927
28559.099304,-5181.441594,-2834.553343,7476.080014
28559.099632,-3404.947333,-1991.848295,6069.688724
28559.099960,-2442.679609,689.485948,7402.059420
28559.100289,-2294.638420,2911.162892,6217.729913
28559.100617,-1628.453072,3370.820191,5255.462188
28559.100946,296.082377,1225.752797,6439.791695
28559.101274,-518.144159,2145.067394,6661.853478
28559.101603,-1110.308913,2604.724693,5773.606348
28559.101931,-1036.288319,383.047749,7402.059420
28559.102260,-2146.597232,-1608.800546,10066.800811
28559.102588,-2368.659014,-1685.410096,12583.501014
28559.102916,-148.041188,-1149.143247,13545.768739
28559.103245,1258.350101,-2068.457845,13545.768739
28559.103573,3034.844362,-1378.971896,13175.665768
28559.103902,5033.400406,919.314598,13323.706956
28559.104230,5181.441594,4749.792088,13027.624579
28559.104559,4663.297435,5056.230287,11843.295072
28559.104887,4737.318029,2987.772442,10140.821405
28559.105216,2960.823768,2145.067394,7550.100608
28559.105544,0.000000,2298.286494,7328.038826
28559.105872,-2738.761985,1685.410096,7846.182985
28559.106201,-4071.132681,-995.924147,8882.471304
28559.106529,-4885.359217,-3140.991542,8882.471304
28559.106858,-4441.235652,-3677.258390,8956.491898
28559.107186,-4515.256246,-1072.533697,7994.224174
28559.107515,-3256.906145,459.657299,6809.894666
28559.107843,-1332.370696,1149.143247,7328.038826
28559.108171,0.000000,1225.752797,7031.956449
28559.108500,296.082377,2221.676944,6809.894666
28559.108828,888.247130,1915.238745,6957.935855
28559.109157,444.123565,1455.581446,7846.182985
28559.109485,-1702.473667,689.485948,8216.285956
28559.109814,-1850.514855,-1302.362347,8956.491898
28559.110142,-592.164754,-2834.553343,10955.047942
28559.110471,592.164754,-2451.505594,12805.562797
28559.110799,2516.700203,-689.485948,13693.809927
28559.111127,3997.112087,536.266849,13693.809927
28559.111456,4959.379811,1838.629195,12731.542202
28559.111784,6809.894666,1608.800546,11325.150913
28559.112113,6735.874072,3677.258390,10436.903782
28559.112441,5403.503377,4596.572988,9474.636058
28559.112770,3478.967927,3600.648841,9252.574275
28559.113098,962.267725,1762.019645,9992.780217
28559.113427,-2220.617826,-383.047749,9474.636058
28559.113755,-4515.256246,-2681.334243,8216.285956
28559.114083,-5477.523971,-4060.306139,8882.471304
28559.114412,-5033.400406,-3294.210641,8586.388927
28559.114740,-4367.215058,-995.924147,8364.327145
28559.115069,-2960.823768,306.438199,8142.265362
28559.115397,-1184.329507,919.314598,6217.729913
28559.115726,444.123565,2145.067394,5181.441594
28559.116054,592.164754,3600.648841,5921.647536
28559.116382,518.144159,4596.572988,5773.606348
28559.116711,444.123565,3140.991542,7105.977043
28559.117039,444.123565,0.000000,8956.491898
28559.117368,-740.205942,-2068.457845,9474.636058
28559.117696,-1924.535449,-2374.896044,10807.006753
28559.118025,-740.205942,-2451.505594,12213.398043
28559.118353,1036.288319,-1991.848295,12731.542202
28559.118682,2590.720797,-1302.362347,13175.665768
28559.119010,3256.906145,1378.971896,12435.459826
28559.119338,3849.070898,2451.505594,10214.842000
28559.119667,4367.215058,3600.648841,9178.553681
28559.119995,4219.173869,3370.820191,9104.533087
28559.120324,1184.329507,3217.601092,8512.368333
28559.120652,-1924.535449,1838.629195,8142.265362
28559.120981,-2516.700203,-1072.533697,8068.244768
28559.121309,-4737.318029,-4290.134789,8364.327145
28559.121638,-6661.853478,-3677.258390,8808.450710
28559.121966,-5403.503377,-2528.115143,8660.409521
28559.122294,-3478.967927,-1455.581446,8734.430116
28559.122623,-1924.535449,-612.876398,8438.347739
28559.122951,148.041188,229.828649,7476.080014
28559.123280,962.267725,2681.334243,6291.750507
28559.123608,2516.700203,3983.696590,5403.503377
28559.123937,3775.050304,3600.648841,7179.997637
28559.124265,2516.700203,2834.553343,9104.533087
28559.124593,1036.288319,1455.581446,9252.574275
28559.124922,370.102971,-1302.362347,10214.842000
28559.125250,0.000000,-3294.210641,11473.192101
28559.125579,0.000000,-2834.553343,12065.356855
28559.125907,1406.391290,-1685.410096,13397.727550
28559.126236,2738.761985,-689.485948,13619.789333
28559.126564,3404.947333,536.266849,12731.542202
28559.126893,4441.235652,2374.896044,11843.295072
28559.127221,3849.070898,4366.744339,10658.965565
28559.127549,3256.906145,4596.572988,8068.244768
28559.127878,2590.720797,2451.505594,7772.162391
28559.128206,-296.082377,1302.362347,9030.512492
28559.128535,-3701.029710,689.485948,8734.430116
28559.128863,-5107.421000,-1149.143247,8142.265362
28559.129192,-5107.421000,-3294.210641,8512.368333
28559.129520,-5477.523971,-2681.334243,8364.327145
28559.129849,-4663.297435,-919.314598,7846.182985
28559.130177,-1702.473667,689.485948,7920.203579
28559.130505,0.000000,1608.800546,7254.018232
28559.130834,0.000000,2834.553343,7031.956449
28559.131162,888.247130,3830.477490,6883.915261
28559.131491,1776.494261,4290.134789,6439.791695
28559.131819,1702.473667,2987.772442,7624.121203
28559.132148,-370.102971,1455.581446,8956.491898
28559.132476,-666.185348,-536.266849,9622.677246
28559.132804,-1628.453072,-1608.800546,10881.027347
28559.133133,-296.082377,-2374.896044,12731.542202
28559.133461,814.226536,-1991.848295,13027.624579
28559.133790,888.247130,229.828649,13249.686362
28559.134118,2368.659014,536.266849,12065.356855
28559.134447,3404.947333,1225.752797,10288.862594
28559.134775,3552.988522,2374.896044,10140.821405
28559.135104,3034.844362,3753.867940,8808.450710
28559.135432,1480.411884,2834.553343,7624.121203
28559.135760,-148.041188,842.705048,7772.162391
28559.136089,-1628.453072,-612.876398,8956.491898
28559.136417,-4071.132681,-1302.362347,8808.450710
28559.136746,-3849.070898,-1991.848295,7994.224174
28559.137074,-2442.679609,-3677.258390,7846.182985
28559.137403,-2442.679609,-2068.457845,7994.224174
28559.137731,-1702.473667,842.705048,7550.100608
28559.138060,0.000000,1149.143247,6883.915261
28559.138388,444.123565,919.314598,6587.832884
28559.138716,1036.288319,383.047749,7105.977043
28559.139045,1258.350101,2221.676944,7624.121203
28559.139373,888.247130,1685.410096,7994.224174
28559.139702,74.020594,306.438199,8438.347739
28559.140030,0.000000,-2451.505594,10214.842000
28559.140359,-666.185348,-2604.724693,11621.233289
28559.140687,370.102971,-1915.238745,12213.398043
28559.141015,2516.700203,-2145.067394,13915.871710
28559.141344,3108.864956,-919.314598,13249.686362
28559.141672,3775.050304,612.876398,12361.439231
28559.142001,4219.173869,2834.553343,10807.006753
28559.142329,4367.215058,3140.991542,9918.759623
28559.142658,3034.844362,2987.772442,9178.553681
28559.142986,814.226536,2451.505594,9252.574275
28559.143315,-1258.350101,1302.362347,8586.388927
28559.143643,-2516.700203,0.000000,7476.080014
28559.143971,-4145.153275,-2298.286494,8808.450710
28559.144300,-5329.482782,-2451.505594,8586.388927
28559.144628,-5403.503377,-1532.190996,8216.285956
28559.144957,-3330.926739,-383.047749,8290.306550
28559.145285,-1258.350101,153.219100,7920.203579
28559.145614,-888.247130,1608.800546,7031.956449
28559.145942,-296.082377,2987.772442,5995.668130
28559.146271,888.247130,3140.991542,6513.812290
28559.146599,888.247130,2834.553343,7328.038826
28559.146927,0.000000,2221.676944,9326.594869
28559.147256,-962.267725,995.924147,9696.697840
28559.147584,-1110.308913,-689.485948,9622.677246
28559.147913,0.000000,-2221.676944,11547.212695
28559.148241,592.164754,-995.924147,13249.686362
28559.148570,666.185348,306.438199,13323.706956
28559.148898,2886.803174,1072.533697,13249.686362
28559.149226,4367.215058,1532.190996,12583.501014
28559.149555,4589.276840,2681.334243,10955.047942
28559.149883,3478.967927,3983.696590,8734.430116
28559.150212,2442.679609,3677.258390,7328.038826
28559.150540,1628.453072,2834.553343,7624.121203
28559.150869,-814.226536,1685.410096,8216.285956
28559.151197,-3108.864956,76.609550,8660.409521
28559.151526,-4663.297435,-1915.238745,7328.038826
28559.151854,-3701.029710,-3447.429741,7772.162391
28559.152182,-3701.029710,-2911.162892,9030.512492
28559.152511,-2960.823768,-612.876398,9400.615463
28559.152839,-592.164754,459.657299,7994.224174
28559.153168,74.020594,0.000000,7179.997637
28559.153496,370.102971,306.438199,7105.977043
28559.153825,592.164754,1608.800546,6587.832884
28559.154153,1332.370696,1838.629195,7624.121203
28559.154482,1036.288319,612.876398,9030.512492
28559.154810,-370.102971,-1072.533697,9400.615463
28559.155138,-592.164754,-2068.457845,10807.006753
28559.155467,0.000000,-2911.162892,10362.883188
28559.155795,1776.494261,-2757.943793,12435.459826
28559.156124,2886.803174,-1455.581446,13915.871710
28559.156452,3256.906145,306.438199,13323.706956
28559.156781,4367.215058,1225.752797,11547.212695
28559.157109,4589.276840,1455.581446,10584.944971
28559.157437,3775.050304,1455.581446,9548.656652
28559.157766,1554.432478,3294.210641,7624.121203
28559.158094,0.000000,1762.019645,7698.141797
28559.158423,-2294.638420,-229.828649,7846.182985
28559.158751,-4737.318029,-2451.505594,7920.203579
28559.159080,-6439.791695,-2987.772442,8734.430116
28559.159408,-6439.791695,-2221.676944,8068.244768
28559.159737,-5033.400406,-3370.820191,7846.182985
28559.160065,-2960.823768,-1532.190996,9104.533087
28559.160394,-2368.659014,689.485948,8364.327145
28559.160722,-1554.432478,2221.676944,6809.894666
28559.161051,592.164754,1532.190996,6735.874072
28559.161379,1184.329507,1378.971896,7179.997637
28559.161708,962.267725,2681.334243,7328.038826
28559.162036,296.082377,2451.505594,8512.368333
28559.162365,-296.082377,1149.143247,10510.924376
28559.162693,-444.123565,-995.924147,11029.068536
28559.163022,-370.102971,-2451.505594,12657.521608
28559.163350,444.123565,-1455.581446,12583.501014
28559.163679,2664.741391,229.828649,12287.418637
28559.164007,4811.338623,1532.190996,13397.727550
28559.164336,5329.482782,3600.648841,12657.521608
28559.164664,3775.050304,4366.744339,10584.944971
28559.164993,3404.947333,4749.792088,8808.450710
28559.165321,3849.070898,3294.210641,7920.203579
28559.165650,1406.391290,3140.991542,7476.080014
28559.165978,-2146.597232,2911.162892,8364.327145
28559.166306,-3552.988522,612.876398,7179.997637
28559.166635,-4219.173869,-2757.943793,7328.038826
28559.166963,-5329.482782,-3600.648841,7994.224174
28559.167292,-4145.153275,-766.095498,8364.327145
28559.167620,-1554.432478,1302.362347,7920.203579
28559.167949,1110.308913,1608.800546,8364.327145
28559.168277,1702.473667,1838.629195,8512.368333
28559.168606,1628.453072,3753.867940,7179.997637
28559.168934,2368.659014,3907.087040,6587.832884
28559.169263,3256.906145,2604.724693,8142.265362
28559.169591,666.185348,1302.362347,9104.533087
28559.169920,-666.185348,76.609550,9992.780217
28559.170248,-814.226536,-1762.019645,10362.883188
28559.170577,-1036.288319,-3140.991542,11325.150913
28559.170905,0.000000,-2681.334243,12805.562797
28559.171234,962.267725,-689.485948,13397.727550
28559.171562,2220.617826,1378.971896,12509.480420
28559.171891,4293.194464,1149.143247,10955.047942
28559.172219,4663.297435,1685.410096,10658.965565
28559.172548,3404.947333,3907.087040,8956.491898
28559.172876,3034.844362,4519.963438,7328.038826
28559.173205,2220.617826,2145.067394,7994.224174
28559.173533,-1184.329507,536.266849,8216.285956
28559.173862,-4737.318029,-919.314598,7994.224174
28559.174190,-5995.668130,-2987.772442,7772.162391
28559.174519,-6291.750507,-3830.477490,9474.636058
28559.174847,-5921.647536,-3217.601092,9696.697840
28559.175176,-4589.276840,-2221.676944,9178.553681
28559.175504,-2590.720797,-1608.800546,7179.997637
28559.175833,-1702.473667,1378.971896,6513.812290
28559.176161,0.000000,1608.800546,7328.038826
28559.176490,370.102971,3753.867940,6735.874072
28559.176818,444.123565,3370.820191,6513.812290
28559.177147,1406.391290,459.657299,7402.059420
28559.177475,370.102971,229.828649,8956.491898
28559.177804,-740.205942,536.266849,9696.697840
28559.178132,444.123565,-842.705048,10881.027347
28559.178461,2072.576638,-2757.943793,12657.521608
28559.178789,3108.864956,-919.314598,13989.892304
28559.179117,4589.276840,1915.238745,14211.954086
28559.179446,5329.482782,3140.991542,12509.480420
28559.179774,5625.565159,2987.772442,10436.903782
28559.180103,6143.709319,2834.553343,9030.512492
28559.180431,4367.215058,4826.401637,8586.388927
28559.180760,740.205942,4826.401637,7624.121203
28559.181088,-1332.370696,2298.286494,8808.450710
28559.181417,-4071.132681,-1302.362347,8364.327145
28559.181745,-6587.832884,-2757.943793,8068.244768
28559.182074,-7105.977043,-3447.429741,7624.121203
28559.182402,-5773.606348,-3370.820191,7772.162391
28559.182731,-4737.318029,-1378.971896,8068.244768
28559.183059,-2590.720797,612.876398,9252.574275
28559.183388,-888.247130,1608.800546,8438.347739
28559.183716,592.164754,2298.286494,6439.791695
28559.184045,2812.782580,2298.286494,6735.874072
28559.184373,3330.926739,3064.381992,8290.306550
28559.184702,2368.659014,4290.134789,9474.636058
28559.185030,1998.556043,2298.286494,10288.862594
28559.185359,2220.617826,-2068.457845,10807.006753
28559.185687,962.267725,-3600.648841,11325.150913
28559.186016,740.205942,-1532.190996,12361.439231
28559.186344,2146.597232,229.828649,13323.706956
28559.186673,3701.029710,76.609550,12953.603985
28559.187001,3478.967927,383.047749,12805.562797
28559.187330,3330.926739,2757.943793,11177.109724
28559.187658,2368.659014,3524.039291,7624.121203
28559.187987,2072.576638,2604.724693,7328.038826
28559.188315,-296.082377,995.924147,8660.409521
28559.188644,-4663.297435,612.876398,7846.182985
28559.188972,-5699.585753,-1225.752797,6883.915261
28559.189301,-5329.482782,-4749.792088,7328.038826
28559.189629,-7402.059420,-4060.306139,8216.285956
28559.189958,-6439.791695,-2068.457845,7994.224174
28559.190286,-3552.988522,-995.924147,8438.347739
28559.190615,-1554.432478,-612.876398,8364.327145
28559.190943,-518.144159,0.000000,8216.285956
28559.191272,962.267725,1378.971896,7994.224174
28559.191600,1776.494261,3677.258390,7402.059420
28559.191928,3034.844362,2987.772442,7105.977043
28559.192257,3182.885551,842.705048,9622.677246
28559.192585,888.247130,612.876398,10140.821405
28559.192914,0.000000,0.000000,10362.883188
28559.193242,888.247130,-1991.848295,11769.274478
28559.193571,888.247130,-2911.162892,12139.377449
28559.193899,1258.350101,-919.314598,11621.233289
28559.194228,3627.009116,1225.752797,12361.439231
28559.194556,4589.276840,2374.896044,11547.212695
28559.194885,3997.112087,2604.724693,10066.800811
28559.195213,3849.070898,3064.381992,9474.636058
28559.195542,3182.885551,3907.087040,7698.141797
28559.195870,1850.514855,3830.477490,6809.894666
28559.196199,-296.082377,1838.629195,8068.244768
28559.196527,-2590.720797,0.000000,8956.491898
28559.196856,-4367.215058,-1302.362347,7846.182985
28559.197184,-3923.091493,-2528.115143,8290.306550
28559.197513,-3404.947333,-2451.505594,9104.533087
28559.197841,-2960.823768,-153.219100,9104.533087
28559.198170,-1554.432478,1608.800546,8586.388927
28559.198498,-666.185348,1685.410096,7624.121203
28559.198827,222.061783,1532.190996,7105.977043
28559.199155,592.164754,2681.334243,6809.894666
28559.199484,740.205942,2834.553343,7624.121203
28559.199812,74.020594,2298.286494,8438.347739
28559.200141,0.000000,0.000000,9918.759623
28559.200469,0.000000,-1991.848295,11695.253884
28559.200798,-1258.350101,-1838.629195,11547.212695
28559.201126,592.164754,-2604.724693,12361.439231
28559.201455,2516.700203,-766.095498,13471.748144
28559.201783,2960.823768,536.266849,13693.809927
28559.202112,3552.988522,1762.019645,11769.274478
28559.202440,4071.132681,1915.238745,10584.944971
28559.202769,3627.009116,2068.457845,9474.636058
28559.203097,2664.741391,3753.867940,8660.409521
28559.203426,814.226536,2911.162892,8660.409521
28559.203754,-1776.494261,1378.971896,7624.121203
28559.204083,-3404.947333,-1225.752797,7476.080014
28559.204411,-4811.338623,-3140.991542,8216.285956
28559.204739,-6587.832884,-2681.334243,7920.203579
28559.205068,-5995.668130,-2451.505594,8142.265362
28559.205396,-3478.967927,-1762.019645,8142.265362
28559.205725,-3034.844362,-1225.752797,7920.203579
28559.206053,-2368.659014,0.000000,6957.935855
28559.206382,-1258.350101,995.924147,6365.771101
28559.206710,296.082377,1608.800546,6735.874072
28559.207039,1036.288319,1762.019645,7994.224174
28559.207367,814.226536,1608.800546,9622.677246
28559.207696,0.000000,995.924147,9400.615463
28559.208024,814.226536,-1455.581446,10066.800811
28559.208353,1998.556043,-2451.505594,12139.377449
28559.208681,2294.638420,-995.924147,13323.706956
28559.209010,3552.988522,766.095498,13693.809927
28559.209338,5773.606348,1455.581446,13323.706956
28559.209667,5847.626942,1455.581446,11843.295072
28559.209995,4367.215058,2221.676944,9918.759623
28559.210324,3478.967927,4060.306139,7994.224174
28559.210652,3330.926739,2911.162892,7476.080014
28559.210981,444.123565,2374.896044,7624.121203
28559.211309,-2590.720797,1225.752797,8142.265362
28559.211638,-4737.318029,-842.705048,6809.894666
28559.211966,-5329.482782,-2528.115143,6587.832884
28559.212295,-4811.338623,-2757.943793,8364.327145
28559.212623,-4959.379811,-1915.238745,8364.327145
28559.212952,-3627.009116,0.000000,7698.141797
28559.213280,-1110.308913,0.000000,7772.162391
28559.213609,-444.123565,76.609550,7846.182985
28559.213937,-444.123565,2068.457845,7550.100608
28559.214266,1110.308913,2451.505594,7179.997637
28559.214594,2664.741391,766.095498,8808.450710
28559.214923,1258.350101,995.924147,9548.656652
28559.215251,592.164754,0.000000,11843.295072
28559.215580,296.082377,-459.657299,11621.233289
28559.215908,888.247130,-1455.581446,11769.274478
28559.216237,2294.638420,-2068.457845,12879.583391
28559.216565,2442.679609,306.438199,12953.603985
28559.216894,3330.926739,2604.724693,12953.603985
28559.217222,4145.153275,2451.505594,11843.295072
28559.217550,3108.864956,1915.238745,9918.759623
28559.217879,1628.453072,2451.505594,8142.265362
28559.218207,296.082377,2987.772442,7105.977043
28559.218536,-1184.329507,2145.067394,7105.977043
28559.218864,-3849.070898,306.438199,7772.162391
28559.219193,-5255.462188,-2068.457845,8586.388927
28559.219521,-5699.585753,-3600.648841,7920.203579
28559.219850,-5477.523971,-2528.115143,7105.977043
28559.220178,-3034.844362,-1838.629195,8586.388927
28559.220507,-1776.494261,229.828649,9104.533087
28559.220835,-1036.288319,1915.238745,8216.285956
28559.221164,740.205942,1762.019645,7179.997637
28559.221492,2220.617826,306.438199,7031.956449
28559.221821,1406.391290,1302.362347,6735.874072
28559.222149,888.247130,2451.505594,7846.182985
28559.222478,296.082377,536.266849,9474.636058
28559.222806,-444.123565,-1838.629195,10362.883188
28559.223135,-962.267725,-2987.772442,11621.233289
28559.223463,-370.102971,-2757.943793,12287.418637
28559.223792,1110.308913,-1455.581446,12657.521608
28559.224120,3997.112087,-689.485948,12953.603985
28559.224449,4737.318029,1149.143247,13175.665768
28559.224777,4737.318029,2374.896044,11621.233289
28559.225106,4737.318029,2987.772442,10066.800811
28559.225434,4589.276840,2987.772442,9030.512492
28559.225763,2442.679609,2681.334243,8068.244768
28559.226091,-740.205942,2145.067394,7476.080014
28559.226420,-2664.741391,-229.828649,7402.059420
28559.226748,-4737.318029,-2451.505594,7550.100608
28559.227077,-5699.585753,-4136.915689,7624.121203
28559.227405,-5329.482782,-2834.553343,8364.327145
28559.227734,-4441.235652,-459.657299,8068.244768
28559.228062,-1850.514855,689.485948,7402.059420
28559.228391,592.164754,1072.533697,6957.935855
28559.228719,0.000000,1915.238745,6365.771101
28559.229048,518.144159,3140.991542,6069.688724
28559.229376,2072.576638,3217.601092,7105.977043
28559.229705,1184.329507,2221.676944,8068.244768
28559.230033,-888.247130,689.485948,8586.388927
28559.230361,-2294.638420,-995.924147,9326.594869
28559.230690,-444.123565,-2451.505594,11103.089130
28559.231018,0.000000,-1915.238745,12435.459826
28559.231347,814.226536,-1532.190996,14211.954086
28559.231675,1702.473667,-229.828649,13471.748144
28559.232004,3997.112087,1302.362347,12435.459826
28559.232332,5477.523971,2068.457845,12065.356855
28559.232661,4071.132681,3830.477490,10807.006753
28559.232989,2960.823768,4519.963438,8438.347739
28559.233318,3108.864956,3524.039291,8660.409521
28559.233646,666.185348,1685.410096,9178.553681
28559.233975,-3404.947333,536.266849,8364.327145
28559.234303,-4885.359217,-1991.848295,7698.141797
28559.234632,-5625.565159,-3983.696590,7402.059420
28559.234960,-5033.400406,-2451.505594,8142.265362
28559.235289,-4071.132681,-1225.752797,8586.388927
28559.235617,-1850.514855,1072.533697,8586.388927
28559.235946,0.000000,1685.410096,7105.977043
28559.236274,1776.494261,2374.896044,7105.977043
28559.236603,2072.576638,3677.258390,7179.997637
28559.236931,2146.597232,4749.792088,6735.874072
28559.237260,2368.659014,3370.820191,7402.059420
28559.237588,1406.391290,536.266849,8956.491898
28559.237917,-666.185348,-612.876398,9622.677246
28559.238245,-1258.350101,-1378.971896,11103.089130
28559.238574,-296.082377,-2528.115143,11917.315666
28559.238902,666.185348,-2604.724693,12879.583391
28559.239231,2072.576638,-1225.752797,13841.851115
28559.239559,2442.679609,2068.457845,13693.809927
28559.239888,4071.132681,2987.772442,11325.150913
28559.240216,4589.276840,2681.334243,10140.821405
28559.240545,4145.153275,2681.334243,9474.636058
28559.240873,1998.556043,3677.258390,8660.409521
28559.241202,518.144159,2834.553343,8512.368333
28559.241530,-1258.350101,459.657299,8882.471304
28559.241859,-4441.235652,-1991.848295,8290.306550
28559.242187,-5329.482782,-2681.334243,8364.327145
28559.242516,-4959.379811,-2298.286494,7920.203579
28559.242844,-3552.988522,-2451.505594,8586.388927
28559.243172,-2738.761985,-459.657299,9030.512492
28559.243501,-1850.514855,1838.629195,8364.327145
28559.243829,-518.144159,2987.772442,6809.894666
28559.244158,740.205942,2987.772442,5477.523971
28559.244486,1406.391290,2681.334243,6587.832884
28559.244815,-370.102971,3753.867940,6513.812290
28559.245143,-666.185348,2681.334243,7624.121203
28559.245472,-1184.329507,76.609550,9104.533087
28559.245800,-2220.617826,-2374.896044,10214.842000
28559.246129,-2294.638420,-2834.553343,10140.821405
28559.246457,-296.082377,-1455.581446,11843.295072
28559.246786,1554.432478,0.000000,12879.583391
28559.247114,3034.844362,995.924147,12805.562797
28559.247443,4663.297435,2451.505594,11917.315666
28559.247771,5255.462188,3753.867940,9918.759623
28559.248100,5773.606348,4903.011187,8734.430116
28559.248428,5329.482782,4979.620737,8438.347739
28559.248757,1776.494261,3830.477490,8142.265362
28559.249085,-814.226536,1532.190996,7994.224174
28559.249414,-1332.370696,-766.095498,8512.368333
28559.249742,-2812.782580,-1991.848295,9474.636058
28559.250071,-5107.421000,-1991.848295,8956.491898
28559.250399,-4737.318029,-2221.676944,8364.327145
28559.250728,-2738.761985,-1915.238745,8438.347739
28559.251056,-2146.597232,-766.095498,8882.471304
28559.251385,-1628.453072,689.485948,8808.450710
28559.251713,-1110.308913,1532.190996,6883.915261
28559.252042,0.000000,842.705048,6217.729913
28559.252370,296.082377,153.219100,7476.080014
28559.252699,-1110.308913,459.657299,8882.471304
28559.253027,-1480.411884,-383.047749,9696.697840
28559.253356,-962.267725,-2757.943793,10807.006753
28559.253684,592.164754,-4903.011187,12509.480420
28559.254013,814.226536,-2834.553343,12953.603985
28559.254341,2442.679609,-842.705048,12953.603985
28559.254670,4959.379811,153.219100,12731.542202
28559.254998,6069.688724,919.314598,12509.480420
28559.255327,5625.565159,2145.067394,11621.233289
28559.255655,4663.297435,3677.258390,9770.718434
28559.255983,3701.029710,3524.039291,8142.265362
28559.256312,1554.432478,689.485948,8956.491898
28559.256640,-2368.659014,-383.047749,9326.594869
28559.256969,-5107.421000,-1991.848295,8290.306550
28559.257297,-5847.626942,-3983.696590,7772.162391
28559.257626,-5699.585753,-5286.058936,8364.327145
28559.257954,-5551.544565,-2221.676944,8364.327145
28559.258283,-4589.276840,153.219100,7772.162391
28559.258611,-2442.679609,689.485948,7031.956449
28559.258940,-962.267725,766.095498,6587.832884
28559.259268,-222.061783,1991.848295,6217.729913
28559.259597,740.205942,3983.696590,6661.853478
28559.259925,1332.370696,3677.258390,7105.977043
28559.260254,1332.370696,2068.457845,8586.388927
28559.260582,296.082377,-842.705048,10584.944971
28559.260911,-222.061783,-612.876398,11029.068536
28559.261239,1184.329507,-383.047749,11547.212695
28559.261568,2812.782580,-536.266849,12953.603985
28559.261896,3182.885551,612.876398,13397.727550
28559.262225,3627.009116,2834.553343,11917.315666
28559.262553,4885.359217,3907.087040,10658.965565
28559.262882,4663.297435,3753.867940,9474.636058
28559.263210,3701.029710,4596.572988,8216.285956
28559.263539,2664.741391,4673.182538,7772.162391
28559.263867,518.144159,4060.306139,7179.997637
28559.264196,-1036.288319,2298.286494,7624.121203
28559.264524,-2886.803174,-153.219100,7846.182985
28559.264853,-4737.318029,-2145.067394,7698.141797
28559.265181,-4885.359217,-1072.533697,7179.997637
28559.265509,-3034.844362,-842.705048,7994.224174
28559.265838,-2368.659014,153.219100,9326.594869
28559.266166,-1776.494261,1762.019645,8660.409521
28559.266495,-814.226536,1762.019645,7402.059420
28559.266823,222.061783,1149.143247,6513.812290
28559.267152,148.041188,1302.362347,6957.935855
28559.267480,296.082377,3217.601092,7920.203579
28559.267809,-296.082377,2298.286494,8660.409521
28559.268137,-222.061783,-766.095498,9326.594869
28559.268466,222.061783,-3064.381992,11547.212695
28559.268794,0.000000,-2145.067394,12435.459826
28559.269123,1036.288319,-766.095498,12657.521608
28559.269451,3627.009116,-1685.410096,14137.933492
28559.269780,3997.112087,-1608.800546,13693.809927
28559.270108,3552.988522,459.657299,12213.398043
28559.270437,3701.029710,1838.629195,10732.986159
28559.270765,3552.988522,2068.457845,9400.615463
28559.271094,1850.514855,1302.362347,8956.491898
28559.271422,0.000000,536.266849,8956.491898
28559.271751,-2368.659014,-766.095498,8956.491898
28559.272079,-4441.235652,-1532.190996,7698.141797
28559.272408,-4663.297435,-3447.429741,7846.182985
28559.272736,-4811.338623,-3830.477490,8438.347739
28559.273065,-5255.462188,-1608.800546,8882.471304
28559.273393,-3256.906145,-842.705048,8512.368333
28559.273721,-1850.514855,-766.095498,7920.203579
28559.274050,-2146.597232,-766.095498,7476.080014
28559.274378,-1258.350101,1608.800546,7031.956449
28559.274707,370.102971,1838.629195,6587.832884
28559.275035,1036.288319,1838.629195,7846.182985
28559.275364,592.164754,689.485948,9474.636058
28559.275692,-222.061783,76.609550,10288.862594
28559.276021,518.144159,-536.266849,9474.636058
28559.276349,2590.720797,-1915.238745,10807.006753
28559.276678,3404.947333,-153.219100,13397.727550
28559.277006,2960.823768,2451.505594,13767.830521
28559.277335,5033.400406,2834.553343,12657.521608
28559.277663,5551.544565,1762.019645,11843.295072
28559.277992,3701.029710,1991.848295,10362.883188
28559.278320,2738.761985,4519.963438,8438.347739
28559.278649,1628.453072,4366.744339,7031.956449
28559.278977,-296.082377,2374.896044,7179.997637
28559.279306,-3701.029710,0.000000,7698.141797
28559.279634,-5107.421000,-459.657299,7550.100608
28559.279963,-5921.647536,-766.095498,6513.812290
28559.280291,-4515.256246,-1608.800546,6365.771101
28559.280620,-3182.885551,-842.705048,8364.327145
28559.280948,-2960.823768,1149.143247,7698.141797
28559.281276,-888.247130,2145.067394,7105.977043
28559.281605,1036.288319,766.095498,7254.018232
28559.281933,1184.329507,1225.752797,7328.038826
28559.282262,1110.308913,2987.772442,7254.018232
28559.282590,1776.494261,2911.162892,8364.327145
28559.282919,1480.411884,995.924147,9992.780217
28559.283247,222.061783,-612.876398,9992.780217
28559.283576,666.185348,-1991.848295,11769.274478
28559.283904,1110.308913,-842.705048,11843.295072
28559.284233,2664.741391,0.000000,12361.439231
28559.284561,4071.132681,153.219100,13397.727550
28559.284890,3478.967927,1685.410096,12583.501014
28559.285218,3404.947333,2451.505594,10658.965565
28559.285547,3552.988522,2834.553343,9918.759623
28559.285875,2812.782580,1608.800546,8882.471304
28559.286204,0.000000,1991.848295,7624.121203
28559.286532,-2072.576638,919.314598,7846.182985
28559.286861,-3849.070898,-842.705048,7772.162391
28559.287189,-5181.441594,-2987.772442,8068.244768
28559.287518,-5329.482782,-3907.087040,8290.306550
28559.287846,-4515.256246,-1685.410096,7698.141797
28559.288175,-2368.659014,-842.705048,7698.141797
28559.288503,-148.041188,0.000000,8660.409521
28559.288832,296.082377,1302.362347,8734.430116
28559.289160,222.061783,1991.848295,7254.018232
28559.289488,1480.411884,1991.848295,7772.162391
28559.289817,1924.535449,1149.143247,7994.224174
28559.290145,148.041188,1302.362347,8734.430116
28559.290474,-296.082377,-306.438199,9474.636058
28559.290802,-1184.329507,-2145.067394,10288.862594
28559.291131,-1628.453072,-3217.601092,11473.192101
28559.291459,-666.185348,-3370.820191,12879.583391
28559.291788,518.144159,-995.924147,13619.789333
28559.292116,2072.576638,0.000000,12953.603985
28559.292445,3849.070898,306.438199,12509.480420
28559.292773,4219.173869,1378.971896,11473.192101
28559.293102,2886.803174,3294.210641,9770.718434
28559.293430,3330.926739,3294.210641,8512.368333
28559.293759,2516.700203,2374.896044,8956.491898
28559.294087,-888.247130,1532.190996,8290.306550
28559.294416,-3034.844362,0.000000,7994.224174
28559.294744,-4071.132681,-1762.019645,7105.977043
28559.295073,-4293.194464,-2911.162892,7179.997637
28559.295401,-4071.132681,-1838.629195,7846.182985
28559.295730,-3182.885551,0.000000,8512.368333
28559.296058,-1702.473667,919.314598,7105.977043
28559.296387,74.020594,1608.800546,7105.977043
28559.296715,1184.329507,1378.971896,7698.141797
28559.297043,518.144159,3064.381992,6735.874072
28559.297372,1406.391290,2757.943793,7402.059420
28559.297700,1702.473667,1685.410096,8808.450710
28559.298029,1036.288319,0.000000,9548.656652
28559.298357,-222.061783,-689.485948,10140.821405
28559.298686,0.000000,-1532.190996,11177.109724
28559.299014,1184.329507,-2068.457845,12287.418637
28559.299343,2368.659014,-995.924147,13619.789333
28559.299671,3997.112087,842.705048,14582.057057
28559.300000,3849.070898,2604.724693,12287.418637
28559.300328,4219.173869,3064.381992,9992.780217
28559.300657,4663.297435,2528.115143,9770.718434
28559.300985,2368.659014,3830.477490,9178.553681
28559.301314,222.061783,4290.134789,8142.265362
28559.301642,-1406.391290,1302.362347,7994.224174
28559.301971,-3552.988522,-2221.676944,7698.141797
28559.302299,-6291.750507,-2221.676944,6957.935855
28559.302628,-6439.791695,-1685.410096,6883.915261
28559.302956,-5477.523971,-1762.019645,7179.997637
28559.303285,-4663.297435,-1149.143247,7402.059420
28559.303613,-2664.741391,536.266849,8290.306550
28559.303942,-888.247130,2451.505594,7105.977043
28559.304270,1110.308913,2681.334243,6365.771101
28559.304599,2812.782580,2757.943793,7550.100608
28559.304927,2886.803174,3524.039291,8364.327145
28559.305255,1480.411884,3370.820191,8290.306550
28559.305584,1628.453072,1302.362347,9400.615463
28559.305912,1110.308913,-1685.410096,10955.047942
28559.306241,-1036.288319,-919.314598,11251.130318
28559.306569,222.061783,-2068.457845,12435.459826
28559.306898,1554.432478,-2298.286494,13767.830521
28559.307226,2368.659014,-1149.143247,14211.954086
28559.307555,2738.761985,766.095498,13767.830521
28559.307883,2886.803174,1915.238745,11769.274478
28559.308212,3108.864956,1762.019645,9252.574275
28559.308540,3404.947333,1915.238745,8068.244768
28559.308869,1184.329507,1762.019645,8142.265362
28559.309197,-1850.514855,2145.067394,7624.121203
28559.309526,-2812.782580,0.000000,7698.141797
28559.309854,-3775.050304,-3294.210641,8142.265362
28559.310183,-4885.359217,-3907.087040,7550.100608
28559.310511,-5107.421000,-2451.505594,7179.997637
28559.310840,-2738.761985,-1608.800546,8068.244768
28559.311168,-888.247130,-689.485948,8660.409521
28559.311497,-222.061783,0.000000,8586.388927
28559.311825,592.164754,766.095498,8364.327145
28559.312154,1480.411884,1685.410096,7402.059420
28559.312482,2812.782580,2298.286494,7772.162391
28559.312810,2146.597232,1762.019645,9474.636058
28559.313139,0.000000,1225.752797,10436.903782
28559.313467,-592.164754,-689.485948,9104.533087
28559.313796,222.061783,-2987.772442,10732.986159
28559.314124,0.000000,-2528.115143,11991.336260
28559.314453,74.020594,-229.828649,12953.603985
28559.314781,1702.473667,766.095498,13323.706956
28559.315110,2812.782580,919.314598,12583.501014
28559.315438,2664.741391,1149.143247,11029.068536
28559.315767,3108.864956,3370.820191,9622.677246
28559.316095,2442.679609,4826.401637,7846.182985
28559.316424,1332.370696,4519.963438,7254.018232
28559.316752,0.000000,2604.724693,8956.491898
28559.317081,-2442.679609,1455.581446,8216.285956
28559.317409,-4441.235652,383.047749,5995.668130
28559.317738,-3404.947333,-1149.143247,6661.853478
28559.318066,-3404.947333,-919.314598,7402.059420
28559.318395,-2960.823768,1762.019645,7698.141797
28559.318723,-888.247130,2681.334243,7624.121203
28559.319052,296.082377,2298.286494,7105.977043
28559.319380,1258.350101,2068.457845,7105.977043
28559.319709,1406.391290,5439.278036,6735.874072
28559.320037,2294.638420,5056.230287,6735.874072
28559.320366,1776.494261,3753.867940,7624.121203
28559.320694,1554.432478,1072.533697,9326.594869
28559.321022,0.000000,0.000000,10436.903782
28559.321351,-1036.288319,-306.438199,10955.047942
28559.321679,-148.041188,-1455.581446,12287.418637
28559.322008,814.226536,-1378.971896,12953.603985
28559.322336,1924.535449,-766.095498,13767.830521
28559.322665,2368.659014,306.438199,13027.624579
28559.322993,2664.741391,842.705048,11843.295072
28559.323322,2442.679609,1149.143247,10881.027347
28559.323650,1998.556043,1532.190996,10066.800811
28559.323979,222.061783,1225.752797,8734.430116
28559.324307,-740.205942,306.438199,7846.182985
28559.324636,-1258.350101,-842.705048,8586.388927
28559.324964,-3330.926739,-2451.505594,8882.471304
28559.325293,-4515.256246,-2604.724693,7994.224174
28559.325621,-3849.070898,-3447.429741,8068.244768
28559.325950,-1924.535449,-2681.334243,9104.533087
28559.326278,-1036.288319,-1532.190996,9030.512492
28559.326607,-888.247130,842.705048,7920.203579
28559.326935,-296.082377,-689.485948,6883.915261
28559.327264,296.082377,-306.438199,6883.915261
