#time,accel_x,accel_y,accel_z
20823.711574,-3478.967927,459.657299,10584.944971
20823.711897,-3552.988522,842.705048,10584.944971
20823.712221,-3256.906145,1072.533697,10140.821405
20823.712544,-2960.823768,1608.800546,10362.883188
20823.712868,-2738.761985,1762.019645,9178.553681
20823.713191,-1554.432478,2221.676944,8364.327145
20823.713514,-518.144159,2528.115143,8068.244768
20823.713838,-888.247130,2604.724693,7328.038826
20823.714161,-962.267725,2451.505594,6587.832884
20823.714485,-1480.411884,1991.848295,6365.771101
20823.714808,-1258.350101,1608.800546,6883.915261
20823.715132,-1554.432478,1072.533697,7846.182985
20823.715455,-2368.659014,1378.971896,7698.141797
20823.715779,-1480.411884,1532.190996,9326.594869
20823.716102,-740.205942,1532.190996,9252.574275
20823.716426,-1184.329507,1991.848295,9770.718434
20823.716749,-1480.411884,2374.896044,10140.821405
20823.717073,-1258.350101,2374.896044,10288.862594
20823.717396,-1036.288319,2451.505594,10288.862594
20823.717719,-1702.473667,2911.162892,10658.965565
20823.718043,-2146.597232,3064.381992,10584.944971
20823.718366,-2886.803174,2451.505594,10807.006753
20823.718690,-3552.988522,2451.505594,9918.759623
20823.719013,-3108.864956,2528.115143,10584.944971
20823.719337,-3849.070898,2451.505594,10807.006753
20823.719660,-4885.359217,2374.896044,10066.800811
20823.719984,-4737.318029,2451.505594,9548.656652
20823.720307,-3775.050304,2451.505594,9696.697840
20823.720631,-4219.173869,2834.553343,9548.656652
20823.720954,-4441.235652,3064.381992,9104.533087
20823.721277,-4811.338623,2911.162892,8364.327145
20823.721601,-4811.338623,3064.381992,7994.224174
20823.721924,-3923.091493,3677.258390,7698.141797
20823.722248,-3701.029710,3524.039291,7846.182985
20823.722571,-4367.215058,3217.601092,6883.915261
20823.722895,-3552.988522,3294.210641,6365.771101
20823.723218,-2886.803174,3140.991542,6957.935855
20823.723542,-2738.761985,2757.943793,6883.915261
20823.723865,-2886.803174,2681.334243,6809.894666
20823.724189,-1406.391290,1991.848295,6661.853478
20823.724512,-222.061783,1915.238745,7031.956449
20823.724836,0.000000,536.266849,7402.059420
20823.725159,-370.102971,612.876398,8364.327145
20823.725482,0.000000,-536.266849,8808.450710
20823.725806,0.000000,-842.705048,9474.636058
20823.726129,592.164754,-1072.533697,11029.068536
20823.726453,370.102971,-1608.800546,11769.274478
20823.726776,296.082377,-1532.190996,11991.336260
20823.727100,592.164754,-1302.362347,12361.439231
20823.727423,1924.535449,-1149.143247,11547.212695
20823.727747,1998.556043,-1302.362347,11695.253884
20823.728070,2960.823768,-766.095498,11103.089130
20823.728394,3552.988522,-919.314598,10140.821405
20823.728717,3997.112087,-1072.533697,9918.759623
20823.729040,3256.906145,-1225.752797,9178.553681
20823.729364,2886.803174,-2145.067394,9326.594869
20823.729687,2590.720797,-2681.334243,8882.471304
20823.730011,1776.494261,-4060.306139,8586.388927
20823.730334,296.082377,-4673.182538,8660.409521
20823.730658,-296.082377,-4826.401637,8808.450710
20823.730981,0.000000,-4903.011187,8808.450710
20823.731305,370.102971,-3983.696590,8512.368333
20823.731628,740.205942,-3753.867940,8068.244768
20823.731952,222.061783,-3294.210641,8216.285956
20823.732275,370.102971,-1991.848295,7772.162391
20823.732598,1184.329507,-1608.800546,8734.430116
20823.732922,370.102971,-995.924147,9252.574275
20823.733245,-1480.411884,-766.095498,9178.553681
20823.733569,-2220.617826,-1072.533697,10362.883188
20823.733892,-2664.741391,-1532.190996,11103.089130
20823.734216,-4515.256246,-1532.190996,11843.295072
20823.734539,-5995.668130,-1378.971896,11843.295072
20823.734863,-6439.791695,-1685.410096,11769.274478
20823.735186,-6587.832884,-1762.019645,11177.109724
20823.735510,-6291.750507,-766.095498,10732.986159
20823.735833,-6291.750507,383.047749,9992.780217
20823.736156,-5477.523971,1149.143247,9104.533087
20823.736480,-3701.029710,2451.505594,8438.347739
20823.736803,-2442.679609,3064.381992,7698.141797
20823.737126,-2368.659014,3677.258390,7772.162391
20823.737449,-2368.659014,3294.210641,7328.038826
20823.737772,-1258.350101,3140.991542,6587.832884
20823.738096,148.041188,2987.772442,6217.729913
20823.738419,0.000000,3217.601092,6217.729913
20823.738742,296.082377,2757.943793,5699.585753
20823.739065,888.247130,2834.553343,6513.812290
20823.739388,1776.494261,2834.553343,6735.874072
20823.739712,1628.453072,2604.724693,7328.038826
20823.740035,1406.391290,2451.505594,8142.265362
20823.740358,1554.432478,2451.505594,8142.265362
20823.740681,2516.700203,2451.505594,8808.450710
20823.741005,2738.761985,2834.553343,8956.491898
20823.741328,2812.782580,3524.039291,9400.615463
20823.741651,2960.823768,2374.896044,9252.574275
20823.741974,3404.947333,1532.190996,8734.430116
20823.742297,3627.009116,919.314598,9696.697840
20823.742621,3182.885551,229.828649,9992.780217
20823.742944,3108.864956,-766.095498,10288.862594
20823.743267,2960.823768,-1762.019645,9992.780217
20823.743590,3330.926739,-3524.039291,10510.924376
20823.743914,2664.741391,-3753.867940,11251.130318
20823.744237,3404.947333,-3907.087040,11547.212695
20823.744560,3404.947333,-4213.525239,11251.130318
20823.744883,3701.029710,-3907.087040,11325.150913
20823.745206,3701.029710,-3447.429741,11103.089130
20823.745530,2738.761985,-3524.039291,10732.986159
20823.745853,2368.659014,-2911.162892,10288.862594
20823.746176,1776.494261,-3294.210641,9696.697840
20823.746499,0.000000,-3370.820191,9696.697840
20823.746823,-1924.535449,-2911.162892,9770.718434
20823.747146,-3404.947333,-2681.334243,9622.677246
20823.747469,-4515.256246,-2987.772442,9474.636058
20823.747792,-5921.647536,-2374.896044,9548.656652
20823.748115,-6809.894666,-2451.505594,9474.636058
20823.748439,-7254.018232,-2757.943793,9178.553681
20823.748762,-7328.038826,-2374.896044,8438.347739
20823.749085,-7105.977043,-1838.629195,8734.430116
20823.749408,-6957.935855,-1378.971896,7994.224174
20823.749732,-6217.729913,-842.705048,8068.244768
20823.750055,-5403.503377,-919.314598,7550.100608
20823.750378,-4737.318029,0.000000,7846.182985
20823.750701,-3923.091493,0.000000,7328.038826
20823.751024,-3478.967927,-383.047749,7179.997637
20823.751348,-2146.597232,0.000000,7402.059420
20823.751671,-962.267725,-306.438199,7698.141797
20823.751994,-592.164754,229.828649,8068.244768
20823.752317,0.000000,612.876398,8512.368333
20823.752641,1110.308913,459.657299,9104.533087
20823.752964,814.226536,612.876398,9030.512492
20823.753287,1110.308913,842.705048,9622.677246
20823.753610,1110.308913,229.828649,10436.903782
20823.753933,1110.308913,766.095498,10362.883188
20823.754257,1924.535449,1532.190996,10436.903782
20823.754580,2442.679609,1072.533697,10214.842000
20823.754903,2812.782580,1762.019645,9030.512492
20823.755226,3182.885551,1762.019645,9252.574275
20823.755550,4589.276840,1149.143247,8808.450710
20823.755873,4663.297435,1991.848295,8364.327145
20823.756196,4589.276840,1378.971896,8882.471304
20823.756519,4589.276840,1072.533697,8586.388927
20823.756842,4811.338623,383.047749,8808.450710
20823.757166,4811.338623,536.266849,9030.512492
20823.757489,5033.400406,-383.047749,9178.553681
20823.757812,4589.276840,-383.047749,9474.636058
20823.758135,4145.153275,-919.314598,9178.553681
20823.758458,3849.070898,-1225.752797,8882.471304
20823.758782,2812.782580,-1072.533697,8586.388927
20823.759105,2220.617826,-919.314598,8956.491898
20823.759428,1554.432478,-766.095498,9030.512492
20823.759751,740.205942,-383.047749,9252.574275
20823.760075,-370.102971,-306.438199,9474.636058
20823.760398,-1924.535449,-229.828649,9918.759623
20823.760721,-2812.782580,-842.705048,10658.965565
20823.761044,-3627.009116,-689.485948,11177.109724
20823.761367,-5033.400406,-1608.800546,11325.150913
20823.761691,-6069.688724,-1685.410096,11769.274478
20823.762014,-6365.771101,-1838.629195,11177.109724
20823.762337,-6439.791695,-1762.019645,10362.883188
20823.762660,-6439.791695,-2221.676944,9844.739029
20823.762984,-7105.977043,-1685.410096,9030.512492
20823.763307,-6587.832884,-766.095498,8068.244768
20823.763630,-5329.482782,-919.314598,7402.059420
20823.763953,-4737.318029,-459.657299,7624.121203
20823.764276,-4589.276840,0.000000,7328.038826
20823.764600,-3034.844362,76.609550,6735.874072
20823.764923,-1332.370696,-306.438199,6957.935855
20823.765246,-1480.411884,-459.657299,6365.771101
20823.765569,-1480.411884,-1149.143247,7031.956449
20823.765893,-1924.535449,-1072.533697,6883.915261
20823.766216,-1184.329507,-1302.362347,7624.121203
20823.766539,-1036.288319,-1608.800546,8808.450710
20823.766862,-1628.453072,-995.924147,9178.553681
20823.767185,-1258.350101,-1455.581446,9622.677246
20823.767509,-518.144159,-1608.800546,9770.718434
20823.767832,888.247130,-153.219100,10140.821405
20823.768155,1776.494261,-306.438199,9992.780217
20823.768478,2368.659014,-229.828649,9474.636058
20823.768802,3552.988522,-383.047749,9252.574275
20823.769125,5107.421000,0.000000,9844.739029
20823.769448,5329.482782,-229.828649,9622.677246
20823.769771,5477.523971,-1072.533697,10732.986159
20823.770094,4885.359217,-2068.457845,10140.821405
20823.770418,5551.544565,-2451.505594,10288.862594
20823.770741,5477.523971,-2987.772442,11177.109724
20823.771064,4663.297435,-3140.991542,10955.047942
20823.771387,4663.297435,-3064.381992,10732.986159
20823.771711,4737.318029,-2834.553343,9918.759623
20823.772034,4737.318029,-2068.457845,9474.636058
20823.772357,4145.153275,-1225.752797,9474.636058
20823.772680,3701.029710,0.000000,8956.491898
20823.773003,3182.885551,383.047749,8956.491898
20823.773327,1850.514855,612.876398,8808.450710
20823.773650,-370.102971,689.485948,8956.491898
20823.773973,-2294.638420,76.609550,9104.533087
20823.774296,-3330.926739,-459.657299,9104.533087
20823.774620,-5181.441594,0.000000,9252.574275
20823.774943,-6365.771101,-383.047749,10066.800811
20823.775266,-7179.997637,-995.924147,9474.636058
20823.775589,-7031.956449,-459.657299,9252.574275
20823.775912,-6513.812290,-306.438199,8734.430116
20823.776236,-6365.771101,842.705048,8216.285956
20823.776559,-5995.668130,1762.019645,8290.306550
20823.776882,-4663.297435,1762.019645,7920.203579
20823.777205,-3478.967927,1608.800546,7254.018232
20823.777528,-3330.926739,1991.848295,7772.162391
20823.777852,-3256.906145,1838.629195,7550.100608
20823.778175,-2664.741391,1225.752797,7476.080014
20823.778498,-1776.494261,536.266849,7772.162391
20823.778821,-2294.638420,229.828649,7920.203579
20823.779145,-3182.885551,383.047749,7698.141797
20823.779468,-2738.761985,-306.438199,7550.100608
20823.779791,-1924.535449,-383.047749,9104.533087
20823.780114,-1776.494261,153.219100,9696.697840
20823.780437,-1924.535449,0.000000,9844.739029
20823.780761,-1554.432478,0.000000,9548.656652
20823.781084,0.000000,153.219100,9622.677246
20823.781407,1480.411884,459.657299,9474.636058
20823.781730,1702.473667,153.219100,9252.574275
20823.782054,2294.638420,0.000000,8882.471304
20823.782377,2886.803174,-536.266849,8660.409521
20823.782700,3701.029710,-995.924147,9030.512492
20823.783023,2960.823768,-1608.800546,9400.615463
20823.783346,3256.906145,-2604.724693,9178.553681
20823.783670,4441.235652,-2681.334243,9474.636058
20823.783993,4737.318029,-3907.087040,9326.594869
20823.784316,5033.400406,-3140.991542,9992.780217
20823.784639,5773.606348,-3217.601092,9844.739029
20823.784963,5921.647536,-2757.943793,9474.636058
20823.785286,6365.771101,-2451.505594,9400.615463
20823.785609,6587.832884,-1532.190996,9622.677246
20823.785932,5477.523971,-1455.581446,9992.780217
20823.786255,4219.173869,-1532.190996,9696.697840
20823.786579,3256.906145,-1685.410096,9918.759623
20823.786902,1036.288319,-2221.676944,10584.944971
20823.787225,-1258.350101,-2451.505594,10732.986159
20823.787548,-2960.823768,-2221.676944,11251.130318
20823.787872,-3997.112087,-2451.505594,11325.150913
20823.788195,-4885.359217,-2374.896044,10658.965565
20823.788518,-5995.668130,-1455.581446,10584.944971
20823.788841,-6069.688724,-1762.019645,10436.903782
20823.789164,-5773.606348,-1302.362347,9326.594869
20823.789488,-5847.626942,-229.828649,8734.430116
20823.789811,-5773.606348,153.219100,7920.203579
20823.790134,-5551.544565,536.266849,7476.080014
20823.790457,-4737.318029,995.924147,6957.935855
20823.790781,-3849.070898,1149.143247,6883.915261
20823.791104,-3552.988522,766.095498,6957.935855
20823.791427,-4219.173869,919.314598,6439.791695
20823.791750,-2368.659014,459.657299,6883.915261
20823.792073,-1998.556043,612.876398,6883.915261
20823.792397,-2072.576638,1072.533697,7105.977043
20823.792720,-1332.370696,1455.581446,7328.038826
20823.793043,-518.144159,1378.971896,7846.182985
20823.793366,-370.102971,1455.581446,9104.533087
20823.793690,-518.144159,1302.362347,9548.656652
20823.794013,-888.247130,1455.581446,10066.800811
20823.794336,-666.185348,1378.971896,9918.759623
20823.794659,592.164754,1072.533697,9770.718434
20823.794982,888.247130,919.314598,9474.636058
20823.795306,666.185348,459.657299,9474.636058
20823.795629,1406.391290,229.828649,9400.615463
20823.795952,2738.761985,-153.219100,9474.636058
20823.796275,2738.761985,-766.095498,9622.677246
20823.796598,2960.823768,-766.095498,9992.780217
20823.796922,3849.070898,-1915.238745,9918.759623
20823.797245,4663.297435,-2145.067394,10140.821405
20823.797568,5329.482782,-1685.410096,10214.842000
20823.797891,5699.585753,-1762.019645,10140.821405
20823.798215,5477.523971,-2451.505594,9474.636058
20823.798538,5847.626942,-1532.190996,9030.512492
20823.798861,5921.647536,-995.924147,9326.594869
20823.799184,5255.462188,-842.705048,9326.594869
20823.799507,3997.112087,-766.095498,9104.533087
20823.799831,3108.864956,0.000000,9252.574275
20823.800154,1554.432478,-842.705048,8882.471304
20823.800477,222.061783,-919.314598,9474.636058
20823.800800,-1702.473667,-689.485948,10362.883188
20823.801124,-3034.844362,-995.924147,10510.924376
20823.801447,-3775.050304,-1455.581446,10732.986159
20823.801770,-4811.338623,-1608.800546,10362.883188
20823.802093,-5477.523971,-1072.533697,10140.821405
20823.802416,-6069.688724,-1608.800546,9844.739029
20823.802740,-6439.791695,-1608.800546,8882.471304
20823.803063,-6069.688724,-1072.533697,8586.388927
20823.803386,-5773.606348,-306.438199,8364.327145
20823.803709,-5255.462188,-306.438199,7846.182985
20823.804033,-4589.276840,-306.438199,7846.182985
20823.804356,-3923.091493,76.609550,7624.121203
20823.804679,-2812.782580,0.000000,7402.059420
20823.805002,-2368.659014,536.266849,7698.141797
20823.805325,-1258.350101,766.095498,7772.162391
20823.805649,-814.226536,306.438199,7550.100608
20823.805972,-1406.391290,306.438199,8142.265362
20823.806295,-1406.391290,0.000000,8734.430116
20823.806618,-1184.329507,76.609550,9252.574275
20823.806942,-1332.370696,0.000000,9696.697840
20823.807265,-1998.556043,0.000000,9696.697840
20823.807588,-1776.494261,0.000000,9104.533087
20823.807911,-370.102971,306.438199,9400.615463
20823.808234,814.226536,459.657299,9770.718434
20823.808558,888.247130,536.266849,8808.450710
20823.808881,1702.473667,459.657299,8660.409521
20823.809204,2368.659014,0.000000,8882.471304
20823.809527,3108.864956,-306.438199,8216.285956
20823.809851,3330.926739,-919.314598,9252.574275
20823.810174,2664.741391,-1149.143247,9030.512492
20823.810497,3182.885551,-1915.238745,9474.636058
20823.810820,4515.256246,-2987.772442,10214.842000
20823.811143,4663.297435,-2604.724693,10214.842000
20823.811467,4219.173869,-2298.286494,9844.739029
20823.811790,4811.338623,-1378.971896,9918.759623
20823.812113,5107.421000,-1762.019645,9400.615463
20823.812436,4885.359217,-1072.533697,8956.491898
20823.812760,4145.153275,459.657299,8808.450710
20823.813083,3330.926739,306.438199,9474.636058
20823.813406,2294.638420,842.705048,9770.718434
20823.813729,1110.308913,536.266849,10288.862594
20823.814052,-518.144159,459.657299,10510.924376
20823.814376,-2886.803174,306.438199,10658.965565
20823.814699,-4071.132681,0.000000,9992.780217
20823.815022,-4441.235652,-766.095498,10214.842000
20823.815345,-6661.853478,-842.705048,9992.780217
20823.815668,-7105.977043,-689.485948,9400.615463
20823.815992,-6957.935855,-383.047749,8512.368333
20823.816315,-6587.832884,-229.828649,8068.244768
20823.816638,-6587.832884,229.828649,7402.059420
20823.816961,-5033.400406,1685.410096,7920.203579
20823.817285,-4811.338623,689.485948,6883.915261
20823.817608,-3701.029710,689.485948,6883.915261
20823.817931,-3182.885551,766.095498,7031.956449
20823.818254,-2590.720797,536.266849,7254.018232
20823.818577,-2368.659014,306.438199,7328.038826
20823.818901,-1850.514855,76.609550,7550.100608
20823.819224,-1702.473667,536.266849,7772.162391
20823.819547,-1776.494261,-306.438199,8956.491898
20823.819870,-1702.473667,0.000000,9696.697840
20823.820194,-1036.288319,-229.828649,9474.636058
20823.820517,-666.185348,76.609550,9696.697840
20823.820840,-444.123565,612.876398,10436.903782
20823.821163,370.102971,383.047749,9622.677246
20823.821486,2294.638420,766.095498,9548.656652
20823.821810,2812.782580,383.047749,9474.636058
20823.822133,2812.782580,612.876398,9622.677246
20823.822456,2886.803174,-536.266849,9474.636058
20823.822779,3330.926739,-1302.362347,9770.718434
20823.823103,3404.947333,-2221.676944,9844.739029
20823.823426,2738.761985,-2681.334243,10066.800811
20823.823749,2664.741391,-3140.991542,10066.800811
20823.824072,3256.906145,-4060.306139,9918.759623
20823.824395,4219.173869,-3830.477490,9918.759623
20823.824719,4367.215058,-3064.381992,9696.697840
20823.825042,3923.091493,-2681.334243,9548.656652
20823.825365,4589.276840,-1762.019645,9104.533087
20823.825688,5181.441594,-1302.362347,9252.574275
20823.826012,4589.276840,-766.095498,8956.491898
20823.826335,3034.844362,-612.876398,9252.574275
20823.826658,1480.411884,-153.219100,9104.533087
20823.826981,888.247130,-536.266849,9548.656652
20823.827304,-814.226536,-612.876398,10362.883188
20823.827628,-2590.720797,-1072.533697,10362.883188
20823.827951,-4145.153275,-995.924147,10362.883188
20823.828274,-4219.173869,-995.924147,10288.862594
20823.828597,-4959.379811,-689.485948,9622.677246
20823.828921,-5107.421000,0.000000,9844.739029
20823.829244,-5477.523971,76.609550,9178.553681
20823.829567,-5181.441594,612.876398,8290.306550
20823.829890,-4367.215058,842.705048,7920.203579
20823.830213,-4441.235652,1225.752797,7476.080014
20823.830537,-3923.091493,919.314598,7179.997637
20823.830860,-3701.029710,383.047749,7031.956449
20823.831183,-3182.885551,76.609550,7031.956449
20823.831506,-2664.741391,76.609550,7254.018232
20823.831830,-3034.844362,153.219100,7624.121203
20823.832153,-2516.700203,0.000000,7994.224174
20823.832476,-2294.638420,-383.047749,8216.285956
20823.832799,-1776.494261,0.000000,8734.430116
20823.833122,-1184.329507,459.657299,9400.615463
20823.833446,-1110.308913,0.000000,9548.656652
20823.833769,-518.144159,612.876398,9474.636058
20823.834092,370.102971,1149.143247,9918.759623
20823.834415,296.082377,1225.752797,9548.656652
20823.834738,1036.288319,995.924147,9474.636058
20823.835062,2072.576638,306.438199,9400.615463
20823.835385,2072.576638,459.657299,8882.471304
20823.835708,1924.535449,-229.828649,9030.512492
20823.836031,2368.659014,-1455.581446,9178.553681
20823.836355,2664.741391,-1225.752797,9252.574275
20823.836678,2886.803174,-2374.896044,9474.636058
20823.837001,3256.906145,-2681.334243,9696.697840
20823.837324,3775.050304,-2681.334243,10066.800811
20823.837647,4367.215058,-2374.896044,9844.739029
20823.837971,5255.462188,-2451.505594,9622.677246
20823.838294,4589.276840,-2068.457845,9400.615463
20823.838617,4589.276840,-1608.800546,9474.636058
20823.838940,4293.194464,-1608.800546,9104.533087
20823.839264,4219.173869,-1608.800546,9400.615463
20823.839585,2960.823768,-1378.971896,9400.615463
20823.839909,888.247130,-1378.971896,9696.697840
20823.840232,-222.061783,-1685.410096,9622.677246
20823.840555,-1258.350101,-1532.190996,10214.842000
20823.840879,-2664.741391,-2374.896044,11325.150913
20823.841202,-3552.988522,-1762.019645,10807.006753
20823.841525,-4293.194464,-1455.581446,10436.903782
20823.841849,-4219.173869,-1302.362347,9844.739029
20823.842172,-4219.173869,-842.705048,9770.718434
20823.842495,-4071.132681,76.609550,9326.594869
20823.842819,-4663.297435,0.000000,8364.327145
20823.843142,-4515.256246,229.828649,7624.121203
20823.843465,-3701.029710,612.876398,7772.162391
20823.843789,-3627.009116,0.000000,7550.100608
20823.844112,-3552.988522,0.000000,7328.038826
20823.844435,-3256.906145,0.000000,7105.977043
20823.844759,-2442.679609,306.438199,6587.832884
20823.845082,-2072.576638,-153.219100,7328.038826
20823.845405,-1776.494261,-76.609550,7772.162391
20823.845728,-1628.453072,229.828649,7846.182985
20823.846052,-1258.350101,306.438199,8142.265362
20823.846375,-1110.308913,0.000000,9030.512492
20823.846698,-1332.370696,459.657299,9252.574275
20823.847022,-592.164754,306.438199,9696.697840
20823.847345,222.061783,306.438199,10140.821405
20823.847668,0.000000,229.828649,10214.842000
20823.847992,740.205942,1302.362347,9474.636058
20823.848315,1776.494261,-612.876398,9474.636058
20823.848638,2368.659014,0.000000,9622.677246
20823.848962,2368.659014,76.609550,9400.615463
20823.849285,2812.782580,-229.828649,9474.636058
20823.849608,3775.050304,-995.924147,9844.739029
20823.849932,3552.988522,-766.095498,9844.739029
20823.850255,3627.009116,-1838.629195,10066.800811
20823.850578,3552.988522,-2681.334243,9770.718434
20823.850902,3627.009116,-2298.286494,9844.739029
20823.851225,3997.112087,-2145.067394,9548.656652
20823.851548,3997.112087,-1991.848295,9104.533087
20823.851872,3034.844362,-1685.410096,8956.491898
20823.852195,3404.947333,-1455.581446,8734.430116
20823.852518,2516.700203,-1149.143247,8068.244768
20823.852842,1776.494261,0.000000,8364.327145
20823.853165,888.247130,-306.438199,9252.574275
20823.853488,-148.041188,-383.047749,9474.636058
20823.853811,-962.267725,-919.314598,10140.821405
20823.854135,-1924.535449,-919.314598,10584.944971
20823.854458,-2812.782580,-842.705048,11177.109724
20823.854781,-3997.112087,-612.876398,10362.883188
20823.855105,-4663.297435,-766.095498,9844.739029
20823.855428,-4293.194464,-459.657299,9918.759623
20823.855751,-4737.318029,-536.266849,9548.656652
20823.856075,-5107.421000,-306.438199,8956.491898
20823.856398,-4959.379811,-229.828649,8364.327145
20823.856721,-3849.070898,-229.828649,7846.182985
20823.857045,-3849.070898,0.000000,7476.080014
20823.857368,-3404.947333,76.609550,7994.224174
20823.857691,-3108.864956,-459.657299,7698.141797
20823.858015,-1998.556043,-229.828649,7624.121203
20823.858338,-1850.514855,0.000000,7772.162391
20823.858661,-1480.411884,0.000000,7846.182985
20823.858985,-1702.473667,0.000000,7772.162391
20823.859308,-1480.411884,0.000000,7846.182985
20823.859631,-592.164754,0.000000,9326.594869
20823.859955,-1628.453072,536.266849,9400.615463
20823.860278,-1258.350101,0.000000,9178.553681
20823.860601,-518.144159,76.609550,9400.615463
20823.860925,296.082377,766.095498,9548.656652
20823.861248,888.247130,919.314598,9548.656652
20823.861571,1554.432478,612.876398,9104.533087
20823.861894,2738.761985,383.047749,9178.553681
20823.862218,3108.864956,536.266849,9104.533087
20823.862541,3330.926739,-383.047749,9474.636058
20823.862864,2664.741391,-995.924147,9400.615463
20823.863188,2812.782580,-1915.238745,9548.656652
20823.863511,3478.967927,-2145.067394,9844.739029
20823.863834,3034.844362,-2451.505594,9918.759623
20823.864158,2664.741391,-2911.162892,9770.718434
20823.864481,3701.029710,-3217.601092,10214.842000
20823.864804,3849.070898,-2451.505594,9474.636058
20823.865128,3997.112087,-2068.457845,9622.677246
20823.865451,3404.947333,-1532.190996,9474.636058
20823.865774,3997.112087,-919.314598,9400.615463
20823.866098,3404.947333,-383.047749,9474.636058
20823.866421,2294.638420,-842.705048,9992.780217
20823.866744,0.000000,-459.657299,9326.594869
20823.867068,-1036.288319,-383.047749,9918.759623
20823.867391,-2072.576638,-766.095498,10584.944971
20823.867714,-3627.009116,-919.314598,10732.986159
20823.868038,-5329.482782,-1225.752797,10362.883188
20823.868361,-5921.647536,-1608.800546,9548.656652
20823.868684,-5847.626942,-536.266849,9178.553681
20823.869008,-5551.544565,0.000000,8808.450710
20823.869331,-5477.523971,459.657299,9104.533087
20823.869654,-5107.421000,612.876398,7624.121203
20823.869977,-4293.194464,919.314598,7179.997637
20823.870301,-3627.009116,766.095498,7179.997637
20823.870624,-3256.906145,995.924147,7698.141797
20823.870947,-3330.926739,766.095498,7105.977043
20823.871271,-2516.700203,306.438199,7105.977043
20823.871594,-1850.514855,229.828649,7402.059420
20823.871917,-1924.535449,229.828649,8068.244768
20823.872241,-2072.576638,-306.438199,7994.224174
20823.872564,-1702.473667,-306.438199,8586.388927
20823.872887,-1036.288319,-612.876398,9252.574275
20823.873211,-592.164754,0.000000,9104.533087
20823.873534,-222.061783,306.438199,9844.739029
20823.873857,222.061783,306.438199,9992.780217
20823.874181,888.247130,995.924147,9770.718434
20823.874504,1628.453072,1072.533697,9770.718434
20823.874827,2220.617826,995.924147,10140.821405
20823.875151,2220.617826,919.314598,9770.718434
20823.875474,2442.679609,459.657299,8882.471304
20823.875797,2516.700203,-153.219100,9104.533087
20823.876121,2368.659014,-1455.581446,9326.594869
20823.876444,2368.659014,-1532.190996,9400.615463
20823.876767,2812.782580,-2298.286494,9548.656652
20823.877091,2812.782580,-2757.943793,9326.594869
20823.877414,3182.885551,-2528.115143,9918.759623
20823.877737,3923.091493,-2451.505594,9474.636058
20823.878060,4737.318029,-1838.629195,9252.574275
20823.878384,4959.379811,-1608.800546,9178.553681
20823.878707,4367.215058,-1378.971896,8734.430116
20823.879030,3701.029710,-612.876398,9030.512492
20823.879354,3478.967927,-689.485948,9474.636058
20823.879677,2442.679609,-919.314598,9474.636058
20823.880000,148.041188,-919.314598,9770.718434
20823.880324,-1628.453072,-919.314598,9918.759623
20823.880647,-2368.659014,-1532.190996,10436.903782
20823.880970,-3404.947333,-1608.800546,11103.089130
20823.881294,-4885.359217,-1302.362347,10732.986159
20823.881617,-5329.482782,-1149.143247,10510.924376
20823.881940,-5329.482782,-1149.143247,9696.697840
20823.882264,-4811.338623,-306.438199,9400.615463
20823.882587,-4737.318029,612.876398,8882.471304
20823.882910,-5033.400406,383.047749,8660.409521
20823.883234,-4737.318029,0.000000,7846.182985
20823.883557,-3330.926739,919.314598,7624.121203
20823.883880,-3404.947333,306.438199,7772.162391
20823.884204,-3404.947333,459.657299,7179.997637
20823.884527,-2886.803174,306.438199,7105.977043
20823.884850,-1998.556043,229.828649,7179.997637
20823.885174,-1702.473667,612.876398,7254.018232
20823.885497,-1184.329507,995.924147,7624.121203
20823.885820,-592.164754,383.047749,8290.306550
20823.886143,-518.144159,306.438199,8512.368333
20823.886467,-148.041188,612.876398,9178.553681
20823.886790,296.082377,689.485948,9548.656652
20823.887113,-222.061783,766.095498,10288.862594
20823.887437,-222.061783,306.438199,9326.594869
20823.887760,444.123565,689.485948,9400.615463
20823.888083,1110.308913,229.828649,9844.739029
20823.888407,1036.288319,0.000000,9178.553681
20823.888730,1776.494261,-306.438199,9474.636058
20823.889053,2368.659014,-919.314598,9252.574275
20823.889377,2886.803174,-612.876398,9326.594869
20823.889700,3404.947333,-995.924147,9918.759623
20823.890023,3997.112087,-1455.581446,9622.677246
20823.890347,4589.276840,-2374.896044,9696.697840
20823.890670,4737.318029,-2068.457845,9548.656652
20823.890993,4589.276840,-2068.457845,9548.656652
20823.891317,4959.379811,-1838.629195,9622.677246
20823.891640,5107.421000,-1838.629195,9548.656652
20823.891963,4589.276840,-1225.752797,9548.656652
20823.892287,3256.906145,-1149.143247,8956.491898
20823.892610,3034.844362,-1838.629195,9104.533087
20823.892933,1776.494261,-919.314598,8586.388927
20823.893256,0.000000,-919.314598,9104.533087
20823.893580,-1480.411884,-766.095498,9844.739029
20823.893903,-2368.659014,-995.924147,10140.821405
20823.894226,-3256.906145,-612.876398,10510.924376
20823.894550,-3849.070898,-766.095498,10955.047942
20823.894873,-4959.379811,-1302.362347,9696.697840
20823.895196,-5107.421000,-612.876398,9696.697840
20823.895520,-5107.421000,-689.485948,9252.574275
20823.895843,-5181.441594,-459.657299,9030.512492
20823.896166,-5403.503377,-383.047749,8808.450710
20823.896490,-5699.585753,-229.828649,8216.285956
20823.896813,-5033.400406,-536.266849,7402.059420
20823.897136,-3849.070898,0.000000,7698.141797
20823.897460,-3627.009116,153.219100,7698.141797
20823.897783,-3256.906145,-536.266849,7698.141797
20823.898106,-2516.700203,0.000000,7179.997637
20823.898430,-1258.350101,0.000000,7624.121203
20823.898753,-1110.308913,229.828649,7698.141797
20823.899076,-1628.453072,306.438199,8216.285956
20823.899400,-1258.350101,459.657299,8068.244768
20823.899723,-370.102971,459.657299,8364.327145
20823.900046,-814.226536,842.705048,9400.615463
20823.900370,-740.205942,306.438199,9474.636058
20823.900693,-370.102971,536.266849,9474.636058
20823.901016,444.123565,459.657299,9696.697840
20823.901339,1702.473667,689.485948,9326.594869
20823.901663,2368.659014,536.266849,9252.574275
20823.901986,2590.720797,0.000000,9622.677246
20823.902309,2812.782580,0.000000,9252.574275
20823.902633,3701.029710,-306.438199,9474.636058
20823.902956,3849.070898,-995.924147,9770.718434
20823.903279,3552.988522,-1762.019645,9844.739029
20823.903603,3182.885551,-2451.505594,9400.615463
20823.903926,4145.153275,-2221.676944,9918.759623
20823.904249,3775.050304,-2604.724693,10140.821405
20823.904573,3552.988522,-2987.772442,9622.677246
20823.904896,3627.009116,-2604.724693,9326.594869
20823.905219,3552.988522,-2145.067394,9104.533087
20823.905543,3478.967927,-1378.971896,8882.471304
20823.905866,2886.803174,-919.314598,9474.636058
20823.906189,2072.576638,-229.828649,9030.512492
20823.906513,1554.432478,0.000000,9474.636058
20823.906836,222.061783,-766.095498,9844.739029
20823.907159,-1480.411884,-612.876398,10214.842000
20823.907483,-2886.803174,-536.266849,10732.986159
20823.907806,-3552.988522,-919.314598,10362.883188
20823.908129,-4515.256246,-919.314598,10362.883188
20823.908453,-5625.565159,-306.438199,9844.739029
20823.908776,-5699.585753,-689.485948,8808.450710
20823.909099,-5773.606348,0.000000,8364.327145
20823.909422,-5107.421000,612.876398,8216.285956
20823.909746,-5181.441594,459.657299,7994.224174
20823.910069,-4885.359217,229.828649,7624.121203
20823.910392,-4071.132681,383.047749,7624.121203
20823.910716,-2960.823768,306.438199,7550.100608
20823.911039,-2812.782580,383.047749,7846.182985
20823.911362,-2960.823768,-229.828649,7105.977043
20823.911686,-2072.576638,0.000000,7698.141797
20823.912009,-1406.391290,-612.876398,8068.244768
20823.912332,-1776.494261,-383.047749,8216.285956
20823.912656,-2146.597232,-612.876398,8586.388927
20823.912979,-1406.391290,-766.095498,8956.491898
20823.913302,-444.123565,-766.095498,9326.594869
20823.913626,-666.185348,459.657299,9770.718434
20823.913949,0.000000,306.438199,9992.780217
20823.914272,888.247130,229.828649,10436.903782
20823.914596,2220.617826,459.657299,9548.656652
20823.914919,3108.864956,689.485948,9696.697840
20823.915242,2886.803174,612.876398,9622.677246
20823.915566,2664.741391,-306.438199,9252.574275
20823.915889,3552.988522,-612.876398,9178.553681
20823.916212,3552.988522,-1608.800546,9178.553681
20823.916536,3182.885551,-1915.238745,9474.636058
20823.916859,2812.782580,-2451.505594,9548.656652
20823.917182,3256.906145,-2987.772442,9474.636058
20823.917505,3775.050304,-3140.991542,9400.615463
20823.917829,4293.194464,-2068.457845,9474.636058
20823.918152,4219.173869,-2298.286494,9326.594869
20823.918475,4885.359217,-1838.629195,9400.615463
20823.918799,4219.173869,-1302.362347,9178.553681
20823.919122,3627.009116,-1378.971896,9474.636058
20823.919445,2664.741391,-1225.752797,9770.718434
20823.919769,1480.411884,-1225.752797,9770.718434
20823.920092,74.020594,-1378.971896,10140.821405
20823.920415,-1480.411884,-1378.971896,10807.006753
20823.920739,-3182.885551,-766.095498,10807.006753
20823.921062,-4293.194464,-1378.971896,10584.944971
20823.921385,-4959.379811,-1149.143247,10140.821405
20823.921709,-5477.523971,-689.485948,9770.718434
20823.922032,-5477.523971,-229.828649,9696.697840
20823.922355,-5477.523971,76.609550,8586.388927
20823.922679,-4737.318029,612.876398,8142.265362
20823.923002,-4885.359217,536.266849,7698.141797
20823.923325,-5033.400406,536.266849,7254.018232
20823.923649,-4589.276840,536.266849,7402.059420
20823.923972,-3478.967927,0.000000,7624.121203
20823.924295,-3552.988522,153.219100,7476.080014
20823.924619,-3552.988522,-229.828649,7179.997637
20823.924942,-3034.844362,-536.266849,7179.997637
20823.925265,-1850.514855,-383.047749,7624.121203
20823.925588,-1480.411884,-153.219100,7772.162391
20823.925912,-1258.350101,229.828649,8364.327145
20823.926235,-962.267725,229.828649,9030.512492
20823.926558,0.000000,612.876398,9622.677246
20823.926882,740.205942,459.657299,9770.718434
20823.927205,444.123565,689.485948,9992.780217
20823.927528,296.082377,766.095498,10214.842000
20823.927852,1480.411884,612.876398,9474.636058
20823.928175,2220.617826,153.219100,9844.739029
20823.928498,1702.473667,-612.876398,9992.780217
20823.928822,1406.391290,-842.705048,9474.636058
20823.929145,1924.535449,-995.924147,9326.594869
20823.929468,2516.700203,-2145.067394,9474.636058
20823.929792,2812.782580,-1991.848295,9622.677246
20823.930115,3552.988522,-1915.238745,9400.615463
20823.930438,3997.112087,-2374.896044,9474.636058
20823.930762,4071.132681,-2221.676944,9252.574275
20823.931085,5033.400406,-1991.848295,9326.594869
20823.931408,5181.441594,-1685.410096,9548.656652
20823.931732,4367.215058,-1532.190996,8882.471304
20823.932055,4145.153275,-1532.190996,8512.368333
20823.932378,3849.070898,-1378.971896,9326.594869
20823.932701,1998.556043,-1149.143247,9178.553681
20823.933025,1258.350101,-1225.752797,9548.656652
20823.933348,-296.082377,-2068.457845,10066.800811
20823.933671,-1776.494261,-1608.800546,10288.862594
20823.933995,-2442.679609,-1225.752797,10807.006753
20823.934318,-3182.885551,-842.705048,10881.027347
20823.934641,-3552.988522,-1378.971896,10436.903782
20823.934965,-3627.009116,-153.219100,10140.821405
20823.935288,-4219.173869,0.000000,9474.636058
20823.935611,-4589.276840,76.609550,9030.512492
20823.935935,-4885.359217,0.000000,8882.471304
20823.936258,-4737.318029,0.000000,8364.327145
20823.936581,-4811.338623,76.609550,8142.265362
20823.936905,-4737.318029,0.000000,7698.141797
20823.937228,-4071.132681,-229.828649,7698.141797
20823.937552,-3775.050304,-153.219100,7105.977043
20823.937875,-3256.906145,153.219100,7254.018232
20823.938199,-2886.803174,0.000000,7179.997637
20823.938522,-1850.514855,536.266849,7402.059420
20823.938846,-1036.288319,459.657299,7550.100608
20823.939169,-444.123565,766.095498,8438.347739
20823.939493,-962.267725,689.485948,8216.285956
20823.939816,-814.226536,995.924147,8364.327145
20823.940140,-888.247130,689.485948,8956.491898
20823.940463,74.020594,536.266849,9844.739029
20823.940787,-222.061783,919.314598,9844.739029
20823.941110,222.061783,306.438199,9844.739029
20823.941434,1332.370696,689.485948,9918.759623
20823.941757,2294.638420,229.828649,9474.636058
20823.942081,2664.741391,-229.828649,9178.553681
20823.942404,3108.864956,-459.657299,9474.636058
20823.942728,3849.070898,-689.485948,9770.718434
20823.943051,4515.256246,-995.924147,10066.800811
20823.943375,4589.276840,-1532.190996,10066.800811
20823.943698,4367.215058,-1915.238745,10436.903782
20823.944022,3849.070898,-2221.676944,9844.739029
20823.944345,4737.318029,-2374.896044,9696.697840
20823.944668,4959.379811,-1915.238745,10066.800811
20823.944992,3627.009116,-2451.505594,9474.636058
20823.945315,2886.803174,-1838.629195,8808.450710
20823.945639,2664.741391,-1762.019645,8660.409521
20823.945962,2590.720797,-1685.410096,8882.471304
20823.946286,1184.329507,-919.314598,9326.594869
20823.946609,0.000000,-383.047749,9474.636058
20823.946933,-962.267725,-766.095498,9696.697840
20823.947256,-1776.494261,-229.828649,9992.780217
20823.947580,-2886.803174,-229.828649,10658.965565
20823.947903,-4145.153275,-383.047749,10436.903782
20823.948227,-4737.318029,-766.095498,9548.656652
20823.948550,-4737.318029,0.000000,9400.615463
20823.948874,-4885.359217,-536.266849,9326.594869
20823.949197,-5995.668130,-306.438199,8438.347739
20823.949521,-5033.400406,0.000000,8142.265362
20823.949844,-5107.421000,153.219100,7994.224174
20823.950168,-4811.338623,153.219100,7698.141797
20823.950491,-4219.173869,306.438199,7772.162391
20823.950815,-2886.803174,995.924147,7846.182985
20823.951138,-2664.741391,459.657299,7550.100608
20823.951462,-2294.638420,153.219100,7328.038826
20823.951785,-1480.411884,0.000000,7402.059420
20823.952109,-1406.391290,76.609550,7994.224174
20823.952432,-740.205942,76.609550,8290.306550
20823.952755,-1110.308913,76.609550,8660.409521
20823.953079,-1406.391290,-383.047749,9178.553681
20823.953402,-1332.370696,-459.657299,9104.533087
20823.953726,-370.102971,0.000000,9548.656652
20823.954049,-296.082377,153.219100,9548.656652
20823.954373,0.000000,689.485948,9844.739029
20823.954696,1110.308913,383.047749,9400.615463
20823.955020,2368.659014,229.828649,9696.697840
20823.955343,2738.761985,459.657299,9474.636058
20823.955667,2516.700203,76.609550,9178.553681
20823.955990,2812.782580,-689.485948,9030.512492
20823.956314,3404.947333,-766.095498,9104.533087
20823.956637,3923.091493,-1915.238745,9622.677246
20823.956961,3775.050304,-2374.896044,9622.677246
20823.957284,3552.988522,-2757.943793,9622.677246
20823.957608,3849.070898,-2528.115143,9178.553681
20823.957931,4737.318029,-2451.505594,9326.594869
20823.958255,4737.318029,-1532.190996,9104.533087
20823.958578,4737.318029,-1149.143247,9918.759623
20823.958902,4589.276840,-995.924147,9548.656652
20823.959225,3775.050304,-766.095498,9770.718434
20823.959549,2738.761985,-689.485948,9622.677246
20823.959872,814.226536,-689.485948,10066.800811
20823.960195,-814.226536,-1302.362347,9918.759623
20823.960519,-2294.638420,-1302.362347,10066.800811
20823.960842,-3478.967927,-1378.971896,11177.109724
20823.961166,-5033.400406,-1532.190996,10066.800811
20823.961489,-6217.729913,-1225.752797,9770.718434
20823.961813,-6439.791695,-842.705048,9474.636058
20823.962136,-5921.647536,-229.828649,9104.533087
20823.962460,-6069.688724,536.266849,8586.388927
20823.962783,-5847.626942,842.705048,8068.244768
20823.963107,-5255.462188,995.924147,7550.100608
20823.963430,-4589.276840,1072.533697,7550.100608
20823.963754,-3627.009116,1149.143247,7846.182985
20823.964077,-3552.988522,1149.143247,7179.997637
20823.964401,-3182.885551,689.485948,6883.915261
20823.964724,-2368.659014,383.047749,6809.894666
20823.965048,-1924.535449,536.266849,6883.915261
20823.965371,-1850.514855,689.485948,7624.121203
20823.965695,-1036.288319,919.314598,7624.121203
20823.966018,-814.226536,459.657299,8216.285956
20823.966342,-444.123565,689.485948,8808.450710
20823.966665,-148.041188,612.876398,9326.594869
20823.966989,518.144159,919.314598,9770.718434
20823.967312,1628.453072,1378.971896,10288.862594
20823.967636,1850.514855,1225.752797,10288.862594
20823.967959,1776.494261,1302.362347,9992.780217
20823.968282,2368.659014,383.047749,9770.718434
20823.968606,2664.741391,76.609550,9548.656652
20823.968929,2516.700203,-536.266849,9474.636058
20823.969253,2072.576638,-1225.752797,9548.656652
20823.969576,2220.617826,-1838.629195,9474.636058
20823.969900,2590.720797,-2681.334243,9622.677246
20823.970223,2812.782580,-2681.334243,9696.697840
20823.970547,2664.741391,-2757.943793,9474.636058
20823.970870,3404.947333,-2834.553343,9474.636058
20823.971194,4219.173869,-2451.505594,9696.697840
20823.971517,5107.421000,-2068.457845,9474.636058
20823.971841,4441.235652,-1455.581446,9252.574275
20823.972164,3923.091493,-1225.752797,8956.491898
20823.972488,4219.173869,-1072.533697,9326.594869
20823.972811,3256.906145,-689.485948,9400.615463
20823.973135,1702.473667,-612.876398,9770.718434
20823.973458,-666.185348,-995.924147,9918.759623
20823.973782,-2368.659014,-1302.362347,10066.800811
20823.974105,-2960.823768,-1378.971896,10732.986159
20823.974429,-3404.947333,-1378.971896,11251.130318
20823.974752,-5033.400406,-766.095498,9770.718434
20823.975076,-5329.482782,0.000000,9400.615463
20823.975399,-4737.318029,-306.438199,9474.636058
20823.975723,-5329.482782,0.000000,8734.430116
20823.976046,-5625.565159,229.828649,8290.306550
20823.976369,-5625.565159,0.000000,7846.182985
20823.976693,-5033.400406,0.000000,7402.059420
20823.977016,-4663.297435,0.000000,7105.977043
20823.977340,-4071.132681,76.609550,7624.121203
20823.977663,-3775.050304,-842.705048,7476.080014
20823.977987,-3108.864956,-383.047749,7179.997637
20823.978310,-2294.638420,-229.828649,7698.141797
20823.978634,-1406.391290,0.000000,8068.244768
20823.978957,-1110.308913,229.828649,8364.327145
20823.979281,-518.144159,306.438199,8808.450710
20823.979604,0.000000,383.047749,8882.471304
20823.979928,-296.082377,919.314598,9622.677246
20823.980251,74.020594,153.219100,9770.718434
20823.980575,444.123565,459.657299,9770.718434
20823.980898,1258.350101,306.438199,9918.759623
20823.981222,1406.391290,76.609550,9696.697840
20823.981545,1924.535449,229.828649,9474.636058
20823.981869,1776.494261,-612.876398,9326.594869
20823.982192,2664.741391,-842.705048,9400.615463
20823.982516,2960.823768,-1532.190996,9178.553681
20823.982839,3404.947333,-1532.190996,9548.656652
20823.983163,4367.215058,-1685.410096,9844.739029
20823.983486,4959.379811,-1915.238745,9844.739029
20823.983809,4959.379811,-1915.238745,10066.800811
20823.984133,4737.318029,-1915.238745,9548.656652
20823.984456,5477.523971,-1685.410096,9992.780217
20823.984780,5477.523971,-2298.286494,9474.636058
20823.985103,4515.256246,-1838.629195,9474.636058
20823.985427,2812.782580,-1455.581446,9326.594869
20823.985750,2294.638420,-1532.190996,9178.553681
20823.986074,1332.370696,-1991.848295,8882.471304
20823.986397,74.020594,-1149.143247,9178.553681
20823.986721,-1850.514855,-1072.533697,9622.677246
20823.987044,-3034.844362,-1072.533697,9548.656652
20823.987368,-3404.947333,-689.485948,10436.903782
20823.987691,-3997.112087,0.000000,10584.944971
20823.988015,-4441.235652,-306.438199,10214.842000
20823.988338,-5329.482782,-229.828649,9770.718434
20823.988662,-5625.565159,0.000000,8142.265362
20823.988985,-5033.400406,-459.657299,8882.471304
20823.989309,-4737.318029,383.047749,8660.409521
20823.989632,-5699.585753,459.657299,7846.182985
20823.989956,-5181.441594,229.828649,7624.121203
20823.990279,-4071.132681,0.000000,7179.997637
20823.990603,-3108.864956,76.609550,7772.162391
20823.990926,-2516.700203,306.438199,7846.182985
20823.991250,-1702.473667,995.924147,7031.956449
20823.991573,-1332.370696,306.438199,7328.038826
20823.991896,-1036.288319,459.657299,7772.162391
20823.992220,-962.267725,459.657299,8068.244768
20823.992543,-1184.329507,76.609550,8290.306550
20823.992867,-1110.308913,0.000000,8512.368333
20823.993190,-666.185348,-536.266849,8956.491898
20823.993514,-1110.308913,-306.438199,9770.718434
20823.993837,-1406.391290,-459.657299,9252.574275
20823.994161,-222.061783,-229.828649,9844.739029
20823.994484,592.164754,0.000000,9548.656652
20823.994808,814.226536,0.000000,9474.636058
20823.995131,2220.617826,0.000000,9844.739029
20823.995455,3552.988522,-153.219100,9770.718434
20823.995778,4071.132681,-153.219100,9770.718434
20823.996102,4663.297435,-153.219100,9844.739029
20823.996425,4737.318029,-1608.800546,10362.883188
20823.996749,4737.318029,-2221.676944,10066.800811
20823.997072,4959.379811,-2374.896044,10066.800811
20823.997396,4737.318029,-2604.724693,10140.821405
20823.997719,4219.173869,-2834.553343,9696.697840
20823.998043,4219.173869,-2757.943793,9252.574275
20823.998366,4737.318029,-2145.067394,9400.615463
20823.998690,3849.070898,-2068.457845,9696.697840
20823.999013,2294.638420,-1302.362347,9474.636058
20823.999337,2220.617826,-1302.362347,9178.553681
20823.999660,1332.370696,-1149.143247,9400.615463
20823.999983,-888.247130,-383.047749,9622.677246
20824.000307,-2220.617826,-995.924147,10140.821405
20824.000630,-3775.050304,-919.314598,9770.718434
20824.000954,-4515.256246,-306.438199,9252.574275
20824.001277,-5033.400406,-383.047749,9548.656652
20824.001601,-5847.626942,-842.705048,9622.677246
20824.001924,-6439.791695,-459.657299,9178.553681
20824.002248,-5773.606348,-153.219100,8734.430116
20824.002571,-5329.482782,153.219100,8586.388927
20824.002895,-5625.565159,306.438199,7846.182985
20824.003218,-4959.379811,766.095498,7698.141797
20824.003542,-3923.091493,459.657299,7476.080014
20824.003865,-2960.823768,306.438199,7772.162391
20824.004189,-2294.638420,612.876398,7550.100608
20824.004512,-1924.535449,919.314598,8068.244768
20824.004836,-1554.432478,229.828649,7624.121203
20824.005159,-962.267725,229.828649,7476.080014
20824.005483,-444.123565,612.876398,8290.306550
20824.005806,-888.247130,76.609550,8808.450710
20824.006130,-1110.308913,153.219100,8586.388927
20824.006453,-370.102971,76.609550,9030.512492
20824.006777,-222.061783,76.609550,9474.636058
20824.007100,-592.164754,229.828649,10214.842000
20824.007424,0.000000,536.266849,10288.862594
20824.007747,1628.453072,383.047749,9474.636058
20824.008070,2442.679609,0.000000,9474.636058
20824.008394,2368.659014,383.047749,9252.574275
20824.008717,2664.741391,0.000000,9548.656652
20824.009041,3034.844362,-459.657299,9326.594869
20824.009364,3256.906145,-1149.143247,9474.636058
20824.009688,2960.823768,-2451.505594,9474.636058
20824.010011,2294.638420,-2451.505594,8734.430116
20824.010335,3034.844362,-2604.724693,9178.553681
20824.010658,3775.050304,-2911.162892,9844.739029
20824.010982,3478.967927,-2221.676944,9400.615463
20824.011305,3404.947333,-2451.505594,9326.594869
20824.011629,3997.112087,-2451.505594,9474.636058
20824.011952,4145.153275,-1991.848295,9400.615463
20824.012276,3478.967927,-1149.143247,9622.677246
20824.012599,2146.597232,-1378.971896,9400.615463
20824.012923,1628.453072,-1149.143247,9474.636058
20824.013246,296.082377,-1072.533697,10066.800811
20824.013570,-1332.370696,-1149.143247,10584.944971
20824.013893,-2812.782580,-1225.752797,10584.944971
20824.014217,-3330.926739,-766.095498,10881.027347
20824.014540,-3627.009116,-459.657299,9992.780217
20824.014864,-4367.215058,-306.438199,9992.780217
20824.015187,-4811.338623,383.047749,9622.677246
20824.015510,-4885.359217,76.609550,8882.471304
20824.015834,-4589.276840,383.047749,8512.368333
20824.016157,-4811.338623,459.657299,8142.265362
20824.016481,-5329.482782,459.657299,7846.182985
20824.016804,-4959.379811,153.219100,7031.956449
20824.017128,-4737.318029,229.828649,7105.977043
20824.017451,-4293.194464,-612.876398,7254.018232
20824.017775,-4441.235652,0.000000,6587.832884
20824.018098,-3552.988522,-229.828649,6513.812290
20824.018422,-2738.761985,0.000000,7105.977043
20824.018745,-2146.597232,229.828649,7254.018232
20824.019069,-1554.432478,229.828649,7920.203579
20824.019392,-740.205942,459.657299,8512.368333
20824.019716,0.000000,383.047749,9326.594869
20824.020039,0.000000,689.485948,9622.677246
20824.020363,962.267725,612.876398,10658.965565
20824.020686,1480.411884,919.314598,11029.068536
20824.021010,1850.514855,459.657299,10288.862594
20824.021333,2738.761985,842.705048,9918.759623
20824.021657,2664.741391,-1072.533697,10436.903782
20824.021980,3182.885551,0.000000,9844.739029
20824.022304,2960.823768,-842.705048,10214.842000
20824.022627,3775.050304,-919.314598,10140.821405
20824.022951,3478.967927,-1149.143247,9400.615463
20824.023274,3256.906145,-1762.019645,9622.677246
20824.023597,3552.988522,-2145.067394,9030.512492
20824.023921,3849.070898,-1991.848295,9326.594869
20824.024244,3849.070898,-2298.286494,9104.533087
20824.024568,3108.864956,-2298.286494,8216.285956
20824.024891,3108.864956,-2374.896044,8882.471304
20824.025215,3182.885551,-2221.676944,8882.471304
20824.025538,2590.720797,-1838.629195,8882.471304
20824.025862,1628.453072,-1455.581446,9326.594869
20824.026185,740.205942,-1455.581446,9252.574275
20824.026509,-518.144159,-1302.362347,9474.636058
20824.026832,-1110.308913,-459.657299,9326.594869
20824.027156,-2072.576638,-919.314598,10140.821405
20824.027479,-2812.782580,-842.705048,10436.903782
20824.027803,-3034.844362,-459.657299,10436.903782
20824.028126,-3256.906145,0.000000,10584.944971
20824.028450,-3849.070898,0.000000,9844.739029
20824.028773,-4737.318029,-76.609550,9474.636058
20824.029097,-4737.318029,153.219100,9178.553681
20824.029420,-4959.379811,-153.219100,8734.430116
20824.029744,-5107.421000,-459.657299,8512.368333
20824.030067,-5403.503377,-306.438199,8216.285956
20824.030391,-5033.400406,-306.438199,7920.203579
20824.030714,-3849.070898,-229.828649,7105.977043
20824.031038,-3034.844362,306.438199,7105.977043
20824.031361,-2146.597232,536.266849,7402.059420
20824.031684,-2294.638420,459.657299,6957.935855
20824.032008,-1110.308913,689.485948,7402.059420
20824.032331,-592.164754,689.485948,7624.121203
20824.032655,-666.185348,919.314598,8142.265362
20824.032978,-518.144159,1149.143247,8512.368333
20824.033302,0.000000,842.705048,8808.450710
20824.033625,814.226536,612.876398,9474.636058
20824.033949,888.247130,76.609550,9474.636058
20824.034272,1110.308913,536.266849,9474.636058
20824.034596,1776.494261,0.000000,9474.636058
20824.034919,2590.720797,0.000000,9474.636058
20824.035243,3256.906145,0.000000,9696.697840
20824.035566,3627.009116,383.047749,9474.636058
20824.035890,4367.215058,-229.828649,8808.450710
20824.036213,4885.359217,-1149.143247,9474.636058
20824.036537,4811.338623,-1685.410096,9844.739029
20824.036860,4293.194464,-2068.457845,10140.821405
20824.037184,4293.194464,-2451.505594,10066.800811
20824.037507,4515.256246,-2757.943793,10214.842000
20824.037830,4145.153275,-3064.381992,9918.759623
20824.038154,3849.070898,-2528.115143,10140.821405
20824.038477,2960.823768,-2681.334243,9844.739029
20824.038801,2516.700203,-2298.286494,9400.615463
20824.039124,2072.576638,-1762.019645,9622.677246
20824.039448,666.185348,-1378.971896,9622.677246
20824.039771,-740.205942,-1302.362347,9548.656652
20824.040095,-1258.350101,-459.657299,9696.697840
20824.040418,-2294.638420,-842.705048,9918.759623
20824.040742,-3923.091493,-689.485948,9696.697840
20824.041065,-4441.235652,-1149.143247,10288.862594
20824.041389,-5329.482782,-306.438199,9844.739029
20824.041712,-5847.626942,-536.266849,9474.636058
20824.042035,-6291.750507,-766.095498,8882.471304
20824.042359,-6809.894666,76.609550,8734.430116
20824.042682,-6513.812290,-153.219100,7994.224174
20824.043006,-5551.544565,689.485948,8142.265362
20824.043329,-5329.482782,153.219100,7402.059420
20824.043653,-4811.338623,612.876398,7179.997637
20824.043976,-3256.906145,689.485948,7402.059420
20824.044300,-2220.617826,766.095498,7476.080014
20824.044623,-1924.535449,1072.533697,7328.038826
20824.044947,-1628.453072,1149.143247,7476.080014
20824.045270,-1406.391290,229.828649,7698.141797
20824.045593,-740.205942,0.000000,7550.100608
20824.045917,-592.164754,229.828649,8586.388927
20824.046240,-814.226536,76.609550,9252.574275
20824.046564,-888.247130,0.000000,9474.636058
20824.046887,-148.041188,0.000000,9992.780217
20824.047211,888.247130,383.047749,9992.780217
20824.047534,1184.329507,459.657299,9918.759623
20824.047858,1850.514855,536.266849,9474.636058
20824.048181,3182.885551,536.266849,9918.759623
20824.048505,4145.153275,689.485948,9474.636058
20824.048828,4515.256246,612.876398,9696.697840
20824.049151,4367.215058,0.000000,9548.656652
20824.049475,4441.235652,-1072.533697,9326.594869
20824.049798,4737.318029,-1915.238745,9474.636058
20824.050122,4441.235652,-2221.676944,9252.574275
20824.050445,4071.132681,-2374.896044,9474.636058
20824.050769,4293.194464,-2911.162892,9474.636058
20824.051092,4441.235652,-2604.724693,9178.553681
20824.051416,4293.194464,-2451.505594,9326.594869
20824.051739,3775.050304,-2298.286494,9326.594869
20824.052063,3404.947333,-1685.410096,9400.615463
20824.052386,3108.864956,-1532.190996,9696.697840
20824.052710,1406.391290,-1685.410096,9474.636058
20824.053033,0.000000,-1302.362347,9844.739029
20824.053356,-1628.453072,-1225.752797,10436.903782
20824.053680,-2516.700203,-1225.752797,10584.944971
20824.054003,-4145.153275,-995.924147,10436.903782
20824.054327,-5181.441594,-766.095498,10362.883188
20824.054650,-6143.709319,-1302.362347,10066.800811
20824.054974,-6439.791695,-306.438199,9548.656652
20824.055297,-6217.729913,0.000000,9030.512492
20824.055621,-6513.812290,0.000000,8882.471304
20824.055944,-6217.729913,383.047749,8586.388927
20824.056268,-5625.565159,689.485948,8216.285956
20824.056591,-4589.276840,153.219100,7994.224174
20824.056914,-4293.194464,383.047749,7476.080014
20824.057238,-3997.112087,383.047749,7328.038826
20824.057561,-3256.906145,76.609550,7179.997637
20824.057885,-2368.659014,76.609550,6957.935855
20824.058208,-2516.700203,0.000000,7031.956449
20824.058532,-2294.638420,-153.219100,6883.915261
20824.058855,-1110.308913,-306.438199,7402.059420
20824.059179,-518.144159,689.485948,8068.244768
20824.059502,-444.123565,-153.219100,8808.450710
20824.059826,370.102971,76.609550,9474.636058
20824.060149,1110.308913,153.219100,9770.718434
20824.060472,1628.453072,536.266849,10510.924376
20824.060796,2072.576638,766.095498,11029.068536
20824.061119,2368.659014,76.609550,10362.883188
20824.061443,2886.803174,-536.266849,10140.821405
20824.061766,3997.112087,-612.876398,10288.862594
20824.062090,3997.112087,-306.438199,9992.780217
20824.062413,3701.029710,-842.705048,10066.800811
20824.062737,3701.029710,-1455.581446,9770.718434
20824.063060,4589.276840,-1991.848295,9622.677246
20824.063384,4959.379811,-2374.896044,9770.718434
20824.063707,4515.256246,-1991.848295,9770.718434
20824.064031,4515.256246,-2374.896044,9474.636058
20824.064354,5181.441594,-2221.676944,9696.697840
20824.064677,5255.462188,-1532.190996,9104.533087
20824.065001,4441.235652,-1685.410096,9252.574275
20824.065324,3256.906145,-1225.752797,9326.594869
20824.065648,2294.638420,-1608.800546,8956.491898
20824.065971,1998.556043,-1455.581446,9252.574275
20824.066295,148.041188,-1378.971896,9474.636058
20824.066618,-2368.659014,-1225.752797,9252.574275
20824.066942,-3256.906145,-1225.752797,10214.842000
20824.067265,-3923.091493,-919.314598,10140.821405
20824.067589,-4959.379811,-536.266849,10066.800811
20824.067912,-5921.647536,-612.876398,9918.759623
20824.068235,-5699.585753,-459.657299,9844.739029
20824.068559,-5403.503377,0.000000,9252.574275
20824.068882,-6069.688724,459.657299,8808.450710
20824.069206,-5995.668130,459.657299,8808.450710
20824.069529,-6439.791695,383.047749,8586.388927
20824.069853,-6143.709319,0.000000,8290.306550
20824.070176,-5403.503377,0.000000,8068.244768
20824.070500,-5329.482782,-229.828649,7624.121203
20824.070823,-4589.276840,-229.828649,7772.162391
20824.071147,-3701.029710,153.219100,6809.894666
20824.071470,-2368.659014,153.219100,6365.771101
20824.071793,-1480.411884,459.657299,6957.935855
20824.072117,-1110.308913,919.314598,7624.121203
20824.072440,0.000000,689.485948,7550.100608
20824.072764,814.226536,689.485948,8438.347739
20824.073087,222.061783,1072.533697,8956.491898
20824.073411,592.164754,306.438199,9770.718434
20824.073734,1184.329507,612.876398,10140.821405
20824.074058,1850.514855,153.219100,9844.739029
20824.074381,1998.556043,-229.828649,9992.780217
20824.074705,1998.556043,-383.047749,9548.656652
20824.075028,2664.741391,-383.047749,9474.636058
20824.075352,3552.988522,-995.924147,8882.471304
20824.075675,4071.132681,-689.485948,9252.574275
20824.075998,4589.276840,-1149.143247,9400.615463
20824.076322,4663.297435,-2145.067394,9622.677246
20824.076645,5551.544565,-2298.286494,9622.677246
20824.076969,5551.544565,-2528.115143,9918.759623
20824.077292,4811.338623,-2757.943793,9992.780217
20824.077616,4589.276840,-3064.381992,9844.739029
20824.077939,4811.338623,-2451.505594,9622.677246
20824.078263,4737.318029,-2681.334243,10140.821405
20824.078586,2812.782580,-2604.724693,9770.718434
20824.078910,1998.556043,-2451.505594,9622.677246
20824.079233,1628.453072,-2451.505594,9844.739029
20824.079556,740.205942,-1762.019645,9696.697840
20824.079880,-592.164754,-689.485948,10214.842000
20824.080203,-2294.638420,-995.924147,10066.800811
20824.080527,-2590.720797,-1225.752797,10140.821405
20824.080850,-3256.906145,-689.485948,9844.739029
20824.081174,-4515.256246,-153.219100,9696.697840
20824.081497,-5921.647536,-306.438199,9844.739029
20824.081821,-6587.832884,-766.095498,9030.512492
20824.082144,-6365.771101,-689.485948,8808.450710
20824.082468,-7254.018232,-306.438199,8956.491898
20824.082791,-7920.203579,-995.924147,7550.100608
20824.083114,-6809.894666,-612.876398,7846.182985
20824.083438,-5699.585753,-766.095498,7994.224174
20824.083761,-5181.441594,153.219100,7772.162391
20824.084085,-4663.297435,689.485948,7179.997637
20824.084408,-2368.659014,995.924147,7031.956449
20824.084732,-1184.329507,919.314598,6735.874072
20824.085055,-888.247130,1608.800546,6957.935855
20824.085379,-592.164754,1532.190996,7328.038826
20824.085702,-370.102971,842.705048,8068.244768
20824.086026,0.000000,1225.752797,8660.409521
20824.086349,-370.102971,995.924147,9474.636058
20824.086673,-962.267725,612.876398,9326.594869
20824.086996,-740.205942,536.266849,9548.656652
20824.087319,592.164754,229.828649,9918.759623
20824.087643,1258.350101,459.657299,9400.615463
20824.087966,1776.494261,1225.752797,9992.780217
20824.088290,2812.782580,1149.143247,9622.677246
20824.088613,4219.173869,919.314598,9474.636058
20824.088937,4663.297435,536.266849,9104.533087
20824.089260,4737.318029,536.266849,9400.615463
20824.089584,4959.379811,-306.438199,9400.615463
20824.089907,5107.421000,-1225.752797,9326.594869
20824.090231,4737.318029,-2145.067394,9474.636058
20824.090554,4441.235652,-2528.115143,10214.842000
20824.090877,3849.070898,-2757.943793,9918.759623
20824.091201,3923.091493,-3294.210641,9696.697840
20824.091524,4219.173869,-2911.162892,9770.718434
20824.091848,3849.070898,-2451.505594,10066.800811
20824.092171,2664.741391,-1838.629195,9474.636058
20824.092495,2516.700203,-1455.581446,9326.594869
20824.092818,2294.638420,-1225.752797,9474.636058
20824.093142,888.247130,-536.266849,9696.697840
20824.093465,-814.226536,-459.657299,10214.842000
20824.093789,-2294.638420,-536.266849,10288.862594
20824.094112,-3330.926739,-842.705048,9918.759623
20824.094435,-4293.194464,-919.314598,9992.780217
20824.094759,-5551.544565,-1072.533697,9918.759623
20824.095082,-7105.977043,-1149.143247,9400.615463
20824.095406,-6957.935855,-1302.362347,9178.553681
20824.095729,-7031.956449,-1149.143247,8882.471304
20824.096053,-7179.997637,-919.314598,8438.347739
20824.096376,-7031.956449,-536.266849,8438.347739
20824.096700,-5921.647536,0.000000,8142.265362
20824.097023,-5181.441594,-689.485948,7105.977043
20824.097347,-3997.112087,0.000000,7031.956449
20824.097670,-3404.947333,0.000000,7402.059420
20824.097994,-2886.803174,0.000000,6957.935855
20824.098317,-2220.617826,0.000000,7254.018232
20824.098640,-1554.432478,-76.609550,7772.162391
20824.098964,-1628.453072,383.047749,7994.224174
20824.099287,-1184.329507,-919.314598,8956.491898
20824.099611,-740.205942,0.000000,9252.574275
20824.099934,-888.247130,76.609550,9770.718434
20824.100258,-518.144159,153.219100,10288.862594
20824.100581,888.247130,153.219100,10584.944971
20824.100905,2294.638420,766.095498,10510.924376
20824.101228,2738.761985,919.314598,9844.739029
20824.101552,3034.844362,995.924147,9400.615463
20824.101875,3997.112087,536.266849,9178.553681
20824.102198,4885.359217,612.876398,8808.450710
20824.102522,4737.318029,-153.219100,9474.636058
20824.102845,4145.153275,-1072.533697,8956.491898
20824.103169,3775.050304,-1685.410096,9178.553681
20824.103492,4293.194464,-2145.067394,9326.594869
20824.103816,4589.276840,-2221.676944,9474.636058
20824.104139,4515.256246,-2374.896044,9474.636058
20824.104463,4219.173869,-1991.848295,9252.574275
20824.104786,4737.318029,-1608.800546,9474.636058
20824.105110,5107.421000,-1685.410096,9622.677246
20824.105433,3849.070898,-919.314598,9400.615463
20824.105756,2812.782580,-689.485948,9474.636058
20824.106080,2294.638420,-766.095498,9252.574275
20824.106403,1110.308913,-536.266849,9696.697840
20824.106727,-518.144159,-153.219100,10214.842000
20824.107050,-2442.679609,-766.095498,10214.842000
20824.107374,-3627.009116,-612.876398,10066.800811
20824.107697,-4145.153275,-383.047749,10066.800811
20824.108021,-4367.215058,-459.657299,10436.903782
20824.108344,-5995.668130,0.000000,9844.739029
20824.108668,-6143.709319,306.438199,9104.533087
20824.108991,-5921.647536,76.609550,9178.553681
20824.109315,-5477.523971,153.219100,8882.471304
20824.109638,-6069.688724,459.657299,8142.265362
20824.109961,-5699.585753,0.000000,7846.182985
20824.110285,-5477.523971,306.438199,7105.977043
20824.110608,-4737.318029,612.876398,7105.977043
20824.110932,-3923.091493,0.000000,6587.832884
20824.111255,-3552.988522,76.609550,6439.791695
20824.111579,-3108.864956,689.485948,6809.894666
20824.111902,-1924.535449,0.000000,7328.038826
20824.112226,-1258.350101,0.000000,7846.182985
20824.112549,-1110.308913,76.609550,8586.388927
20824.112873,-444.123565,306.438199,9326.594869
20824.113196,74.020594,-229.828649,9844.739029
20824.113519,592.164754,383.047749,9992.780217
20824.113843,1332.370696,153.219100,10955.047942
20824.114166,2294.638420,-306.438199,10510.924376
20824.114490,2220.617826,0.000000,9992.780217
20824.114813,3034.844362,-459.657299,9918.759623
20824.115137,3256.906145,-536.266849,9992.780217
20824.115460,3404.947333,-689.485948,9622.677246
20824.115784,4663.297435,-153.219100,9474.636058
20824.116107,4071.132681,-2145.067394,9548.656652
20824.116431,4145.153275,-2221.676944,8882.471304
20824.116754,4737.318029,-2604.724693,9548.656652
20824.117077,5181.441594,-2681.334243,9992.780217
20824.117401,4737.318029,-2834.553343,9548.656652
20824.117724,4071.132681,-2987.772442,9252.574275
20824.118048,4515.256246,-3217.601092,9474.636058
20824.118371,4071.132681,-2528.115143,9474.636058
20824.118695,3404.947333,-2528.115143,8956.491898
20824.119018,2220.617826,-2221.676944,9326.594869
20824.119342,740.205942,-1991.848295,9400.615463
20824.119665,0.000000,-1378.971896,9548.656652
20824.119989,-666.185348,-1072.533697,10214.842000
20824.120312,-1924.535449,-995.924147,10288.862594
20824.120636,-3182.885551,-536.266849,10510.924376
20824.120959,-3256.906145,-153.219100,10362.883188
20824.121282,-3997.112087,-612.876398,10066.800811
20824.121606,-4885.359217,0.000000,9548.656652
20824.121929,-5255.462188,0.000000,9474.636058
20824.122253,-5625.565159,0.000000,9030.512492
20824.122576,-5847.626942,0.000000,8216.285956
20824.122900,-5847.626942,229.828649,8586.388927
20824.123223,-5995.668130,-536.266849,7846.182985
20824.123547,-5329.482782,153.219100,7254.018232
20824.123870,-4515.256246,459.657299,7179.997637
20824.124194,-3256.906145,689.485948,7254.018232
20824.124517,-2886.803174,1302.362347,7254.018232
20824.124840,-2516.700203,1762.019645,7031.956449
20824.125164,-888.247130,1302.362347,7031.956449
20824.125487,-740.205942,1991.848295,7624.121203
20824.125811,-1036.288319,1915.238745,8068.244768
20824.126134,-1332.370696,995.924147,9030.512492
20824.126458,-1110.308913,459.657299,8956.491898
20824.126781,-814.226536,383.047749,9474.636058
20824.127105,-592.164754,459.657299,9992.780217
20824.127428,-518.144159,919.314598,9696.697840
20824.127752,814.226536,612.876398,9918.759623
20824.128075,2368.659014,0.000000,9474.636058
20824.128398,2516.700203,612.876398,9178.553681
20824.128722,3330.926739,76.609550,9178.553681
20824.129045,4885.359217,-229.828649,9400.615463
20824.129369,5329.482782,-459.657299,9474.636058
20824.129692,5181.441594,-1072.533697,9770.718434
20824.130016,5773.606348,-2221.676944,9696.697840
20824.130339,5403.503377,-2604.724693,9622.677246
20824.130663,5403.503377,-2911.162892,10066.800811
20824.130986,5107.421000,-3217.601092,10066.800811
20824.131310,4737.318029,-3524.039291,9844.739029
20824.131633,4367.215058,-3140.991542,9992.780217
20824.131957,4589.276840,-2604.724693,10066.800811
20824.132280,2960.823768,-2451.505594,9474.636058
20824.132603,1850.514855,-2374.896044,9474.636058
20824.132927,740.205942,-1302.362347,10066.800811
20824.133250,-296.082377,-1532.190996,10140.821405
20824.133574,-1702.473667,-1225.752797,10584.944971
20824.133897,-3330.926739,-612.876398,10214.842000
20824.134221,-4441.235652,-919.314598,10066.800811
20824.134544,-5773.606348,-1762.019645,9400.615463
20824.134868,-5699.585753,-1072.533697,9178.553681
20824.135191,-7031.956449,-1072.533697,9326.594869
20824.135515,-7476.080014,-1149.143247,8660.409521
20824.135838,-6883.915261,-1225.752797,8734.430116
20824.136161,-6513.812290,-842.705048,8364.327145
20824.136485,-5995.668130,-383.047749,7920.203579
20824.136808,-5329.482782,459.657299,7105.977043
20824.137132,-3404.947333,689.485948,7179.997637
20824.137455,-1850.514855,995.924147,7698.141797
20824.137779,-1258.350101,1225.752797,7254.018232
20824.138102,-1036.288319,1072.533697,7031.956449
20824.138426,-740.205942,1225.752797,6957.935855
20824.138749,-296.082377,995.924147,7402.059420
20824.139073,-148.041188,1072.533697,8364.327145
20824.139396,-888.247130,766.095498,8586.388927
20824.139720,-888.247130,76.609550,9104.533087
20824.140043,-740.205942,229.828649,9622.677246
20824.140366,-370.102971,306.438199,10140.821405
20824.140690,222.061783,0.000000,10214.842000
20824.141013,666.185348,459.657299,9770.718434
20824.141337,2368.659014,766.095498,9474.636058
20824.141660,2960.823768,689.485948,9770.718434
20824.141984,3256.906145,1149.143247,9326.594869
20824.142307,3478.967927,76.609550,9252.574275
20824.142631,4219.173869,-766.095498,9326.594869
20824.142954,3997.112087,-1378.971896,9474.636058
20824.143278,3997.112087,-1991.848295,9918.759623
20824.143601,3997.112087,-2681.334243,9770.718434
20824.143925,4293.194464,-2911.162892,9696.697840
20824.144248,4145.153275,-2604.724693,9474.636058
20824.144572,4737.318029,-2374.896044,9696.697840
20824.144895,4367.215058,-2451.505594,9770.718434
20824.145218,4293.194464,-1532.190996,9696.697840
20824.145542,4071.132681,-1225.752797,9844.739029
20824.145865,2516.700203,-919.314598,9770.718434
20824.146189,1258.350101,-689.485948,9400.615463
20824.146512,444.123565,-459.657299,10436.903782
20824.146836,-1258.350101,-536.266849,9918.759623
20824.147159,-3404.947333,-536.266849,9844.739029
20824.147483,-5033.400406,-459.657299,9992.780217
20824.147806,-5773.606348,-766.095498,9696.697840
20824.148130,-6291.750507,-919.314598,9326.594869
20824.148453,-6291.750507,-459.657299,9252.574275
20824.148777,-7402.059420,-459.657299,8956.491898
20824.149100,-7624.121203,-306.438199,8216.285956
20824.149424,-6439.791695,0.000000,8216.285956
20824.149747,-5921.647536,0.000000,7920.203579
20824.150070,-5477.523971,306.438199,7846.182985
20824.150394,-4737.318029,459.657299,7772.162391
20824.150717,-3701.029710,459.657299,6661.853478
20824.151041,-2664.741391,689.485948,6883.915261
20824.151364,-1702.473667,842.705048,7402.059420
20824.151688,-1924.535449,536.266849,7031.956449
20824.152011,-1332.370696,0.000000,7624.121203
20824.152335,-592.164754,0.000000,8068.244768
20824.152658,-370.102971,0.000000,9326.594869
20824.152982,-518.144159,306.438199,9844.739029
20824.153305,0.000000,0.000000,9918.759623
20824.153629,1184.329507,766.095498,10436.903782
20824.153952,2146.597232,229.828649,10510.924376
20824.154275,2442.679609,383.047749,10066.800811
20824.154599,2738.761985,306.438199,9992.780217
20824.154922,3849.070898,229.828649,9474.636058
20824.155246,4071.132681,0.000000,9400.615463
20824.155569,3923.091493,0.000000,9474.636058
20824.155893,3997.112087,-1072.533697,8586.388927
20824.156216,4293.194464,-1915.238745,9030.512492
20824.156540,4737.318029,-1915.238745,9252.574275
20824.156863,4071.132681,-2298.286494,9844.739029
20824.157187,3849.070898,-2757.943793,9548.656652
20824.157510,4737.318029,-2834.553343,9548.656652
20824.157834,4959.379811,-3064.381992,9622.677246
20824.158157,4071.132681,-1991.848295,10066.800811
20824.158481,3404.947333,-2221.676944,9770.718434
20824.158804,2886.803174,-2145.067394,9622.677246
20824.159127,1850.514855,-1685.410096,9918.759623
20824.159451,0.000000,-1378.971896,9696.697840
20824.159774,-962.267725,-1149.143247,10214.842000
20824.160098,-2220.617826,-612.876398,10214.842000
20824.160421,-2960.823768,-536.266849,10214.842000
20824.160745,-3701.029710,-1225.752797,10584.944971
20824.161068,-4663.297435,-459.657299,9844.739029
20824.161392,-4885.359217,-306.438199,10066.800811
20824.161715,-5403.503377,-536.266849,9844.739029
20824.162039,-5773.606348,-459.657299,9474.636058
20824.162362,-6439.791695,-383.047749,8956.491898
20824.162686,-5921.647536,229.828649,8734.430116
20824.163009,-5921.647536,229.828649,7698.141797
20824.163333,-5699.585753,383.047749,7550.100608
20824.163656,-5033.400406,229.828649,7179.997637
20824.163979,-4219.173869,306.438199,7031.956449
20824.164303,-3552.988522,842.705048,6365.771101
20824.164626,-2368.659014,995.924147,6513.812290
20824.164950,-1554.432478,1072.533697,6587.832884
20824.165273,-1628.453072,1532.190996,6735.874072
20824.165597,-592.164754,1225.752797,7624.121203
20824.165920,-222.061783,766.095498,8364.327145
20824.166244,-962.267725,689.485948,9400.615463
20824.166567,-962.267725,536.266849,9548.656652
20824.166891,148.041188,0.000000,10288.862594
20824.167214,814.226536,-383.047749,10066.800811
20824.167538,962.267725,689.485948,10288.862594
20824.167861,1924.535449,229.828649,9770.718434
20824.168184,2886.803174,-306.438199,9474.636058
20824.168508,3849.070898,0.000000,9548.656652
20824.168831,4737.318029,0.000000,9548.656652
20824.169155,5033.400406,-383.047749,9400.615463
20824.169478,5403.503377,-612.876398,8956.491898
20824.169802,6439.791695,-995.924147,9918.759623
20824.170125,6291.750507,-842.705048,9992.780217
20824.170449,5329.482782,-2298.286494,10066.800811
20824.170772,5329.482782,-2604.724693,10140.821405
20824.171096,4959.379811,-2911.162892,10066.800811
20824.171419,4219.173869,-2757.943793,10140.821405
20824.171743,3108.864956,-2681.334243,9770.718434
20824.172066,3182.885551,-2298.286494,9474.636058
20824.172390,1850.514855,-1762.019645,9400.615463
20824.172713,1036.288319,-1532.190996,9548.656652
20824.173036,-1036.288319,-1532.190996,9474.636058
20824.173360,-2220.617826,-995.924147,9400.615463
20824.173683,-2664.741391,-689.485948,9918.759623
20824.174007,-3552.988522,-306.438199,9918.759623
20824.174330,-4811.338623,-459.657299,9548.656652
20824.174654,-5773.606348,-1455.581446,9252.574275
20824.174977,-6217.729913,-995.924147,9030.512492
20824.175301,-6735.874072,-766.095498,8956.491898
20824.175624,-7328.038826,-1302.362347,9252.574275
20824.175948,-7698.141797,-1302.362347,8660.409521
20824.176271,-6735.874072,-1302.362347,8290.306550
20824.176595,-5403.503377,0.000000,8142.265362
20824.176918,-4367.215058,-306.438199,8216.285956
20824.177242,-3923.091493,536.266849,6735.874072
20824.177565,-2442.679609,459.657299,6957.935855
20824.177888,-740.205942,1149.143247,7179.997637
20824.178212,-666.185348,1378.971896,7328.038826
20824.178535,-1332.370696,995.924147,7550.100608
20824.178859,-962.267725,459.657299,8142.265362
20824.179182,-296.082377,229.828649,9104.533087
20824.179506,-1480.411884,76.609550,9474.636058
20824.179829,-1406.391290,-229.828649,9696.697840
20824.180153,-1998.556043,306.438199,9696.697840
20824.180476,-1110.308913,153.219100,9696.697840
20824.180800,296.082377,306.438199,9326.594869
20824.181123,1406.391290,689.485948,9696.697840
20824.181447,1776.494261,612.876398,9178.553681
20824.181770,3182.885551,766.095498,8290.306550
20824.182093,4663.297435,229.828649,8364.327145
20824.182417,4737.318029,536.266849,9104.533087
20824.182740,4959.379811,-459.657299,9474.636058
20824.183064,4885.359217,-1225.752797,9104.533087
20824.183387,5625.565159,-2451.505594,9474.636058
20824.183711,5033.400406,-2451.505594,10214.842000
20824.184034,4811.338623,-3064.381992,9770.718434
20824.184358,4737.318029,-2757.943793,9918.759623
20824.184681,5699.585753,-2987.772442,9992.780217
20824.185005,5403.503377,-2298.286494,10066.800811
20824.185328,4515.256246,-1455.581446,10214.842000
20824.185652,3997.112087,-1378.971896,9918.759623
20824.185975,3330.926739,-1072.533697,9992.780217
20824.186299,1480.411884,-689.485948,9992.780217
20824.186622,-518.144159,0.000000,9696.697840
20824.186945,-2368.659014,-1149.143247,10288.862594
20824.187269,-3182.885551,-995.924147,10214.842000
20824.187592,-4811.338623,-1072.533697,10140.821405
20824.187916,-6587.832884,-1685.410096,9918.759623
20824.188239,-7698.141797,-1608.800546,9696.697840
20824.188563,-7846.182985,-1302.362347,9474.636058
20824.188886,-7698.141797,-1455.581446,8586.388927
20824.189210,-7772.162391,-1225.752797,8660.409521
20824.189533,-7698.141797,-306.438199,7920.203579
20824.189857,-6069.688724,229.828649,7994.224174
20824.190180,-4885.359217,383.047749,7624.121203
20824.190504,-3997.112087,1072.533697,7254.018232
20824.190827,-3108.864956,1225.752797,7476.080014
20824.191151,-2294.638420,1455.581446,6735.874072
20824.191474,-1554.432478,1762.019645,6809.894666
20824.191797,-1110.308913,1302.362347,7402.059420
20824.192121,-1628.453072,383.047749,7179.997637
20824.192444,-1332.370696,229.828649,7920.203579
20824.192768,-666.185348,383.047749,8808.450710
20824.193091,-592.164754,612.876398,9696.697840
20824.193415,-592.164754,689.485948,9918.759623
20824.193738,592.164754,1608.800546,9918.759623
20824.194062,1924.535449,919.314598,9548.656652
20824.194385,2442.679609,1072.533697,9474.636058
20824.194709,2516.700203,1378.971896,9474.636058
20824.195032,2886.803174,919.314598,9178.553681
20824.195356,3404.947333,229.828649,8882.471304
20824.195679,4071.132681,-383.047749,9104.533087
20824.196002,3552.988522,-1225.752797,8734.430116
20824.196326,3182.885551,-1915.238745,8660.409521
20824.196649,3182.885551,-3217.601092,9400.615463
20824.196973,3997.112087,-3524.039291,9844.739029
20824.197296,4293.194464,-3217.601092,10066.800811
20824.197620,4293.194464,-3294.210641,9770.718434
20824.197943,4885.359217,-2987.772442,9770.718434
20824.198267,5773.606348,-2145.067394,10066.800811
20824.198590,5329.482782,-1762.019645,9918.759623
20824.198914,4515.256246,-1608.800546,10436.903782
20824.199237,3478.967927,-1149.143247,9770.718434
20824.199561,2590.720797,-1072.533697,10066.800811
20824.199884,1036.288319,-1072.533697,10510.924376
20824.200208,-1036.288319,-919.314598,10288.862594
20824.200531,-1998.556043,-995.924147,10140.821405
20824.200854,-2886.803174,-689.485948,10066.800811
20824.201178,-4441.235652,-1455.581446,10140.821405
20824.201501,-5773.606348,-1302.362347,9844.739029
20824.201825,-6069.688724,-1072.533697,9252.574275
20824.202148,-6217.729913,-689.485948,9326.594869
20824.202472,-7105.977043,-612.876398,8660.409521
20824.202795,-7254.018232,0.000000,8068.244768
20824.203119,-6957.935855,0.000000,7846.182985
20824.203442,-6513.812290,229.828649,6957.935855
20824.203766,-5551.544565,76.609550,6883.915261
20824.204089,-5181.441594,153.219100,6513.812290
20824.204413,-4737.318029,306.438199,6735.874072
20824.204736,-3552.988522,383.047749,6439.791695
20824.205060,-2738.761985,612.876398,7105.977043
20824.205383,-2812.782580,612.876398,7254.018232
20824.205706,-1924.535449,842.705048,7698.141797
20824.206030,-1036.288319,1455.581446,8882.471304
20824.206353,-444.123565,689.485948,9474.636058
20824.206677,-666.185348,1072.533697,10436.903782
20824.207000,518.144159,919.314598,10658.965565
20824.207324,1628.453072,1072.533697,10214.842000
20824.207647,2812.782580,995.924147,9622.677246
20824.207971,2812.782580,1302.362347,9696.697840
20824.208294,3552.988522,536.266849,9252.574275
20824.208618,3997.112087,689.485948,8808.450710
20824.208941,4959.379811,306.438199,9178.553681
20824.209265,4737.318029,-229.828649,9326.594869
20824.209588,4367.215058,-1072.533697,9030.512492
20824.209911,4737.318029,-1302.362347,9326.594869
20824.210235,5625.565159,-1608.800546,9696.697840
20824.210558,5329.482782,-2068.457845,9696.697840
20824.210882,4737.318029,-2911.162892,9770.718434
20824.211205,4589.276840,-2987.772442,9474.636058
20824.211529,4293.194464,-2757.943793,9252.574275
20824.211852,3775.050304,-2298.286494,9696.697840
20824.212176,2886.803174,-1685.410096,9696.697840
20824.212499,1480.411884,-1378.971896,9252.574275
20824.212823,444.123565,-1302.362347,9400.615463
20824.213146,296.082377,-1072.533697,9844.739029
20824.213470,-1036.288319,-995.924147,10436.903782
20824.213793,-2294.638420,-766.095498,10362.883188
20824.214117,-2960.823768,-612.876398,10066.800811
20824.214440,-3330.926739,-689.485948,10140.821405
20824.214763,-4737.318029,-766.095498,10510.924376
20824.215087,-5477.523971,-536.266849,9918.759623
20824.215410,-5847.626942,-1378.971896,9400.615463
20824.215734,-6291.750507,-1455.581446,8808.450710
20824.216057,-6587.832884,-1072.533697,9178.553681
20824.216381,-6513.812290,-842.705048,8512.368333
20824.216704,-5847.626942,-766.095498,7846.182985
20824.217028,-4737.318029,153.219100,7179.997637
20824.217351,-3330.926739,153.219100,7179.997637
20824.217675,-3330.926739,766.095498,6661.853478
20824.217998,-1924.535449,612.876398,6661.853478
20824.218322,-1480.411884,766.095498,6735.874072
20824.218645,-1480.411884,842.705048,7179.997637
20824.218969,-1776.494261,536.266849,7994.224174
20824.219292,-1480.411884,842.705048,9030.512492
20824.219615,-1924.535449,-229.828649,8734.430116
20824.219939,-1776.494261,-383.047749,9696.697840
20824.220262,-1332.370696,0.000000,9696.697840
20824.220586,-888.247130,0.000000,9992.780217
20824.220909,592.164754,0.000000,9918.759623
20824.221233,1776.494261,153.219100,9474.636058
20824.221556,2146.597232,689.485948,9104.533087
20824.221880,3330.926739,612.876398,8882.471304
20824.222203,4737.318029,76.609550,9030.512492
20824.222527,5329.482782,0.000000,8512.368333
20824.222850,5107.421000,-536.266849,9844.739029
20824.223174,4663.297435,-1378.971896,9992.780217
20824.223497,4885.359217,-2298.286494,9770.718434
20824.223820,5107.421000,-2911.162892,10066.800811
20824.224144,4811.338623,-2987.772442,10140.821405
20824.224467,3997.112087,-2451.505594,10362.883188
20824.224791,3997.112087,-2298.286494,9622.677246
20824.225114,4219.173869,-1608.800546,9622.677246
20824.225438,3849.070898,-1532.190996,9622.677246
20824.225761,2368.659014,-536.266849,9400.615463
20824.226085,1850.514855,-229.828649,9474.636058
20824.226408,1406.391290,76.609550,9474.636058
20824.226732,0.000000,383.047749,9696.697840
20824.227055,-1702.473667,306.438199,9548.656652
20824.227379,-3108.864956,-153.219100,9400.615463
20824.227702,-4367.215058,-612.876398,9326.594869
20824.228026,-5329.482782,-842.705048,9696.697840
20824.228349,-6439.791695,-1072.533697,9770.718434
20824.228672,-7476.080014,-1225.752797,9400.615463
20824.228996,-7476.080014,-842.705048,9030.512492
20824.229319,-6513.812290,-919.314598,8660.409521
20824.229643,-6291.750507,0.000000,8290.306550
20824.229966,-5477.523971,0.000000,8216.285956
20824.230290,-3997.112087,766.095498,7402.059420
20824.230613,-2442.679609,1225.752797,7179.997637
20824.230937,-1998.556043,1378.971896,7328.038826
20824.231260,-1850.514855,1072.533697,7254.018232
20824.231584,-1184.329507,1455.581446,7105.977043
20824.231907,-814.226536,766.095498,8216.285956
20824.232231,-1628.453072,229.828649,8734.430116
20824.232554,-2072.576638,-306.438199,8882.471304
20824.232878,-1628.453072,-842.705048,9548.656652
20824.233201,-1332.370696,-459.657299,10140.821405
20824.233524,-1036.288319,76.609550,10362.883188
20824.233848,-518.144159,306.438199,9844.739029
20824.234171,666.185348,536.266849,9030.512492
20824.234495,2072.576638,995.924147,9104.533087
20824.234818,2442.679609,1225.752797,8586.388927
20824.235142,2960.823768,842.705048,8660.409521
20824.235465,3256.906145,459.657299,8586.388927
20824.235789,3330.926739,-459.657299,8290.306550
20824.236112,3404.947333,-842.705048,8734.430116
20824.236436,3256.906145,-2528.115143,9030.512492
20824.236759,3404.947333,-3140.991542,9326.594869
20824.237083,3404.947333,-3140.991542,9992.780217
20824.237406,4293.194464,-3217.601092,9770.718434
20824.237729,4737.318029,-2911.162892,10214.842000
20824.238053,4959.379811,-2451.505594,9992.780217
20824.238376,4737.318029,-1685.410096,9770.718434
20824.238699,5033.400406,-995.924147,10066.800811
20824.239023,4811.338623,-612.876398,10066.800811
20824.239346,3404.947333,-383.047749,10140.821405
20824.239670,1776.494261,-536.266849,9844.739029
20824.239993,444.123565,-612.876398,10436.903782
20824.240316,-1406.391290,-842.705048,10510.924376
20824.240640,-2960.823768,-1225.752797,10584.944971
20824.240963,-4885.359217,-1378.971896,10510.924376
20824.241287,-5625.565159,-2068.457845,9844.739029
20824.241610,-6217.729913,-1838.629195,9474.636058
20824.241933,-6809.894666,-1455.581446,9622.677246
20824.242257,-7031.956449,-1225.752797,9030.512492
20824.242580,-6439.791695,-766.095498,8364.327145
20824.242903,-5625.565159,-383.047749,7698.141797
20824.243227,-5107.421000,0.000000,7328.038826
20824.243550,-4293.194464,229.828649,7105.977043
20824.243874,-3478.967927,842.705048,6809.894666
20824.244197,-2738.761985,612.876398,6661.853478
20824.244520,-2516.700203,919.314598,6883.915261
20824.244844,-2072.576638,536.266849,7105.977043
20824.245167,-1406.391290,536.266849,7624.121203
20824.245490,-1258.350101,306.438199,8734.430116
20824.245814,-1406.391290,0.000000,8956.491898
20824.246137,-1110.308913,536.266849,9326.594869
20824.246461,-370.102971,536.266849,10362.883188
20824.246784,0.000000,919.314598,10362.883188
20824.247107,296.082377,1072.533697,10288.862594
20824.247431,814.226536,689.485948,10066.800811
20824.247754,1110.308913,459.657299,9548.656652
20824.248077,2072.576638,459.657299,8808.450710
20824.248401,2590.720797,995.924147,8808.450710
20824.248724,2590.720797,0.000000,9030.512492
20824.249048,2812.782580,-689.485948,9104.533087
20824.249371,3775.050304,-1225.752797,9178.553681
20824.249694,3923.091493,-1762.019645,9104.533087
20824.250018,3849.070898,-2145.067394,9622.677246
20824.250341,4145.153275,-2298.286494,9696.697840
20824.250665,5033.400406,-1991.848295,10066.800811
20824.250988,5033.400406,-2374.896044,9844.739029
20824.251311,4885.359217,-1762.019645,9474.636058
20824.251635,4737.318029,-1532.190996,9622.677246
20824.251958,4219.173869,-1072.533697,9400.615463
20824.252281,3256.906145,-766.095498,9474.636058
20824.252605,1554.432478,-766.095498,9104.533087
20824.252928,222.061783,-1225.752797,9178.553681
20824.253252,-1850.514855,-1762.019645,9474.636058
20824.253575,-1776.494261,-1149.143247,9770.718434
20824.253898,-3404.947333,-842.705048,10362.883188
20824.254222,-4441.235652,-1149.143247,10140.821405
20824.254545,-4811.338623,-1149.143247,10140.821405
20824.254868,-4885.359217,-842.705048,9844.739029
20824.255192,-5551.544565,-536.266849,9918.759623
20824.255515,-5921.647536,-842.705048,9992.780217
20824.255839,-6439.791695,-995.924147,8660.409521
20824.256162,-5699.585753,-842.705048,8364.327145
20824.256485,-4367.215058,-612.876398,8364.327145
20824.256809,-4293.194464,-306.438199,7920.203579
20824.257132,-3701.029710,0.000000,7476.080014
20824.257456,-2442.679609,383.047749,7476.080014
20824.257779,-1332.370696,919.314598,7179.997637
20824.258102,-1480.411884,842.705048,6957.935855
20824.258426,-1554.432478,689.485948,7254.018232
20824.258749,-740.205942,612.876398,7846.182985
20824.259072,-518.144159,689.485948,8660.409521
20824.259396,-1036.288319,536.266849,9252.574275
20824.259719,-1110.308913,612.876398,9474.636058
20824.260043,-1110.308913,0.000000,9400.615463
20824.260366,-592.164754,689.485948,9770.718434
20824.260689,0.000000,306.438199,9474.636058
20824.261013,0.000000,229.828649,9178.553681
20824.261336,1554.432478,306.438199,8882.471304
20824.261659,2368.659014,383.047749,8956.491898
20824.261983,3182.885551,-229.828649,8882.471304
20824.262306,3256.906145,-919.314598,8956.491898
20824.262630,4293.194464,-1532.190996,9474.636058
20824.262953,4663.297435,-1149.143247,9400.615463
20824.263276,4589.276840,-1991.848295,10066.800811
20824.263600,4515.256246,-2681.334243,10436.903782
20824.263923,4441.235652,-2987.772442,10436.903782
20824.264246,4737.318029,-3064.381992,10510.924376
20824.264570,4145.153275,-2681.334243,9918.759623
20824.264893,4071.132681,-2374.896044,9992.780217
20824.265217,3256.906145,-1149.143247,9770.718434
20824.265540,3182.885551,-1532.190996,9474.636058
20824.265863,2294.638420,-842.705048,9770.718434
20824.266187,518.144159,-612.876398,9696.697840
20824.266510,0.000000,-383.047749,9696.697840
20824.266834,-1036.288319,0.000000,9992.780217
20824.267157,-2220.617826,-306.438199,9696.697840
20824.267480,-3775.050304,0.000000,9474.636058
20824.267804,-4737.318029,-919.314598,9326.594869
20824.268127,-4885.359217,-536.266849,9030.512492
20824.268450,-5921.647536,-995.924147,9178.553681
20824.268774,-6439.791695,-919.314598,8808.450710
20824.269097,-6587.832884,-919.314598,8142.265362
20824.269421,-5847.626942,-383.047749,7624.121203
20824.269744,-4589.276840,0.000000,7698.141797
20824.270067,-3627.009116,0.000000,7846.182985
20824.270391,-3108.864956,536.266849,7105.977043
20824.270714,-1850.514855,689.485948,7105.977043
20824.271037,-518.144159,1072.533697,7402.059420
20824.271361,-444.123565,995.924147,7772.162391
20824.271684,-1332.370696,459.657299,8290.306550
20824.272008,-518.144159,689.485948,8586.388927
20824.272331,-740.205942,-153.219100,9030.512492
20824.272654,-1184.329507,0.000000,10140.821405
20824.272978,-1850.514855,0.000000,10658.965565
20824.273301,-2220.617826,-153.219100,10436.903782
20824.273625,-1110.308913,0.000000,10214.842000
20824.273948,-148.041188,689.485948,10066.800811
20824.274271,148.041188,995.924147,9548.656652
20824.274595,1110.308913,306.438199,9104.533087
20824.274918,2220.617826,536.266849,8586.388927
20824.275241,3108.864956,842.705048,8438.347739
20824.275565,3182.885551,0.000000,8660.409521
20824.275888,3182.885551,-919.314598,8586.388927
20824.276212,3330.926739,-1685.410096,8808.450710
20824.276535,4219.173869,-2451.505594,9770.718434
20824.276858,3552.988522,-2911.162892,9844.739029
20824.277182,3108.864956,-2451.505594,9474.636058
20824.277505,4293.194464,-3140.991542,9844.739029
20824.277828,4589.276840,-2911.162892,9844.739029
20824.278152,4219.173869,-1991.848295,9844.739029
20824.278475,4219.173869,-1378.971896,9622.677246
20824.278799,4367.215058,-1072.533697,9992.780217
20824.279122,3182.885551,-459.657299,8956.491898
20824.279445,2220.617826,0.000000,10140.821405
20824.279769,666.185348,-383.047749,10140.821405
20824.280092,-1332.370696,-919.314598,10288.862594
20824.280415,-2516.700203,-1302.362347,10066.800811
20824.280739,-3849.070898,-1455.581446,10510.924376
20824.281062,-4885.359217,-1149.143247,10658.965565
20824.281386,-5921.647536,-1455.581446,10214.842000
20824.281709,-5847.626942,-1225.752797,9622.677246
20824.282032,-5403.503377,-1072.533697,9178.553681
20824.282356,-5921.647536,-536.266849,9104.533087
20824.282679,-5699.585753,229.828649,8364.327145
20824.283003,-4145.153275,306.438199,8068.244768
20824.283326,-3330.926739,383.047749,7254.018232
20824.283649,-2812.782580,1149.143247,7105.977043
20824.283973,-2442.679609,1302.362347,6661.853478
20824.284296,-1924.535449,689.485948,6439.791695
20824.284619,-1406.391290,766.095498,7031.956449
20824.284943,-1776.494261,689.485948,7179.997637
20824.285266,-2146.597232,76.609550,7920.203579
20824.285590,-1924.535449,0.000000,8438.347739
20824.285913,-1776.494261,229.828649,8734.430116
20824.286236,-1776.494261,-842.705048,9400.615463
20824.286560,-1480.411884,459.657299,10288.862594
20824.286883,-592.164754,689.485948,10510.924376
20824.287206,666.185348,995.924147,10066.800811
20824.287530,1776.494261,919.314598,9770.718434
20824.287853,2294.638420,1072.533697,9474.636058
20824.288177,2590.720797,0.000000,9178.553681
20824.288500,3627.009116,536.266849,9030.512492
20824.288823,3849.070898,0.000000,9252.574275
20824.289147,3256.906145,-919.314598,8956.491898
20824.289470,3404.947333,-1915.238745,9252.574275
20824.289794,3627.009116,-2528.115143,9474.636058
20824.290117,3849.070898,-2604.724693,10362.883188
20824.290440,3997.112087,-2834.553343,10436.903782
20824.290764,3997.112087,-2604.724693,10066.800811
20824.291087,4515.256246,-2451.505594,9770.718434
20824.291410,4293.194464,-1991.848295,9696.697840
20824.291734,3923.091493,-1532.190996,9474.636058
20824.292057,2812.782580,-1072.533697,9474.636058
20824.292381,2220.617826,-995.924147,9474.636058
20824.292704,962.267725,-1072.533697,9474.636058
20824.293027,-962.267725,-766.095498,9622.677246
20824.293351,-2368.659014,-1225.752797,9844.739029
20824.293674,-3404.947333,-995.924147,10140.821405
20824.293997,-3775.050304,-1455.581446,10140.821405
20824.294321,-4885.359217,-1302.362347,10288.862594
20824.294644,-5329.482782,-1072.533697,10140.821405
20824.294968,-5329.482782,-1149.143247,9548.656652
20824.295291,-5033.400406,-459.657299,9474.636058
20824.295614,-4885.359217,-995.924147,8956.491898
20824.295938,-4811.338623,0.000000,8216.285956
20824.296261,-4219.173869,0.000000,7772.162391
20824.296585,-3256.906145,842.705048,7550.100608
20824.296908,-2812.782580,612.876398,7105.977043
20824.297231,-2886.803174,766.095498,6587.832884
20824.297555,-2146.597232,766.095498,6365.771101
20824.297878,-1406.391290,306.438199,6735.874072
20824.298201,-1258.350101,689.485948,7031.956449
20824.298525,-1184.329507,766.095498,7772.162391
20824.298848,-1258.350101,383.047749,8512.368333
20824.299172,-1184.329507,306.438199,8956.491898
20824.299495,-888.247130,306.438199,9474.636058
20824.299818,-592.164754,995.924147,10288.862594
20824.300142,-962.267725,919.314598,10214.842000
20824.300465,0.000000,1225.752797,9770.718434
20824.300788,1628.453072,229.828649,9844.739029
20824.301112,1406.391290,306.438199,9474.636058
20824.301435,1924.535449,0.000000,8956.491898
20824.301759,2664.741391,-306.438199,8956.491898
20824.302082,3330.926739,-766.095498,9252.574275
20824.302405,3108.864956,-1149.143247,9400.615463
20824.302729,3775.050304,-1532.190996,9844.739029
20824.303052,3627.009116,-2374.896044,9326.594869
20824.303375,4589.276840,-2451.505594,9844.739029
20824.303699,4959.379811,-2681.334243,10288.862594
20824.304022,4737.318029,-2528.115143,9992.780217
20824.304346,4737.318029,-1991.848295,9622.677246
20824.304669,5403.503377,-1991.848295,10066.800811
20824.304992,4737.318029,-1532.190996,9030.512492
20824.305316,3108.864956,-689.485948,9104.533087
20824.305639,2368.659014,-612.876398,8808.450710
20824.305963,1184.329507,-995.924147,9178.553681
20824.306286,-370.102971,-689.485948,9548.656652
20824.306609,-2146.597232,-459.657299,10066.800811
20824.306933,-3108.864956,-766.095498,9992.780217
20824.307256,-3923.091493,-919.314598,10066.800811
20824.307579,-4737.318029,-1532.190996,10288.862594
20824.307903,-6291.750507,-612.876398,9770.718434
20824.308226,-6661.853478,-1302.362347,9770.718434
20824.308550,-6661.853478,-1072.533697,9252.574275
20824.308873,-6217.729913,-919.314598,8512.368333
20824.309196,-6365.771101,-689.485948,8216.285956
20824.309520,-6069.688724,-153.219100,7476.080014
20824.309843,-4663.297435,459.657299,7179.997637
20824.310166,-3256.906145,612.876398,7179.997637
20824.310490,-2516.700203,383.047749,7402.059420
20824.310813,-2146.597232,1149.143247,7031.956449
20824.311137,-962.267725,766.095498,7179.997637
20824.311460,0.000000,766.095498,7624.121203
20824.311783,-74.020594,995.924147,8660.409521
20824.312107,-666.185348,689.485948,8808.450710
20824.312430,-592.164754,766.095498,9474.636058
20824.312754,-740.205942,0.000000,9696.697840
20824.313077,-1258.350101,153.219100,9622.677246
20824.313400,-1406.391290,153.219100,10066.800811
20824.313724,-1036.288319,459.657299,9918.759623
20824.314047,0.000000,689.485948,9252.574275
20824.314370,1184.329507,766.095498,9104.533087
20824.314694,1554.432478,229.828649,8586.388927
20824.315017,1628.453072,536.266849,8142.265362
20824.315341,3701.029710,459.657299,8660.409521
20824.315664,4441.235652,-306.438199,8882.471304
20824.315987,4071.132681,-1378.971896,9252.574275
20824.316311,3923.091493,-1838.629195,9770.718434
20824.316634,4737.318029,-2221.676944,9918.759623
20824.316957,4885.359217,-2604.724693,9844.739029
20824.317281,4885.359217,-2528.115143,10140.821405
20824.317604,4589.276840,-2834.553343,9770.718434
20824.317928,5033.400406,-2604.724693,9844.739029
20824.318251,4737.318029,-2068.457845,9548.656652
20824.318574,4441.235652,-1455.581446,9326.594869
20824.318898,3478.967927,-612.876398,9474.636058
20824.319221,2146.597232,-842.705048,9474.636058
20824.319544,1406.391290,-1225.752797,10066.800811
20824.319868,-740.205942,-459.657299,10140.821405
20824.320191,-2664.741391,-1149.143247,10288.862594
20824.320515,-3849.070898,-1225.752797,10584.944971
20824.320838,-4589.276840,-1762.019645,10288.862594
20824.321161,-6069.688724,-1991.848295,10362.883188
20824.321485,-7031.956449,-1608.800546,9770.718434
20824.321808,-7105.977043,-1915.238745,9252.574275
20824.322132,-6809.894666,-1915.238745,8660.409521
20824.322455,-6143.709319,-919.314598,8068.244768
20824.322778,-5921.647536,-383.047749,8142.265362
20824.323102,-4885.359217,-153.219100,7994.224174
20824.323425,-3849.070898,689.485948,7846.182985
20824.323748,-2664.741391,689.485948,7031.956449
20824.324072,-2294.638420,306.438199,6587.832884
20824.324395,-2294.638420,229.828649,6809.894666
20824.324719,-1480.411884,459.657299,7105.977043
20824.325042,-1110.308913,306.438199,7846.182985
20824.325365,-1480.411884,0.000000,8512.368333
20824.325689,-2146.597232,229.828649,8956.491898
20824.326012,-1554.432478,76.609550,9178.553681
20824.326335,-1036.288319,76.609550,10140.821405
20824.326659,-148.041188,995.924147,10066.800811
20824.326982,74.020594,995.924147,9992.780217
20824.327306,1480.411884,1378.971896,9474.636058
20824.327629,2664.741391,1915.238745,9474.636058
20824.327952,3108.864956,2068.457845,9400.615463
20824.328276,2812.782580,1225.752797,8956.491898
20824.328599,3701.029710,383.047749,8142.265362
20824.328923,4071.132681,383.047749,8734.430116
20824.329246,3478.967927,-229.828649,9696.697840
20824.329569,3034.844362,-1225.752797,9104.533087
20824.329893,3108.864956,-2221.676944,9474.636058
20824.330216,3701.029710,-2221.676944,9622.677246
20824.330539,3849.070898,-2298.286494,9326.594869
20824.330863,3997.112087,-2298.286494,9696.697840
20824.331186,4515.256246,-1455.581446,9326.594869
20824.331510,4737.318029,-383.047749,8808.450710
20824.331833,5255.462188,76.609550,9696.697840
20824.332156,3849.070898,-229.828649,9474.636058
20824.332480,2072.576638,0.000000,9622.677246
20824.332803,888.247130,-689.485948,9696.697840
20824.333126,0.000000,-612.876398,10288.862594
20824.333450,-2146.597232,-1532.190996,10732.986159
20824.333773,-4293.194464,-1149.143247,10436.903782
20824.334097,-4737.318029,-2298.286494,10362.883188
20824.334420,-5255.462188,-2221.676944,10140.821405
20824.334743,-5773.606348,-1762.019645,10288.862594
20824.335067,-5995.668130,-1608.800546,9844.739029
20824.335390,-5625.565159,-1225.752797,9178.553681
20824.335713,-5255.462188,-612.876398,8438.347739
20824.336037,-4589.276840,-383.047749,8660.409521
20824.336360,-4219.173869,-153.219100,8438.347739
20824.336684,-3701.029710,-229.828649,7846.182985
20824.337007,-2738.761985,-229.828649,7179.997637
20824.337330,-2146.597232,-153.219100,7328.038826
20824.337654,-2590.720797,-306.438199,7105.977043
20824.337977,-1702.473667,-612.876398,7031.956449
20824.338301,-1258.350101,-612.876398,7624.121203
20824.338624,-1406.391290,-995.924147,7402.059420
20824.338948,-1776.494261,-383.047749,8660.409521
20824.339271,-1258.350101,-229.828649,9474.636058
20824.339594,-518.144159,-153.219100,10066.800811
20824.339918,-296.082377,0.000000,10066.800811
20824.340241,222.061783,766.095498,9770.718434
20824.340565,666.185348,459.657299,9622.677246
20824.340888,1554.432478,536.266849,9474.636058
20824.341212,1628.453072,0.000000,9030.512492
20824.341535,2220.617826,-459.657299,8956.491898
20824.341859,2072.576638,-919.314598,8734.430116
20824.342182,2738.761985,-995.924147,9326.594869
20824.342505,3108.864956,-1608.800546,9326.594869
20824.342829,3108.864956,-2681.334243,9844.739029
20824.343152,3552.988522,-2068.457845,10214.842000
20824.343476,4515.256246,-2068.457845,10362.883188
20824.343799,5107.421000,-2451.505594,10510.924376
20824.344123,5329.482782,-1838.629195,10066.800811
20824.344446,4959.379811,-1302.362347,10066.800811
20824.344769,5033.400406,-383.047749,9844.739029
20824.345093,4589.276840,-995.924147,9178.553681
20824.345416,3775.050304,-383.047749,9474.636058
20824.345740,2294.638420,0.000000,9252.574275
20824.346063,74.020594,0.000000,8956.491898
20824.346387,-888.247130,-153.219100,9326.594869
20824.346710,-2294.638420,0.000000,9474.636058
20824.347033,-3775.050304,-459.657299,9548.656652
20824.347357,-4589.276840,-306.438199,9474.636058
20824.347680,-4663.297435,-229.828649,9622.677246
20824.348004,-5255.462188,-459.657299,9548.656652
20824.348327,-5699.585753,76.609550,9252.574275
20824.348651,-6143.709319,153.219100,9252.574275
20824.348974,-6217.729913,0.000000,8142.265362
20824.349298,-5033.400406,76.609550,8068.244768
20824.349621,-4811.338623,0.000000,7994.224174
20824.349944,-4737.318029,0.000000,7698.141797
20824.350268,-3182.885551,229.828649,7254.018232
20824.350591,-1776.494261,306.438199,7698.141797
20824.350915,-1554.432478,842.705048,7476.080014
20824.351238,-1554.432478,383.047749,7772.162391
20824.351562,-592.164754,383.047749,8290.306550
20824.351885,0.000000,383.047749,8808.450710
20824.352208,-740.205942,0.000000,9178.553681
20824.352532,-1406.391290,536.266849,9474.636058
20824.352855,-888.247130,0.000000,9844.739029
20824.353179,-962.267725,306.438199,9844.739029
20824.353502,-370.102971,459.657299,10140.821405
20824.353826,-666.185348,229.828649,9622.677246
20824.354149,-222.061783,153.219100,8808.450710
20824.354473,1184.329507,229.828649,8364.327145
20824.354796,1998.556043,0.000000,7994.224174
20824.355119,2368.659014,76.609550,8438.347739
20824.355443,3256.906145,-689.485948,8956.491898
20824.355766,3552.988522,-995.924147,9030.512492
20824.356090,4071.132681,-1915.238745,9474.636058
20824.356413,4589.276840,-2374.896044,10214.842000
20824.356737,4589.276840,-2987.772442,10436.903782
20824.357060,4367.215058,-3064.381992,9844.739029
20824.357383,5477.523971,-2987.772442,10584.944971
20824.357707,5033.400406,-2911.162892,10584.944971
20824.358030,4219.173869,-2298.286494,9844.739029
20824.358354,3701.029710,-1762.019645,9474.636058
20824.358677,3478.967927,-1455.581446,9326.594869
20824.359001,2146.597232,-995.924147,9696.697840
20824.359324,518.144159,-919.314598,9474.636058
20824.359648,0.000000,-612.876398,10214.842000
20824.359971,-1406.391290,-1225.752797,10140.821405
20824.360294,-2960.823768,-612.876398,9844.739029
20824.360618,-4071.132681,-842.705048,10140.821405
20824.360941,-5329.482782,-919.314598,10066.800811
20824.361265,-5625.565159,-1302.362347,9622.677246
20824.361588,-5255.462188,-459.657299,9474.636058
20824.361912,-5477.523971,-766.095498,9252.574275
20824.362235,-6365.771101,-1378.971896,8216.285956
20824.362558,-5181.441594,0.000000,7550.100608
20824.362882,-3849.070898,383.047749,7698.141797
20824.363205,-3552.988522,842.705048,7254.018232
20824.363529,-2886.803174,919.314598,7031.956449
20824.363852,-1628.453072,995.924147,7105.977043
20824.364176,-814.226536,1072.533697,7179.997637
20824.364499,-1184.329507,1225.752797,7476.080014
20824.364823,-740.205942,459.657299,8142.265362
20824.365146,-1480.411884,-76.609550,8142.265362
20824.365469,-1036.288319,-153.219100,9104.533087
20824.365793,-1406.391290,0.000000,9474.636058
20824.366116,-2294.638420,-229.828649,9992.780217
20824.366440,-1850.514855,0.000000,10436.903782
20824.366763,-296.082377,612.876398,10288.862594
20824.367087,962.267725,459.657299,9992.780217
20824.367410,888.247130,536.266849,9696.697840
20824.367733,2442.679609,766.095498,9474.636058
20824.368057,3775.050304,995.924147,9178.553681
20824.368380,4145.153275,689.485948,8956.491898
20824.368704,3775.050304,-153.219100,8808.450710
20824.369027,3552.988522,-689.485948,9400.615463
20824.369351,3775.050304,-1915.238745,9474.636058
20824.369674,3256.906145,-2604.724693,9992.780217
20824.369997,2886.803174,-3064.381992,10214.842000
20824.370321,2590.720797,-3447.429741,9992.780217
20824.370644,3330.926739,-2911.162892,9770.718434
20824.370968,3775.050304,-2604.724693,9474.636058
20824.371291,3330.926739,-1762.019645,9326.594869
20824.371615,3256.906145,-689.485948,8808.450710
20824.371938,3182.885551,-1149.143247,9104.533087
20824.372262,2368.659014,0.000000,9104.533087
20824.372585,1480.411884,-383.047749,9400.615463
20824.372908,-296.082377,-229.828649,10140.821405
20824.373232,-1480.411884,-919.314598,10362.883188
20824.373555,-2590.720797,-1149.143247,10288.862594
20824.373879,-3849.070898,-1302.362347,10584.944971
20824.374202,-4959.379811,-1532.190996,10214.842000
20824.374526,-5329.482782,-1378.971896,10066.800811
20824.374849,-5033.400406,-1455.581446,9474.636058
20824.375172,-5329.482782,-383.047749,9104.533087
20824.375496,-5181.441594,76.609550,8660.409521
20824.375819,-4515.256246,306.438199,8438.347739
20824.376143,-3182.885551,1225.752797,7772.162391
20824.376466,-2220.617826,1302.362347,7624.121203
20824.376790,-2368.659014,842.705048,7402.059420
20824.377113,-2146.597232,459.657299,6809.894666
20824.377437,-1924.535449,229.828649,7105.977043
20824.377760,-1628.453072,153.219100,7624.121203
20824.378083,-2368.659014,-383.047749,7698.141797
20824.378407,-2368.659014,0.000000,8068.244768
20824.378730,-1776.494261,-995.924147,8808.450710
20824.379054,-1258.350101,-536.266849,9252.574275
20824.379377,-1480.411884,0.000000,10066.800811
20824.379701,-740.205942,383.047749,10362.883188
20824.380024,148.041188,689.485948,10214.842000
20824.380347,1258.350101,919.314598,9474.636058
20824.380671,2294.638420,612.876398,9326.594869
20824.380994,1850.514855,766.095498,9104.533087
20824.381318,2886.803174,842.705048,8660.409521
20824.381641,3404.947333,76.609550,9178.553681
20824.381965,3256.906145,-689.485948,9030.512492
20824.382288,2294.638420,-1455.581446,9178.553681
20824.382612,2516.700203,-2681.334243,9622.677246
20824.382935,3256.906145,-2987.772442,9844.739029
20824.383258,3701.029710,-2451.505594,10140.821405
20824.383582,3552.988522,-2528.115143,9918.759623
20824.383905,3997.112087,-1915.238745,9548.656652
20824.384229,4737.318029,-1455.581446,9548.656652
20824.384552,5181.441594,-766.095498,9548.656652
20824.384876,3997.112087,-229.828649,9252.574275
20824.385199,3108.864956,0.000000,9030.512492
20824.385522,2516.700203,0.000000,8882.471304
20824.385846,888.247130,-766.095498,9622.677246
20824.386169,-1850.514855,-919.314598,9844.739029
20824.386493,-3404.947333,-995.924147,10140.821405
20824.386816,-4071.132681,-1532.190996,10140.821405
20824.387140,-4885.359217,-1685.410096,10214.842000
20824.387463,-5995.668130,-995.924147,10362.883188
20824.387787,-6069.688724,-919.314598,9992.780217
20824.388110,-5773.606348,-766.095498,9104.533087
20824.388433,-4885.359217,0.000000,8734.430116
20824.388757,-4589.276840,536.266849,8364.327145
20824.389080,-4515.256246,76.609550,7920.203579
20824.389404,-3775.050304,229.828649,7402.059420
20824.389727,-2368.659014,459.657299,7698.141797
20824.390051,-2294.638420,1072.533697,8068.244768
20824.390374,-2368.659014,459.657299,7698.141797
20824.390697,-1998.556043,612.876398,6957.935855
20824.391021,-1110.308913,-229.828649,7105.977043
20824.391344,-962.267725,-306.438199,7772.162391
20824.391668,-1480.411884,229.828649,8512.368333
20824.391991,-740.205942,76.609550,8882.471304
20824.392315,-518.144159,459.657299,9622.677246
20824.392638,-592.164754,459.657299,9696.697840
20824.392961,-740.205942,153.219100,9992.780217
20824.393285,-444.123565,536.266849,9844.739029
20824.393608,370.102971,536.266849,9474.636058
20824.393932,1036.288319,459.657299,9474.636058
20824.394255,814.226536,76.609550,8956.491898
20824.394579,1332.370696,153.219100,8882.471304
20824.394902,2516.700203,-306.438199,9178.553681
20824.395226,2368.659014,-1149.143247,9104.533087
20824.395549,2442.679609,-1532.190996,9548.656652
20824.395872,3108.864956,-1608.800546,10066.800811
20824.396196,3701.029710,-2681.334243,10066.800811
20824.396519,4145.153275,-2681.334243,10436.903782
20824.396843,4367.215058,-2451.505594,10288.862594
20824.397166,4589.276840,-2068.457845,9918.759623
20824.397490,4293.194464,-2068.457845,9474.636058
20824.397813,5033.400406,-1762.019645,9474.636058
20824.398136,3997.112087,-1225.752797,9104.533087
20824.398460,2960.823768,-766.095498,9104.533087
20824.398783,2072.576638,-689.485948,9104.533087
20824.399107,1184.329507,-919.314598,9178.553681
20824.399430,-444.123565,-459.657299,9770.718434
20824.399754,-1702.473667,-229.828649,10510.924376
20824.400077,-2960.823768,-766.095498,10362.883188
20824.400401,-3849.070898,-766.095498,9844.739029
20824.400724,-4515.256246,-842.705048,10140.821405
20824.401047,-5477.523971,-766.095498,9918.759623
20824.401371,-5773.606348,-766.095498,9400.615463
20824.401694,-5921.647536,-459.657299,8660.409521
20824.402018,-4811.338623,153.219100,8290.306550
20824.402341,-5477.523971,229.828649,7994.224174
20824.402665,-5107.421000,0.000000,7402.059420
20824.402988,-4219.173869,0.000000,7698.141797
20824.403311,-3256.906145,0.000000,7179.997637
20824.403635,-2664.741391,459.657299,7328.038826
20824.403958,-2146.597232,306.438199,7254.018232
20824.404282,-1406.391290,459.657299,7328.038826
20824.404605,-592.164754,1072.533697,7772.162391
20824.404929,-222.061783,383.047749,8438.347739
20824.405252,-592.164754,-229.828649,9178.553681
20824.405576,-666.185348,0.000000,9104.533087
20824.405899,0.000000,76.609550,9696.697840
20824.406222,0.000000,153.219100,10362.883188
20824.406546,-74.020594,536.266849,9844.739029
20824.406869,592.164754,536.266849,10362.883188
20824.407193,1480.411884,306.438199,9474.636058
20824.407516,2146.597232,919.314598,9030.512492
20824.407840,2368.659014,766.095498,9178.553681
20824.408163,3108.864956,536.266849,8956.491898
20824.408486,3775.050304,76.609550,9252.574275
20824.408810,4367.215058,-229.828649,9326.594869
20824.409133,3182.885551,-995.924147,9326.594869
20824.409457,2812.782580,-1915.238745,8882.471304
20824.409780,3034.844362,-2834.553343,9770.718434
20824.410104,3478.967927,-2681.334243,10140.821405
20824.410427,3034.844362,-2911.162892,9696.697840
20824.410751,2516.700203,-2681.334243,9326.594869
20824.411074,3108.864956,-2451.505594,8956.491898
20824.411397,3478.967927,-1762.019645,9030.512492
20824.411721,3478.967927,-536.266849,9030.512492
20824.412044,2368.659014,-766.095498,9178.553681
20824.412368,1850.514855,-229.828649,9696.697840
20824.412691,814.226536,-766.095498,9992.780217
20824.413015,-962.267725,-536.266849,10510.924376
20824.413338,-2368.659014,-919.314598,11029.068536
20824.413661,-3701.029710,-1532.190996,11325.150913
20824.413985,-4071.132681,-1532.190996,11177.109724
20824.414308,-4959.379811,-1685.410096,10658.965565
20824.414632,-6069.688724,-2145.067394,10066.800811
20824.414955,-6365.771101,-1378.971896,9252.574275
20824.415279,-5773.606348,-612.876398,8586.388927
20824.415602,-5181.441594,-383.047749,8364.327145
20824.415925,-5107.421000,459.657299,7624.121203
20824.416249,-3849.070898,1455.581446,7105.977043
20824.416572,-2516.700203,766.095498,7328.038826
20824.416896,-2368.659014,842.705048,6365.771101
20824.417219,-2294.638420,1072.533697,6735.874072
20824.417543,-1850.514855,689.485948,6661.853478
20824.417866,-1258.350101,459.657299,6957.935855
20824.418190,-1110.308913,459.657299,7254.018232
20824.418513,-1332.370696,0.000000,7920.203579
20824.418836,-2146.597232,459.657299,8512.368333
20824.419160,-1258.350101,153.219100,9326.594869
20824.419483,-814.226536,0.000000,9844.739029
20824.419807,-814.226536,229.828649,10214.842000
20824.420130,-296.082377,612.876398,10214.842000
20824.420454,962.267725,689.485948,9622.677246
20824.420777,2812.782580,1072.533697,9474.636058
20824.421100,2886.803174,842.705048,9474.636058
20824.421424,2960.823768,689.485948,9104.533087
20824.421747,3404.947333,-536.266849,9326.594869
20824.422071,3849.070898,-612.876398,9844.739029
20824.422394,3404.947333,-1302.362347,10066.800811
20824.422718,3256.906145,-2451.505594,9992.780217
20824.423041,3552.988522,-2681.334243,10436.903782
20824.423365,4515.256246,-2528.115143,9770.718434
20824.423688,4737.318029,-2298.286494,9844.739029
20824.424011,4959.379811,-1838.629195,9696.697840
20824.424335,4737.318029,-1225.752797,9400.615463
20824.424658,5329.482782,-459.657299,9252.574275
20824.424982,4737.318029,-306.438199,8882.471304
20824.425305,3182.885551,-459.657299,8882.471304
20824.425629,1628.453072,-459.657299,8586.388927
20824.425952,-222.061783,-459.657299,8956.491898
20824.426275,-1998.556043,-1072.533697,9252.574275
20824.426599,-4145.153275,-1378.971896,10140.821405
20824.426922,-5477.523971,-1991.848295,10066.800811
20824.427246,-6809.894666,-2451.505594,9992.780217
20824.427569,-7031.956449,-1838.629195,9918.759623
20824.427893,-7328.038826,-1302.362347,9918.759623
20824.428216,-7179.997637,-1149.143247,9104.533087
20824.428540,-6513.812290,-612.876398,8808.450710
20824.428863,-5255.462188,-306.438199,8438.347739
20824.429186,-4737.318029,153.219100,8068.244768
20824.429510,-3997.112087,153.219100,8142.265362
20824.429833,-2812.782580,229.828649,7994.224174
20824.430157,-2146.597232,459.657299,7550.100608
20824.430480,-1110.308913,0.000000,7031.956449
20824.430804,-888.247130,153.219100,7328.038826
20824.431127,-666.185348,459.657299,7846.182985
20824.431450,0.000000,0.000000,8364.327145
20824.431774,74.020594,153.219100,8734.430116
20824.432097,-592.164754,383.047749,9326.594869
20824.432421,-518.144159,689.485948,9474.636058
20824.432744,-370.102971,1072.533697,9474.636058
20824.433068,-666.185348,919.314598,9992.780217
20824.433391,-592.164754,919.314598,9474.636058
20824.433715,-296.082377,689.485948,9178.553681
20824.434038,0.000000,76.609550,8364.327145
20824.434361,518.144159,0.000000,8364.327145
20824.434685,592.164754,383.047749,8364.327145
20824.435008,962.267725,-1072.533697,8290.306550
20824.435332,1998.556043,-1608.800546,8660.409521
20824.435655,2738.761985,-1685.410096,9178.553681
20824.435979,2812.782580,-2221.676944,9474.636058
20824.436302,3627.009116,-2681.334243,9992.780217
20824.436625,4959.379811,-2298.286494,10362.883188
20824.436949,6069.688724,-2068.457845,10140.821405
20824.437272,5921.647536,-1685.410096,10288.862594
20824.437596,6439.791695,-842.705048,10140.821405
20824.437919,6661.853478,-306.438199,10066.800811
20824.438243,5995.668130,-612.876398,9844.739029
20824.438566,4885.359217,-383.047749,9844.739029
20824.438890,2590.720797,76.609550,9474.636058
20824.439213,888.247130,-459.657299,9474.636058
20824.439536,-518.144159,-1149.143247,9326.594869
20824.439860,-2294.638420,-1149.143247,9770.718434
20824.440183,-3701.029710,-612.876398,10436.903782
20824.440507,-5477.523971,-1072.533697,9844.739029
20824.440830,-5699.585753,-995.924147,9918.759623
20824.441154,-6069.688724,-1072.533697,9474.636058
20824.441477,-7031.956449,-612.876398,9252.574275
20824.441800,-6735.874072,-612.876398,8808.450710
20824.442124,-6365.771101,-689.485948,8142.265362
20824.442447,-5699.585753,-229.828649,7402.059420
20824.442771,-5699.585753,-459.657299,6957.935855
20824.443094,-5699.585753,0.000000,7105.977043
20824.443418,-4071.132681,0.000000,7105.977043
20824.443741,-2664.741391,76.609550,7105.977043
20824.444065,-2146.597232,459.657299,7328.038826
20824.444388,-1702.473667,383.047749,7698.141797
20824.444712,-666.185348,536.266849,7772.162391
20824.445035,0.000000,-153.219100,8438.347739
20824.445359,74.020594,459.657299,9696.697840
20824.445682,-518.144159,689.485948,9918.759623
20824.446005,-222.061783,76.609550,10214.842000
20824.446329,74.020594,229.828649,10510.924376
20824.446652,444.123565,766.095498,10436.903782
20824.446976,-296.082377,383.047749,10140.821405
20824.447299,592.164754,306.438199,9178.553681
20824.447623,1406.391290,306.438199,8882.471304
20824.447946,1850.514855,383.047749,8808.450710
20824.448270,2146.597232,0.000000,8808.450710
20824.448593,2664.741391,-229.828649,9030.512492
20824.448917,3478.967927,-842.705048,9400.615463
20824.449240,3701.029710,-1225.752797,9474.636058
20824.449563,3627.009116,-2221.676944,9918.759623
20824.449887,3330.926739,-2298.286494,9696.697840
20824.450210,4441.235652,-2374.896044,9770.718434
20824.450534,4663.297435,-2298.286494,9548.656652
20824.450857,3997.112087,-1762.019645,9400.615463
20824.451181,3552.988522,-1225.752797,8734.430116
20824.451504,4367.215058,-1762.019645,8586.388927
20824.451828,3552.988522,-459.657299,9178.553681
20824.452151,2294.638420,-229.828649,8956.491898
20824.452475,1184.329507,-229.828649,9548.656652
20824.452798,296.082377,-536.266849,9992.780217
20824.453122,-740.205942,-459.657299,10658.965565
20824.453445,-2072.576638,-459.657299,10732.986159
20824.453768,-3627.009116,-536.266849,10510.924376
20824.454092,-4293.194464,-383.047749,10140.821405
20824.454415,-4515.256246,-689.485948,10288.862594
20824.454739,-5107.421000,-995.924147,9326.594869
20824.455062,-6217.729913,-766.095498,8734.430116
20824.455386,-5921.647536,-612.876398,8290.306550
20824.455709,-4737.318029,-766.095498,7846.182985
20824.456033,-4367.215058,0.000000,7624.121203
20824.456356,-4367.215058,0.000000,7328.038826
20824.456680,-3627.009116,0.000000,6957.935855
20824.457003,-2220.617826,76.609550,7254.018232
20824.457326,-1628.453072,229.828649,7328.038826
20824.457650,-1628.453072,0.000000,7772.162391
20824.457973,-1628.453072,-229.828649,7550.100608
20824.458297,-1628.453072,-306.438199,7920.203579
20824.458620,-1332.370696,-612.876398,8438.347739
20824.458944,-1628.453072,-536.266849,9400.615463
20824.459267,-1406.391290,-306.438199,10140.821405
20824.459591,-962.267725,-383.047749,9992.780217
20824.459914,-518.144159,153.219100,9992.780217
20824.460238,222.061783,229.828649,10066.800811
20824.460561,1036.288319,0.000000,9918.759623
20824.460885,1776.494261,842.705048,9030.512492
20824.461208,2812.782580,612.876398,9252.574275
20824.461531,2590.720797,0.000000,9104.533087
20824.461855,3182.885551,-612.876398,9548.656652
20824.462178,3034.844362,-1532.190996,9474.636058
20824.462502,3108.864956,-2451.505594,9474.636058
20824.462825,3256.906145,-2834.553343,9696.697840
20824.463149,3256.906145,-2834.553343,9696.697840
20824.463472,3330.926739,-2987.772442,9474.636058
20824.463796,4367.215058,-1991.848295,9474.636058
20824.464119,4515.256246,-1838.629195,9104.533087
20824.464443,4145.153275,-1149.143247,9030.512492
20824.464766,4071.132681,-383.047749,9030.512492
20824.465089,4145.153275,0.000000,8808.450710
20824.465413,3552.988522,229.828649,9326.594869
20824.465736,1628.453072,306.438199,9844.739029
20824.466060,-296.082377,-459.657299,9548.656652
20824.466383,-1776.494261,-536.266849,9992.780217
20824.466707,-2738.761985,-842.705048,10066.800811
20824.467030,-4145.153275,-842.705048,10807.006753
20824.467354,-5551.544565,-1072.533697,10066.800811
20824.467677,-5255.462188,-842.705048,9474.636058
20824.468001,-4737.318029,-459.657299,9252.574275
20824.468324,-5255.462188,229.828649,8364.327145
20824.468648,-5551.544565,306.438199,8956.491898
20824.468971,-4515.256246,536.266849,8364.327145
20824.469294,-3108.864956,536.266849,7994.224174
20824.469618,-2738.761985,459.657299,8068.244768
20824.469941,-3182.885551,459.657299,7920.203579
20824.470265,-2738.761985,229.828649,6957.935855
20824.470588,-1702.473667,0.000000,7254.018232
20824.470912,-1480.411884,76.609550,7920.203579
20824.471235,-1998.556043,-153.219100,8142.265362
20824.471559,-2220.617826,-536.266849,8142.265362
20824.471882,-1628.453072,-383.047749,8512.368333
20824.472206,-1554.432478,0.000000,8956.491898
20824.472529,-1406.391290,306.438199,9696.697840
20824.472852,-518.144159,842.705048,9696.697840
20824.473176,0.000000,766.095498,9696.697840
20824.473499,962.267725,1225.752797,9770.718434
20824.473823,1184.329507,1302.362347,9474.636058
20824.474146,1406.391290,995.924147,9104.533087
20824.474470,2368.659014,383.047749,8882.471304
20824.474793,2812.782580,76.609550,8956.491898
20824.475117,2294.638420,-536.266849,8882.471304
20824.475440,1998.556043,-1149.143247,9252.574275
20824.475764,2368.659014,-2451.505594,9474.636058
20824.476087,2886.803174,-2757.943793,9474.636058
20824.476411,3034.844362,-3064.381992,9770.718434
20824.476734,3330.926739,-2604.724693,9992.780217
20824.477057,4071.132681,-2681.334243,9844.739029
20824.477381,4737.318029,-2374.896044,9696.697840
20824.477704,4441.235652,-2068.457845,9474.636058
20824.478028,4071.132681,-1149.143247,9474.636058
20824.478351,3701.029710,-1149.143247,9548.656652
20824.478675,3256.906145,-919.314598,9770.718434
20824.478998,1628.453072,-689.485948,9844.739029
20824.479322,-444.123565,-1072.533697,9696.697840
20824.479645,-1702.473667,-1455.581446,10214.842000
20824.479969,-2516.700203,-1225.752797,10510.924376
20824.480292,-3552.988522,-1072.533697,10510.924376
20824.480615,-4663.297435,-766.095498,10288.862594
20824.480939,-5329.482782,-536.266849,9992.780217
20824.481262,-4959.379811,-229.828649,9474.636058
20824.481586,-4885.359217,0.000000,9030.512492
20824.481909,-5329.482782,306.438199,8808.450710
20824.482233,-5921.647536,0.000000,6957.935855
20824.482556,-4737.318029,536.266849,7328.038826
20824.482880,-3701.029710,-459.657299,7698.141797
20824.483203,-4515.256246,536.266849,7476.080014
20824.483527,-4071.132681,0.000000,6957.935855
20824.483850,-3034.844362,-306.438199,6513.812290
20824.484174,-2368.659014,0.000000,7031.956449
20824.484497,-1924.535449,0.000000,7846.182985
20824.484820,-1332.370696,0.000000,7772.162391
20824.485144,-296.082377,0.000000,8882.471304
20824.485467,0.000000,536.266849,9548.656652
20824.485791,-222.061783,842.705048,9844.739029
20824.486114,0.000000,689.485948,10436.903782
20824.486438,0.000000,612.876398,9918.759623
20824.486761,1110.308913,1149.143247,9770.718434
20824.487085,1554.432478,612.876398,9696.697840
20824.487408,1406.391290,612.876398,9474.636058
20824.487732,1776.494261,306.438199,9104.533087
20824.488055,2516.700203,0.000000,8512.368333
20824.488378,2960.823768,0.000000,8956.491898
20824.488702,3182.885551,-612.876398,9548.656652
20824.489025,3034.844362,-1225.752797,9474.636058
20824.489349,3627.009116,-2451.505594,9474.636058
20824.489672,3330.926739,-1915.238745,9252.574275
20824.489996,3775.050304,-2145.067394,9918.759623
20824.490319,3849.070898,-2374.896044,9622.677246
20824.490643,4145.153275,-2298.286494,8956.491898
20824.490966,4441.235652,-2068.457845,9252.574275
20824.491290,3923.091493,-1378.971896,8882.471304
20824.491613,2442.679609,-1685.410096,8068.244768
20824.491937,1998.556043,-919.314598,8660.409521
20824.492260,1480.411884,-1225.752797,9252.574275
20824.492583,444.123565,-766.095498,9844.739029
20824.492907,-888.247130,-612.876398,10362.883188
20824.493230,-1924.535449,-919.314598,10732.986159
20824.493554,-2516.700203,-842.705048,10732.986159
20824.493877,-3478.967927,-842.705048,10732.986159
20824.494201,-4737.318029,-1302.362347,10584.944971
20824.494524,-5033.400406,-919.314598,10214.842000
20824.494848,-5255.462188,-919.314598,9474.636058
20824.495171,-5625.565159,-919.314598,8956.491898
20824.495495,-6217.729913,-919.314598,8216.285956
20824.495818,-5625.565159,-766.095498,7846.182985
20824.496141,-4885.359217,76.609550,7476.080014
20824.496465,-3627.009116,612.876398,7179.997637
20824.496788,-2960.823768,459.657299,7476.080014
20824.497112,-2516.700203,153.219100,7105.977043
20824.497435,-1258.350101,229.828649,7254.018232
20824.497759,-1258.350101,459.657299,7772.162391
20824.498082,-1184.329507,76.609550,7994.224174
20824.498406,-1628.453072,0.000000,8734.430116
20824.498729,-1184.329507,229.828649,8734.430116
20824.499053,-592.164754,0.000000,9400.615463
