#time,accel_x,accel_y,accel_z
416.108502,2886.803174,459.657299,9474.636058
416.108828,4367.215058,1302.362347,9918.759623
416.109154,4959.379811,1302.362347,10140.821405
416.109479,3627.009116,1455.581446,9548.656652
416.109805,3923.091493,919.314598,9030.512492
416.110131,5847.626942,1072.533697,8808.450710
416.110456,4737.318029,2145.067394,8142.265362
416.110782,3478.967927,1838.629195,7994.224174
416.111108,3330.926739,1608.800546,7402.059420
416.111433,3478.967927,3064.381992,7550.100608
416.111759,3404.947333,3140.991542,7624.121203
416.112085,3034.844362,2451.505594,7846.182985
416.112410,1998.556043,3600.648841,8660.409521
416.112736,2664.741391,3907.087040,8808.450710
416.113062,2590.720797,2757.943793,9770.718434
416.113387,740.205942,2528.115143,10436.903782
416.113713,-222.061783,2987.772442,10732.986159
416.114038,-222.061783,2451.505594,10955.047942
416.114364,-222.061783,2068.457845,11177.109724
416.114690,-1554.432478,1915.238745,11695.253884
416.115015,-518.144159,2451.505594,10510.924376
416.115341,222.061783,3753.867940,10140.821405
416.115667,1332.370696,4213.525239,9844.739029
416.115992,1776.494261,4903.011187,9622.677246
416.116318,2368.659014,5209.449386,9252.574275
416.116644,3182.885551,5898.935335,8364.327145
416.116969,4959.379811,5669.106685,8438.347739
416.117295,4367.215058,7124.688131,8068.244768
416.117621,2960.823768,6358.592633,7846.182985
416.117946,3478.967927,5975.544884,7772.162391
416.118272,4219.173869,5822.325785,7772.162391
416.118598,3256.906145,5822.325785,8364.327145
416.118923,2368.659014,5056.230287,7772.162391
416.119249,2516.700203,5745.716235,7624.121203
416.119575,3404.947333,5439.278036,7698.141797
416.119900,3478.967927,5515.887586,8364.327145
416.120226,2442.679609,4979.620737,8512.368333
416.120551,2516.700203,4596.572988,8364.327145
416.120877,3330.926739,4290.134789,9030.512492
416.121203,3330.926739,3140.991542,9474.636058
416.121528,1702.473667,3370.820191,10140.821405
416.121854,888.247130,1838.629195,10436.903782
416.122180,1702.473667,919.314598,9918.759623
416.122505,1184.329507,1149.143247,10584.944971
416.122831,370.102971,1225.752797,10362.883188
416.123157,518.144159,612.876398,9696.697840
416.123482,1776.494261,1072.533697,9400.615463
416.123808,2072.576638,1608.800546,10140.821405
416.124134,2442.679609,842.705048,10362.883188
416.124459,1998.556043,995.924147,9992.780217
416.124785,2738.761985,766.095498,9622.677246
416.125111,3034.844362,842.705048,10584.944971
416.125436,2442.679609,612.876398,11177.109724
416.125762,1110.308913,0.000000,11103.089130
416.126088,1924.535449,-919.314598,10584.944971
416.126413,2368.659014,-536.266849,10436.903782
416.126739,1406.391290,76.609550,9918.759623
416.127064,1184.329507,229.828649,8438.347739
416.127390,2294.638420,689.485948,7550.100608
416.127716,3034.844362,2068.457845,6957.935855
416.128041,3478.967927,2834.553343,6217.729913
416.128367,3775.050304,2911.162892,6291.750507
416.128693,4515.256246,4290.134789,5921.647536
416.129018,5107.421000,4673.182538,7105.977043
416.129344,4515.256246,3677.258390,8660.409521
416.129670,2812.782580,2987.772442,9622.677246
416.129995,1628.453072,1608.800546,10955.047942
416.130321,1184.329507,306.438199,12509.480420
416.130647,-518.144159,-383.047749,14285.974681
416.130972,-2220.617826,-1302.362347,14359.995275
416.131298,-2516.700203,-1378.971896,13693.809927
416.131624,-814.226536,-766.095498,12435.459826
416.131949,1258.350101,2068.457845,10881.027347
416.132275,2442.679609,4903.011187,8438.347739
416.132600,4515.256246,7201.297681,5625.565159
416.132925,7402.059420,8503.660028,4219.173869
416.133251,8216.285956,10035.851024,3775.050304
416.133576,5995.668130,9729.412825,3701.029710
416.133901,4145.153275,8044.002729,5181.441594
416.134227,1998.556043,6435.202183,7328.038826
416.134552,-1184.329507,3677.258390,10510.924376
416.134877,-4885.359217,229.828649,11991.336260
416.135202,-6143.709319,-2298.286494,11769.274478
416.135528,-5329.482782,-1225.752797,12435.459826
416.135853,-2886.803174,76.609550,13101.645173
416.136178,-666.185348,1838.629195,12731.542202
416.136504,2812.782580,3677.258390,10214.842000
416.136829,6735.874072,6435.202183,7105.977043
416.137154,9030.512492,8503.660028,5995.668130
416.137479,9104.533087,8886.707777,4811.338623
416.137805,7254.018232,7967.393179,4293.194464
416.138130,6735.874072,6128.763984,5625.565159
416.138455,5181.441594,5056.230287,7179.997637
416.138780,1406.391290,3140.991542,8290.306550
416.139106,-1258.350101,1532.190996,9030.512492
416.139431,-2664.741391,0.000000,9326.594869
416.139756,-3627.009116,-1072.533697,10140.821405
416.140082,-3997.112087,-2221.676944,11177.109724
416.140407,-4811.338623,-2145.067394,11399.171507
416.140732,-3701.029710,-2528.115143,11473.192101
416.141057,-1258.350101,-2604.724693,12287.418637
416.141383,592.164754,-919.314598,13619.789333
416.141708,1258.350101,383.047749,12805.562797
416.142033,2960.823768,-766.095498,11029.068536
416.142359,4145.153275,0.000000,10066.800811
416.142684,3775.050304,1302.362347,10584.944971
416.143009,2368.659014,76.609550,8882.471304
416.143334,2294.638420,-1608.800546,7179.997637
416.143660,2072.576638,-689.485948,7254.018232
416.143985,1480.411884,1072.533697,7846.182985
416.144310,1406.391290,612.876398,7772.162391
416.144635,1110.308913,536.266849,5403.503377
416.144961,444.123565,459.657299,5107.421000
416.145286,-962.267725,229.828649,6809.894666
416.145611,-2516.700203,306.438199,7846.182985
416.145937,-3404.947333,-919.314598,9104.533087
416.146262,-3627.009116,-2681.334243,11177.109724
416.146587,-4145.153275,-3370.820191,12435.459826
416.146912,-4293.194464,-3217.601092,13471.748144
416.147238,-2220.617826,-3907.087040,13101.645173
416.147563,-1406.391290,-3447.429741,13175.665768
416.147888,-1480.411884,-2681.334243,12879.583391
416.148214,518.144159,-1149.143247,11251.130318
416.148539,3108.864956,459.657299,9918.759623
416.148864,4145.153275,2604.724693,7846.182985
416.149189,5033.400406,3983.696590,7254.018232
416.149515,5403.503377,4136.915689,5847.626942
416.149840,5033.400406,4979.620737,5107.421000
416.150165,3108.864956,4903.011187,4885.359217
416.150490,814.226536,4136.915689,5847.626942
416.150816,-1998.556043,2911.162892,7402.059420
416.151141,-4145.153275,1072.533697,8364.327145
416.151466,-5551.544565,-1762.019645,9474.636058
416.151792,-6809.894666,-2221.676944,11843.295072
416.152117,-6735.874072,-1762.019645,12805.562797
416.152442,-5551.544565,-2221.676944,13767.830521
416.152767,-4515.256246,-2834.553343,13397.727550
416.153093,-2368.659014,-1762.019645,11399.171507
416.153418,1036.288319,1608.800546,9252.574275
416.153743,3923.091493,4290.134789,9104.533087
416.154069,4885.359217,4673.182538,7179.997637
416.154394,6957.935855,5362.668486,5477.523971
416.154719,8882.471304,6358.592633,4219.173869
416.155044,7105.977043,7431.126331,3330.926739
416.155370,4737.318029,6435.202183,4367.215058
416.155695,3256.906145,4213.525239,6291.750507
416.156020,444.123565,1762.019645,8142.265362
416.156346,-3256.906145,-689.485948,11473.192101
416.156671,-5921.647536,-1915.238745,13101.645173
416.156996,-6587.832884,-3217.601092,14211.954086
416.157321,-5181.441594,-4979.620737,15174.221811
416.157647,-5551.544565,-5362.668486,15766.386565
416.157972,-6587.832884,-4749.792088,14211.954086
416.158297,-3108.864956,-2987.772442,12139.377449
416.158622,1554.432478,-1378.971896,9992.780217
416.158948,3034.844362,1991.848295,9252.574275
416.159273,4515.256246,3830.477490,6735.874072
416.159598,7550.100608,4519.963438,3256.906145
416.159924,9030.512492,6052.154434,1036.288319
416.160249,7772.162391,7048.078582,2146.597232
416.160574,5847.626942,5362.668486,2738.761985
416.160899,2738.761985,3370.820191,5033.400406
416.161225,518.144159,612.876398,8438.347739
416.161550,-3404.947333,-2221.676944,12065.356855
416.161875,-7402.059420,-3524.039291,13693.809927
416.162201,-7772.162391,-5286.058936,13693.809927
416.162526,-6661.853478,-7277.907231,14656.077652
416.162851,-7550.100608,-7737.564530,15248.242405
416.163176,-7105.977043,-8120.612279,14656.077652
416.163502,-3478.967927,-4596.572988,13989.892304
416.163827,-74.020594,-306.438199,11621.233289
416.164152,2072.576638,1762.019645,9918.759623
416.164477,5255.462188,2604.724693,5995.668130
416.164803,9474.636058,5822.325785,2886.803174
416.165128,9918.759623,7890.783629,1332.370696
416.165453,7550.100608,7277.907231,2368.659014
416.165779,4959.379811,5515.887586,3923.091493
416.166104,2294.638420,3294.210641,7624.121203
416.166429,-962.267725,-229.828649,10362.883188
416.166754,-5403.503377,-2604.724693,12139.377449
416.167080,-8512.368333,-5132.839837,13323.706956
416.167405,-9030.512492,-5745.716235,13471.748144
416.167730,-7846.182985,-7277.907231,14508.036463
416.168056,-8660.409521,-7814.174080,15396.283594
416.168381,-7846.182985,-5745.716235,14434.015869
416.168706,-3108.864956,-2298.286494,12139.377449
416.169031,1998.556043,1302.362347,10807.006753
416.169357,4959.379811,4213.525239,8142.265362
416.169682,6883.915261,6128.763984,3627.009116
416.170007,8808.450710,7584.345430,888.247130
416.170332,10658.965565,7431.126331,-370.102971
416.170658,7476.080014,8580.269578,1554.432478
416.170983,3923.091493,6665.030833,3775.050304
416.171308,888.247130,2681.334243,7994.224174
416.171634,-2442.679609,-689.485948,10881.027347
416.171959,-5773.606348,-2221.676944,13101.645173
416.172284,-7402.059420,-4290.134789,14952.160028
416.172609,-9104.533087,-5439.278036,14878.139434
416.172935,-8882.471304,-6281.983084,16062.468941
416.173260,-6957.935855,-7124.688131,16802.674883
416.173585,-3478.967927,-4213.525239,15322.262999
416.173911,-592.164754,612.876398,12731.542202
416.174236,2368.659014,2987.772442,9622.677246
416.174561,6809.894666,4136.915689,5921.647536
416.174886,9992.780217,7737.564530,2812.782580
416.175212,10510.924376,9499.584175,-148.041188
416.175537,9696.697840,8963.317327,-1480.411884
416.175862,7328.038826,9039.926876,1036.288319
416.176188,4737.318029,7354.516781,4515.256246
416.176513,1480.411884,1915.238745,8586.388927
416.176838,-3034.844362,-1455.581446,11621.233289
416.177163,-6661.853478,-1762.019645,12509.480420
416.177489,-7031.956449,-4213.525239,14730.098246
416.177814,-6883.915261,-6435.202183,15692.365970
416.178139,-8512.368333,-7048.078582,16950.716072
416.178464,-7550.100608,-6741.640382,16284.530724
416.178790,-3182.885551,-5286.058936,15174.221811
416.179115,296.082377,-995.924147,13989.892304
416.179440,3256.906145,2451.505594,9844.739029
416.179766,6291.750507,4060.306139,5995.668130
416.180091,9400.615463,6665.030833,2368.659014
416.180416,10732.986159,9193.145976,296.082377
416.180741,9696.697840,8197.221829,-74.020594
416.181067,6809.894666,6588.421283,1554.432478
416.181392,3923.091493,4673.182538,6069.688724
416.181717,-370.102971,612.876398,9474.636058
416.182043,-5181.441594,-2528.115143,12731.542202
416.182368,-7994.224174,-4366.744339,13471.748144
416.182693,-9104.533087,-5975.544884,14211.954086
416.183018,-10881.027347,-8197.221829,15396.283594
416.183344,-11621.233289,-9422.974625,14582.057057
416.183669,-7402.059420,-8733.488677,14063.912898
416.183994,-3256.906145,-4519.963438,15618.345376
416.184319,-3034.844362,1225.752797,12065.356855
416.184645,1554.432478,2374.896044,7846.182985
416.184970,9696.697840,3753.867940,4811.338623
416.185295,11251.130318,8580.269578,2664.741391
416.185621,7772.162391,9499.584175,-962.267725
416.185946,7698.141797,7048.078582,592.164754
416.186271,8660.409521,7201.297681,3849.070898
416.186596,2738.761985,4979.620737,7254.018232
416.186922,-2368.659014,-153.219100,11251.130318
416.187247,-4737.318029,-3600.648841,11473.192101
416.187572,-5995.668130,-3370.820191,14211.954086
416.187898,-6735.874072,-5132.839837,15248.242405
416.188223,-9252.574275,-6435.202183,16506.592507
416.188548,-7994.224174,-7967.393179,16210.510130
416.188873,-5477.523971,-5745.716235,14730.098246
416.189199,-1406.391290,-2298.286494,15396.283594
416.189524,2072.576638,1762.019645,13619.789333
416.189849,5181.441594,4213.525239,8142.265362
416.190174,8882.471304,5745.716235,4145.153275
416.190500,11769.274478,7660.954980,888.247130
416.190825,10066.800811,9193.145976,-518.144159
416.191150,7846.182985,9652.803275,-444.123565
416.191476,5329.482782,7048.078582,2516.700203
416.191801,1036.288319,3294.210641,6069.688724
416.192126,-2220.617826,1225.752797,10214.842000
416.192451,-4737.318029,-1378.971896,12509.480420
416.192777,-8290.306550,-3753.867940,12657.521608
416.193102,-10807.006753,-6128.763984,13841.851115
416.193427,-9474.636058,-7737.564530,16580.613101
416.193753,-6735.874072,-7660.954980,17246.798449
416.194078,-4885.359217,-3524.039291,16728.654289
416.194403,-2812.782580,-995.924147,14063.912898
416.194728,2072.576638,995.924147,11325.150913
416.195054,8734.430116,5439.278036,7105.977043
416.195379,10140.821405,8656.879127,3701.029710
416.195704,9992.780217,8427.050478,444.123565
416.196030,10066.800811,9039.926876,-888.247130
416.196355,10214.842000,10495.508323,1480.411884
416.196680,5625.565159,7201.297681,4737.318029
416.197005,-1110.308913,2298.286494,7624.121203
416.197331,-4589.276840,-383.047749,10140.821405
416.197656,-5847.626942,-2451.505594,12879.583391
416.197981,-8956.491898,-4979.620737,15248.242405
416.198306,-11695.253884,-7584.345430,15914.427753
416.198632,-11991.336260,-9346.365076,15248.242405
416.198957,-8142.265362,-9269.755526,15544.324782
416.199282,-5033.400406,-5362.668486,16062.468941
416.199608,-962.267725,0.000000,13323.706956
416.199933,3256.906145,1838.629195,8216.285956
416.200258,6587.832884,5515.887586,4737.318029
416.200583,9548.656652,7431.126331,2146.597232
416.200909,11843.295072,7431.126331,222.061783
416.201234,10288.862594,8580.269578,-1850.514855
416.201559,6439.791695,8273.831378,3330.926739
416.201885,3330.926739,4596.572988,7105.977043
416.202210,-444.123565,306.438199,10362.883188
416.202535,-4293.194464,-2451.505594,12583.501014
416.202860,-7624.121203,-5286.058936,13397.727550
416.203186,-11029.068536,-7660.954980,14508.036463
416.203511,-11473.192101,-8350.440928,16062.468941
416.203836,-8586.388927,-10418.898773,17320.819043
416.204161,-6439.791695,-8503.660028,17394.839637
416.204487,-4219.173869,-4060.306139,14434.015869
416.204812,296.082377,1455.581446,9178.553681
416.205137,7328.038826,4366.744339,7105.977043
416.205463,11843.295072,7814.174080,5255.462188
416.205788,9918.759623,8503.660028,888.247130
416.206113,9548.656652,7354.516781,-1036.288319
416.206438,10955.047942,8427.050478,296.082377
416.206764,6143.709319,8427.050478,3849.070898
416.207089,74.020594,3064.381992,7328.038826
416.207414,-3404.947333,-1838.629195,9474.636058
416.207740,-6143.709319,-3294.210641,12213.398043
416.208065,-9030.512492,-4903.011187,14656.077652
416.208390,-11473.192101,-7507.735880,14508.036463
416.208715,-12879.583391,-9806.022374,15100.201217
416.209041,-9178.553681,-9269.755526,15914.427753
416.209366,-4885.359217,-3983.696590,17172.777854
416.209691,74.020594,-153.219100,14582.057057
416.210016,3404.947333,3217.601092,9030.512492
416.210342,7698.141797,6511.811733,4441.235652
416.210667,11177.109724,9039.926876,1776.494261
416.210992,12065.356855,9269.755526,740.205942
416.211318,11695.253884,9269.755526,222.061783
416.211643,8882.471304,8810.098227,3108.864956
416.211968,3256.906145,5592.497135,5995.668130
416.212293,-222.061783,1302.362347,8734.430116
416.212619,-2738.761985,-1532.190996,11917.315666
416.212944,-7031.956449,-3600.648841,14359.995275
416.213269,-11695.253884,-5132.839837,14656.077652
416.213595,-11103.089130,-7124.688131,15988.448347
416.213920,-7994.224174,-9346.365076,16284.530724
416.214245,-6883.915261,-5822.325785,15396.283594
416.214570,-5551.544565,-1225.752797,12213.398043
416.214896,0.000000,1072.533697,10584.944971
416.215221,5255.462188,3370.820191,7402.059420
416.215546,7920.203579,6665.030833,3404.947333
416.215872,7994.224174,6665.030833,592.164754
416.216197,8142.265362,7431.126331,-1406.391290
416.216522,8808.450710,8733.488677,1628.453072
416.216847,7550.100608,6281.983084,5329.482782
416.217173,1776.494261,2145.067394,8438.347739
416.217498,-3404.947333,0.000000,11325.150913
416.217823,-4515.256246,-2528.115143,11991.336260
416.218148,-5847.626942,-6052.154434,14285.974681
416.218474,-9474.636058,-8044.002729,16210.510130
416.218799,-10066.800811,-9039.926876,15988.448347
416.219124,-7698.141797,-8963.317327,15618.345376
416.219450,-4885.359217,-6818.249932,17098.757260
416.219775,-1776.494261,-1532.190996,14285.974681
416.220100,1702.473667,842.705048,10214.842000
416.220425,5921.647536,3983.696590,5181.441594
416.220751,9622.677246,6894.859482,2812.782580
416.221076,11029.068536,7890.783629,3034.844362
416.221401,10214.842000,7967.393179,-370.102971
416.221727,6291.750507,6818.249932,1332.370696
416.222052,3404.947333,3830.477490,5403.503377
416.222377,888.247130,1455.581446,8438.347739
416.222702,-3627.009116,-995.924147,11103.089130
416.223028,-5921.647536,-4213.525239,13323.706956
416.223353,-8438.347739,-6818.249932,13101.645173
416.223678,-11325.150913,-7584.345430,14211.954086
416.224003,-9178.553681,-9652.803275,14434.015869
416.224329,-6217.729913,-7660.954980,15766.386565
416.224654,-4663.297435,-2221.676944,14656.077652
416.224979,-296.082377,766.095498,12139.377449
416.225305,5477.523971,2757.943793,8142.265362
416.225630,8808.450710,6894.859482,4737.318029
416.225955,9770.718434,8427.050478,1998.556043
416.226280,8734.430116,7277.907231,666.185348
416.226606,9326.594869,7431.126331,2294.638420
416.226931,7328.038826,7660.954980,5477.523971
416.227256,1332.370696,3753.867940,7846.182985
416.227582,-2738.761985,0.000000,9918.759623
416.227907,-4293.194464,-2145.067394,12879.583391
416.228232,-6883.915261,-4060.306139,15840.407159
416.228557,-9178.553681,-6358.592633,15322.262999
416.228883,-10140.821405,-8503.660028,15026.180623
416.229208,-7550.100608,-7431.126331,14582.057057
416.229533,-3034.844362,-1149.143247,14730.098246
416.229858,740.205942,1225.752797,13101.645173
416.230184,2072.576638,2604.724693,7550.100608
416.230509,5921.647536,6052.154434,4293.194464
416.230834,9474.636058,9346.365076,2294.638420
416.231160,8956.491898,8273.831378,444.123565
416.231485,6587.832884,7201.297681,370.102971
416.231810,4293.194464,7431.126331,2886.803174
416.232135,1480.411884,4749.792088,6587.832884
416.232461,-2072.576638,1685.410096,9696.697840
416.232786,-3997.112087,-1532.190996,12065.356855
416.233111,-6957.935855,-3983.696590,13397.727550
416.233437,-9696.697840,-5822.325785,13915.871710
416.233762,-8734.430116,-7584.345430,15544.324782
416.234087,-6143.709319,-7890.783629,16136.489536
416.234412,-5033.400406,-3524.039291,15618.345376
416.234738,-2368.659014,-766.095498,13249.686362
416.235063,2294.638420,383.047749,10362.883188
416.235388,5847.626942,3907.087040,7328.038826
416.235714,7994.224174,6894.859482,3701.029710
416.236039,8142.265362,6205.373534,1628.453072
416.236364,7402.059420,6971.469032,1406.391290
416.236689,7254.018232,8044.002729,3256.906145
416.237015,5329.482782,5132.839837,5699.585753
416.237340,296.082377,612.876398,7105.977043
416.237665,-4145.153275,-919.314598,9918.759623
416.237991,-5107.421000,-3064.381992,12065.356855
416.238316,-6217.729913,-5745.716235,14952.160028
416.238641,-8364.327145,-7124.688131,15248.242405
416.238966,-9030.512492,-7660.954980,14656.077652
416.239292,-6587.832884,-7660.954980,13989.892304
416.239617,-3627.009116,-4136.915689,14434.015869
416.239942,518.144159,0.000000,11399.171507
416.240268,3552.988522,1608.800546,9104.533087
416.240593,5625.565159,4290.134789,5403.503377
416.240918,9030.512492,7048.078582,3627.009116
416.241243,11103.089130,7048.078582,3034.844362
416.241569,8512.368333,7124.688131,2960.823768
416.241894,4885.359217,5362.668486,4515.256246
416.242219,3404.947333,3217.601092,8142.265362
416.242545,370.102971,919.314598,10955.047942
416.242870,-3404.947333,-1455.581446,12805.562797
416.243195,-5847.626942,-4826.401637,13989.892304
416.243520,-9326.594869,-6205.373534,13767.830521
416.243846,-8364.327145,-6435.202183,13989.892304
416.244171,-5625.565159,-7277.907231,14804.118840
416.244496,-4293.194464,-2528.115143,15470.304188
416.244822,-3034.844362,-306.438199,11769.274478
416.245147,1628.453072,919.314598,8290.306550
416.245472,6661.853478,5669.106685,6735.874072
416.245798,8586.388927,9576.193725,4515.256246
416.246123,7772.162391,7967.393179,1480.411884
416.246448,7254.018232,7890.783629,740.205942
416.246773,7254.018232,8120.612279,2960.823768
416.247099,2442.679609,5975.544884,4737.318029
416.247424,-2220.617826,2374.896044,7550.100608
416.247749,-4885.359217,0.000000,9696.697840
416.248075,-6143.709319,-1915.238745,13249.686362
416.248400,-7846.182985,-4519.963438,14508.036463
416.248725,-9770.718434,-7507.735880,13989.892304
416.249050,-10066.800811,-7431.126331,14063.912898
416.249376,-6365.771101,-4443.353888,14359.995275
416.249701,-1998.556043,-766.095498,14434.015869
416.250026,1924.535449,1302.362347,12361.439231
416.250352,3775.050304,3753.867940,7920.203579
416.250677,6809.894666,7431.126331,5107.421000
416.251002,10732.986159,7967.393179,1924.535449
416.251327,9696.697840,7354.516781,2442.679609
416.251653,7328.038826,7660.954980,2812.782580
416.251978,5477.523971,6741.640382,4885.359217
416.252303,1406.391290,2681.334243,7476.080014
416.252629,-1850.514855,153.219100,10584.944971
416.252954,-3478.967927,-1532.190996,12879.583391
416.253279,-7105.977043,-3524.039291,13693.809927
416.253604,-9252.574275,-6052.154434,12805.562797
416.253930,-7550.100608,-8656.879127,14804.118840
416.254255,-5625.565159,-6818.249932,15544.324782
416.254580,-4737.318029,-2451.505594,14730.098246
416.254906,-1850.514855,-1838.629195,10510.924376
416.255231,3849.070898,-459.657299,8438.347739
416.255556,7031.956449,4903.011187,7105.977043
416.255881,7254.018232,6894.859482,3849.070898
416.256207,6957.935855,3830.477490,1924.535449
416.256532,6661.853478,5669.106685,2516.700203
416.256857,6439.791695,6511.811733,4663.297435
416.257183,2960.823768,2451.505594,7254.018232
416.257508,-1332.370696,0.000000,9178.553681
416.257833,-3849.070898,-1072.533697,11473.192101
416.258158,-3849.070898,-3753.867940,14285.974681
416.258484,-6069.688724,-5975.544884,15988.448347
416.258809,-8068.244768,-7507.735880,14656.077652
416.259134,-7772.162391,-8273.831378,13693.809927
416.259460,-4589.276840,-5439.278036,14804.118840
416.259785,-1998.556043,-1455.581446,13397.727550
416.260110,1702.473667,842.705048,9992.780217
416.260435,4441.235652,2221.676944,6513.812290
416.260761,5403.503377,6818.249932,3552.988522
416.261086,8364.327145,7507.735880,2664.741391
416.261411,9474.636058,7354.516781,2442.679609
416.261737,5625.565159,7967.393179,1924.535449
416.262062,2516.700203,5822.325785,4145.153275
416.262387,296.082377,1378.971896,7476.080014
416.262712,-2960.823768,-306.438199,9696.697840
416.263038,-6513.812290,-1838.629195,12583.501014
416.263363,-8734.430116,-5132.839837,14582.057057
416.263688,-10658.965565,-6741.640382,14285.974681
416.264014,-9030.512492,-8197.221829,15322.262999
416.264339,-4959.379811,-7737.564530,15174.221811
416.264664,-3849.070898,-1532.190996,14656.077652
416.264989,-666.185348,1915.238745,11769.274478
416.265315,3627.009116,2528.115143,8512.368333
416.265640,8512.368333,5822.325785,6143.709319
416.265965,9992.780217,9729.412825,3849.070898
416.266291,8586.388927,8120.612279,1036.288319
416.266616,7402.059420,7354.516781,2294.638420
416.266941,6883.915261,7048.078582,4515.256246
416.267266,1480.411884,4136.915689,7402.059420
416.267592,-2886.803174,536.266849,8808.450710
416.267917,-5329.482782,-1915.238745,10510.924376
416.268242,-6439.791695,-3830.477490,14211.954086
416.268568,-8290.306550,-5286.058936,14508.036463
416.268893,-9178.553681,-7277.907231,13915.871710
416.269218,-7402.059420,-8273.831378,13101.645173
416.269544,-3923.091493,-4136.915689,12583.501014
416.269869,0.000000,306.438199,12435.459826
416.270194,3404.947333,2451.505594,10436.903782
416.270519,5255.462188,3677.258390,6439.791695
416.270845,7698.141797,6052.154434,4515.256246
416.271170,10214.842000,7124.688131,3256.906145
416.271495,8734.430116,6818.249932,3256.906145
416.271821,6069.688724,5745.716235,3627.009116
416.272146,3108.864956,3600.648841,5995.668130
416.272471,-518.144159,1149.143247,9252.574275
416.272796,-2368.659014,-1532.190996,11399.171507
416.273122,-3923.091493,-3753.867940,13175.665768
416.273447,-7179.997637,-4979.620737,13693.809927
416.273772,-8438.347739,-6511.811733,13989.892304
416.274098,-5255.462188,-7124.688131,14582.057057
416.274423,-3404.947333,-4979.620737,14508.036463
416.274748,-3182.885551,-1302.362347,12509.480420
416.275073,-444.123565,459.657299,9474.636058
416.275399,4071.132681,1915.238745,8142.265362
416.275724,6291.750507,4903.011187,5403.503377
416.276049,6735.874072,6052.154434,4293.194464
416.276375,5773.606348,5439.278036,2442.679609
416.276700,5329.482782,6511.811733,2516.700203
416.277025,4737.318029,4903.011187,5329.482782
416.277350,592.164754,2068.457845,7846.182985
416.277676,-3849.070898,-229.828649,9474.636058
416.278001,-5477.523971,-1762.019645,11029.068536
416.278326,-5773.606348,-4136.915689,13323.706956
416.278652,-8216.285956,-5209.449386,14211.954086
416.278977,-8586.388927,-6358.592633,13841.851115
416.279302,-6513.812290,-6128.763984,12953.603985
416.279627,-4219.173869,-3830.477490,13397.727550
416.279953,-1924.535449,-1608.800546,12805.562797
416.280278,2146.597232,689.485948,10066.800811
416.280603,4219.173869,3677.258390,8068.244768
416.280929,5921.647536,6052.154434,4663.297435
416.281254,9326.594869,6358.592633,3701.029710
416.281579,9918.759623,7277.907231,2368.659014
416.281904,6143.709319,7737.564530,2664.741391
416.282230,3256.906145,4903.011187,5033.400406
416.282555,518.144159,1532.190996,8290.306550
416.282880,-2442.679609,1149.143247,10955.047942
416.283206,-5403.503377,-2374.896044,12953.603985
416.283531,-8068.244768,-5669.106685,14656.077652
416.283856,-10955.047942,-7201.297681,13841.851115
416.284181,-9252.574275,-9269.755526,13545.768739
416.284507,-4885.359217,-7890.783629,15100.201217
416.284832,-2960.823768,-1149.143247,14582.057057
416.285157,-148.041188,1302.362347,10066.800811
416.285483,4737.318029,2374.896044,7994.224174
416.285808,9918.759623,6665.030833,6439.791695
416.286133,10658.965565,9729.412825,3923.091493
416.286458,8882.471304,5975.544884,2072.576638
416.286784,9400.615463,6205.373534,2516.700203
416.287109,8068.244768,7354.516781,5403.503377
416.287434,1554.432478,3370.820191,7698.141797
416.287760,-2664.741391,-842.705048,9992.780217
416.288085,-5477.523971,-2451.505594,11621.233289
416.288410,-6809.894666,-3677.258390,14952.160028
416.288735,-7550.100608,-6511.811733,14508.036463
416.289061,-9992.780217,-8503.660028,13693.809927
416.289386,-8364.327145,-8427.050478,13101.645173
416.289711,-2738.761985,-1915.238745,13323.706956
416.290037,1850.514855,2145.067394,12065.356855
416.290362,3775.050304,2451.505594,9400.615463
416.290687,5477.523971,4519.963438,4663.297435
416.291013,8882.471304,8733.488677,3627.009116
416.291338,10807.006753,8350.440928,3256.906145
416.291663,7846.182985,6588.421283,2664.741391
416.291988,4959.379811,6665.030833,3849.070898
416.292314,1480.411884,5056.230287,6587.832884
416.292639,-1406.391290,1455.581446,8808.450710
416.292964,-3552.988522,-1225.752797,11325.150913
416.293290,-6291.750507,-3064.381992,14211.954086
416.293615,-10066.800811,-4443.353888,12361.439231
416.293940,-9918.759623,-6818.249932,12953.603985
416.294265,-7254.018232,-7814.174080,14582.057057
416.294591,-6069.688724,-4366.744339,14285.974681
416.294916,-5033.400406,-766.095498,12065.356855
416.295241,-814.226536,-383.047749,10807.006753
416.295567,3923.091493,1991.848295,8216.285956
416.295892,6957.935855,6358.592633,5477.523971
416.296217,7846.182985,7201.297681,3182.885551
416.296542,7031.956449,6435.202183,1702.473667
416.296868,7105.977043,7124.688131,2738.761985
416.297193,6143.709319,5515.887586,5625.565159
416.297518,1628.453072,2068.457845,7994.224174
416.297844,-2960.823768,229.828649,10436.903782
416.298169,-4737.318029,-1838.629195,12657.521608
416.298494,-5255.462188,-5362.668486,14285.974681
416.298819,-7550.100608,-7507.735880,14804.118840
416.299145,-9548.656652,-8120.612279,14359.995275
416.299470,-7031.956449,-7507.735880,13397.727550
416.299795,-3849.070898,-3907.087040,14137.933492
416.300121,148.041188,-919.314598,12509.480420
416.300446,2442.679609,153.219100,9400.615463
416.300771,4885.359217,3907.087040,5773.606348
416.301096,8290.306550,7354.516781,3182.885551
416.301422,10436.903782,6894.859482,3775.050304
416.301747,9844.739029,6971.469032,1998.556043
416.302072,5773.606348,7277.907231,2516.700203
416.302398,2664.741391,3140.991542,6217.729913
416.302723,148.041188,76.609550,9548.656652
416.303048,-3627.009116,-995.924147,12657.521608
416.303373,-6365.771101,-3830.477490,14730.098246
416.303699,-8586.388927,-6511.811733,14211.954086
416.304024,-10436.903782,-7890.783629,13915.871710
416.304349,-8068.244768,-9422.974625,12657.521608
416.304675,-4293.194464,-5132.839837,14656.077652
416.305000,-1702.473667,306.438199,13323.706956
416.305325,740.205942,2451.505594,10658.965565
416.305650,6291.750507,3753.867940,7550.100608
416.305976,10955.047942,7814.174080,5033.400406
416.306301,9918.759623,10112.460574,2442.679609
416.306626,8290.306550,8427.050478,666.185348
416.306952,8808.450710,7814.174080,2516.700203
416.307277,6809.894666,7354.516781,5773.606348
416.307602,592.164754,3140.991542,8660.409521
416.307927,-4219.173869,0.000000,10140.821405
416.308253,-5995.668130,-2451.505594,12435.459826
416.308578,-6587.832884,-3830.477490,14804.118840
416.308903,-8216.285956,-5745.716235,13989.892304
416.309229,-8808.450710,-7124.688131,14211.954086
416.309554,-7105.977043,-5056.230287,14285.974681
416.309879,-3552.988522,-1455.581446,12213.398043
416.310204,444.123565,459.657299,12435.459826
416.310530,2072.576638,2681.334243,8882.471304
416.310855,4663.297435,6435.202183,4441.235652
416.311180,7846.182985,7048.078582,2812.782580
416.311506,8438.347739,6818.249932,1924.535449
416.311831,5773.606348,7967.393179,2368.659014
416.312156,3849.070898,6665.030833,3330.926739
416.312481,1036.288319,2451.505594,6217.729913
416.312807,-2294.638420,689.485948,8808.450710
416.313132,-4071.132681,0.000000,11843.295072
416.313457,-5921.647536,-2834.553343,13693.809927
416.313783,-8364.327145,-5975.544884,12509.480420
416.314108,-8660.409521,-8120.612279,13841.851115
416.314433,-5995.668130,-8733.488677,15100.201217
416.314759,-4145.153275,-3677.258390,15914.427753
416.315084,-1776.494261,-766.095498,13397.727550
416.315409,2590.720797,-306.438199,10955.047942
416.315734,5995.668130,2451.505594,7994.224174
416.316060,8216.285956,6205.373534,4737.318029
416.316385,9326.594869,6128.763984,1998.556043
416.316710,7105.977043,5362.668486,2738.761985
416.317036,6957.935855,7354.516781,3552.988522
416.317361,5773.606348,4979.620737,5847.626942
416.317686,1554.432478,766.095498,7105.977043
416.318011,-3849.070898,-153.219100,9030.512492
416.318337,-6439.791695,-2298.286494,11695.253884
416.318662,-6513.812290,-5669.106685,14434.015869
416.318987,-8734.430116,-7431.126331,15766.386565
416.319313,-10658.965565,-8886.707777,15100.201217
416.319638,-7624.121203,-9576.193725,14137.933492
416.319963,-4441.235652,-5056.230287,14804.118840
416.320288,148.041188,-612.876398,13027.624579
416.320614,3997.112087,1838.629195,10140.821405
416.320939,7476.080014,4903.011187,5995.668130
416.321264,10066.800811,8273.831378,2738.761985
416.321590,12435.459826,9039.926876,2220.617826
416.321915,10732.986159,9422.974625,1036.288319
416.322240,6735.874072,8120.612279,1258.350101
416.322565,3849.070898,5056.230287,5995.668130
416.322891,0.000000,2451.505594,8808.450710
416.323216,-3849.070898,-612.876398,11029.068536
416.323541,-7476.080014,-3064.381992,13619.789333
416.323867,-10658.965565,-5745.716235,13915.871710
416.324192,-12583.501014,-7814.174080,13693.809927
416.324517,-10510.924376,-9422.974625,14359.995275
416.324842,-7179.997637,-7431.126331,15692.365970
416.325168,-4515.256246,-842.705048,13767.830521
416.325493,-740.205942,1532.190996,10214.842000
416.325818,5477.523971,3983.696590,7698.141797
416.326144,9696.697840,7967.393179,4885.359217
416.326469,9696.697840,9652.803275,1924.535449
416.326794,8660.409521,7814.174080,518.144159
416.327119,8660.409521,8197.221829,2516.700203
416.327445,7105.977043,7124.688131,5625.565159
416.327770,222.061783,3907.087040,9030.512492
416.328095,-3997.112087,-229.828649,10584.944971
416.328421,-5995.668130,-2834.553343,12287.418637
416.328746,-7698.141797,-4903.011187,14211.954086
416.329071,-9326.594869,-7814.174080,14359.995275
416.329396,-10510.924376,-9729.412825,15544.324782
416.329722,-7994.224174,-7201.297681,14359.995275
416.330047,-3034.844362,-3064.381992,14508.036463
416.330372,2072.576638,536.266849,13101.645173
416.330698,4293.194464,3677.258390,9030.512492
416.331023,7105.977043,6588.421283,4737.318029
416.331348,11029.068536,7201.297681,1998.556043
416.331673,11029.068536,7124.688131,1036.288319
416.331999,8364.327145,7967.393179,740.205942
416.332324,6883.915261,7814.174080,2516.700203
416.332649,2368.659014,3983.696590,6883.915261
416.332975,-2812.782580,229.828649,9918.759623
416.333300,-5477.523971,-2681.334243,12361.439231
416.333625,-7772.162391,-4979.620737,13767.830521
416.333950,-11029.068536,-8044.002729,13619.789333
416.334276,-11029.068536,-11184.994271,14804.118840
416.334601,-8364.327145,-11031.775171,16580.613101
416.334926,-6291.750507,-6511.811733,17542.880825
416.335252,-3478.967927,-1225.752797,14137.933492
416.335577,1480.411884,0.000000,10732.986159
416.335902,6217.729913,3294.210641,8068.244768
416.336227,10066.800811,7277.907231,5107.421000
416.336553,10584.944971,7354.516781,2368.659014
416.336878,9178.553681,7124.688131,296.082377
416.337203,9474.636058,9729.412825,2220.617826
416.337529,7402.059420,7584.345430,4737.318029
416.337854,1480.411884,2911.162892,7550.100608
416.338179,-3478.967927,-306.438199,9622.677246
416.338504,-6365.771101,-2298.286494,11917.315666
416.338830,-7624.121203,-5056.230287,13619.789333
416.339155,-9178.553681,-6741.640382,14878.139434
416.339480,-11029.068536,-7660.954980,13915.871710
416.339805,-8734.430116,-7737.564530,13397.727550
416.340131,-5181.441594,-4519.963438,14434.015869
416.340456,0.000000,306.438199,12509.480420
416.340781,3923.091493,2681.334243,8808.450710
416.341107,5329.482782,5745.716235,5403.503377
416.341432,8512.368333,8580.269578,3182.885551
416.341757,11695.253884,8810.098227,3404.947333
416.342082,9696.697840,8580.269578,1258.350101
416.342408,4959.379811,7277.907231,2738.761985
416.342733,2738.761985,4519.963438,6957.935855
416.343058,-1036.288319,2221.676944,10658.965565
416.343383,-5625.565159,-995.924147,11843.295072
416.343709,-8068.244768,-4136.915689,13175.665768
416.344034,-11029.068536,-7201.297681,14285.974681
416.344359,-11621.233289,-8273.831378,14211.954086
416.344685,-8512.368333,-8963.317327,14508.036463
416.345010,-5329.482782,-6435.202183,16580.613101
416.345335,-2294.638420,-842.705048,12509.480420
416.345660,1406.391290,2374.896044,10436.903782
416.345986,8216.285956,4903.011187,7105.977043
416.346311,11843.295072,8197.221829,5033.400406
416.346636,10732.986159,9039.926876,2590.720797
416.346962,9696.697840,8197.221829,814.226536
416.347287,10584.944971,7967.393179,2442.679609
416.347612,7846.182985,7354.516781,4737.318029
416.347937,888.247130,3217.601092,8808.450710
416.348263,-4145.153275,-536.266849,8512.368333
416.348588,-6439.791695,-2681.334243,10955.047942
416.348913,-8882.471304,-4979.620737,13471.748144
416.349238,-11103.089130,-7737.564530,13989.892304
416.349564,-12435.459826,-10189.070123,14063.912898
416.349889,-9474.636058,-9806.022374,14508.036463
416.350214,-5107.421000,-6281.983084,15396.283594
416.350540,592.164754,153.219100,15100.201217
416.350865,4219.173869,2987.772442,10807.006753
416.351190,7254.018232,4826.401637,6735.874072
416.351515,11991.336260,6511.811733,3849.070898
416.351841,13101.645173,8427.050478,3182.885551
416.352166,10807.006753,8963.317327,1776.494261
416.352491,9326.594869,7814.174080,3478.967927
416.352817,5107.421000,5362.668486,6439.791695
416.353142,666.185348,3064.381992,9548.656652
416.353467,-2738.761985,-1302.362347,10807.006753
416.353792,-7254.018232,-3830.477490,12731.542202
416.354118,-11695.253884,-5515.887586,12361.439231
416.354443,-11843.295072,-8350.440928,13323.706956
416.354768,-9622.677246,-9959.241474,14434.015869
416.355093,-8364.327145,-6511.811733,15618.345376
416.355419,-5477.523971,-689.485948,12953.603985
416.355744,74.020594,689.485948,10732.986159
416.356069,5329.482782,3064.381992,7105.977043
416.356395,8512.368333,7277.907231,3923.091493
416.356720,8956.491898,8733.488677,1258.350101
416.357045,8734.430116,8810.098227,518.144159
416.357370,8956.491898,9499.584175,2886.803174
416.357696,7105.977043,6588.421283,5551.544565
416.358021,592.164754,3294.210641,8142.265362
416.358346,-3997.112087,153.219100,10436.903782
416.358671,-6291.750507,-2221.676944,12213.398043
416.358997,-8438.347739,-5056.230287,14952.160028
416.359322,-10732.986159,-8963.317327,15618.345376
416.359647,-12879.583391,-9729.412825,14359.995275
416.359973,-9400.615463,-9729.412825,14137.933492
416.360298,-5329.482782,-4290.134789,15914.427753
416.360623,370.102971,306.438199,13471.748144
416.360948,4441.235652,2604.724693,10584.944971
416.361274,5625.565159,5286.058936,5107.421000
416.361599,9548.656652,8197.221829,2294.638420
416.361924,13619.789333,8733.488677,2368.659014
416.362250,10584.944971,10418.898773,2146.597232
416.362575,7105.977043,7201.297681,2516.700203
416.362900,4441.235652,4366.744339,6735.874072
416.363225,962.267725,1455.581446,9696.697840
416.363551,-4219.173869,-766.095498,10584.944971
416.363876,-7254.018232,-4749.792088,12805.562797
416.364201,-9770.718434,-7277.907231,13693.809927
416.364526,-11695.253884,-8580.269578,13767.830521
416.364852,-9770.718434,-9806.022374,14359.995275
416.365177,-7031.956449,-8427.050478,14804.118840
416.365502,-4515.256246,-2604.724693,12953.603985
416.365828,-148.041188,2298.286494,10140.821405
416.366153,6735.874072,4903.011187,8438.347739
416.366478,11843.295072,5745.716235,5699.585753
416.366803,10881.027347,8350.440928,1998.556043
416.367129,10955.047942,8580.269578,1110.308913
416.367454,10807.006753,8656.879127,3330.926739
416.367779,8734.430116,6435.202183,6217.729913
416.368105,1850.514855,3294.210641,9770.718434
416.368430,-2368.659014,-306.438199,11103.089130
416.368755,-4367.215058,-2604.724693,11769.274478
416.369080,-6365.771101,-5132.839837,15766.386565
416.369406,-9252.574275,-6894.859482,15100.201217
416.369731,-11917.315666,-9039.926876,13989.892304
416.370056,-8808.450710,-8886.707777,14582.057057
416.370381,-4515.256246,-3830.477490,14804.118840
416.370707,-370.102971,1149.143247,12065.356855
416.371032,1258.350101,3677.258390,8438.347739
416.371357,4737.318029,5515.887586,3997.112087
416.371683,8882.471304,7354.516781,1776.494261
416.372008,9178.553681,8120.612279,1332.370696
416.372333,6809.894666,8120.612279,888.247130
416.372658,4737.318029,7048.078582,2590.720797
416.372984,1628.453072,5056.230287,6439.791695
416.373309,-2072.576638,1685.410096,9252.574275
416.373634,-4367.215058,-1915.238745,10732.986159
416.373959,-7105.977043,-4213.525239,12731.542202
416.374285,-9770.718434,-5286.058936,14137.933492
416.374610,-9622.677246,-7737.564530,15100.201217
416.374935,-7105.977043,-9116.536426,15840.407159
416.375261,-4885.359217,-5592.497135,16580.613101
416.375586,-1850.514855,-842.705048,13471.748144
416.375911,3478.967927,2298.286494,11251.130318
416.376236,8142.265362,4519.963438,8586.388927
416.376562,10214.842000,7967.393179,4737.318029
416.376887,10362.883188,7660.954980,1776.494261
416.377212,8512.368333,7507.735880,-0.000000
416.377538,7698.141797,9193.145976,2516.700203
416.377863,5329.482782,6818.249932,5403.503377
416.378188,-444.123565,1762.019645,7994.224174
416.378513,-4367.215058,-1072.533697,9178.553681
416.378839,-6957.935855,-2911.162892,11991.336260
416.379164,-8438.347739,-6128.763984,13619.789333
416.379489,-10584.944971,-9269.755526,14582.057057
416.379814,-11177.109724,-10418.898773,14285.974681
416.380140,-8142.265362,-8656.879127,15100.201217
416.380465,-3552.988522,-3677.258390,15322.262999
416.380790,2738.761985,1149.143247,12361.439231
416.381116,6957.935855,3830.477490,10288.862594
416.381441,7550.100608,5592.497135,6513.812290
416.381766,11029.068536,7890.783629,3478.967927
416.382091,14952.160028,8503.660028,2960.823768
416.382417,11547.212695,8733.488677,1628.453072
416.382742,6735.874072,7354.516781,3256.906145
416.383067,3997.112087,4673.182538,7698.141797
416.383392,-592.164754,1225.752797,10658.965565
416.383718,-6069.688724,-1762.019645,12139.377449
416.384043,-9030.512492,-5132.839837,12805.562797
416.384368,-11473.192101,-8197.221829,13101.645173
416.384694,-12213.398043,-9422.974625,12953.603985
416.385019,-10140.821405,-9576.193725,14211.954086
416.385344,-7105.977043,-6435.202183,14730.098246
416.385669,-3256.906145,0.000000,11843.295072
416.385995,1406.391290,2987.772442,10066.800811
416.386320,7254.018232,4903.011187,7105.977043
416.386645,9918.759623,7737.564530,4219.173869
416.386971,9474.636058,8810.098227,2368.659014
416.387296,9696.697840,8350.440928,1406.391290
416.387621,9178.553681,7660.954980,3849.070898
416.387946,5477.523971,6052.154434,5699.585753
416.388272,-1036.288319,3370.820191,9400.615463
416.388597,-5329.482782,-153.219100,10436.903782
416.388922,-7328.038826,-3140.991542,11843.295072
416.389247,-9918.759623,-5898.935335,13619.789333
416.389573,-12435.459826,-8350.440928,13175.665768
416.389898,-12213.398043,-9652.803275,13323.706956
416.390223,-8364.327145,-6971.469032,14952.160028
416.390549,-2368.659014,-1302.362347,15544.324782
416.390874,2294.638420,1685.410096,13249.686362
416.391199,5107.421000,3447.429741,8216.285956
416.391524,8216.285956,6818.249932,4885.359217
416.391850,11695.253884,8963.317327,2368.659014
416.392175,11621.233289,9116.536426,1776.494261
416.392500,8586.388927,8503.660028,1850.514855
416.392826,5921.647536,6588.421283,4367.215058
416.393151,1406.391290,3753.867940,8364.327145
416.393476,-2146.597232,0.000000,9992.780217
416.393801,-5477.523971,-3064.381992,12953.603985
416.394127,-9178.553681,-5975.544884,12657.521608
416.394452,-11843.295072,-8733.488677,12509.480420
416.394777,-11029.068536,-11184.994271,13841.851115
416.395102,-7476.080014,-9346.365076,15544.324782
416.395428,-5329.482782,-2757.943793,15396.283594
416.395753,-370.102971,0.000000,12879.583391
416.396078,4515.256246,919.314598,10214.842000
416.396404,8068.244768,4596.572988,5921.647536
416.396729,9992.780217,8273.831378,3923.091493
416.397054,10214.842000,7201.297681,2294.638420
416.397379,8882.471304,7660.954980,1258.350101
416.397705,8808.450710,7737.564530,4441.235652
416.398030,5033.400406,4979.620737,7105.977043
416.398355,-370.102971,1455.581446,9252.574275
416.398680,-4959.379811,-1685.410096,10584.944971
416.399006,-6661.853478,-3907.087040,12879.583391
416.399331,-8512.368333,-7584.345430,13989.892304
416.399656,-9474.636058,-8350.440928,15396.283594
416.399982,-9474.636058,-8503.660028,13989.892304
416.400307,-7105.977043,-5745.716235,14656.077652
416.400632,-2664.741391,-2374.896044,13841.851115
416.400957,1554.432478,1915.238745,10732.986159
416.401283,5107.421000,3830.477490,7179.997637
416.401608,7105.977043,7354.516781,4441.235652
416.401933,9030.512492,8120.612279,3330.926739
416.402259,10955.047942,8580.269578,2886.803174
416.402584,7772.162391,8886.707777,2294.638420
416.402909,3849.070898,6052.154434,4737.318029
416.403234,1702.473667,3753.867940,7772.162391
416.403560,-1776.494261,612.876398,10066.800811
416.403885,-6957.935855,-1991.848295,11917.315666
416.404210,-9104.533087,-4749.792088,13027.624579
416.404535,-10584.944971,-7890.783629,13101.645173
416.404861,-10658.965565,-9346.365076,12509.480420
416.405186,-7179.997637,-7507.735880,15248.242405
416.405511,-3775.050304,-1302.362347,15322.262999
416.405837,-814.226536,995.924147,11473.192101
416.406162,2664.741391,1532.190996,9104.533087
416.406487,8438.347739,6205.373534,6513.812290
416.406812,10584.944971,9116.536426,4145.153275
416.407138,9400.615463,7890.783629,1184.329507
416.407463,8808.450710,7277.907231,1776.494261
416.407788,8808.450710,8044.002729,4589.276840
416.408114,3478.967927,5822.325785,7328.038826
416.408439,-1998.556043,536.266849,8956.491898
416.408764,-5477.523971,-1685.410096,9252.574275
416.409089,-7550.100608,-3753.867940,12879.583391
416.409415,-8734.430116,-6511.811733,14137.933492
416.409740,-11103.089130,-8656.879127,14359.995275
416.410065,-9474.636058,-10189.070123,13841.851115
416.410390,-6291.750507,-6741.640382,14582.057057
416.410716,-740.205942,-76.609550,15396.283594
416.411041,4811.338623,2374.896044,12583.501014
416.411366,6439.791695,3064.381992,7402.059420
416.411692,8586.388927,6511.811733,4663.297435
416.412017,12509.480420,8810.098227,2294.638420
416.412342,11621.233289,9269.755526,1776.494261
416.412667,8660.409521,7967.393179,2368.659014
416.412993,5181.441594,5669.106685,5477.523971
416.413318,0.000000,3370.820191,8068.244768
416.413643,-3478.967927,0.000000,9696.697840
416.413968,-6143.709319,-3753.867940,12805.562797
416.414294,-9844.739029,-5669.106685,13323.706956
416.414619,-12361.439231,-8120.612279,13249.686362
416.414944,-9548.656652,-10265.679673,14804.118840
416.415270,-5921.647536,-8886.707777,15988.448347
416.415595,-3627.009116,-1225.752797,14804.118840
416.415920,1184.329507,995.924147,11769.274478
416.416245,5033.400406,2604.724693,9918.759623
416.416571,9178.553681,6052.154434,5255.462188
416.416896,10807.006753,8656.879127,2960.823768
416.417221,9548.656652,8350.440928,1110.308913
416.417547,7105.977043,9576.193725,1924.535449
416.417872,7105.977043,7354.516781,4811.338623
416.418197,2220.617826,4443.353888,8142.265362
416.418522,-4367.215058,306.438199,9548.656652
416.418848,-8734.430116,-1838.629195,10362.883188
416.419173,-8882.471304,-4979.620737,12879.583391
416.419498,-9918.759623,-8044.002729,14285.974681
416.419823,-12065.356855,-8886.707777,14804.118840
416.420149,-9622.677246,-8656.879127,13767.830521
416.420474,-5403.503377,-3830.477490,14211.954086
416.420799,-1110.308913,0.000000,12731.542202
416.421125,4145.153275,2298.286494,9622.677246
416.421450,7179.997637,4903.011187,6587.832884
416.421775,8290.306550,8810.098227,3997.112087
416.422100,11399.171507,8580.269578,3404.947333
416.422426,12361.439231,8197.221829,2368.659014
416.422751,7624.121203,8733.488677,2442.679609
416.423076,2368.659014,4903.011187,5773.606348
416.423401,-296.082377,1072.533697,9252.574275
416.423727,-4071.132681,-1455.581446,11769.274478
416.424052,-8142.265362,-3447.429741,13249.686362
416.424377,-10510.924376,-7814.174080,13693.809927
416.424703,-11769.274478,-10342.289223,14434.015869
416.425028,-10732.986159,-10955.165621,12509.480420
416.425353,-6957.935855,-8120.612279,15766.386565
416.425678,-1924.535449,-1685.410096,15322.262999
416.426004,1258.350101,1608.800546,12065.356855
416.426329,5551.544565,2834.553343,8660.409521
416.426654,11695.253884,6435.202183,5847.626942
416.426980,12731.542202,9039.926876,4515.256246
416.427305,10510.924376,9576.193725,1332.370696
416.427630,10362.883188,7431.126331,2886.803174
416.427955,8216.285956,5975.544884,5107.421000
416.428281,1776.494261,3600.648841,8068.244768
416.428606,-3923.091493,306.438199,8882.471304
416.428931,-7328.038826,-3064.381992,9992.780217
416.429256,-8586.388927,-5209.449386,12879.583391
416.429582,-10436.903782,-7431.126331,14434.015869
416.429907,-11917.315666,-9116.536426,14137.933492
416.430232,-9326.594869,-9806.022374,13323.706956
416.430558,-5625.565159,-4290.134789,13915.871710
416.430883,0.000000,1915.238745,12805.562797
416.431208,4737.318029,3753.867940,10214.842000
416.431533,6513.812290,4903.011187,5403.503377
416.431859,8808.450710,7354.516781,3256.906145
416.432184,11399.171507,8886.707777,2368.659014
416.432509,9474.636058,9422.974625,1924.535449
416.432835,7328.038826,7354.516781,3923.091493
416.433160,2590.720797,5056.230287,7179.997637
416.433485,-1480.411884,2528.115143,9400.615463
416.433810,-4663.297435,-919.314598,11177.109724
416.434136,-6587.832884,-4366.744339,13027.624579
416.434461,-10362.883188,-5822.325785,12213.398043
416.434786,-11917.315666,-7584.345430,13619.789333
416.435111,-8290.306550,-9116.536426,15396.283594
416.435436,-4737.318029,-5669.106685,16506.592507
416.435762,-2738.761985,-919.314598,15692.365970
416.436087,0.000000,919.314598,11621.233289
416.436412,6365.771101,2911.162892,8216.285956
416.436737,10362.883188,7048.078582,4959.379811
416.437062,10436.903782,8427.050478,2294.638420
416.437387,9696.697840,8427.050478,-0.000000
416.437712,8882.471304,9576.193725,1406.391290
416.438037,7402.059420,7507.735880,4441.235652
416.438362,1998.556043,4290.134789,7698.141797
416.438688,-4293.194464,0.000000,8068.244768
416.439013,-7772.162391,-2374.896044,9548.656652
416.439338,-8734.430116,-5439.278036,12361.439231
416.439663,-9992.780217,-8120.612279,14730.098246
416.439988,-12065.356855,-9729.412825,14582.057057
416.440313,-9770.718434,-10265.679673,13989.892304
416.440638,-5921.647536,-6588.421283,15692.365970
416.440963,-444.123565,-689.485948,14804.118840
416.441289,5403.503377,1685.410096,10510.924376
416.441614,7846.182985,4060.306139,7402.059420
416.441939,9474.636058,7737.564530,2664.741391
416.442264,12805.562797,9729.412825,2368.659014
416.442589,12953.603985,10035.851024,2442.679609
416.442914,8734.430116,8044.002729,2590.720797
416.443239,4367.215058,4596.572988,6661.853478
416.443564,814.226536,1762.019645,10807.006753
416.443889,-4219.173869,-1608.800546,12065.356855
416.444215,-8512.368333,-4443.353888,13027.624579
416.444540,-9400.615463,-8733.488677,14656.077652
416.444865,-12139.377449,-10495.508323,14211.954086
416.445190,-11399.171507,-10342.289223,13027.624579
416.445515,-6735.874072,-7814.174080,16210.510130
416.445840,-2294.638420,-919.314598,13915.871710
416.446165,0.000000,2374.896044,10066.800811
416.446490,5403.503377,3294.210641,6587.832884
416.446815,10658.965565,7507.735880,3330.926739
416.447141,11177.109724,10189.070123,1924.535449
416.447466,9400.615463,9499.584175,-0.000000
416.447791,9400.615463,7890.783629,3627.009116
416.448116,7031.956449,7048.078582,6143.709319
416.448441,592.164754,3753.867940,9918.759623
416.448766,-4663.297435,-1378.971896,9770.718434
416.449091,-7772.162391,-3830.477490,11029.068536
416.449416,-9252.574275,-5745.716235,13989.892304
416.449742,-10436.903782,-8427.050478,15544.324782
416.450067,-11547.212695,-10648.727422,15692.365970
416.450392,-8882.471304,-8733.488677,14952.160028
416.450717,-4367.215058,-2528.115143,14285.974681
416.451042,1776.494261,2374.896044,12435.459826
416.451367,5921.647536,4443.353888,9030.512492
416.451692,7550.100608,7354.516781,4663.297435
416.452017,10436.903782,9576.193725,1998.556043
416.452342,12583.501014,10265.679673,518.144159
416.452668,9474.636058,9499.584175,1702.473667
416.452993,5625.565159,7967.393179,3849.070898
416.453318,1406.391290,4826.401637,7402.059420
416.453643,-3552.988522,459.657299,9178.553681
416.453968,-6217.729913,-2757.943793,11103.089130
416.454293,-8734.430116,-4903.011187,13175.665768
416.454618,-11251.130318,-7354.516781,13175.665768
416.454943,-11843.295072,-9959.241474,14952.160028
416.455269,-8660.409521,-10035.851024,16876.695478
416.455594,-4515.256246,-5592.497135,16654.633695
416.455919,-1628.453072,459.657299,14508.036463
416.456244,2220.617826,1762.019645,10807.006753
416.456569,8512.368333,4060.306139,6291.750507
416.456894,11695.253884,8120.612279,3552.988522
416.457219,11177.109724,8580.269578,1036.288319
416.457544,9474.636058,8963.317327,740.205942
416.457869,8734.430116,8733.488677,3775.050304
416.458195,5995.668130,6971.469032,7179.997637
416.458520,222.061783,1608.800546,10214.842000
416.458845,-5477.523971,-2298.286494,9104.533087
416.459170,-7846.182985,-3983.696590,11843.295072
416.459495,-7920.203579,-7124.688131,13915.871710
416.459820,-9622.677246,-8350.440928,14952.160028
416.460145,-10658.965565,-10342.289223,14952.160028
416.460470,-7476.080014,-7967.393179,14211.954086
416.460795,-2516.700203,-2681.334243,14508.036463
416.461121,1998.556043,1685.410096,12583.501014
416.461446,5847.626942,2987.772442,8142.265362
416.461771,7328.038826,6358.592633,3997.112087
416.462096,9400.615463,8197.221829,592.164754
416.462421,12065.356855,9806.022374,1184.329507
416.462746,10807.006753,9422.974625,2146.597232
416.463071,5255.462188,7354.516781,4737.318029
416.463396,814.226536,3677.258390,8364.327145
416.463722,-2146.597232,-229.828649,10140.821405
416.464047,-6883.915261,-2221.676944,11251.130318
416.464372,-10214.842000,-5592.497135,12287.418637
416.464697,-10658.965565,-8580.269578,14434.015869
416.465022,-12065.356855,-9882.631924,14878.139434
416.465347,-10214.842000,-9806.022374,15766.386565
416.465672,-5033.400406,-7201.297681,17246.798449
416.465997,-1332.370696,689.485948,14434.015869
416.466322,2294.638420,3294.210641,10584.944971
416.466648,7772.162391,4060.306139,6513.812290
416.466973,13027.624579,8503.660028,3701.029710
416.467298,11843.295072,10648.727422,888.247130
416.467623,9696.697840,9422.974625,-0.000000
416.467948,9844.739029,8273.831378,3552.988522
416.468273,6513.812290,7277.907231,7105.977043
416.468598,-740.205942,2987.772442,9770.718434
416.468923,-6069.688724,-1532.190996,9104.533087
416.469249,-9326.594869,-3753.867940,10732.986159
416.469574,-9770.718434,-6205.373534,13767.830521
416.469899,-11325.150913,-8733.488677,14063.912898
416.470224,-12139.377449,-10878.556072,14137.933492
416.470549,-9030.512492,-8733.488677,14211.954086
416.470874,-4293.194464,-1072.533697,14359.995275
416.471199,1998.556043,2145.067394,13545.768739
416.471524,5551.544565,2681.334243,9474.636058
416.471849,7105.977043,5362.668486,4589.276840
416.472175,11251.130318,8273.831378,1628.453072
416.472500,13027.624579,9806.022374,1332.370696
416.472825,10658.965565,8886.707777,2442.679609
416.473150,7254.018232,7584.345430,5033.400406
416.473475,2368.659014,4673.182538,8068.244768
416.473800,-1850.514855,995.924147,9474.636058
416.474125,-4515.256246,-2681.334243,10732.986159
416.474450,-7846.182985,-4519.963438,13323.706956
416.474775,-11177.109724,-6971.469032,13915.871710
416.475101,-10732.986159,-9346.365076,15174.221811
416.475426,-7402.059420,-11031.775171,16654.633695
416.475751,-5551.544565,-6281.983084,16284.530724
416.476076,-3775.050304,-306.438199,13249.686362
416.476401,1924.535449,1302.362347,10288.862594
416.476726,7105.977043,3217.601092,7031.956449
416.477051,10214.842000,7124.688131,4293.194464
416.477376,11399.171507,9729.412825,888.247130
416.477702,9918.759623,9193.145976,-296.082377
416.478027,9104.533087,8580.269578,2146.597232
416.478352,7402.059420,6128.763984,6143.709319
416.478677,2146.597232,2911.162892,9400.615463
416.479002,-4145.153275,-306.438199,9474.636058
416.479327,-7624.121203,-2834.553343,11769.274478
416.479652,-7846.182985,-5286.058936,13397.727550
416.479977,-9326.594869,-7967.393179,14211.954086
416.480302,-10807.006753,-9806.022374,14656.077652
416.480628,-8512.368333,-8733.488677,14878.139434
416.480953,-4589.276840,-3753.867940,16210.510130
416.481278,0.000000,0.000000,14656.077652
416.481603,4737.318029,2145.067394,10436.903782
416.481928,6217.729913,5362.668486,5847.626942
416.482253,8142.265362,8580.269578,1628.453072
416.482578,12065.356855,9882.631924,222.061783
416.482903,11177.109724,10801.946522,1184.329507
416.483229,5847.626942,7967.393179,3404.947333
416.483554,1776.494261,4979.620737,6883.915261
416.483879,-1110.308913,1378.971896,9548.656652
416.484204,-7105.977043,-1302.362347,11547.212695
416.484529,-9548.656652,-3600.648841,12213.398043
416.484854,-11177.109724,-7814.174080,14359.995275
416.485179,-13397.727550,-10572.117872,13323.706956
416.485504,-10140.821405,-10878.556072,13767.830521
416.485829,-5847.626942,-6894.859482,16062.468941
416.486155,-2442.679609,919.314598,14508.036463
416.486480,1258.350101,2221.676944,10362.883188
416.486805,6809.894666,2987.772442,7476.080014
416.487130,10658.965565,7967.393179,4293.194464
416.487455,11177.109724,10418.898773,962.267725
416.487780,10066.800811,8963.317327,-370.102971
416.488105,10658.965565,7890.783629,2738.761985
416.488430,7105.977043,6971.469032,6439.791695
416.488755,740.205942,3140.991542,10732.986159
416.489081,-3849.070898,-1378.971896,10510.924376
416.489406,-8290.306550,-3447.429741,11473.192101
416.489731,-7772.162391,-6971.469032,13767.830521
416.490056,-9474.636058,-9116.536426,14804.118840
416.490381,-11325.150913,-10495.508323,15322.262999
416.490706,-9104.533087,-8886.707777,15692.365970
416.491031,-3478.967927,-4749.792088,15322.262999
416.491356,1184.329507,536.266849,14359.995275
416.491682,4663.297435,2528.115143,9992.780217
416.492007,5699.585753,4213.525239,5403.503377
416.492332,9770.718434,6894.859482,1628.453072
416.492657,12065.356855,9729.412825,-0.000000
416.492982,9918.759623,9576.193725,370.102971
416.493307,7031.956449,7737.564530,2516.700203
416.493632,3034.844362,5822.325785,6217.729913
416.493957,-2072.576638,2451.505594,8956.491898
416.494282,-3330.926739,-1225.752797,11325.150913
416.494608,-7772.162391,-4673.182538,13027.624579
416.494933,-11399.171507,-6971.469032,12583.501014
416.495258,-10436.903782,-9806.022374,13693.809927
416.495583,-7402.059420,-10112.460574,16876.695478
416.495908,-5625.565159,-4826.401637,17912.983796
416.496233,-3256.906145,-1072.533697,14582.057057
416.496558,1332.370696,76.609550,11177.109724
416.496883,6587.832884,2221.676944,8142.265362
416.497209,8956.491898,7584.345430,5551.544565
416.497534,10066.800811,9422.974625,2072.576638
416.497859,9400.615463,9269.755526,-0.000000
416.498184,8808.450710,8273.831378,1036.288319
416.498509,6661.853478,8963.317327,3997.112087
416.498834,1776.494261,4749.792088,9030.512492
416.499159,-4071.132681,153.219100,10510.924376
416.499484,-8290.306550,-2604.724693,11695.253884
416.499809,-9104.533087,-6205.373534,13989.892304
416.500135,-10214.842000,-8733.488677,15692.365970
416.500460,-11399.171507,-11031.775171,13471.748144
416.500785,-10214.842000,-9806.022374,14137.933492
416.501110,-6069.688724,-4290.134789,15692.365970
416.501435,518.144159,842.705048,13471.748144
416.501760,5921.647536,2681.334243,9548.656652
416.502085,6661.853478,4903.011187,4885.359217
416.502410,8142.265362,8810.098227,962.267725
416.502735,12361.439231,10955.165621,1184.329507
416.503061,12657.521608,10189.070123,740.205942
416.503386,6439.791695,8350.440928,2294.638420
416.503711,2886.803174,4903.011187,6883.915261
416.504036,518.144159,2221.676944,10955.047942
416.504361,-4885.359217,-1532.190996,12657.521608
416.504686,-9326.594869,-5286.058936,13397.727550
416.505011,-9844.739029,-10189.070123,15766.386565
416.505336,-11177.109724,-11108.384721,14211.954086
416.505662,-9474.636058,-8810.098227,15396.283594
416.505987,-5551.544565,-5056.230287,16876.695478
416.506312,-2146.597232,-1149.143247,13989.892304
416.506637,2442.679609,1685.410096,9770.718434
416.506962,7846.182985,4290.134789,7624.121203
416.507287,11547.212695,7890.783629,5107.421000
416.507612,10362.883188,9882.631924,1998.556043
416.507937,9326.594869,8656.879127,-518.144159
416.508262,9844.739029,8120.612279,1628.453072
416.508588,6143.709319,6588.421283,5403.503377
416.508913,-148.041188,3370.820191,9696.697840
416.509238,-4663.297435,-766.095498,10288.862594
416.509563,-7105.977043,-3447.429741,11843.295072
416.509888,-8808.450710,-6971.469032,13693.809927
416.510213,-10214.842000,-9576.193725,14285.974681
416.510538,-10732.986159,-10572.117872,12213.398043
416.510863,-8068.244768,-7890.783629,15174.221811
416.511189,-3997.112087,-2221.676944,15174.221811
416.511514,2072.576638,1915.238745,13915.871710
416.511839,5107.421000,3064.381992,9326.594869
416.512164,5995.668130,4903.011187,4219.173869
416.512489,9474.636058,7890.783629,2442.679609
416.512814,10732.986159,9652.803275,1850.514855
416.513139,8586.388927,8427.050478,1924.535449
416.513464,4441.235652,6588.421283,3997.112087
416.513789,888.247130,4903.011187,7772.162391
416.514115,-2590.720797,1838.629195,10140.821405
416.514440,-4663.297435,-2528.115143,11621.233289
416.514765,-8290.306550,-5362.668486,13249.686362
416.515090,-12139.377449,-6971.469032,13323.706956
416.515415,-10658.965565,-9652.803275,12435.459826
416.515740,-5921.647536,-8963.317327,14359.995275
416.516065,-4885.359217,-1685.410096,15692.365970
416.516390,-2220.617826,1225.752797,12509.480420
416.516716,2368.659014,919.314598,9844.739029
416.517041,7402.059420,3294.210641,7328.038826
416.517366,8512.368333,7890.783629,4219.173869
416.517691,9104.533087,7584.345430,1184.329507
416.518016,7254.018232,7890.783629,1036.288319
416.518341,7772.162391,8120.612279,3701.029710
416.518666,4367.215058,6205.373534,7846.182985
416.518991,0.000000,1991.848295,10658.965565
416.519316,-4885.359217,-842.705048,9844.739029
416.519642,-6809.894666,-3294.210641,11769.274478
416.519967,-7105.977043,-7048.078582,14285.974681
416.520292,-8586.388927,-9039.926876,14952.160028
416.520617,-8956.491898,-9499.584175,13915.871710
416.520942,-7402.059420,-6894.859482,14285.974681
416.521267,-2886.803174,-3294.210641,13915.871710
416.521592,2146.597232,536.266849,12953.603985
416.521917,6365.771101,2757.943793,9104.533087
416.522242,7105.977043,4903.011187,5921.647536
416.522568,8438.347739,7431.126331,1998.556043
416.522893,12731.542202,9576.193725,1850.514855
416.523218,10955.047942,9729.412825,1776.494261
416.523543,4441.235652,6281.983084,3552.988522
416.523868,1554.432478,3907.087040,7179.997637
416.524193,-296.082377,842.705048,10584.944971
416.524518,-5699.585753,-1378.971896,12361.439231
416.524843,-8956.491898,-5362.668486,12953.603985
416.525169,-9474.636058,-9806.022374,13545.768739
416.525494,-10584.944971,-9959.241474,12805.562797
416.525819,-8364.327145,-7507.735880,14211.954086
416.526144,-4219.173869,-3524.039291,14656.077652
416.526469,0.000000,0.000000,11917.315666
416.526794,2220.617826,2528.115143,9696.697840
416.527119,7476.080014,5515.887586,8216.285956
416.527444,11473.192101,7890.783629,5699.585753
416.527769,10362.883188,7890.783629,1924.535449
416.528095,7550.100608,8580.269578,1628.453072
416.528420,7105.977043,7890.783629,5033.400406
416.528745,3404.947333,6128.763984,7772.162391
416.529070,-814.226536,1149.143247,11177.109724
416.529395,-5625.565159,-1991.848295,11029.068536
416.529720,-8808.450710,-3524.039291,13323.706956
416.530045,-8882.471304,-7048.078582,14137.933492
416.530370,-9474.636058,-9652.803275,13915.871710
416.530696,-10955.047942,-9959.241474,13101.645173
416.531021,-7179.997637,-5362.668486,12879.583391
416.531346,-1480.411884,1302.362347,11251.130318
416.531671,3627.009116,3140.991542,11103.089130
416.531996,5625.565159,4060.306139,6513.812290
416.532321,6217.729913,6665.030833,3330.926739
416.532646,9474.636058,8044.002729,2146.597232
416.532971,9992.780217,7814.174080,1628.453072
416.533296,6661.853478,6971.469032,2812.782580
416.533622,2960.823768,5745.716235,5995.668130
416.533947,-740.205942,2604.724693,8882.471304
416.534272,-4367.215058,-842.705048,10584.944971
416.534597,-5329.482782,-3753.867940,13693.809927
416.534922,-7402.059420,-5592.497135,14211.954086
416.535247,-9918.759623,-8427.050478,13027.624579
416.535572,-8290.306550,-10112.460574,13471.748144
416.535895,-4737.318029,-7967.393179,15248.242405
416.536220,-1332.370696,-766.095498,15026.180623
416.536545,1850.514855,1532.190996,11547.212695
416.536870,5329.482782,1532.190996,8734.430116
416.537196,8956.491898,5209.449386,5699.585753
416.537521,10436.903782,8503.660028,4145.153275
416.537846,9548.656652,6894.859482,2368.659014
416.538171,6957.935855,6741.640382,2146.597232
416.538496,5921.647536,6588.421283,5033.400406
416.538821,2072.576638,4519.963438,8586.388927
416.539146,-2072.576638,-383.047749,10807.006753
416.539471,-6661.853478,-2451.505594,11177.109724
416.539796,-7624.121203,-4673.182538,13101.645173
416.540121,-6217.729913,-7737.564530,14285.974681
416.540446,-6809.894666,-8733.488677,14285.974681
416.540771,-7105.977043,-6128.763984,12731.542202
416.541096,-4589.276840,-2834.553343,11843.295072
416.541421,444.123565,-689.485948,11621.233289
416.541746,4367.215058,2298.286494,9770.718434
416.542072,6883.915261,4903.011187,6883.915261
416.542397,6661.853478,6435.202183,3627.009116
416.542722,7698.141797,7890.783629,1702.473667
416.543047,9918.759623,7737.564530,2664.741391
416.543372,6661.853478,7201.297681,4367.215058
416.543697,74.020594,4290.134789,7105.977043
416.544022,-3034.844362,1378.971896,9178.553681
416.544347,-4737.318029,-2068.457845,10955.047942
416.544672,-8438.347739,-3140.991542,12509.480420
416.544997,-9622.677246,-6052.154434,14582.057057
416.545322,-10881.027347,-8197.221829,14656.077652
416.545647,-10140.821405,-8350.440928,13471.748144
416.545972,-7772.162391,-7660.954980,14656.077652
416.546297,-4293.194464,-3447.429741,14063.912898
416.546622,-1406.391290,1762.019645,10066.800811
416.546948,2294.638420,3524.039291,8660.409521
416.547273,7624.121203,5056.230287,6069.688724
416.547598,10214.842000,8810.098227,4441.235652
416.547923,9326.594869,9652.803275,814.226536
416.548248,7402.059420,8273.831378,1036.288319
416.548573,7105.977043,7048.078582,4811.338623
416.548898,2516.700203,5132.839837,7772.162391
416.549223,-2146.597232,1302.362347,9770.718434
416.549548,-4811.338623,-2145.067394,10510.924376
416.549873,-6587.832884,-3753.867940,13323.706956
416.550198,-6957.935855,-6665.030833,14137.933492
416.550523,-6661.853478,-8350.440928,14434.015869
416.550848,-5921.647536,-7890.783629,15026.180623
416.551173,-3849.070898,-2451.505594,13619.789333
416.551498,962.267725,-306.438199,12139.377449
416.551823,5107.421000,1838.629195,10362.883188
416.552149,6291.750507,4903.011187,6143.709319
416.552474,7476.080014,7277.907231,3256.906145
416.552799,9844.739029,7584.345430,3404.947333
416.553124,8660.409521,7354.516781,3478.967927
416.553449,5107.421000,6665.030833,4663.297435
416.553774,962.267725,4749.792088,5847.626942
416.554099,-3182.885551,1991.848295,8068.244768
416.554424,-4885.359217,-1225.752797,10214.842000
416.554749,-4737.318029,-3447.429741,13471.748144
416.555074,-7846.182985,-5362.668486,14434.015869
416.555399,-9548.656652,-7660.954980,15248.242405
416.555724,-6883.915261,-9576.193725,15174.221811
416.556049,-2368.659014,-6588.421283,15914.427753
416.556374,-296.082377,229.828649,13693.809927
416.556699,2590.720797,2068.457845,10066.800811
416.557025,6661.853478,3447.429741,7105.977043
416.557350,10362.883188,7890.783629,5403.503377
416.557675,10881.027347,9806.022374,2886.803174
416.558000,8142.265362,8273.831378,814.226536
416.558325,6365.771101,7431.126331,1924.535449
416.558650,3627.009116,7201.297681,4885.359217
416.558975,-814.226536,2987.772442,8586.388927
416.559300,-5847.626942,-919.314598,9770.718434
416.559625,-10288.862594,-3600.648841,10288.862594
416.559950,-11103.089130,-5515.887586,12435.459826
416.560275,-9992.780217,-8810.098227,14656.077652
416.560600,-9844.739029,-10035.851024,15988.448347
416.560925,-9104.533087,-9193.145976,14582.057057
416.561250,-5625.565159,-6358.592633,14359.995275
416.561575,296.082377,-1072.533697,13767.830521
416.561901,5551.544565,3447.429741,9992.780217
416.562226,7772.162391,4903.011187,6661.853478
416.562551,8882.471304,6818.249932,3478.967927
416.562876,11103.089130,8656.879127,2738.761985
416.563201,11547.212695,9422.974625,3404.947333
416.563526,7105.977043,7354.516781,3923.091493
416.563851,1702.473667,4213.525239,6365.771101
416.564176,-1702.473667,1149.143247,7698.141797
416.564501,-4737.318029,-1915.238745,10584.944971
416.564826,-7624.121203,-4290.134789,12731.542202
416.565151,-8586.388927,-6971.469032,13989.892304
416.565476,-9844.739029,-8580.269578,13841.851115
416.565801,-9326.594869,-8963.317327,11991.336260
416.566126,-5329.482782,-7584.345430,14137.933492
416.566451,-370.102971,-2911.162892,13323.706956
416.566776,1554.432478,1991.848295,9992.780217
416.567102,4663.297435,4060.306139,8216.285956
416.567427,10584.944971,6511.811733,6513.812290
416.567752,12361.439231,8810.098227,4737.318029
416.568077,9770.718434,8273.831378,962.267725
416.568402,7105.977043,7277.907231,2960.823768
416.568727,5773.606348,6358.592633,5995.668130
416.569052,1406.391290,4060.306139,9548.656652
416.569377,-4293.194464,-306.438199,10807.006753
416.569702,-7772.162391,-3753.867940,10881.027347
416.570027,-7698.141797,-5822.325785,13249.686362
416.570352,-8290.306550,-6741.640382,14804.118840
416.570677,-9104.533087,-8580.269578,14063.912898
416.571002,-7624.121203,-8044.002729,15544.324782
416.571327,-2886.803174,-3524.039291,13767.830521
416.571652,2738.761985,2068.457845,12213.398043
416.571978,6661.853478,4290.134789,10214.842000
416.572303,7550.100608,6052.154434,5477.523971
416.572628,9844.739029,9116.536426,2812.782580
416.572953,12879.583391,9959.241474,2220.617826
416.573278,10732.986159,9116.536426,1776.494261
416.573603,4959.379811,7431.126331,3775.050304
416.573928,148.041188,6358.592633,5995.668130
416.574253,-5107.421000,2604.724693,7772.162391
416.574578,-8068.244768,-2221.676944,9992.780217
416.574903,-9770.718434,-4366.744339,12139.377449
416.575228,-11029.068536,-6818.249932,12879.583391
416.575553,-12509.480420,-8733.488677,13175.665768
416.575878,-9474.636058,-8886.707777,15470.304188
416.576203,-4515.256246,-6052.154434,16284.530724
416.576528,-2146.597232,-536.266849,15396.283594
416.576854,1850.514855,1225.752797,9844.739029
416.577179,6809.894666,3217.601092,6883.915261
416.577504,9622.677246,8197.221829,6587.832884
416.577829,12583.501014,8580.269578,4293.194464
416.578154,9400.615463,7737.564530,1480.411884
416.578479,7254.018232,6588.421283,2368.659014
416.578804,5033.400406,7048.078582,5181.441594
416.579129,518.144159,3524.039291,8512.368333
416.579454,-4885.359217,-1915.238745,9252.574275
416.579779,-9474.636058,-3907.087040,10584.944971
416.580104,-9474.636058,-7048.078582,13619.789333
416.580429,-8290.306550,-9959.241474,15174.221811
416.580754,-9696.697840,-11108.384721,15026.180623
416.581079,-9400.615463,-9576.193725,14730.098246
416.581404,-3627.009116,-6818.249932,14285.974681
416.581729,1850.514855,229.828649,12879.583391
416.582055,6735.874072,2451.505594,7698.141797
416.582380,8512.368333,4366.744339,5033.400406
416.582705,9548.656652,7507.735880,2812.782580
416.583030,11843.295072,9346.365076,3627.009116
416.583355,12139.377449,8350.440928,4367.215058
416.583680,7031.956449,5975.544884,5329.482782
416.584005,1702.473667,4060.306139,6291.750507
416.584330,-2220.617826,1532.190996,8586.388927
416.584655,-5403.503377,-3064.381992,10362.883188
416.584980,-8586.388927,-4826.401637,11917.315666
416.585305,-9326.594869,-6741.640382,14211.954086
416.585630,-10214.842000,-9116.536426,14508.036463
416.585955,-9696.697840,-9269.755526,14063.912898
416.586280,-6587.832884,-7584.345430,14730.098246
416.586605,-2368.659014,-2221.676944,13397.727550
416.586931,1110.308913,1991.848295,9326.594869
416.587256,3849.070898,4366.744339,6735.874072
416.587581,10066.800811,7890.783629,5477.523971
416.587906,12065.356855,10725.336972,4071.132681
416.588231,9474.636058,9652.803275,1036.288319
416.588556,7328.038826,7048.078582,2664.741391
416.588881,6513.812290,6894.859482,6143.709319
416.589206,962.267725,5515.887586,8660.409521
416.589531,-4885.359217,1149.143247,9992.780217
416.589856,-7476.080014,-2834.553343,10658.965565
416.590181,-8512.368333,-5056.230287,12805.562797
416.590506,-8734.430116,-6894.859482,14730.098246
416.590831,-9474.636058,-7354.516781,15026.180623
416.591156,-7254.018232,-8273.831378,15988.448347
416.591481,-4293.194464,-4903.011187,15026.180623
416.591807,370.102971,229.828649,12953.603985
416.592132,4737.318029,4519.963438,9696.697840
416.592457,6143.709319,6588.421283,5995.668130
416.592782,7698.141797,8273.831378,2516.700203
416.593107,10066.800811,9882.631924,2738.761985
416.593432,8734.430116,9346.365076,3182.885551
416.593757,5255.462188,7737.564530,3256.906145
416.594082,222.061783,4519.963438,4885.359217
416.594407,-5107.421000,1838.629195,6439.791695
416.594732,-6439.791695,-766.095498,9770.718434
416.595057,-5477.523971,-3753.867940,12213.398043
416.595382,-7550.100608,-5209.449386,12583.501014
416.595707,-8512.368333,-6894.859482,13249.686362
416.596032,-4145.153275,-6894.859482,14952.160028
416.596357,-74.020594,-3983.696590,16802.674883
416.596682,1702.473667,-536.266849,15174.221811
416.597008,4219.173869,229.828649,10584.944971
416.597333,8586.388927,3677.258390,8438.347739
416.597658,12361.439231,8044.002729,5995.668130
416.597983,11991.336260,8197.221829,3404.947333
416.598308,8586.388927,6435.202183,1850.514855
416.598633,6735.874072,6818.249932,2886.803174
416.598958,3404.947333,6435.202183,5625.565159
416.599283,-1184.329507,1915.238745,8068.244768
416.599608,-7179.997637,-1685.410096,9474.636058
416.599933,-11029.068536,-3294.210641,9844.739029
416.600258,-10214.842000,-7354.516781,12139.377449
416.600583,-10066.800811,-10878.556072,15692.365970
416.600908,-9696.697840,-11031.775171,15840.407159
416.601233,-8438.347739,-8120.612279,16654.633695
416.601558,-5329.482782,-6435.202183,15692.365970
416.601884,148.041188,-2757.943793,13619.789333
416.602209,5773.606348,1225.752797,9252.574275
416.602534,7920.203579,5439.278036,5847.626942
416.602859,9918.759623,7201.297681,2442.679609
416.603184,12139.377449,9269.755526,2146.597232
416.603509,13989.892304,9116.536426,2368.659014
416.603834,7920.203579,8886.707777,3627.009116
416.604159,2368.659014,5592.497135,5921.647536
416.604484,-1036.288319,2528.115143,7624.121203
416.604809,-5477.523971,-1532.190996,10066.800811
416.605134,-10140.821405,-3753.867940,11843.295072
416.605459,-11103.089130,-7201.297681,14211.954086
416.605784,-12435.459826,-10648.727422,14211.954086
416.606109,-12139.377449,-11031.775171,14508.036463
416.606434,-9474.636058,-8503.660028,16580.613101
416.606760,-3627.009116,-3600.648841,15396.283594
416.607085,666.185348,1225.752797,10658.965565
416.607410,3330.926739,3524.039291,8142.265362
416.607735,9770.718434,7584.345430,5107.421000
416.608060,12065.356855,10878.556072,2146.597232
416.608385,10436.903782,10189.070123,-74.020594
416.608710,8512.368333,8733.488677,2220.617826
416.609035,7031.956449,7814.174080,5403.503377
416.609360,1776.494261,5745.716235,8586.388927
416.609685,-4441.235652,842.705048,10140.821405
416.610010,-7105.977043,-3600.648841,9696.697840
416.610335,-8882.471304,-5592.497135,12657.521608
416.610660,-8142.265362,-7660.954980,14063.912898
416.610985,-8734.430116,-8580.269578,13915.871710
416.611310,-6957.935855,-6971.469032,15396.283594
416.611635,-3182.885551,-2911.162892,15174.221811
416.611961,1924.535449,-689.485948,13989.892304
416.612286,6513.812290,1838.629195,10881.027347
416.612611,7772.162391,6358.592633,5921.647536
416.612936,9400.615463,8656.879127,2294.638420
416.613261,12139.377449,9193.145976,1998.556043
416.613586,10510.924376,9193.145976,2146.597232
416.613911,6143.709319,7890.783629,3627.009116
416.614236,1036.288319,4749.792088,6143.709319
416.614561,-5181.441594,766.095498,7402.059420
416.614886,-7550.100608,-1991.848295,10066.800811
416.615211,-7920.203579,-4826.401637,12805.562797
416.615536,-10807.006753,-8120.612279,13693.809927
416.615861,-12065.356855,-10495.508323,14063.912898
416.616186,-8068.244768,-10265.679673,15914.427753
416.616511,-3404.947333,-6894.859482,17468.860231
416.616837,-962.267725,-153.219100,16062.468941
416.617162,2738.761985,229.828649,10955.047942
416.617487,7772.162391,2681.334243,7624.121203
416.617812,11325.150913,7967.393179,4737.318029
416.618137,12287.418637,10342.289223,1554.432478
416.618462,9696.697840,8656.879127,296.082377
416.618787,8438.347739,7814.174080,1628.453072
416.619112,5551.544565,7967.393179,5551.544565
416.619437,0.000000,3600.648841,9474.636058
416.619762,-6217.729913,-766.095498,9474.636058
416.620087,-10140.821405,-4060.306139,10066.800811
416.620412,-10066.800811,-7814.174080,12805.562797
416.620737,-9548.656652,-9346.365076,14211.954086
416.621062,-10658.965565,-9882.631924,15026.180623
416.621387,-8438.347739,-7584.345430,14656.077652
416.621713,-3997.112087,-5592.497135,15840.407159
416.622038,222.061783,-842.705048,14582.057057
416.622363,6513.812290,2757.943793,10066.800811
416.622688,8290.306550,4903.011187,5921.647536
416.623013,8512.368333,8350.440928,1258.350101
416.623338,11177.109724,10572.117872,296.082377
416.623663,13101.645173,10189.070123,3182.885551
416.623988,6513.812290,8733.488677,4219.173869
416.624313,148.041188,4366.744339,7698.141797
416.624638,-2886.803174,1378.971896,9326.594869
416.624963,-5847.626942,-1915.238745,11251.130318
416.625288,-9622.677246,-4673.182538,11991.336260
416.625613,-10066.800811,-7507.735880,13841.851115
416.625938,-10140.821405,-8886.707777,13249.686362
416.626263,-8586.388927,-7890.783629,13767.830521
416.626588,-4441.235652,-5669.106685,15988.448347
416.626914,148.041188,-1991.848295,13915.871710
416.627239,2294.638420,1685.410096,10510.924376
416.627564,5847.626942,4979.620737,8216.285956
416.627889,11917.315666,8350.440928,5403.503377
416.628214,12805.562797,9806.022374,1998.556043
416.628539,9474.636058,9193.145976,-518.144159
416.628864,6513.812290,8733.488677,2590.720797
416.629189,4737.318029,6358.592633,7402.059420
416.629514,-1332.370696,3140.991542,10807.006753
416.629839,-7179.997637,-995.924147,10140.821405
416.630164,-9770.718434,-4979.620737,9696.697840
416.630489,-10066.800811,-8963.317327,11917.315666
416.630814,-9622.677246,-9499.584175,12435.459826
416.631139,-9474.636058,-8044.002729,14804.118840
416.631464,-6661.853478,-6128.763984,15840.407159
416.631790,-1184.329507,-2757.943793,15840.407159
416.632115,3701.029710,766.095498,14878.139434
416.632440,8438.347739,2834.553343,10288.862594
416.632765,8882.471304,5439.278036,4441.235652
416.633090,10436.903782,8273.831378,2516.700203
416.633415,13545.768739,9116.536426,2072.576638
416.633740,10584.944971,8580.269578,3627.009116
416.634065,5551.544565,7048.078582,5847.626942
416.634390,-148.041188,4826.401637,8142.265362
416.634715,-5551.544565,612.876398,7624.121203
416.635040,-7772.162391,-3447.429741,7994.224174
416.635365,-9178.553681,-7124.688131,12583.501014
416.635690,-12583.501014,-7431.126331,12361.439231
416.636015,-11843.295072,-9346.365076,12213.398043
416.636340,-8142.265362,-9652.803275,14656.077652
416.636666,-3552.988522,-4903.011187,16802.674883
416.636991,-1036.288319,-153.219100,15544.324782
416.637316,2664.741391,536.266849,11547.212695
416.637641,7772.162391,1685.410096,7846.182985
416.637966,11473.192101,7431.126331,5551.544565
416.638292,11177.109724,10112.460574,1406.391290
416.638617,8808.450710,8427.050478,444.123565
416.638942,7031.956449,7124.688131,4071.132681
416.639267,3478.967927,7354.516781,8512.368333
416.639592,-1480.411884,3370.820191,11695.253884
416.639918,-6735.874072,-1149.143247,9474.636058
416.640243,-11547.212695,-4596.572988,10807.006753
416.640568,-10955.047942,-7890.783629,11843.295072
416.640893,-9252.574275,-9806.022374,12731.542202
416.641218,-8586.388927,-7967.393179,14434.015869
416.641544,-5699.585753,-2145.067394,13249.686362
416.641869,-592.164754,-1378.971896,14952.160028
416.642194,3923.091493,306.438199,13619.789333
416.642519,8364.327145,2681.334243,7846.182985
416.642844,9326.594869,7660.954980,5847.626942
416.643170,10807.006753,10035.851024,962.267725
416.643495,11695.253884,9882.631924,1184.329507
416.643820,11621.233289,9193.145976,3923.091493
416.644145,4811.338623,7967.393179,5699.585753
416.644471,-2368.659014,3983.696590,9400.615463
416.644796,-5995.668130,-383.047749,9178.553681
416.645121,-9178.553681,-3217.601092,10510.924376
416.645446,-11769.274478,-6281.983084,11917.315666
416.645771,-12139.377449,-9116.536426,12731.542202
416.646097,-13027.624579,-9346.365076,13027.624579
416.646422,-9770.718434,-7737.564530,11843.295072
416.646747,-3627.009116,-3753.867940,15026.180623
416.647072,1406.391290,612.876398,14359.995275
416.647397,4071.132681,2528.115143,10584.944971
416.647723,7920.203579,3524.039291,6957.935855
416.648048,14063.912898,8580.269578,5773.606348
416.648373,15396.283594,10725.336972,2294.638420
416.648698,10362.883188,9882.631924,148.041188
416.649023,10362.883188,6741.640382,3775.050304
416.649349,6809.894666,6894.859482,8734.430116
416.649674,148.041188,2911.162892,11917.315666
416.649999,-5551.544565,-1225.752797,10955.047942
416.650324,-9104.533087,-5209.449386,10066.800811
416.650649,-10362.883188,-8810.098227,11769.274478
416.650975,-9992.780217,-9806.022374,12953.603985
416.651300,-9696.697840,-9729.412825,14359.995275
416.651625,-6069.688724,-5286.058936,13841.851115
416.651950,-2072.576638,-1838.629195,14804.118840
416.652275,2368.659014,-153.219100,12879.583391
416.652601,7105.977043,3064.381992,9252.574275
416.652926,7920.203579,5362.668486,6217.729913
416.653251,8734.430116,6818.249932,2664.741391
416.653576,10436.903782,7660.954980,2664.741391
416.653901,8660.409521,7890.783629,3627.009116
416.654227,3775.050304,5592.497135,6069.688724
416.654552,-2294.638420,2221.676944,9918.759623
416.654877,-6365.771101,-612.876398,9474.636058
416.655202,-8586.388927,-3294.210641,11103.089130
416.655527,-9252.574275,-7201.297681,13323.706956
416.655853,-11769.274478,-8810.098227,12879.583391
416.656178,-12139.377449,-6894.859482,12805.562797
416.656503,-5477.523971,-5362.668486,13693.809927
416.656828,-222.061783,-1532.190996,14137.933492
416.657153,1332.370696,919.314598,11621.233289
416.657479,4663.297435,2681.334243,8290.306550
416.657804,8956.491898,6358.592633,6883.915261
416.658129,12361.439231,8427.050478,5033.400406
416.658454,10807.006753,9193.145976,1332.370696
416.658779,9104.533087,9116.536426,-0.000000
416.659105,7698.141797,8733.488677,3108.864956
416.659430,3849.070898,6205.373534,7994.224174
416.659755,-1332.370696,1838.629195,11843.295072
416.660080,-5625.565159,-995.924147,11621.233289
416.660405,-9918.759623,-2221.676944,11547.212695
416.660731,-10510.924376,-7660.954980,11917.315666
416.661056,-10214.842000,-10495.508323,12139.377449
416.661381,-10510.924376,-9422.974625,14063.912898
416.661706,-5699.585753,-4060.306139,14211.954086
416.662031,-962.267725,-383.047749,13989.892304
416.662357,2072.576638,229.828649,12953.603985
416.662682,6735.874072,3217.601092,7476.080014
416.663007,7994.224174,6205.373534,5773.606348
416.663332,8734.430116,7277.907231,2368.659014
416.663657,10510.924376,8503.660028,2368.659014
416.663983,10955.047942,8656.879127,3627.009116
416.664308,5403.503377,6741.640382,4367.215058
416.664633,-1184.329507,2221.676944,8512.368333
416.664958,-4145.153275,-229.828649,10436.903782
416.665283,-6291.750507,-2834.553343,12065.356855
416.665609,-8956.491898,-5362.668486,13915.871710
416.665934,-10881.027347,-9652.803275,14359.995275
416.666259,-10214.842000,-11644.651570,11399.171507
416.666584,-5921.647536,-8503.660028,11621.233289
416.666910,-740.205942,0.000000,14878.139434
416.667235,3478.967927,2451.505594,13027.624579
416.667560,4663.297435,1838.629195,9918.759623
416.667885,8216.285956,4903.011187,8290.306550
416.668210,12139.377449,7814.174080,5995.668130
416.668536,10436.903782,8886.707777,1850.514855
416.668861,7105.977043,7048.078582,1036.288319
416.669186,5329.482782,6358.592633,4737.318029
416.669511,1184.329507,4213.525239,8438.347739
416.669836,-5033.400406,612.876398,10658.965565
416.670162,-10140.821405,-2757.943793,10288.862594
416.670487,-12731.542202,-5822.325785,11103.089130
416.670812,-12731.542202,-9346.365076,12287.418637
416.671137,-11843.295072,-11568.042020,12731.542202
416.671462,-10955.047942,-10648.727422,13175.665768
416.671788,-6217.729913,-4979.620737,14434.015869
416.672113,740.205942,3140.991542,14656.077652
416.672438,7550.100608,3447.429741,12287.418637
416.672763,10807.006753,4060.306139,9400.615463
416.673088,12065.356855,7201.297681,6217.729913
416.673414,12287.418637,11261.603821,3849.070898
416.673739,13619.789333,10189.070123,2220.617826
416.674064,9992.780217,7967.393179,3182.885551
416.674389,4219.173869,6588.421283,5107.421000
416.674714,-3034.844362,3600.648841,7846.182985
416.675040,-6883.915261,-842.705048,10214.842000
416.675365,-9474.636058,-3830.477490,12213.398043
416.675690,-12435.459826,-7584.345430,13027.624579
416.676015,-15692.365970,-11184.994271,11103.089130
416.676340,-13027.624579,-12027.699319,10362.883188
416.676666,-6587.832884,-8580.269578,12583.501014
416.676991,-444.123565,1762.019645,14878.139434
416.677316,3108.864956,3983.696590,12435.459826
416.677641,6439.791695,2987.772442,10066.800811
416.677966,11991.336260,4519.963438,6957.935855
416.678292,13545.768739,8580.269578,6809.894666
416.678617,10732.986159,9499.584175,3330.926739
416.678942,8142.265362,7048.078582,2960.823768
416.679267,5995.668130,5286.058936,5033.400406
416.679592,1924.535449,3447.429741,8956.491898
416.679918,-3701.029710,0.000000,11399.171507
416.680243,-8808.450710,-2834.553343,10807.006753
416.680568,-10955.047942,-5515.887586,11029.068536
416.680893,-9400.615463,-9959.241474,12435.459826
416.681218,-8364.327145,-11031.775171,12953.603985
416.681544,-6365.771101,-7431.126331,12435.459826
416.681869,-1036.288319,0.000000,11769.274478
416.682194,3923.091493,2528.115143,12731.542202
416.682519,7550.100608,3983.696590,11769.274478
416.682844,11103.089130,5132.839837,7105.977043
416.683170,11695.253884,7354.516781,5921.647536
416.683495,10807.006753,9422.974625,3404.947333
416.683820,9992.780217,8044.002729,4663.297435
416.684145,8734.430116,6358.592633,5255.462188
416.684470,962.267725,3983.696590,7031.956449
416.684796,-6809.894666,612.876398,8734.430116
416.685121,-9474.636058,-2374.896044,10436.903782
416.685446,-11399.171507,-5056.230287,11695.253884
416.685771,-13619.789333,-7967.393179,13693.809927
416.686096,-14582.057057,-10878.556072,12139.377449
416.686422,-14137.933492,-9806.022374,11917.315666
416.686747,-10140.821405,-6205.373534,12213.398043
416.687072,-2516.700203,76.609550,13323.706956
416.687397,2516.700203,3064.381992,11251.130318
416.687722,3552.988522,5592.497135,9326.594869
416.688048,9178.553681,6588.421283,6291.750507
416.688373,15544.324782,9806.022374,5921.647536
416.688698,14434.015869,11414.822920,2812.782580
416.689023,11177.109724,10035.851024,2368.659014
416.689349,10140.821405,8350.440928,5625.565159
416.689674,6439.791695,6818.249932,7624.121203
416.689999,666.185348,2757.943793,10658.965565
416.690324,-4515.256246,-1532.190996,10214.842000
416.690649,-7846.182985,-3294.210641,10140.821405
416.690975,-9474.636058,-4903.011187,12065.356855
416.691300,-10214.842000,-7890.783629,12953.603985
416.691625,-9992.780217,-9422.974625,13767.830521
416.691950,-7698.141797,-7507.735880,14285.974681
416.692275,-4367.215058,-995.924147,13545.768739
416.692601,1480.411884,2374.896044,10140.821405
416.692926,5403.503377,3524.039291,8734.430116
416.693251,6291.750507,5056.230287,5329.482782
416.693576,7550.100608,6052.154434,3997.112087
416.693901,8142.265362,7354.516781,3923.091493
416.694227,7105.977043,6511.811733,4663.297435
416.694552,3256.906145,4596.572988,6291.750507
416.694877,-1924.535449,2145.067394,8142.265362
416.695202,-4515.256246,-995.924147,8882.471304
416.695527,-5551.544565,-4136.915689,11251.130318
416.695853,-7254.018232,-7354.516781,14582.057057
416.696178,-10584.944971,-8810.098227,14211.954086
416.696503,-7698.141797,-9806.022374,12657.521608
416.696828,-1924.535449,-7814.174080,14656.077652
416.697153,1776.494261,-995.924147,14952.160028
416.697479,4737.318029,2681.334243,11843.295072
416.697804,7179.997637,3677.258390,8660.409521
416.698129,11029.068536,5745.716235,5995.668130
416.698454,12361.439231,8656.879127,4145.153275
416.698779,10066.800811,9499.584175,2146.597232
416.699105,7105.977043,7201.297681,1850.514855
416.699430,3478.967927,6128.763984,4811.338623
416.699755,-2146.597232,3447.429741,8586.388927
416.700080,-7772.162391,-842.705048,10214.842000
416.700405,-11547.212695,-4519.963438,9844.739029
416.700731,-14804.118840,-8120.612279,11695.253884
416.701056,-14211.954086,-11568.042020,13027.624579
416.701381,-12287.418637,-11721.261119,14804.118840
416.701706,-9252.574275,-8197.221829,15692.365970
416.702031,-5625.565159,-3447.429741,15248.242405
416.702357,-814.226536,1915.238745,13175.665768
416.702682,6957.935855,4903.011187,10140.821405
416.703007,11177.109724,6588.421283,5403.503377
416.703332,12435.459826,9499.584175,4145.153275
416.703657,13323.706956,12947.013916,2368.659014
416.703983,14582.057057,13023.623466,3034.844362
416.704308,13693.809927,10035.851024,5255.462188
416.704633,5995.668130,7048.078582,5329.482782
416.704958,-444.123565,4136.915689,7624.121203
416.705283,-3701.029710,536.266849,9030.512492
416.705609,-6883.915261,-3524.039291,11843.295072
416.705934,-10066.800811,-5439.278036,12657.521608
416.706259,-11251.130318,-7890.783629,12805.562797
416.706584,-11251.130318,-10189.070123,11547.212695
416.706909,-8586.388927,-7201.297681,11991.336260
416.707235,-3701.029710,-2834.553343,13841.851115
416.707560,740.205942,1532.190996,12213.398043
416.707885,2146.597232,2757.943793,9918.759623
416.708210,5921.647536,4443.353888,6513.812290
416.708535,10214.842000,7354.516781,4515.256246
416.708861,8956.491898,8044.002729,3034.844362
416.709186,5699.585753,7354.516781,2886.803174
416.709511,4811.338623,3907.087040,6587.832884
416.709836,2072.576638,2681.334243,9770.718434
416.710161,-3256.906145,-459.657299,10807.006753
416.710487,-7105.977043,-2987.772442,10510.924376
416.710812,-8586.388927,-7890.783629,11325.150913
416.711137,-9252.574275,-9959.241474,13397.727550
416.711462,-7994.224174,-10955.165621,13619.789333
416.711788,-5255.462188,-8810.098227,14508.036463
416.712113,-1628.453072,-4519.963438,14804.118840
416.712438,1850.514855,1149.143247,12953.603985
416.712763,7920.203579,3140.991542,10955.047942
416.713088,10732.986159,4290.134789,7550.100608
416.713414,10214.842000,6435.202183,3627.009116
416.713739,10807.006753,8580.269578,2590.720797
416.714064,10362.883188,8273.831378,3701.029710
416.714389,6809.894666,5669.106685,5107.421000
416.714714,0.000000,3217.601092,7402.059420
416.715040,-6809.894666,229.828649,8290.306550
416.715365,-10362.883188,-2681.334243,8882.471304
416.715690,-10732.986159,-7507.735880,11991.336260
416.716015,-12805.562797,-9576.193725,13323.706956
416.716340,-15322.262999,-10495.508323,11843.295072
416.716666,-12139.377449,-9499.584175,12509.480420
416.716991,-4219.173869,-6741.640382,13915.871710
416.717316,370.102971,1225.752797,14508.036463
416.717641,4071.132681,4596.572988,11769.274478
416.717966,7105.977043,5056.230287,8438.347739
416.718292,12657.521608,7431.126331,4737.318029
416.718617,15544.324782,10495.508323,4071.132681
416.718942,12361.439231,12104.308868,1998.556043
416.719267,9252.574275,9652.803275,4515.256246
416.719592,7698.141797,7890.783629,6661.853478
416.719918,3182.885551,4826.401637,9622.677246
416.720243,-1998.556043,2145.067394,11621.233289
416.720568,-7846.182985,-1378.971896,10288.862594
416.720893,-11399.171507,-3294.210641,9770.718434
416.721218,-9992.780217,-7660.954980,11399.171507
416.721544,-9844.739029,-9193.145976,13397.727550
416.721869,-8882.471304,-6588.421283,13397.727550
416.722194,-5329.482782,-995.924147,12657.521608
416.722519,-740.205942,383.047749,11843.295072
416.722844,2294.638420,1455.581446,9548.656652
416.723170,6365.771101,5439.278036,6439.791695
416.723495,7698.141797,7584.345430,3923.091493
416.723820,7105.977043,8120.612279,1702.473667
416.724145,8586.388927,7660.954980,4441.235652
416.724470,7698.141797,8120.612279,6143.709319
416.724796,1258.350101,5362.668486,7846.182985
416.725121,-3182.885551,612.876398,8956.491898
416.725446,-4663.297435,-2451.505594,9326.594869
416.725771,-7846.182985,-3140.991542,12509.480420
416.726096,-8808.450710,-5898.935335,12583.501014
416.726422,-8142.265362,-9806.022374,12731.542202
416.726747,-7846.182985,-9116.536426,12287.418637
416.727072,-5255.462188,-5056.230287,13397.727550
416.727397,888.247130,-1072.533697,15100.201217
416.727722,4441.235652,229.828649,11991.336260
416.728048,4737.318029,2604.724693,8068.244768
416.728373,8882.471304,5209.449386,6069.688724
416.728698,13767.830521,8350.440928,4737.318029
416.729023,11621.233289,8273.831378,3404.947333
416.729348,7031.956449,7277.907231,3923.091493
416.729674,5699.585753,4213.525239,6809.894666
416.729999,1406.391290,2528.115143,9992.780217
416.730324,-4441.235652,-536.266849,10066.800811
416.730649,-8734.430116,-4060.306139,10881.027347
416.730974,-10658.965565,-8656.879127,12139.377449
416.731300,-11621.233289,-11338.213370,12435.459826
416.731625,-11621.233289,-11414.822920,13471.748144
416.731950,-9696.697840,-8963.317327,14656.077652
416.732275,-4737.318029,-4443.353888,14211.954086
416.732600,0.000000,766.095498,12139.377449
416.732926,5773.606348,2834.553343,10140.821405
416.733251,8882.471304,5439.278036,7105.977043
416.733576,9474.636058,7890.783629,3478.967927
416.733901,10436.903782,9652.803275,1998.556043
416.734226,10510.924376,9806.022374,3330.926739
416.734552,7772.162391,7814.174080,5329.482782
416.734877,2146.597232,5515.887586,7105.977043
416.735202,-2442.679609,2451.505594,8290.306550
416.735527,-6217.729913,-1149.143247,9474.636058
416.735852,-7772.162391,-3524.039291,12509.480420
416.736178,-8956.491898,-5592.497135,12953.603985
416.736503,-11399.171507,-7814.174080,10955.047942
416.736828,-9252.574275,-7737.564530,12509.480420
416.737153,-3108.864956,-3677.258390,14063.912898
416.737478,962.267725,1991.848295,13915.871710
416.737803,2960.823768,2528.115143,11843.295072
416.738129,5033.400406,3600.648841,7994.224174
416.738454,9178.553681,7584.345430,5921.647536
416.738779,10658.965565,9576.193725,4515.256246
416.739104,7698.141797,7814.174080,3034.844362
416.739429,4293.194464,6052.154434,3478.967927
416.739755,1628.453072,5898.935335,6143.709319
416.740080,-2072.576638,2757.943793,9548.656652
416.740405,-5921.647536,-1302.362347,10362.883188
416.740730,-10436.903782,-3217.601092,10658.965565
416.741055,-11695.253884,-6511.811733,11177.109724
416.741380,-9030.512492,-9959.241474,12287.418637
416.741706,-7328.038826,-10035.851024,14063.912898
416.742031,-5403.503377,-5515.887586,14063.912898
416.742356,-1110.308913,-306.438199,12435.459826
416.742681,5181.441594,995.924147,11991.336260
416.743006,9622.677246,3447.429741,9474.636058
416.743332,12879.583391,6588.421283,7031.956449
416.743657,13027.624579,10035.851024,5033.400406
416.743982,11991.336260,9576.193725,2738.761985
416.744307,11251.130318,8197.221829,4589.276840
416.744632,8734.430116,6588.421283,6217.729913
416.744957,1036.288319,3983.696590,8660.409521
416.745283,-5477.523971,0.000000,9104.533087
416.745608,-7328.038826,-3753.867940,10955.047942
416.745933,-10807.006753,-6665.030833,12361.439231
416.746258,-12583.501014,-9346.365076,12361.439231
416.746583,-13397.727550,-11491.432470,11621.233289
416.746909,-12879.583391,-10112.460574,11547.212695
416.747234,-8142.265362,-7431.126331,12361.439231
416.747559,-1184.329507,-919.314598,14804.118840
416.747884,3923.091493,2528.115143,11917.315666
416.748209,5033.400406,3907.087040,8364.327145
416.748534,9622.677246,5898.935335,5477.523971
416.748860,14582.057057,10189.070123,5403.503377
416.749185,13397.727550,10725.336972,2294.638420
416.749510,8808.450710,7967.393179,3552.988522
416.749835,6439.791695,5898.935335,7550.100608
416.750160,1702.473667,4749.792088,10658.965565
416.750485,-2516.700203,612.876398,11991.336260
416.750811,-6365.771101,-2681.334243,11251.130318
416.751136,-10214.842000,-6052.154434,12361.439231
416.751461,-11399.171507,-8656.879127,10214.842000
416.751786,-10436.903782,-10342.289223,11251.130318
416.752111,-9474.636058,-7584.345430,13619.789333
416.752437,-5847.626942,-1225.752797,11695.253884
416.752762,-370.102971,1149.143247,10658.965565
416.753087,5107.421000,4060.306139,9844.739029
416.753412,8734.430116,5592.497135,7846.182985
416.753737,7846.182985,8044.002729,4367.215058
416.754062,9400.615463,8810.098227,962.267725
416.754388,9844.739029,8580.269578,3552.988522
416.754713,6365.771101,7277.907231,4885.359217
416.755038,1406.391290,4443.353888,8586.388927
416.755363,-3330.926739,612.876398,11621.233289
416.755688,-7402.059420,-1991.848295,11621.233289
416.756014,-8512.368333,-5592.497135,13545.768739
416.756339,-9622.677246,-9193.145976,13027.624579
416.756664,-11547.212695,-10572.117872,9918.759623
416.756989,-8882.471304,-8733.488677,11769.274478
416.757314,-2960.823768,-2757.943793,13693.809927
416.757639,1480.411884,2681.334243,14211.954086
416.757965,3627.009116,2298.286494,10881.027347
416.758290,6735.874072,2757.943793,6439.791695
416.758615,10955.047942,6894.859482,5033.400406
416.758940,12287.418637,9959.241474,4219.173869
416.759265,10214.842000,8503.660028,1850.514855
416.759591,7624.121203,6741.640382,2960.823768
416.759916,5033.400406,5439.278036,6957.935855
416.760241,222.061783,3600.648841,10584.944971
416.760566,-2294.638420,-1532.190996,12879.583391
416.760891,-6587.832884,-3524.039291,12657.521608
416.761216,-10140.821405,-6358.592633,13471.748144
416.761542,-8216.285956,-10648.727422,13175.665768
416.761867,-6439.791695,-11031.775171,12805.562797
416.762192,-6365.771101,-5745.716235,13323.706956
416.762517,-3108.864956,2221.676944,11695.253884
416.762842,2516.700203,2374.896044,11843.295072
416.763168,5625.565159,3294.210641,8882.471304
416.763493,8068.244768,4673.182538,5921.647536
416.763818,7105.977043,7737.564530,3627.009116
416.764143,7179.997637,8886.707777,666.185348
416.764468,7031.956449,7890.783629,3775.050304
416.764793,4515.256246,5592.497135,6217.729913
416.765119,-2146.597232,3370.820191,8216.285956
416.765444,-5847.626942,-536.266849,10066.800811
416.765769,-6735.874072,-2911.162892,11473.192101
416.766094,-8438.347739,-4673.182538,13249.686362
416.766419,-8364.327145,-7124.688131,14359.995275
416.766744,-8882.471304,-8350.440928,12879.583391
416.767070,-7550.100608,-6971.469032,11621.233289
416.767395,-2368.659014,-3677.258390,12361.439231
416.767720,2516.700203,2145.067394,10955.047942
416.768045,3923.091493,4519.963438,10066.800811
416.768370,5181.441594,4443.353888,8068.244768
416.768696,7920.203579,5362.668486,6217.729913
416.769021,9992.780217,7967.393179,4663.297435
416.769346,7698.141797,7660.954980,3627.009116
416.769671,2886.803174,5592.497135,3108.864956
416.769996,814.226536,3064.381992,7105.977043
416.770321,-2146.597232,612.876398,11251.130318
416.770647,-7105.977043,-1762.019645,11917.315666
416.770972,-9474.636058,-4596.572988,11917.315666
416.771297,-9400.615463,-8656.879127,12731.542202
416.771622,-9474.636058,-10495.508323,12139.377449
416.771947,-7031.956449,-8427.050478,13841.851115
416.772273,-2812.782580,-5592.497135,13545.768739
416.772598,0.000000,766.095498,10955.047942
416.772923,3997.112087,3217.601092,9400.615463
416.773248,9252.574275,4979.620737,7624.121203
416.773573,12361.439231,6588.421283,6957.935855
416.773898,10066.800811,9039.926876,5773.606348
416.774224,9696.697840,7584.345430,2960.823768
416.774549,9104.533087,6511.811733,5477.523971
416.774874,5181.441594,5592.497135,7328.038826
416.775199,-1924.535449,2451.505594,8512.368333
416.775524,-6143.709319,-1838.629195,9104.533087
416.775850,-6809.894666,-4366.744339,11769.274478
416.776175,-8364.327145,-5056.230287,13693.809927
416.776500,-10288.862594,-7048.078582,12879.583391
416.776825,-10140.821405,-8810.098227,12657.521608
416.777150,-6809.894666,-6971.469032,12805.562797
416.777475,-370.102971,-2528.115143,12509.480420
416.777801,4071.132681,3294.210641,11325.150913
416.778126,4367.215058,5362.668486,8882.471304
416.778451,6661.853478,6511.811733,6883.915261
416.778776,11251.130318,6741.640382,5773.606348
416.779101,9844.739029,8503.660028,4441.235652
416.779427,6957.935855,7660.954980,3034.844362
416.779752,4811.338623,6741.640382,4293.194464
416.780077,962.267725,5132.839837,7105.977043
416.780402,-3627.009116,2068.457845,9992.780217
416.780727,-6809.894666,-2221.676944,11695.253884
416.781052,-10066.800811,-4213.525239,9548.656652
416.781378,-10436.903782,-6588.421283,10732.986159
416.781703,-8586.388927,-7660.954980,13471.748144
416.782028,-7254.018232,-6511.811733,14952.160028
416.782353,-4737.318029,-3830.477490,14211.954086
416.782678,-1036.288319,-1072.533697,11621.233289
416.783003,2738.761985,2987.772442,9622.677246
416.783329,8216.285956,5898.935335,6365.771101
416.783654,9474.636058,7354.516781,6143.709319
416.783979,8808.450710,7431.126331,5699.585753
416.784304,7994.224174,7431.126331,4219.173869
416.784629,8142.265362,6435.202183,5773.606348
416.784955,5107.421000,5669.106685,7402.059420
416.785280,-1850.514855,1762.019645,8734.430116
416.785605,-7179.997637,-1762.019645,9400.615463
416.785930,-7698.141797,-4366.744339,11103.089130
416.786255,-9178.553681,-7048.078582,13545.768739
416.786580,-10881.027347,-9346.365076,12731.542202
416.786906,-10288.862594,-10418.898773,11473.192101
416.787231,-7772.162391,-7431.126331,13397.727550
416.787556,-2664.741391,-4673.182538,13471.748144
416.787881,2590.720797,612.876398,11103.089130
416.788206,6217.729913,2911.162892,8068.244768
416.788532,7105.977043,6435.202183,5477.523971
416.788857,11103.089130,7354.516781,4737.318029
416.789182,12953.603985,8656.879127,4663.297435
416.789507,9992.780217,7890.783629,4589.276840
416.789832,5699.585753,4903.011187,6069.688724
416.790157,3404.947333,2681.334243,9030.512492
416.790483,-1036.288319,689.485948,10732.986159
416.790808,-5329.482782,-2604.724693,11843.295072
416.791133,-7476.080014,-6052.154434,12953.603985
416.791458,-8808.450710,-8580.269578,13175.665768
416.791783,-8956.491898,-9422.974625,11695.253884
416.792109,-6513.812290,-8273.831378,14285.974681
416.792434,-3256.906145,-3600.648841,13545.768739
416.792759,-1110.308913,842.705048,11547.212695
416.793084,2294.638420,2451.505594,9400.615463
416.793409,7105.977043,5209.449386,6143.709319
416.793734,9622.677246,8427.050478,3997.112087
416.794060,7846.182985,9729.412825,1850.514855
416.794385,7328.038826,7967.393179,3256.906145
416.794710,6365.771101,6588.421283,5625.565159
416.795035,2368.659014,4903.011187,8290.306550
416.795360,-4071.132681,1378.971896,9770.718434
416.795686,-8586.388927,-1991.848295,9474.636058
416.796011,-8660.409521,-4749.792088,10881.027347
416.796336,-8586.388927,-6435.202183,14063.912898
416.796661,-9918.759623,-7354.516781,13101.645173
416.796986,-9474.636058,-8886.707777,12361.439231
416.797311,-4737.318029,-5439.278036,13175.665768
416.797637,666.185348,1455.581446,13693.809927
416.797962,4663.297435,3830.477490,12065.356855
416.798287,6365.771101,4903.011187,8216.285956
416.798612,9326.594869,7124.688131,5181.441594
416.798937,11769.274478,9806.022374,4293.194464
416.799263,9252.574275,9193.145976,2516.700203
416.799588,5403.503377,6665.030833,3627.009116
416.799913,2368.659014,5362.668486,6217.729913
416.800238,-2146.597232,3294.210641,9178.553681
416.800563,-5181.441594,-919.314598,9844.739029
416.800888,-7698.141797,-3830.477490,10807.006753
416.801214,-10807.006753,-6281.983084,10807.006753
416.801539,-10584.944971,-8120.612279,11325.150913
416.801864,-7402.059420,-9806.022374,12805.562797
416.802189,-5107.421000,-7048.078582,14582.057057
416.802514,-1628.453072,-1302.362347,13915.871710
416.802839,1998.556043,995.924147,11843.295072
416.803165,5773.606348,2451.505594,10510.924376
416.803490,9474.636058,4443.353888,7476.080014
416.803815,10955.047942,6971.469032,4515.256246
416.804140,10436.903782,8197.221829,2442.679609
416.804465,8216.285956,7967.393179,4219.173869
416.804791,7031.956449,6281.983084,6143.709319
416.805116,3478.967927,3677.258390,8808.450710
416.805441,-2516.700203,0.000000,9474.636058
416.805766,-7476.080014,-2068.457845,8808.450710
416.806091,-8438.347739,-4979.620737,10807.006753
416.806416,-8364.327145,-7507.735880,13619.789333
416.806742,-10214.842000,-9039.926876,13989.892304
416.807067,-10658.965565,-9269.755526,12805.562797
416.807392,-6513.812290,-8273.831378,11991.336260
416.807717,-1332.370696,-2145.067394,13545.768739
416.808042,4293.194464,2834.553343,12213.398043
416.808368,6587.832884,4443.353888,10807.006753
416.808693,8068.244768,5822.325785,5773.606348
416.809018,11473.192101,8044.002729,4515.256246
416.809343,12657.521608,11108.384721,1998.556043
416.809668,8882.471304,9499.584175,3034.844362
416.809993,4589.276840,5439.278036,5107.421000
416.810319,222.061783,3447.429741,8586.388927
416.810644,-4737.318029,1149.143247,10955.047942
416.810969,-7772.162391,-1302.362347,10362.883188
416.811294,-9548.656652,-6052.154434,11103.089130
416.811619,-11843.295072,-9499.584175,11769.274478
416.811945,-11695.253884,-10112.460574,11769.274478
416.812270,-9474.636058,-8350.440928,13841.851115
416.812595,-3923.091493,-3983.696590,13027.624579
416.812920,-296.082377,1608.800546,11177.109724
416.813245,2738.761985,4979.620737,10732.986159
416.813570,9030.512492,6128.763984,8438.347739
416.813896,11843.295072,7584.345430,6661.853478
416.814221,10066.800811,9729.412825,2442.679609
416.814546,9918.759623,9806.022374,3330.926739
416.814871,8956.491898,8350.440928,4811.338623
416.815196,3923.091493,5286.058936,7179.997637
416.815522,-2442.679609,1225.752797,10214.842000
416.815847,-7476.080014,-1762.019645,9474.636058
416.816172,-8956.491898,-4136.915689,11325.150913
416.816497,-8068.244768,-7201.297681,13175.665768
416.816822,-10732.986159,-9959.241474,12583.501014
416.817147,-10955.047942,-10112.460574,12287.418637
416.817473,-6365.771101,-8197.221829,12731.542202
416.817798,148.041188,-536.266849,13323.706956
416.818123,3775.050304,3294.210641,11991.336260
416.818448,5625.565159,4673.182538,8956.491898
416.818773,9474.636058,5362.668486,4663.297435
416.819098,13027.624579,8503.660028,3997.112087
416.819424,11769.274478,10418.898773,3034.844362
416.819749,7698.141797,8810.098227,3552.988522
416.820074,5699.585753,5209.449386,6143.709319
416.820399,740.205942,2604.724693,9326.594869
416.820724,-3404.947333,-766.095498,10436.903782
416.821050,-6513.812290,-3524.039291,11843.295072
416.821375,-9474.636058,-6128.763984,12065.356855
416.821700,-10140.821405,-8886.707777,12509.480420
416.822025,-7994.224174,-10342.289223,14063.912898
416.822350,-7179.997637,-8273.831378,14582.057057
416.822675,-3256.906145,-2221.676944,13619.789333
416.823001,666.185348,1225.752797,10807.006753
416.823326,4367.215058,3064.381992,10288.862594
416.823651,8438.347739,5132.839837,6883.915261
416.823976,10214.842000,8044.002729,5699.585753
416.824301,9548.656652,9576.193725,2146.597232
416.824627,7994.224174,9576.193725,2072.576638
416.824952,7328.038826,9039.926876,4737.318029
416.825277,3404.947333,6358.592633,7920.203579
416.825602,-3923.091493,1302.362347,8956.491898
416.825927,-8216.285956,-2604.724693,8586.388927
416.826252,-8956.491898,-5132.839837,11325.150913
416.826578,-10066.800811,-6894.859482,13767.830521
416.826903,-10140.821405,-8197.221829,13693.809927
416.827228,-10214.842000,-8963.317327,14359.995275
416.827553,-7476.080014,-8044.002729,12657.521608
416.827878,-1998.556043,-3524.039291,13027.624579
416.828204,3330.926739,2451.505594,10807.006753
416.828529,5847.626942,5439.278036,9326.594869
416.828854,7179.997637,6358.592633,5625.565159
416.829179,10214.842000,7890.783629,4737.318029
416.829504,11991.336260,10035.851024,3256.906145
416.829829,7179.997637,9269.755526,3034.844362
416.830155,3404.947333,5745.716235,5403.503377
416.830480,74.020594,2451.505594,8512.368333
416.830805,-3997.112087,-919.314598,10436.903782
416.831130,-7624.121203,-2528.115143,10510.924376
416.831455,-7994.224174,-6741.640382,12361.439231
416.831781,-8882.471304,-9193.145976,13619.789333
416.832106,-7920.203579,-9806.022374,12805.562797
416.832431,-4589.276840,-8733.488677,15174.221811
416.832756,148.041188,-3447.429741,15248.242405
416.833081,2812.782580,1532.190996,12361.439231
416.833406,5551.544565,2681.334243,10214.842000
416.833732,10140.821405,5132.839837,8364.327145
416.834057,11399.171507,7967.393179,5921.647536
416.834382,8882.471304,9806.022374,1554.432478
416.834707,8290.306550,7354.516781,1776.494261
416.835032,6365.771101,6818.249932,4959.379811
416.835357,592.164754,5286.058936,7772.162391
416.835683,-6957.935855,1378.971896,8512.368333
416.836008,-9844.739029,-3983.696590,7550.100608
416.836333,-11399.171507,-6435.202183,9696.697840
416.836658,-10584.944971,-7431.126331,13175.665768
416.836983,-11547.212695,-9269.755526,12361.439231
416.837309,-11399.171507,-9269.755526,13471.748144
416.837634,-6365.771101,-8350.440928,13397.727550
416.837959,814.226536,-689.485948,14804.118840
416.838284,5625.565159,3830.477490,12731.542202
416.838609,7624.121203,5439.278036,9474.636058
416.838934,11399.171507,6358.592633,6069.688724
416.839260,14434.015869,10495.508323,5847.626942
416.839585,13101.645173,12257.527968,2738.761985
416.839910,9992.780217,9729.412825,3478.967927
416.840235,6513.812290,7890.783629,5699.585753
416.840560,0.000000,4903.011187,8216.285956
416.840885,-4367.215058,383.047749,9178.553681
416.841211,-7846.182985,-2911.162892,11769.274478
416.841536,-12731.542202,-5439.278036,11251.130318
416.841861,-13915.871710,-9422.974625,10362.883188
416.842186,-11251.130318,-13176.842566,12805.562797
416.842511,-9474.636058,-10495.508323,15174.221811
416.842836,-5995.668130,-2451.505594,14211.954086
416.843162,-296.082377,842.705048,11325.150913
416.843487,4515.256246,2451.505594,10214.842000
416.843812,8586.388927,4903.011187,6957.935855
416.844137,11177.109724,8503.660028,5033.400406
416.844462,10732.986159,10342.289223,1480.411884
416.844787,9326.594869,9499.584175,1850.514855
416.845113,9252.574275,8427.050478,4959.379811
416.845438,5847.626942,7048.078582,8438.347739
416.845763,-1258.350101,2374.896044,10510.924376
416.846088,-6809.894666,-2221.676944,10214.842000
416.846413,-8734.430116,-5056.230287,11399.171507
416.846738,-9030.512492,-8120.612279,13545.768739
416.847064,-8586.388927,-10112.460574,13841.851115
416.847389,-8882.471304,-9116.536426,13915.871710
416.847714,-6069.688724,-7660.954980,13545.768739
416.848039,-962.267725,-2451.505594,13397.727550
416.848364,5995.668130,1991.848295,11177.109724
416.848690,8142.265362,4366.744339,9252.574275
416.849015,8364.327145,6741.640382,5403.503377
416.849340,10214.842000,8733.488677,4737.318029
416.849665,12583.501014,9806.022374,3627.009116
416.849990,7994.224174,9039.926876,3330.926739
416.850315,2294.638420,5209.449386,4737.318029
416.850641,-1554.432478,2451.505594,7846.182985
416.850966,-6513.812290,-612.876398,10807.006753
416.851291,-10881.027347,-3294.210641,10881.027347
416.851616,-11399.171507,-8963.317327,12213.398043
416.851941,-11991.336260,-12257.527968,12879.583391
416.852266,-11843.295072,-11031.775171,11695.253884
416.852592,-8142.265362,-9346.365076,14063.912898
416.852917,-2220.617826,-4826.401637,14211.954086
416.853242,2072.576638,2451.505594,12953.603985
416.853567,6365.771101,3753.867940,9696.697840
416.853892,11769.274478,6358.592633,7920.203579
416.854217,14656.077652,9806.022374,6291.750507
416.854543,12361.439231,12027.699319,2664.741391
416.854868,11991.336260,9959.241474,1776.494261
416.855193,9992.780217,8503.660028,4293.194464
416.855518,4071.132681,5898.935335,7402.059420
416.855843,-3330.926739,2757.943793,9992.780217
416.856168,-8808.450710,-2221.676944,9252.574275
416.856494,-11029.068536,-6128.763984,10436.903782
416.856819,-11769.274478,-8963.317327,13027.624579
416.857144,-12953.603985,-12104.308868,12435.459826
416.857469,-12435.459826,-11414.822920,13841.851115
416.857794,-7105.977043,-7431.126331,13693.809927
416.858119,-962.267725,0.000000,14063.912898
416.858445,4441.235652,3294.210641,12213.398043
416.858770,6587.832884,4519.963438,9030.512492
416.859095,9992.780217,6205.373534,5625.565159
416.859420,13175.665768,10342.289223,6217.729913
416.859745,12287.418637,10495.508323,3775.050304
416.860071,8882.471304,8503.660028,4441.235652
416.860396,5477.523971,6588.421283,6143.709319
416.860721,-444.123565,4673.182538,8734.430116
416.861046,-5403.503377,0.000000,9844.739029
416.861371,-7920.203579,-3907.087040,10658.965565
416.861696,-11325.150913,-6435.202183,11325.150913
416.862022,-12139.377449,-9269.755526,9844.739029
416.862347,-9474.636058,-9882.631924,11325.150913
416.862672,-6957.935855,-7277.907231,13101.645173
416.862997,-3108.864956,-383.047749,12805.562797
416.863322,1258.350101,1532.190996,10955.047942
416.863647,4737.318029,2298.286494,10362.883188
416.863973,9104.533087,3677.258390,6291.750507
416.864298,10066.800811,8427.050478,5329.482782
416.864623,9918.759623,9346.365076,2738.761985
416.864948,8290.306550,9193.145976,3478.967927
416.865273,8142.265362,7277.907231,5921.647536
416.865598,3552.988522,5515.887586,8956.491898
416.865924,-3849.070898,1838.629195,8956.491898
416.866249,-8512.368333,-2221.676944,9030.512492
416.866574,-10214.842000,-5975.544884,11695.253884
416.866899,-10732.986159,-8886.707777,13545.768739
416.867224,-11769.274478,-11338.213370,14285.974681
416.867549,-11991.336260,-11414.822920,14359.995275
416.867875,-7624.121203,-9346.365076,13027.624579
416.868200,-1924.535449,-2528.115143,14952.160028
416.868525,4663.297435,2834.553343,12139.377449
416.868850,8216.285956,3140.991542,9622.677246
416.869175,9252.574275,5898.935335,5995.668130
416.869500,13027.624579,9652.803275,5255.462188
416.869826,15248.242405,12257.527968,3330.926739
416.870151,12731.542202,10112.460574,3775.050304
416.870476,7698.141797,7507.735880,5255.462188
416.870801,3108.864956,5132.839837,7476.080014
416.871126,-1998.556043,3064.381992,7846.182985
416.871452,-7179.997637,-1991.848295,9178.553681
416.871777,-10658.965565,-5592.497135,10881.027347
416.872102,-11991.336260,-9422.974625,12139.377449
416.872427,-12435.459826,-11568.042020,11621.233289
416.872752,-10955.047942,-11568.042020,13101.645173
416.873077,-6735.874072,-8273.831378,13841.851115
416.873403,-1184.329507,766.095498,12805.562797
416.873728,2738.761985,4366.744339,9844.739029
416.874053,9178.553681,5362.668486,7920.203579
416.874378,12731.542202,7201.297681,4515.256246
416.874703,10807.006753,11644.651570,2516.700203
416.875028,11695.253884,11797.870669,3330.926739
416.875354,10510.924376,8886.707777,6291.750507
416.875679,5699.585753,5592.497135,9178.553681
416.876004,-2664.741391,3294.210641,10214.842000
416.876329,-7179.997637,-1225.752797,9844.739029
416.876654,-10066.800811,-6971.469032,10807.006753
416.876979,-10436.903782,-9806.022374,15174.221811
416.877305,-11621.233289,-10572.117872,14508.036463
416.877630,-10807.006753,-9422.974625,13397.727550
416.877955,-6217.729913,-7584.345430,12583.501014
416.878280,-1184.329507,-995.924147,11695.253884
416.878605,5033.400406,4596.572988,10732.986159
416.878930,7994.224174,6511.811733,8586.388927
416.879256,9548.656652,6588.421283,4219.173869
416.879581,12287.418637,10035.851024,3627.009116
416.879906,11991.336260,11721.261119,2590.720797
416.880231,7105.977043,9269.755526,3330.926739
416.880556,3182.885551,5822.325785,5181.441594
416.880881,-2664.741391,2604.724693,7846.182985
416.881207,-7179.997637,-383.047749,9400.615463
416.881532,-9474.636058,-4136.915689,10510.924376
416.881857,-12213.398043,-8656.879127,12213.398043
416.882182,-14434.015869,-12027.699319,12139.377449
416.882507,-11103.089130,-12104.308868,13101.645173
416.882833,-5625.565159,-9729.412825,15618.345376
416.883158,-2072.576638,-1991.848295,15470.304188
416.883483,2738.761985,2068.457845,11843.295072
416.883808,7402.059420,3753.867940,10955.047942
416.884133,11991.336260,5669.106685,6883.915261
416.884458,13693.809927,9269.755526,4959.379811
416.884784,11917.315666,10418.898773,2516.700203
416.885109,10584.944971,10112.460574,4441.235652
416.885434,8660.409521,8197.221829,6587.832884
416.885759,4219.173869,3983.696590,9474.636058
416.886084,-3923.091493,459.657299,8808.450710
416.886409,-9030.512492,-2757.943793,8734.430116
416.886735,-9918.759623,-6971.469032,11103.089130
416.887060,-10066.800811,-8656.879127,13471.748144
416.887385,-11695.253884,-10572.117872,13545.768739
416.887710,-10510.924376,-9959.241474,12213.398043
416.888035,-6661.853478,-7507.735880,11029.068536
416.888360,-1924.535449,-459.657299,12139.377449
416.888686,5551.544565,3830.477490,11029.068536
416.889011,9030.512492,6281.983084,9030.512492
416.889336,8882.471304,7277.907231,4737.318029
416.889661,10140.821405,10035.851024,2738.761985
416.889986,13175.665768,11491.432470,3404.947333
416.890311,9104.533087,10265.679673,5551.544565
416.890637,3182.885551,5669.106685,7846.182985
416.890962,-1110.308913,1991.848295,9030.512492
416.891287,-4737.318029,-1149.143247,10362.883188
416.891612,-9770.718434,-3370.820191,11547.212695
416.891937,-9696.697840,-7431.126331,12731.542202
416.892262,-10436.903782,-11261.603821,13545.768739
416.892588,-9770.718434,-11031.775171,12657.521608
416.892913,-6365.771101,-6971.469032,14656.077652
416.893238,-1110.308913,-995.924147,14508.036463
416.893563,1702.473667,1838.629195,10807.006753
416.893888,3997.112087,2987.772442,9252.574275
416.894214,9104.533087,6052.154434,6587.832884
416.894539,11695.253884,10035.851024,5181.441594
416.894864,9400.615463,10265.679673,1184.329507
416.895189,6661.853478,8886.707777,2516.700203
416.895514,5551.544565,6665.030833,5403.503377
416.895839,-444.123565,4596.572988,8438.347739
416.896165,-6735.874072,-306.438199,8512.368333
416.896490,-10288.862594,-3677.258390,8660.409521
416.896815,-11399.171507,-7737.564530,11621.233289
416.897140,-12213.398043,-9269.755526,13619.789333
416.897465,-12657.521608,-11951.089769,12435.459826
416.897790,-9400.615463,-11261.603821,12213.398043
416.898116,-3552.988522,-5669.106685,13471.748144
416.898441,1702.473667,3677.258390,13767.830521
416.898766,7994.224174,3983.696590,12139.377449
416.899091,9178.553681,4519.963438,8364.327145
416.899416,11917.315666,7048.078582,5403.503377
416.899741,13397.727550,10955.165621,4441.235652
416.900067,13767.830521,9882.631924,4663.297435
416.900392,9548.656652,7431.126331,6439.791695
416.900717,3849.070898,4903.011187,8660.409521
416.901042,-2220.617826,2681.334243,9326.594869
416.901367,-5033.400406,-1915.238745,9474.636058
416.901692,-7254.018232,-4903.011187,11621.233289
416.902018,-10955.047942,-7354.516781,12065.356855
416.902343,-12435.459826,-11491.432470,11177.109724
416.902668,-9622.677246,-11721.261119,13323.706956
416.902993,-5625.565159,-7354.516781,14137.933492
416.903318,-1924.535449,842.705048,12361.439231
416.903643,1702.473667,1608.800546,9696.697840
416.903969,5773.606348,3753.867940,9104.533087
416.904294,11251.130318,6665.030833,6365.771101
416.904619,11621.233289,10418.898773,5699.585753
416.904944,10214.842000,8886.707777,1850.514855
416.905269,7698.141797,8810.098227,3552.988522
416.905595,7031.956449,8503.660028,6217.729913
416.905920,1036.288319,5669.106685,9844.739029
416.906245,-4441.235652,-229.828649,9622.677246
416.906570,-9400.615463,-3830.477490,8660.409521
416.906895,-10881.027347,-5975.544884,12139.377449
416.907220,-10584.944971,-8427.050478,12287.418637
416.907546,-10807.006753,-10112.460574,13545.768739
416.907871,-9918.759623,-9193.145976,13915.871710
416.908196,-6069.688724,-5056.230287,12583.501014
416.908521,-296.082377,383.047749,11695.253884
416.908846,5773.606348,4290.134789,10362.883188
416.909171,9104.533087,5975.544884,8364.327145
416.909497,8956.491898,7967.393179,5329.482782
416.909822,9918.759623,10189.070123,3923.091493
416.910147,12213.398043,10801.946522,4145.153275
416.910472,8290.306550,9346.365076,4737.318029
416.910797,2294.638420,4903.011187,7179.997637
416.911122,-2294.638420,1608.800546,9252.574275
416.911448,-5551.544565,-1991.848295,10732.986159
416.911773,-9992.780217,-4596.572988,11103.089130
416.912098,-10362.883188,-9039.926876,12139.377449
416.912423,-10807.006753,-10801.946522,11843.295072
416.912748,-10066.800811,-8580.269578,11251.130318
416.913073,-5773.606348,-6052.154434,12953.603985
416.913399,0.000000,-1378.971896,12953.603985
