#time,accel_x,accel_y,accel_z
87081.984678,-1036.288319,766.095498,9178.553681
87081.985007,-1480.411884,-459.657299,9326.594869
87081.985337,-1480.411884,0.000000,9474.636058
87081.985666,-1184.329507,-459.657299,9770.718434
87081.985995,-962.267725,-689.485948,9622.677246
87081.986325,-666.185348,-689.485948,9696.697840
87081.986654,518.144159,-689.485948,10066.800811
87081.986984,1110.308913,-306.438199,9696.697840
87081.987313,1702.473667,612.876398,9696.697840
87081.987642,2220.617826,76.609550,9918.759623
87081.987972,2738.761985,76.609550,10510.924376
87081.988301,2960.823768,0.000000,10436.903782
87081.988630,2738.761985,-229.828649,10807.006753
87081.988960,2368.659014,-766.095498,10140.821405
87081.989289,2886.803174,-995.924147,9548.656652
87081.989618,2664.741391,-1225.752797,9548.656652
87081.989948,1776.494261,-383.047749,9030.512492
87081.990277,666.185348,-919.314598,8808.450710
87081.990606,592.164754,-842.705048,8438.347739
87081.990936,444.123565,-995.924147,8734.430116
87081.991265,0.000000,-612.876398,8364.327145
87081.991594,0.000000,1072.533697,8290.306550
87081.991924,1110.308913,1762.019645,8142.265362
87081.992253,814.226536,1532.190996,9178.553681
87081.992582,0.000000,153.219100,8882.471304
87081.992912,-1036.288319,459.657299,8734.430116
87081.993241,-592.164754,689.485948,9030.512492
87081.993570,296.082377,459.657299,9622.677246
87081.993900,0.000000,842.705048,10214.842000
87081.994229,-296.082377,1072.533697,9696.697840
87081.994558,148.041188,1302.362347,9104.533087
87081.994888,740.205942,1455.581446,8882.471304
87081.995217,1332.370696,1915.238745,9696.697840
87081.995546,1554.432478,3217.601092,9326.594869
87081.995876,1924.535449,3907.087040,8882.471304
87081.996205,2368.659014,2987.772442,8512.368333
87081.996535,2072.576638,3447.429741,8512.368333
87081.996864,1184.329507,3830.477490,8290.306550
87081.997193,666.185348,3677.258390,7994.224174
87081.997523,666.185348,2911.162892,8364.327145
87081.997852,0.000000,2221.676944,8734.430116
87081.998181,-962.267725,2221.676944,8586.388927
87081.998511,-888.247130,2528.115143,7698.141797
87081.998840,-740.205942,3524.039291,7772.162391
87081.999169,-444.123565,2451.505594,8586.388927
87081.999499,-1036.288319,2528.115143,9104.533087
87081.999828,-370.102971,2757.943793,8660.409521
87082.000157,0.000000,2528.115143,9252.574275
87082.000487,148.041188,2451.505594,9252.574275
87082.000816,0.000000,1762.019645,9548.656652
87082.001145,-296.082377,2298.286494,9104.533087
87082.001475,-296.082377,1685.410096,9622.677246
87082.001804,-518.144159,459.657299,10288.862594
87082.002133,-1258.350101,0.000000,9548.656652
87082.002463,-1628.453072,76.609550,9252.574275
87082.002792,-1258.350101,0.000000,9844.739029
87082.003121,-666.185348,76.609550,10066.800811
87082.003451,-666.185348,153.219100,10214.842000
87082.003780,-592.164754,-383.047749,9918.759623
87082.004109,-740.205942,-383.047749,9252.574275
87082.004439,-370.102971,-612.876398,9844.739029
87082.004768,-444.123565,-612.876398,9918.759623
87082.005097,-666.185348,-919.314598,9918.759623
87082.005427,74.020594,-1455.581446,10140.821405
87082.005756,-370.102971,-2681.334243,10436.903782
87082.006086,-740.205942,-2068.457845,9696.697840
87082.006415,-666.185348,-2451.505594,9918.759623
87082.006744,-148.041188,-2528.115143,9548.656652
87082.007074,0.000000,-2604.724693,9696.697840
87082.007403,444.123565,-1915.238745,10066.800811
87082.007732,444.123565,-612.876398,9474.636058
87082.008062,1184.329507,-689.485948,9474.636058
87082.008391,1628.453072,-1532.190996,9474.636058
87082.008720,1258.350101,-995.924147,9622.677246
87082.009049,592.164754,-536.266849,9104.533087
87082.009378,888.247130,-919.314598,8956.491898
87082.009707,888.247130,-1072.533697,9696.697840
87082.010036,444.123565,-842.705048,9918.759623
87082.010366,74.020594,-306.438199,9030.512492
87082.010695,148.041188,766.095498,8660.409521
87082.011024,518.144159,1532.190996,9178.553681
87082.011353,518.144159,612.876398,9474.636058
87082.011682,370.102971,1455.581446,9252.574275
87082.012011,814.226536,1991.848295,9030.512492
87082.012340,888.247130,2068.457845,9104.533087
87082.012670,740.205942,2451.505594,8882.471304
87082.012999,0.000000,2528.115143,8660.409521
87082.013328,222.061783,1915.238745,8216.285956
87082.013657,222.061783,2911.162892,8216.285956
87082.013986,-148.041188,2374.896044,8364.327145
87082.014315,-888.247130,2298.286494,8586.388927
87082.014644,-962.267725,2604.724693,7994.224174
87082.014974,-370.102971,2681.334243,8512.368333
87082.015303,-222.061783,2911.162892,8956.491898
87082.015632,-148.041188,3830.477490,8734.430116
87082.015961,-518.144159,3217.601092,7698.141797
87082.016290,370.102971,2834.553343,8808.450710
87082.016619,444.123565,3064.381992,8956.491898
87082.016949,74.020594,2987.772442,8734.430116
87082.017278,-370.102971,3140.991542,8438.347739
87082.017607,-222.061783,2987.772442,8660.409521
87082.017936,0.000000,1991.848295,9326.594869
87082.018265,-666.185348,1608.800546,9696.697840
87082.018594,-1480.411884,1378.971896,8956.491898
87082.018923,-592.164754,689.485948,9474.636058
87082.019253,-592.164754,153.219100,9548.656652
87082.019582,-1258.350101,229.828649,9696.697840
87082.019911,-740.205942,919.314598,9326.594869
87082.020240,-740.205942,536.266849,9474.636058
87082.020569,0.000000,153.219100,9622.677246
87082.020898,0.000000,-229.828649,9918.759623
87082.021227,-666.185348,-229.828649,9104.533087
87082.021557,0.000000,-536.266849,9474.636058
87082.021886,74.020594,-1532.190996,9844.739029
87082.022215,-518.144159,-1149.143247,9770.718434
87082.022544,-518.144159,-1225.752797,9474.636058
87082.022873,0.000000,-842.705048,9844.739029
87082.023202,222.061783,-1915.238745,9622.677246
87082.023531,518.144159,-1378.971896,10362.883188
87082.023861,1110.308913,-919.314598,10066.800811
87082.024190,1332.370696,-995.924147,9696.697840
87082.024519,1776.494261,-689.485948,10436.903782
87082.024848,1702.473667,-689.485948,10288.862594
87082.025177,592.164754,-842.705048,9474.636058
87082.025506,666.185348,-612.876398,9326.594869
87082.025835,444.123565,-1072.533697,9992.780217
87082.026165,-370.102971,-1532.190996,9696.697840
87082.026494,-666.185348,-995.924147,9252.574275
87082.026823,-740.205942,-536.266849,9474.636058
87082.027152,-296.082377,-689.485948,9622.677246
87082.027481,-370.102971,-306.438199,9474.636058
87082.027810,-666.185348,-229.828649,9622.677246
87082.028139,-296.082377,536.266849,9252.574275
87082.028469,148.041188,919.314598,9252.574275
87082.028798,74.020594,612.876398,9400.615463
87082.029127,-148.041188,1685.410096,8882.471304
87082.029456,370.102971,612.876398,8512.368333
87082.029785,222.061783,842.705048,9104.533087
87082.030114,-518.144159,1149.143247,9104.533087
87082.030443,-1184.329507,1149.143247,8808.450710
87082.030773,-1036.288319,1302.362347,8734.430116
87082.031102,-666.185348,1762.019645,9104.533087
87082.031431,-814.226536,1915.238745,8586.388927
87082.031760,-666.185348,2145.067394,8734.430116
87082.032089,-370.102971,1685.410096,8438.347739
87082.032418,0.000000,2298.286494,8956.491898
87082.032747,0.000000,2298.286494,8734.430116
87082.033077,-1036.288319,2298.286494,8290.306550
87082.033406,-740.205942,1915.238745,8142.265362
87082.033735,0.000000,2068.457845,8512.368333
87082.034064,-888.247130,1455.581446,8734.430116
87082.034393,-1332.370696,1302.362347,8808.450710
87082.034722,-888.247130,766.095498,8660.409521
87082.035052,-592.164754,689.485948,8734.430116
87082.035381,0.000000,536.266849,9548.656652
87082.035710,148.041188,766.095498,8882.471304
87082.036039,222.061783,1225.752797,8142.265362
87082.036368,592.164754,1532.190996,9030.512492
87082.036697,1332.370696,1149.143247,9474.636058
87082.037026,1406.391290,689.485948,9326.594869
87082.037356,962.267725,842.705048,9400.615463
87082.037685,1110.308913,229.828649,9474.636058
87082.038014,1258.350101,0.000000,9474.636058
87082.038343,1184.329507,-1149.143247,9696.697840
87082.038672,962.267725,306.438199,9326.594869
87082.039001,592.164754,306.438199,9326.594869
87082.039330,1036.288319,-306.438199,9548.656652
87082.039660,1036.288319,-383.047749,10140.821405
87082.039989,962.267725,153.219100,9474.636058
87082.040318,1332.370696,306.438199,9548.656652
87082.040647,1850.514855,-766.095498,9992.780217
87082.040976,740.205942,-536.266849,9548.656652
87082.041305,222.061783,0.000000,8956.491898
87082.041634,-148.041188,0.000000,9474.636058
87082.041964,-296.082377,-306.438199,9622.677246
87082.042293,-814.226536,-842.705048,9548.656652
87082.042622,-1184.329507,-153.219100,9030.512492
87082.042951,-814.226536,0.000000,9474.636058
87082.043280,-296.082377,-612.876398,10066.800811
87082.043609,-518.144159,0.000000,10066.800811
87082.043938,-666.185348,76.609550,9474.636058
87082.044268,0.000000,919.314598,9400.615463
87082.044597,296.082377,919.314598,9696.697840
87082.044926,-296.082377,1455.581446,9548.656652
87082.045255,0.000000,1378.971896,9400.615463
87082.045584,0.000000,1072.533697,9178.553681
87082.045913,-296.082377,229.828649,9474.636058
87082.046242,-1110.308913,229.828649,9696.697840
87082.046572,-1258.350101,306.438199,9400.615463
87082.046901,-1480.411884,306.438199,9400.615463
87082.047230,-1036.288319,0.000000,9622.677246
87082.047559,-2368.659014,0.000000,9104.533087
87082.047888,-1332.370696,919.314598,9400.615463
87082.048217,-814.226536,1072.533697,9326.594869
87082.048546,-296.082377,1378.971896,9030.512492
87082.048876,-370.102971,919.314598,9400.615463
87082.049205,-740.205942,842.705048,9030.512492
87082.049534,0.000000,1378.971896,9030.512492
87082.049863,-370.102971,229.828649,9178.553681
87082.050192,-962.267725,0.000000,9474.636058
87082.050521,-518.144159,306.438199,9252.574275
87082.050851,-148.041188,76.609550,9178.553681
87082.051180,370.102971,0.000000,9474.636058
87082.051509,1036.288319,76.609550,9844.739029
87082.051838,1036.288319,919.314598,9400.615463
87082.052167,1480.411884,1608.800546,9326.594869
87082.052496,1998.556043,1225.752797,9474.636058
87082.052825,2072.576638,995.924147,9178.553681
87082.053155,1480.411884,995.924147,9252.574275
87082.053484,1110.308913,1149.143247,8734.430116
87082.053813,1332.370696,459.657299,8808.450710
87082.054142,592.164754,306.438199,9030.512492
87082.054471,74.020594,229.828649,8660.409521
87082.054800,-296.082377,766.095498,8364.327145
87082.055129,-444.123565,0.000000,8734.430116
87082.055459,-222.061783,-153.219100,9252.574275
87082.055788,-444.123565,229.828649,8956.491898
87082.056117,-370.102971,612.876398,8216.285956
87082.056446,0.000000,995.924147,8512.368333
87082.056775,74.020594,76.609550,9030.512492
87082.057104,-740.205942,459.657299,8808.450710
87082.057433,-592.164754,766.095498,9178.553681
87082.057763,-592.164754,383.047749,9178.553681
87082.058092,-1036.288319,0.000000,9474.636058
87082.058421,-1480.411884,0.000000,9178.553681
87082.058750,-1036.288319,153.219100,9474.636058
87082.059079,-592.164754,-153.219100,9326.594869
87082.059408,-962.267725,-612.876398,9696.697840
87082.059737,-1258.350101,153.219100,9622.677246
87082.060067,-814.226536,689.485948,9326.594869
87082.060396,-296.082377,842.705048,9252.574275
87082.060725,-148.041188,1149.143247,9992.780217
87082.061054,-740.205942,842.705048,9474.636058
87082.061383,-518.144159,0.000000,9104.533087
87082.061712,-518.144159,-536.266849,9474.636058
87082.062041,-1258.350101,-383.047749,9622.677246
87082.062371,-1702.473667,-536.266849,9770.718434
87082.062700,-1554.432478,-612.876398,9326.594869
87082.063029,-592.164754,-383.047749,9474.636058
87082.063358,-296.082377,-459.657299,9696.697840
87082.063687,-740.205942,536.266849,9548.656652
87082.064016,-148.041188,766.095498,9104.533087
87082.064345,740.205942,689.485948,9474.636058
87082.064675,1406.391290,383.047749,9844.739029
87082.065004,1110.308913,306.438199,10066.800811
87082.065333,814.226536,536.266849,9474.636058
87082.065662,1332.370696,612.876398,9400.615463
87082.065991,1554.432478,153.219100,10436.903782
87082.066320,666.185348,0.000000,9622.677246
87082.066649,740.205942,536.266849,9548.656652
87082.066979,1332.370696,919.314598,9548.656652
87082.067308,1776.494261,536.266849,9696.697840
87082.067637,2220.617826,612.876398,9770.718434
87082.067966,1406.391290,1685.410096,9326.594869
87082.068295,1924.535449,2451.505594,8734.430116
87082.068624,2072.576638,1762.019645,9252.574275
87082.068954,1628.453072,1455.581446,9474.636058
87082.069283,888.247130,1838.629195,9030.512492
87082.069612,518.144159,1762.019645,8882.471304
87082.069941,296.082377,995.924147,9178.553681
87082.070270,0.000000,766.095498,9400.615463
87082.070599,-666.185348,919.314598,8438.347739
87082.070928,-518.144159,1762.019645,9104.533087
87082.071258,-592.164754,1149.143247,9178.553681
87082.071587,-518.144159,1149.143247,8956.491898
87082.071916,-296.082377,1532.190996,9030.512492
87082.072245,-370.102971,2298.286494,8586.388927
87082.072574,444.123565,2145.067394,8586.388927
87082.072903,148.041188,1608.800546,8586.388927
87082.073232,0.000000,2145.067394,8882.471304
87082.073562,-444.123565,1608.800546,8734.430116
87082.073891,-518.144159,1072.533697,8808.450710
87082.074220,-1110.308913,612.876398,9030.512492
87082.074549,-1406.391290,229.828649,9252.574275
87082.074878,-1184.329507,0.000000,8660.409521
87082.075207,-1184.329507,-612.876398,8956.491898
87082.075536,-1110.308913,689.485948,9252.574275
87082.075866,-1406.391290,459.657299,9030.512492
87082.076195,-814.226536,153.219100,8808.450710
87082.076524,-444.123565,383.047749,9104.533087
87082.076853,-666.185348,459.657299,8956.491898
87082.077182,-592.164754,459.657299,9104.533087
87082.077511,-222.061783,-919.314598,9400.615463
87082.077840,-814.226536,-689.485948,8438.347739
87082.078170,-740.205942,-995.924147,9474.636058
87082.078499,-962.267725,-1149.143247,9474.636058
87082.078828,-740.205942,-842.705048,9474.636058
87082.079157,-444.123565,-1532.190996,9474.636058
87082.079486,0.000000,-919.314598,9696.697840
87082.079815,74.020594,383.047749,9548.656652
87082.080144,1406.391290,-842.705048,9548.656652
87082.080474,1628.453072,0.000000,9844.739029
87082.080803,1776.494261,153.219100,9770.718434
87082.081132,1702.473667,383.047749,9696.697840
87082.081461,1554.432478,612.876398,9474.636058
87082.081790,1480.411884,0.000000,9400.615463
87082.082119,1406.391290,0.000000,9400.615463
87082.082448,1110.308913,536.266849,9252.574275
87082.082778,444.123565,229.828649,9474.636058
87082.083107,666.185348,0.000000,9770.718434
87082.083436,962.267725,153.219100,9844.739029
87082.083765,0.000000,766.095498,9918.759623
87082.084094,296.082377,1378.971896,9474.636058
87082.084423,888.247130,1149.143247,9400.615463
87082.084753,666.185348,1072.533697,9548.656652
87082.085082,0.000000,1225.752797,9696.697840
87082.085411,-444.123565,1608.800546,9474.636058
87082.085740,-370.102971,1685.410096,9252.574275
87082.086069,-296.082377,1685.410096,9696.697840
87082.086398,-1258.350101,1149.143247,8882.471304
87082.086727,-1332.370696,842.705048,9104.533087
87082.087057,-1036.288319,1455.581446,9030.512492
87082.087386,-740.205942,1378.971896,9474.636058
87082.087715,-666.185348,1685.410096,9326.594869
87082.088044,-740.205942,2298.286494,9104.533087
87082.088373,-592.164754,2298.286494,8734.430116
87082.088702,518.144159,1685.410096,9178.553681
87082.089031,0.000000,1838.629195,9474.636058
87082.089361,-740.205942,1608.800546,9104.533087
87082.089690,-962.267725,1302.362347,8586.388927
87082.090019,-814.226536,689.485948,8808.450710
87082.090348,-1332.370696,0.000000,9326.594869
87082.090677,-1406.391290,0.000000,8734.430116
87082.091006,-1480.411884,229.828649,8512.368333
87082.091335,-592.164754,-689.485948,9474.636058
87082.091665,-666.185348,0.000000,8956.491898
87082.091994,-814.226536,153.219100,8956.491898
87082.092323,0.000000,229.828649,9178.553681
87082.092652,296.082377,0.000000,9178.553681
87082.092981,518.144159,76.609550,9474.636058
87082.093310,0.000000,-459.657299,9178.553681
87082.093639,518.144159,0.000000,9030.512492
87082.093969,1036.288319,-919.314598,9474.636058
87082.094298,444.123565,-1072.533697,9696.697840
87082.094627,518.144159,-612.876398,9400.615463
87082.094956,740.205942,-766.095498,9104.533087
87082.095285,1480.411884,-612.876398,9252.574275
87082.095614,1332.370696,-612.876398,9844.739029
87082.095943,1628.453072,0.000000,9178.553681
87082.096273,1776.494261,689.485948,9030.512492
87082.096602,2368.659014,383.047749,9326.594869
87082.096931,1776.494261,612.876398,9252.574275
87082.097260,1258.350101,383.047749,9252.574275
87082.097589,888.247130,612.876398,8956.491898
87082.097918,1184.329507,536.266849,9104.533087
87082.098247,518.144159,0.000000,9474.636058
87082.098577,-296.082377,-842.705048,9326.594869
87082.098906,-518.144159,0.000000,8956.491898
87082.099235,-296.082377,306.438199,9326.594869
87082.099564,-444.123565,383.047749,9474.636058
87082.099893,-814.226536,689.485948,9400.615463
87082.100222,-1258.350101,1915.238745,8586.388927
87082.100551,222.061783,1762.019645,9326.594869
87082.100881,148.041188,1915.238745,9696.697840
87082.101210,-444.123565,1838.629195,9474.636058
87082.101539,-666.185348,1915.238745,9104.533087
87082.101868,-888.247130,1302.362347,9252.574275
87082.102197,-814.226536,1149.143247,9548.656652
87082.102526,-1850.514855,1685.410096,9474.636058
87082.102856,-2072.576638,1455.581446,9326.594869
87082.103185,-888.247130,1149.143247,9696.697840
87082.103514,-888.247130,919.314598,9622.677246
87082.103843,-1258.350101,1225.752797,9770.718434
87082.104172,-1332.370696,1762.019645,8956.491898
87082.104501,-666.185348,2145.067394,9030.512492
87082.104830,222.061783,2221.676944,9326.594869
87082.105160,-1184.329507,1378.971896,9474.636058
87082.105489,-1036.288319,1455.581446,9030.512492
87082.105818,-444.123565,1072.533697,9326.594869
87082.106147,-518.144159,229.828649,9548.656652
87082.106476,-888.247130,-229.828649,9696.697840
87082.106805,-888.247130,76.609550,9178.553681
87082.107134,-222.061783,919.314598,9400.615463
87082.107464,-148.041188,-459.657299,9548.656652
87082.107793,0.000000,-689.485948,9844.739029
87082.108122,592.164754,153.219100,9770.718434
87082.108451,1036.288319,612.876398,9548.656652
87082.108780,1628.453072,0.000000,9474.636058
87082.109109,2146.597232,0.000000,10066.800811
87082.109438,1628.453072,995.924147,9548.656652
87082.109768,1406.391290,536.266849,9252.574275
87082.110097,1628.453072,-229.828649,9474.636058
87082.110426,1110.308913,-919.314598,9844.739029
87082.110755,518.144159,-383.047749,9474.636058
87082.111084,222.061783,76.609550,8364.327145
87082.111413,740.205942,-766.095498,8808.450710
87082.111742,592.164754,-229.828649,9326.594869
87082.112072,296.082377,-306.438199,9030.512492
87082.112401,518.144159,306.438199,8882.471304
87082.112730,666.185348,383.047749,8882.471304
87082.113059,74.020594,76.609550,8734.430116
87082.113388,-444.123565,536.266849,8808.450710
87082.113717,-222.061783,766.095498,9030.512492
87082.114046,-592.164754,1302.362347,8216.285956
87082.114376,-1480.411884,-612.876398,8882.471304
87082.114705,-1480.411884,-306.438199,8956.491898
87082.115034,-1406.391290,-306.438199,9030.512492
87082.115363,-1480.411884,0.000000,8956.491898
87082.115692,-1628.453072,306.438199,8882.471304
87082.116021,-1332.370696,229.828649,8512.368333
87082.116350,-962.267725,1302.362347,8438.347739
87082.116680,-1110.308913,919.314598,9030.512492
87082.117009,-666.185348,1378.971896,8956.491898
87082.117338,-888.247130,1072.533697,9178.553681
87082.117667,-888.247130,536.266849,9030.512492
87082.117996,-1184.329507,0.000000,9030.512492
87082.118325,-1036.288319,153.219100,9474.636058
87082.118654,-1406.391290,153.219100,9400.615463
87082.118984,-1850.514855,0.000000,9104.533087
87082.119313,-888.247130,153.219100,9178.553681
87082.119642,-814.226536,229.828649,9548.656652
87082.119971,-592.164754,459.657299,9400.615463
87082.120300,74.020594,689.485948,8512.368333
87082.120629,444.123565,995.924147,9104.533087
87082.120958,740.205942,1378.971896,9030.512492
87082.121288,740.205942,919.314598,9474.636058
87082.121617,370.102971,1149.143247,9252.574275
87082.121946,740.205942,612.876398,9474.636058
87082.122275,888.247130,153.219100,9844.739029
87082.122604,592.164754,-153.219100,9474.636058
87082.122933,592.164754,995.924147,9400.615463
87082.123262,1258.350101,306.438199,9770.718434
87082.123592,1776.494261,76.609550,10140.821405
87082.123921,1628.453072,536.266849,9844.739029
87082.124250,1776.494261,1378.971896,9474.636058
87082.124579,2220.617826,1838.629195,9104.533087
87082.124908,2368.659014,1455.581446,9548.656652
87082.125237,1850.514855,766.095498,9474.636058
87082.125566,1480.411884,1915.238745,9178.553681
87082.125896,1332.370696,1149.143247,9326.594869
87082.126225,888.247130,459.657299,9844.739029
87082.126554,148.041188,0.000000,9696.697840
87082.126883,-370.102971,153.219100,9252.574275
87082.127212,-666.185348,612.876398,9770.718434
87082.127541,-296.082377,459.657299,9326.594869
87082.127870,-296.082377,459.657299,9474.636058
87082.128200,-296.082377,1149.143247,9252.574275
87082.128529,0.000000,1532.190996,9030.512492
87082.128858,74.020594,1378.971896,9178.553681
87082.129187,-148.041188,1149.143247,9104.533087
87082.129516,-740.205942,1762.019645,9030.512492
87082.129845,-148.041188,1225.752797,9400.615463
87082.130174,-592.164754,766.095498,9474.636058
87082.130504,-1332.370696,0.000000,9178.553681
87082.130833,-1776.494261,0.000000,8808.450710
87082.131162,-1628.453072,0.000000,8956.491898
87082.131491,-1332.370696,306.438199,9252.574275
87082.131820,-1628.453072,0.000000,9178.553681
87082.132149,-1258.350101,0.000000,9326.594869
87082.132478,-444.123565,919.314598,9178.553681
87082.132808,-518.144159,766.095498,9104.533087
87082.133137,-296.082377,383.047749,9104.533087
87082.133466,-666.185348,306.438199,8882.471304
87082.133795,-518.144159,0.000000,8956.491898
87082.134124,-814.226536,76.609550,8364.327145
87082.134453,-740.205942,-383.047749,8956.491898
87082.134782,-740.205942,-536.266849,9622.677246
87082.135112,-962.267725,-919.314598,8882.471304
87082.135441,-592.164754,-766.095498,9030.512492
87082.135770,0.000000,-919.314598,9770.718434
87082.136099,0.000000,-383.047749,9326.594869
87082.136428,1036.288319,0.000000,8808.450710
87082.136757,1332.370696,-306.438199,8808.450710
87082.137086,1628.453072,0.000000,9400.615463
87082.137416,1406.391290,229.828649,9252.574275
87082.137745,1554.432478,459.657299,9252.574275
87082.138074,1702.473667,383.047749,9326.594869
87082.138403,1850.514855,306.438199,9474.636058
87082.138732,1036.288319,383.047749,9252.574275
87082.139061,518.144159,459.657299,9178.553681
87082.139390,1036.288319,536.266849,9474.636058
87082.139720,1184.329507,536.266849,9696.697840
87082.140049,888.247130,919.314598,9622.677246
87082.140378,666.185348,1149.143247,9400.615463
87082.140707,1036.288319,1225.752797,9178.553681
87082.141036,1258.350101,1838.629195,9178.553681
87082.141365,444.123565,1838.629195,9474.636058
87082.141694,0.000000,1685.410096,9474.636058
87082.142024,-296.082377,1455.581446,9400.615463
87082.142353,-444.123565,1225.752797,9696.697840
87082.142682,-666.185348,919.314598,9548.656652
87082.143011,-1554.432478,689.485948,9030.512492
87082.143340,-1184.329507,0.000000,9252.574275
87082.143669,-962.267725,1225.752797,9178.553681
87082.143998,-1036.288319,1302.362347,9548.656652
87082.144328,-1036.288319,1532.190996,9326.594869
87082.144657,-592.164754,1915.238745,9474.636058
87082.144986,-370.102971,1685.410096,9696.697840
87082.145315,-592.164754,1838.629195,9474.636058
87082.145644,-962.267725,1072.533697,9252.574275
87082.145973,-518.144159,1455.581446,9104.533087
87082.146302,-1628.453072,766.095498,9252.574275
87082.146632,-1554.432478,76.609550,9474.636058
87082.146961,-1702.473667,0.000000,9104.533087
87082.147290,-1332.370696,76.609550,9104.533087
87082.147619,-740.205942,-459.657299,9252.574275
87082.147948,-740.205942,-153.219100,9400.615463
87082.148277,-444.123565,229.828649,9030.512492
87082.148606,0.000000,459.657299,8882.471304
87082.148936,74.020594,229.828649,9252.574275
87082.149265,370.102971,0.000000,9474.636058
87082.149594,222.061783,-459.657299,9474.636058
87082.149923,444.123565,306.438199,9178.553681
87082.150252,222.061783,-766.095498,9474.636058
87082.150581,148.041188,-842.705048,9474.636058
87082.150910,444.123565,-766.095498,9548.656652
87082.151239,370.102971,-766.095498,9030.512492
87082.151569,888.247130,-842.705048,9474.636058
87082.151898,1110.308913,-612.876398,9622.677246
87082.152227,1554.432478,0.000000,9104.533087
87082.152556,1628.453072,1225.752797,8882.471304
87082.152885,2294.638420,1072.533697,8882.471304
87082.153214,2220.617826,842.705048,8586.388927
87082.153543,1924.535449,842.705048,9178.553681
87082.153873,1406.391290,1149.143247,8882.471304
87082.154202,1258.350101,306.438199,9030.512492
87082.154531,1110.308913,383.047749,9474.636058
87082.154860,148.041188,0.000000,9030.512492
87082.155189,148.041188,842.705048,8882.471304
87082.155518,444.123565,536.266849,9104.533087
87082.155847,0.000000,689.485948,9178.553681
87082.156177,-592.164754,1225.752797,8956.491898
87082.156506,148.041188,1762.019645,8956.491898
87082.156835,444.123565,1455.581446,9252.574275
87082.157164,-296.082377,1762.019645,9178.553681
87082.157493,-888.247130,2221.676944,8586.388927
87082.157822,-370.102971,2145.067394,8956.491898
87082.158151,-222.061783,1378.971896,8956.491898
87082.158481,-962.267725,1149.143247,9326.594869
87082.158810,-1332.370696,1149.143247,9030.512492
87082.159139,-1628.453072,1378.971896,9104.533087
87082.159468,-1258.350101,1455.581446,9104.533087
87082.159797,-1332.370696,1302.362347,9474.636058
87082.160126,-1628.453072,1455.581446,9622.677246
87082.160455,-1184.329507,1915.238745,9030.512492
87082.160785,-592.164754,1838.629195,9252.574275
87082.161114,-296.082377,1838.629195,9696.697840
87082.161443,-666.185348,1378.971896,9252.574275
87082.161772,-888.247130,1149.143247,8734.430116
87082.162101,-222.061783,1455.581446,9104.533087
87082.162430,-1036.288319,0.000000,9326.594869
87082.162759,-1184.329507,0.000000,9548.656652
87082.163089,-962.267725,-229.828649,9474.636058
87082.163418,-666.185348,-459.657299,9548.656652
87082.163747,-518.144159,-229.828649,9770.718434
87082.164076,-592.164754,-612.876398,9622.677246
87082.164405,222.061783,153.219100,9696.697840
87082.164734,666.185348,153.219100,9400.615463
87082.165063,1184.329507,-306.438199,10066.800811
87082.165393,1110.308913,-383.047749,10066.800811
87082.165722,592.164754,0.000000,9400.615463
87082.166051,962.267725,0.000000,9622.677246
87082.166380,1776.494261,-612.876398,10066.800811
87082.166709,962.267725,-842.705048,9770.718434
87082.167038,666.185348,-842.705048,9400.615463
87082.167367,888.247130,-383.047749,9548.656652
87082.167697,888.247130,-612.876398,9770.718434
87082.168026,888.247130,-919.314598,9770.718434
87082.168355,1036.288319,0.000000,9770.718434
87082.168684,1406.391290,153.219100,9400.615463
87082.169013,1184.329507,0.000000,8956.491898
87082.169342,1036.288319,-229.828649,9474.636058
87082.169671,74.020594,229.828649,9326.594869
87082.170001,74.020594,76.609550,8956.491898
87082.170330,-518.144159,0.000000,9030.512492
87082.170659,-1036.288319,0.000000,9030.512492
87082.170988,-1480.411884,0.000000,8808.450710
87082.171317,-1258.350101,0.000000,9030.512492
87082.171646,-1406.391290,-536.266849,8808.450710
87082.171975,-1258.350101,153.219100,9326.594869
87082.172305,-1406.391290,689.485948,8660.409521
87082.172634,-1036.288319,1072.533697,8734.430116
87082.172963,-296.082377,995.924147,8808.450710
87082.173292,-518.144159,1762.019645,8586.388927
87082.173621,-592.164754,1302.362347,8512.368333
87082.173950,-814.226536,1762.019645,8808.450710
87082.174279,-814.226536,1072.533697,8808.450710
87082.174609,-1258.350101,536.266849,8956.491898
87082.174938,-1480.411884,383.047749,9104.533087
87082.175267,-1554.432478,1149.143247,8808.450710
87082.175596,-666.185348,536.266849,8882.471304
87082.175925,-740.205942,842.705048,9104.533087
87082.176254,-962.267725,1838.629195,8586.388927
87082.176583,-296.082377,1378.971896,8586.388927
87082.176913,444.123565,1455.581446,9030.512492
87082.177242,296.082377,1225.752797,9030.512492
87082.177571,0.000000,1455.581446,9030.512492
87082.177900,296.082377,1149.143247,9104.533087
87082.178229,370.102971,689.485948,9178.553681
87082.178558,0.000000,76.609550,9622.677246
87082.178887,0.000000,0.000000,9992.780217
87082.179217,0.000000,0.000000,9696.697840
87082.179546,518.144159,0.000000,9696.697840
87082.179875,1258.350101,306.438199,10140.821405
87082.180204,1628.453072,612.876398,9918.759623
87082.180533,1480.411884,1149.143247,9104.533087
87082.180862,2220.617826,1532.190996,9326.594869
87082.181191,2442.679609,1302.362347,9696.697840
87082.181521,1998.556043,1455.581446,9474.636058
87082.181850,1406.391290,1455.581446,9326.594869
87082.182179,1406.391290,842.705048,9030.512492
87082.182508,1628.453072,0.000000,9844.739029
87082.182837,370.102971,612.876398,9474.636058
87082.183166,0.000000,229.828649,9474.636058
87082.183495,148.041188,229.828649,9696.697840
87082.183825,148.041188,76.609550,9844.739029
87082.184154,0.000000,612.876398,9696.697840
87082.184483,0.000000,689.485948,9474.636058
87082.184812,518.144159,536.266849,9252.574275
87082.185141,444.123565,536.266849,9474.636058
87082.185470,0.000000,995.924147,9474.636058
87082.185799,-444.123565,919.314598,9548.656652
87082.186129,-518.144159,766.095498,8882.471304
87082.186458,-888.247130,229.828649,9548.656652
87082.186787,-1480.411884,153.219100,9326.594869
87082.187116,-1702.473667,76.609550,9548.656652
87082.187445,-1258.350101,-306.438199,9474.636058
87082.187774,-1110.308913,-842.705048,9326.594869
87082.188103,-1258.350101,0.000000,9252.574275
87082.188433,-1406.391290,229.828649,9178.553681
87082.188762,-962.267725,689.485948,9030.512492
87082.189091,-296.082377,612.876398,9104.533087
87082.189420,-370.102971,766.095498,8808.450710
87082.189749,-444.123565,689.485948,9326.594869
87082.190078,-1036.288319,919.314598,8956.491898
87082.190407,-444.123565,0.000000,8808.450710
87082.190737,-888.247130,-306.438199,9252.574275
87082.191066,-1184.329507,-612.876398,9104.533087
87082.191395,-962.267725,-995.924147,8734.430116
87082.191724,-222.061783,383.047749,8660.409521
87082.192053,-222.061783,0.000000,9400.615463
87082.192382,-518.144159,0.000000,8956.491898
87082.192711,74.020594,459.657299,8882.471304
87082.193041,888.247130,229.828649,9252.574275
87082.193370,888.247130,0.000000,9104.533087
87082.193699,1036.288319,842.705048,9252.574275
87082.194028,1406.391290,306.438199,9030.512492
87082.194357,1776.494261,306.438199,9252.574275
87082.194686,962.267725,76.609550,9252.574275
87082.195015,666.185348,229.828649,9474.636058
87082.195345,888.247130,383.047749,9104.533087
87082.195674,1110.308913,612.876398,9178.553681
87082.196003,1332.370696,612.876398,9252.574275
87082.196332,1332.370696,1532.190996,8956.491898
87082.196661,1924.535449,1302.362347,9178.553681
87082.196990,1628.453072,1838.629195,9104.533087
87082.197319,1406.391290,1685.410096,9400.615463
87082.197649,814.226536,1378.971896,9252.574275
87082.197978,296.082377,1302.362347,8956.491898
87082.198307,0.000000,1608.800546,8956.491898
87082.198636,0.000000,995.924147,9474.636058
87082.198965,-740.205942,536.266849,9030.512492
87082.199294,-962.267725,306.438199,9030.512492
87082.199623,-888.247130,612.876398,9474.636058
87082.199953,-962.267725,919.314598,9400.615463
87082.200282,-1332.370696,1149.143247,9548.656652
87082.200611,-1258.350101,1225.752797,9326.594869
87082.200940,-592.164754,1762.019645,9474.636058
87082.201269,-296.082377,1302.362347,10066.800811
87082.201598,-1258.350101,1608.800546,9178.553681
87082.201927,-1184.329507,1225.752797,9178.553681
87082.202257,-888.247130,842.705048,9474.636058
87082.202586,-888.247130,306.438199,9992.780217
87082.202915,-1776.494261,459.657299,9400.615463
87082.203244,-1776.494261,153.219100,8956.491898
87082.203573,-1554.432478,0.000000,9400.615463
87082.203902,-962.267725,153.219100,9474.636058
87082.204231,-666.185348,153.219100,9844.739029
87082.204561,-888.247130,76.609550,9400.615463
87082.204890,-222.061783,76.609550,9252.574275
87082.205219,148.041188,536.266849,9400.615463
87082.205548,0.000000,229.828649,9474.636058
87082.205877,148.041188,0.000000,9252.574275
87082.206206,-740.205942,-383.047749,9252.574275
87082.206535,0.000000,-1302.362347,9474.636058
87082.206865,-222.061783,-1378.971896,9770.718434
87082.207194,-296.082377,-995.924147,9474.636058
87082.207523,222.061783,-995.924147,9326.594869
87082.207852,814.226536,-689.485948,9252.574275
87082.208181,814.226536,-536.266849,9474.636058
87082.208510,1776.494261,0.000000,9400.615463
87082.208839,1702.473667,689.485948,9326.594869
87082.209169,2368.659014,459.657299,9326.594869
87082.209498,2072.576638,383.047749,9104.533087
87082.209827,1776.494261,1225.752797,8734.430116
87082.210157,1850.514855,1302.362347,8956.491898
87082.210486,2072.576638,995.924147,8808.450710
87082.210815,1110.308913,306.438199,9030.512492
87082.211145,518.144159,306.438199,9252.574275
87082.211474,814.226536,995.924147,8808.450710
87082.211803,740.205942,689.485948,9252.574275
87082.212133,370.102971,459.657299,8882.471304
87082.212462,296.082377,2298.286494,8438.347739
87082.212791,666.185348,2757.943793,8586.388927
87082.213121,814.226536,1991.848295,9030.512492
87082.213450,74.020594,1915.238745,8956.491898
87082.213779,74.020594,1915.238745,9030.512492
87082.214109,-444.123565,2068.457845,8808.450710
87082.214438,-592.164754,1532.190996,8808.450710
87082.214767,-962.267725,1762.019645,8956.491898
87082.215097,-1480.411884,1455.581446,9252.574275
87082.215426,-1924.535449,1455.581446,8956.491898
87082.215755,-1332.370696,995.924147,9030.512492
87082.216084,-1258.350101,1378.971896,9326.594869
87082.216414,-1406.391290,1762.019645,9474.636058
87082.216743,-1184.329507,1455.581446,9104.533087
87082.217072,-518.144159,1762.019645,9030.512492
87082.217402,-296.082377,1838.629195,9400.615463
87082.217731,-666.185348,1762.019645,9252.574275
87082.218060,-962.267725,1532.190996,9252.574275
87082.218390,-666.185348,766.095498,9178.553681
87082.218719,-518.144159,306.438199,9696.697840
87082.219048,-962.267725,0.000000,9326.594869
87082.219378,-962.267725,0.000000,9326.594869
87082.219707,-666.185348,919.314598,9326.594869
87082.220036,-444.123565,-306.438199,9992.780217
87082.220366,-518.144159,-536.266849,10214.842000
87082.220695,-666.185348,-153.219100,9770.718434
87082.221024,296.082377,0.000000,9474.636058
87082.221354,370.102971,0.000000,10066.800811
87082.221683,444.123565,383.047749,9918.759623
87082.222012,666.185348,-306.438199,9696.697840
87082.222342,1036.288319,-306.438199,9622.677246
87082.222671,888.247130,-1072.533697,10066.800811
87082.223000,444.123565,-1225.752797,9770.718434
87082.223329,370.102971,-1302.362347,9474.636058
87082.223659,518.144159,-919.314598,9622.677246
87082.223988,222.061783,-689.485948,9918.759623
87082.224317,1184.329507,-689.485948,9844.739029
87082.224647,1110.308913,-153.219100,9622.677246
87082.224976,1480.411884,76.609550,9474.636058
87082.225305,1406.391290,383.047749,9548.656652
87082.225635,1110.308913,153.219100,9252.574275
87082.225964,592.164754,919.314598,9178.553681
87082.226293,74.020594,229.828649,8734.430116
87082.226623,296.082377,0.000000,9400.615463
87082.226952,-592.164754,-153.219100,9252.574275
87082.227281,-1258.350101,-536.266849,8660.409521
87082.227611,-1184.329507,0.000000,8882.471304
87082.227940,-1110.308913,0.000000,8808.450710
87082.228269,-1184.329507,306.438199,9030.512492
87082.228599,-1258.350101,766.095498,8586.388927
87082.228928,-1110.308913,1225.752797,8438.347739
87082.229257,-444.123565,1072.533697,8660.409521
87082.229587,-370.102971,1225.752797,8956.491898
87082.229916,-962.267725,1455.581446,8734.430116
87082.230245,-1184.329507,1302.362347,8364.327145
87082.230574,-592.164754,842.705048,8290.306550
87082.230904,-1110.308913,612.876398,8808.450710
87082.231233,-1554.432478,1532.190996,8956.491898
87082.231562,-1480.411884,842.705048,8882.471304
87082.231892,-1036.288319,766.095498,9252.574275
87082.232221,-740.205942,766.095498,9474.636058
87082.232550,-592.164754,1685.410096,8660.409521
87082.232880,222.061783,1149.143247,9178.553681
87082.233209,296.082377,1532.190996,8512.368333
87082.233538,296.082377,1915.238745,8882.471304
87082.233868,222.061783,1685.410096,8734.430116
87082.234197,148.041188,1532.190996,8586.388927
87082.234526,0.000000,842.705048,9104.533087
87082.234856,0.000000,229.828649,9252.574275
87082.235185,-222.061783,-229.828649,9474.636058
87082.235514,-444.123565,-459.657299,9844.739029
87082.235844,-148.041188,229.828649,9400.615463
87082.236173,370.102971,0.000000,9696.697840
87082.236502,962.267725,383.047749,10140.821405
87082.236832,888.247130,1455.581446,9474.636058
87082.237161,1702.473667,1378.971896,9252.574275
87082.237490,2516.700203,1302.362347,9474.636058
87082.237820,2072.576638,536.266849,9252.574275
87082.238149,1628.453072,1072.533697,9178.553681
87082.238478,1776.494261,1072.533697,9622.677246
87082.238807,1480.411884,229.828649,10288.862594
87082.239137,1110.308913,-383.047749,9770.718434
87082.239466,444.123565,76.609550,9696.697840
87082.239795,1184.329507,0.000000,9770.718434
87082.240125,666.185348,383.047749,9548.656652
87082.240454,296.082377,383.047749,9474.636058
87082.240783,74.020594,995.924147,9548.656652
87082.241113,518.144159,995.924147,9622.677246
87082.241442,740.205942,842.705048,9548.656652
87082.241771,296.082377,995.924147,9400.615463
87082.242101,0.000000,689.485948,9326.594869
87082.242430,-222.061783,919.314598,9252.574275
87082.242759,-666.185348,306.438199,8956.491898
87082.243089,-1554.432478,0.000000,9474.636058
87082.243418,-1850.514855,-76.609550,9178.553681
87082.243747,-1702.473667,0.000000,9326.594869
87082.244077,-1480.411884,-153.219100,9474.636058
87082.244406,-1554.432478,306.438199,9400.615463
87082.244735,-1110.308913,-306.438199,9622.677246
87082.245065,-1184.329507,536.266849,8216.285956
87082.245394,-370.102971,766.095498,9178.553681
87082.245723,-444.123565,919.314598,9104.533087
87082.246052,-962.267725,842.705048,9400.615463
87082.246382,-518.144159,459.657299,9252.574275
87082.246711,0.000000,383.047749,9030.512492
87082.247040,-740.205942,0.000000,9326.594869
87082.247370,-1036.288319,-995.924147,8734.430116
87082.247699,-740.205942,0.000000,8734.430116
87082.248028,-444.123565,-306.438199,8882.471304
87082.248358,-518.144159,0.000000,9548.656652
87082.248687,-518.144159,306.438199,8956.491898
87082.249016,-296.082377,689.485948,8586.388927
87082.249346,1332.370696,536.266849,9548.656652
87082.249675,814.226536,612.876398,9178.553681
87082.250004,444.123565,459.657299,9030.512492
87082.250334,740.205942,306.438199,9252.574275
87082.250663,1184.329507,0.000000,9474.636058
87082.250992,962.267725,229.828649,9474.636058
87082.251322,296.082377,0.000000,9474.636058
87082.251651,0.000000,229.828649,8734.430116
87082.251980,1332.370696,153.219100,9474.636058
87082.252310,1406.391290,459.657299,9770.718434
87082.252639,1110.308913,1225.752797,9326.594869
87082.252968,1554.432478,1838.629195,9252.574275
87082.253297,1776.494261,1838.629195,9400.615463
87082.253627,1480.411884,1532.190996,8956.491898
87082.253956,888.247130,1608.800546,9474.636058
87082.254285,592.164754,1455.581446,9252.574275
87082.254615,444.123565,1225.752797,9252.574275
87082.254944,74.020594,153.219100,9548.656652
87082.255273,-518.144159,459.657299,9474.636058
87082.255603,-888.247130,1149.143247,9178.553681
87082.255932,-370.102971,1608.800546,9400.615463
87082.256261,-1184.329507,842.705048,9252.574275
87082.256591,-1702.473667,612.876398,9178.553681
87082.256920,-1258.350101,1149.143247,9104.533087
87082.257249,-740.205942,1608.800546,9104.533087
87082.257579,-592.164754,1072.533697,9474.636058
87082.257908,-666.185348,1302.362347,9400.615463
87082.258237,-1332.370696,612.876398,9030.512492
87082.258567,-962.267725,1378.971896,8882.471304
87082.258896,-1480.411884,0.000000,9622.677246
87082.259225,-1776.494261,0.000000,9622.677246
87082.259555,-1850.514855,-229.828649,9178.553681
87082.259884,-1258.350101,-383.047749,9770.718434
87082.260213,-1036.288319,-229.828649,9770.718434
87082.260543,-1554.432478,-306.438199,9326.594869
87082.260872,-592.164754,-383.047749,9474.636058
87082.261201,0.000000,459.657299,9326.594869
87082.261530,222.061783,536.266849,9474.636058
87082.261860,222.061783,306.438199,9474.636058
87082.262189,74.020594,229.828649,9326.594869
87082.262518,0.000000,-306.438199,8808.450710
87082.262848,814.226536,-1991.848295,9992.780217
87082.263177,0.000000,-1072.533697,9474.636058
87082.263506,-666.185348,-1072.533697,9178.553681
87082.263836,-148.041188,-995.924147,9474.636058
87082.264165,370.102971,-1072.533697,9770.718434
87082.264494,814.226536,-536.266849,9474.636058
87082.264824,740.205942,0.000000,9400.615463
87082.265153,1554.432478,612.876398,9030.512492
87082.265482,2220.617826,-229.828649,9252.574275
87082.265812,1998.556043,842.705048,9252.574275
87082.266141,1480.411884,1072.533697,9178.553681
87082.266470,1628.453072,842.705048,9030.512492
87082.266800,1850.514855,229.828649,9252.574275
87082.267129,1036.288319,306.438199,9030.512492
87082.267458,666.185348,536.266849,8956.491898
87082.267788,740.205942,459.657299,8734.430116
87082.268117,1036.288319,612.876398,9400.615463
87082.268446,666.185348,766.095498,9326.594869
87082.268775,666.185348,1532.190996,9030.512492
87082.269105,814.226536,1915.238745,8660.409521
87082.269434,666.185348,1608.800546,8586.388927
87082.269763,814.226536,2221.676944,8734.430116
87082.270093,74.020594,2834.553343,8660.409521
87082.270422,-518.144159,2145.067394,8660.409521
87082.270751,-296.082377,1762.019645,8956.491898
87082.271081,-962.267725,1149.143247,8882.471304
87082.271410,-1480.411884,995.924147,9104.533087
87082.271739,-1702.473667,919.314598,8882.471304
87082.272069,-1184.329507,919.314598,8660.409521
87082.272398,-1110.308913,1302.362347,8734.430116
87082.272727,-1554.432478,1072.533697,9326.594869
87082.273057,-1184.329507,1608.800546,9104.533087
87082.273386,-740.205942,1762.019645,9252.574275
87082.273715,-740.205942,1378.971896,9474.636058
87082.274045,-666.185348,1378.971896,9252.574275
87082.274374,-1036.288319,1915.238745,8808.450710
87082.274703,-740.205942,1225.752797,9400.615463
87082.275033,-666.185348,459.657299,9992.780217
87082.275362,-1110.308913,0.000000,9548.656652
87082.275691,-1480.411884,-153.219100,9400.615463
87082.276021,-592.164754,0.000000,9474.636058
87082.276350,-444.123565,-306.438199,9696.697840
87082.276679,-444.123565,-306.438199,9992.780217
87082.277008,-888.247130,0.000000,9474.636058
87082.277338,222.061783,-306.438199,9474.636058
87082.277667,518.144159,-612.876398,9844.739029
87082.277996,148.041188,-612.876398,10066.800811
87082.278326,222.061783,-306.438199,9548.656652
87082.278655,222.061783,-459.657299,9178.553681
87082.278984,666.185348,-995.924147,10362.883188
87082.279314,666.185348,-1455.581446,10066.800811
87082.279643,296.082377,-1072.533697,9770.718434
87082.279972,518.144159,-995.924147,9696.697840
87082.280302,888.247130,-919.314598,9844.739029
87082.280631,888.247130,-766.095498,9696.697840
87082.280960,1258.350101,229.828649,9474.636058
87082.281290,1332.370696,0.000000,9030.512492
87082.281619,1480.411884,0.000000,9326.594869
87082.281948,1184.329507,153.219100,9548.656652
87082.282278,814.226536,459.657299,9400.615463
87082.282607,592.164754,306.438199,9178.553681
87082.282936,518.144159,229.828649,9326.594869
87082.283266,-666.185348,306.438199,9030.512492
87082.283595,-1184.329507,689.485948,8734.430116
87082.283924,-888.247130,76.609550,8734.430116
87082.284253,-814.226536,153.219100,9104.533087
87082.284583,-1110.308913,153.219100,9326.594869
87082.284912,-1332.370696,919.314598,8882.471304
87082.285241,-740.205942,919.314598,8586.388927
87082.285571,-370.102971,1225.752797,8586.388927
87082.285900,-814.226536,1455.581446,8586.388927
87082.286229,-962.267725,1455.581446,8660.409521
87082.286559,-1110.308913,1378.971896,8882.471304
87082.286888,-962.267725,842.705048,8660.409521
87082.287217,-1406.391290,919.314598,9178.553681
87082.287547,-1554.432478,1149.143247,8956.491898
87082.287876,-962.267725,0.000000,8660.409521
87082.288205,-888.247130,689.485948,8882.471304
87082.288535,-1110.308913,1225.752797,9178.553681
87082.288864,-740.205942,1532.190996,8882.471304
87082.289193,-148.041188,1762.019645,8660.409521
87082.289523,370.102971,1685.410096,8882.471304
87082.289852,370.102971,1762.019645,8956.491898
87082.290181,740.205942,1532.190996,8882.471304
87082.290511,296.082377,459.657299,9030.512492
87082.290840,0.000000,689.485948,8808.450710
87082.291169,74.020594,459.657299,9474.636058
87082.291498,-296.082377,306.438199,9622.677246
87082.291828,-444.123565,0.000000,9474.636058
87082.292157,-222.061783,-689.485948,9622.677246
87082.292486,814.226536,0.000000,10362.883188
87082.292816,222.061783,229.828649,9770.718434
87082.293145,1036.288319,459.657299,9400.615463
87082.293474,1776.494261,766.095498,9622.677246
87082.293804,2072.576638,612.876398,10066.800811
87082.294133,1850.514855,1072.533697,9844.739029
87082.294462,1776.494261,1072.533697,10066.800811
87082.294792,1480.411884,766.095498,9474.636058
87082.295121,1702.473667,-76.609550,10510.924376
87082.295450,962.267725,0.000000,9844.739029
87082.295780,370.102971,306.438199,9844.739029
87082.296109,666.185348,306.438199,9918.759623
87082.296438,666.185348,76.609550,10066.800811
87082.296768,740.205942,-536.266849,9844.739029
87082.297097,296.082377,1991.848295,9178.553681
87082.297426,666.185348,2221.676944,9178.553681
87082.297756,1184.329507,1149.143247,9400.615463
87082.298085,592.164754,995.924147,9548.656652
87082.298414,0.000000,1225.752797,9326.594869
87082.298744,-296.082377,919.314598,9104.533087
87082.299073,-740.205942,0.000000,9474.636058
87082.299402,-1258.350101,153.219100,9104.533087
87082.299731,-1998.556043,383.047749,8438.347739
87082.300061,-1628.453072,229.828649,8956.491898
87082.300390,-1480.411884,0.000000,9474.636058
87082.300719,-1554.432478,76.609550,9178.553681
87082.301049,-1554.432478,919.314598,9030.512492
87082.301378,-1184.329507,1608.800546,8882.471304
87082.301707,-518.144159,1149.143247,9844.739029
87082.302037,-592.164754,459.657299,8808.450710
87082.302366,-1036.288319,536.266849,9326.594869
87082.302695,-740.205942,536.266849,9030.512492
87082.303025,-444.123565,459.657299,9104.533087
87082.303354,-888.247130,612.876398,9400.615463
87082.303683,-962.267725,76.609550,8660.409521
87082.304013,-370.102971,-229.828649,8882.471304
87082.304342,-148.041188,306.438199,8956.491898
87082.304671,0.000000,76.609550,9252.574275
87082.305001,-148.041188,306.438199,8956.491898
87082.305330,222.061783,536.266849,8808.450710
87082.305659,1036.288319,612.876398,9326.594869
87082.305989,1258.350101,383.047749,9400.615463
87082.306318,888.247130,306.438199,9252.574275
87082.306647,370.102971,612.876398,9252.574275
87082.306976,814.226536,0.000000,9178.553681
87082.307306,518.144159,-306.438199,9326.594869
87082.307635,222.061783,-306.438199,9474.636058
87082.307964,222.061783,0.000000,9474.636058
87082.308293,888.247130,153.219100,9178.553681
87082.308623,1184.329507,-689.485948,9918.759623
87082.308952,888.247130,459.657299,9104.533087
87082.309281,1258.350101,1149.143247,9178.553681
87082.309610,1924.535449,1225.752797,9400.615463
87082.309939,1702.473667,1225.752797,9474.636058
87082.310268,1554.432478,1149.143247,9696.697840
87082.310597,962.267725,1532.190996,9104.533087
87082.310927,1184.329507,842.705048,9474.636058
87082.311256,814.226536,0.000000,9844.739029
87082.311585,-518.144159,536.266849,9474.636058
87082.311914,-444.123565,1302.362347,9104.533087
87082.312243,-518.144159,995.924147,9400.615463
87082.312572,-592.164754,842.705048,9770.718434
87082.312901,-740.205942,919.314598,9252.574275
87082.313231,-518.144159,1532.190996,9178.553681
87082.313560,-444.123565,1302.362347,9252.574275
87082.313889,-370.102971,1225.752797,9474.636058
87082.314218,-888.247130,919.314598,9474.636058
87082.314547,-1332.370696,995.924147,9252.574275
87082.314876,-1332.370696,1149.143247,9178.553681
87082.315205,-1184.329507,766.095498,9622.677246
87082.315535,-2590.720797,-459.657299,9326.594869
87082.315864,-2220.617826,0.000000,9178.553681
87082.316193,-1554.432478,76.609550,9548.656652
87082.316522,-1258.350101,0.000000,9548.656652
87082.316851,-1332.370696,459.657299,9400.615463
87082.317180,-592.164754,995.924147,9474.636058
87082.317510,148.041188,459.657299,9030.512492
87082.317839,-296.082377,1225.752797,9178.553681
87082.318168,0.000000,536.266849,9622.677246
87082.318497,0.000000,306.438199,9400.615463
87082.318826,370.102971,0.000000,8882.471304
87082.319155,296.082377,-306.438199,9400.615463
87082.319484,-444.123565,-153.219100,9474.636058
87082.319814,-296.082377,-766.095498,9178.553681
87082.320143,-148.041188,-689.485948,9326.594869
87082.320472,0.000000,-689.485948,9252.574275
87082.320801,222.061783,-383.047749,9400.615463
87082.321130,518.144159,0.000000,9104.533087
87082.321459,1036.288319,229.828649,9030.512492
87082.321788,1554.432478,76.609550,9178.553681
87082.322118,1998.556043,612.876398,9178.553681
87082.322447,1628.453072,919.314598,9104.533087
87082.322776,592.164754,766.095498,8882.471304
87082.323105,1480.411884,0.000000,8956.491898
87082.323434,1406.391290,0.000000,9474.636058
87082.323763,518.144159,459.657299,9252.574275
87082.324092,814.226536,689.485948,9104.533087
87082.324422,1036.288319,612.876398,8734.430116
87082.324751,814.226536,919.314598,9844.739029
87082.325080,1184.329507,995.924147,9992.780217
87082.325409,814.226536,1608.800546,9104.533087
87082.325738,1036.288319,1838.629195,8956.491898
87082.326067,888.247130,1685.410096,9400.615463
87082.326396,740.205942,1991.848295,9326.594869
87082.326726,0.000000,2145.067394,8956.491898
87082.327055,-962.267725,2145.067394,8956.491898
87082.327384,-222.061783,995.924147,9474.636058
87082.327713,-962.267725,919.314598,9400.615463
87082.328042,-1480.411884,1378.971896,9252.574275
87082.328371,-1184.329507,1762.019645,9252.574275
87082.328700,-1258.350101,1072.533697,9474.636058
87082.329030,-1036.288319,1838.629195,9474.636058
87082.329359,-888.247130,2374.896044,9326.594869
87082.329688,-1480.411884,2145.067394,9030.512492
87082.330017,-592.164754,1608.800546,9696.697840
87082.330346,-962.267725,1302.362347,9474.636058
87082.330675,-1036.288319,1225.752797,9252.574275
87082.331005,-666.185348,766.095498,9474.636058
87082.331334,-444.123565,1072.533697,9696.697840
87082.331663,-1258.350101,766.095498,9474.636058
87082.331992,-1184.329507,76.609550,9474.636058
87082.332321,-888.247130,0.000000,9548.656652
87082.332650,-444.123565,-229.828649,9770.718434
87082.332979,-370.102971,-306.438199,9622.677246
87082.333309,-296.082377,153.219100,9770.718434
87082.333638,444.123565,229.828649,9326.594869
87082.333967,1110.308913,0.000000,9770.718434
87082.334296,518.144159,0.000000,9770.718434
87082.334625,296.082377,0.000000,9622.677246
87082.334954,518.144159,-689.485948,9474.636058
87082.335283,814.226536,-1302.362347,9696.697840
87082.335613,0.000000,-1149.143247,9770.718434
87082.335942,-296.082377,-919.314598,9178.553681
87082.336271,370.102971,-1608.800546,9252.574275
87082.336600,814.226536,-1225.752797,9622.677246
87082.336929,296.082377,-1072.533697,9474.636058
87082.337258,444.123565,76.609550,9252.574275
87082.337587,1258.350101,-153.219100,9326.594869
87082.337917,1628.453072,0.000000,9252.574275
87082.338246,1258.350101,229.828649,9030.512492
87082.338575,592.164754,0.000000,9104.533087
87082.338904,666.185348,76.609550,8956.491898
87082.339233,962.267725,-536.266849,9326.594869
87082.339562,0.000000,-459.657299,9252.574275
87082.339891,-740.205942,0.000000,9104.533087
87082.340221,-518.144159,0.000000,8734.430116
87082.340550,-370.102971,229.828649,8512.368333
87082.340879,-518.144159,0.000000,8956.491898
87082.341208,-444.123565,229.828649,8586.388927
87082.341537,-518.144159,1072.533697,8512.368333
87082.341866,-370.102971,1378.971896,9030.512492
87082.342195,-666.185348,1225.752797,8734.430116
87082.342525,-888.247130,1302.362347,8438.347739
87082.342854,-1406.391290,1608.800546,9030.512492
87082.343183,-1480.411884,1302.362347,8364.327145
87082.343512,-1184.329507,0.000000,9030.512492
87082.343841,-1924.535449,229.828649,9178.553681
87082.344170,-1776.494261,306.438199,9252.574275
87082.344500,-1850.514855,766.095498,8956.491898
87082.344829,-1036.288319,766.095498,9252.574275
87082.345158,-1332.370696,1072.533697,9400.615463
87082.345487,-740.205942,1455.581446,8956.491898
87082.345816,370.102971,1838.629195,9400.615463
87082.346145,814.226536,1455.581446,9622.677246
87082.346474,444.123565,1608.800546,9400.615463
87082.346804,74.020594,1455.581446,8882.471304
87082.347133,518.144159,1072.533697,9252.574275
87082.347462,222.061783,1149.143247,9622.677246
87082.347791,-740.205942,0.000000,9104.533087
87082.348120,-370.102971,0.000000,9770.718434
87082.348449,0.000000,0.000000,9844.739029
87082.348778,148.041188,0.000000,9844.739029
87082.349108,222.061783,536.266849,10066.800811
87082.349437,740.205942,842.705048,9696.697840
87082.349766,1702.473667,-306.438199,9844.739029
87082.350095,1554.432478,766.095498,9696.697840
87082.350424,1480.411884,689.485948,9622.677246
87082.350753,1258.350101,766.095498,9326.594869
87082.351082,1554.432478,459.657299,9622.677246
87082.351412,1406.391290,153.219100,10066.800811
87082.351741,666.185348,383.047749,9696.697840
87082.352070,740.205942,0.000000,9844.739029
87082.352399,814.226536,153.219100,9474.636058
87082.352728,1036.288319,-612.876398,9770.718434
87082.353057,888.247130,153.219100,9770.718434
87082.353386,444.123565,1072.533697,9400.615463
87082.353716,814.226536,1149.143247,9474.636058
87082.354045,888.247130,1149.143247,9474.636058
87082.354374,592.164754,919.314598,9474.636058
87082.354703,666.185348,766.095498,9474.636058
87082.355032,0.000000,1225.752797,8956.491898
87082.355361,-444.123565,383.047749,8956.491898
87082.355690,-962.267725,76.609550,9474.636058
87082.356020,-1406.391290,0.000000,8586.388927
87082.356349,-1110.308913,-612.876398,8660.409521
87082.356678,-1332.370696,153.219100,8586.388927
87082.357007,-1480.411884,612.876398,8882.471304
87082.357336,-1480.411884,383.047749,8586.388927
87082.357665,-1110.308913,842.705048,8586.388927
87082.357995,-814.226536,842.705048,8808.450710
87082.358324,-740.205942,766.095498,9178.553681
87082.358653,-1110.308913,842.705048,9104.533087
87082.358982,-740.205942,0.000000,8808.450710
87082.359311,-444.123565,919.314598,8364.327145
87082.359640,-1184.329507,153.219100,8956.491898
87082.359969,-1332.370696,0.000000,8956.491898
87082.360299,-962.267725,0.000000,8882.471304
87082.360628,-962.267725,306.438199,8734.430116
87082.360957,0.000000,842.705048,9474.636058
87082.361286,-370.102971,766.095498,9400.615463
87082.361615,222.061783,995.924147,9104.533087
87082.361944,962.267725,459.657299,9622.677246
87082.362273,740.205942,612.876398,9326.594869
87082.362603,296.082377,995.924147,9474.636058
87082.362932,666.185348,612.876398,8882.471304
87082.363261,1258.350101,153.219100,9548.656652
87082.363590,814.226536,-689.485948,9474.636058
87082.363919,148.041188,-229.828649,9326.594869
87082.364248,296.082377,306.438199,9474.636058
87082.364577,592.164754,76.609550,9696.697840
87082.364907,740.205942,0.000000,9770.718434
87082.365236,592.164754,0.000000,9400.615463
87082.365565,814.226536,995.924147,9326.594869
87082.365894,1628.453072,1302.362347,9252.574275
87082.366223,1850.514855,919.314598,9696.697840
87082.366552,1406.391290,1072.533697,9622.677246
87082.366881,592.164754,1455.581446,9104.533087
87082.367211,962.267725,919.314598,9474.636058
87082.367540,1036.288319,153.219100,9844.739029
87082.367869,148.041188,153.219100,9770.718434
87082.368198,-370.102971,919.314598,9178.553681
87082.368527,-222.061783,1302.362347,9252.574275
87082.368856,0.000000,459.657299,9696.697840
87082.369185,-444.123565,1072.533697,9696.697840
87082.369515,-518.144159,1455.581446,9400.615463
87082.369844,-518.144159,1149.143247,9030.512492
87082.370173,0.000000,1225.752797,9474.636058
87082.370502,-962.267725,995.924147,9548.656652
87082.370831,-1258.350101,1378.971896,8956.491898
87082.371160,-888.247130,919.314598,9104.533087
87082.371490,-1554.432478,459.657299,9400.615463
87082.371819,-1998.556043,0.000000,9474.636058
87082.372148,-2072.576638,0.000000,9326.594869
87082.372477,-2368.659014,0.000000,9178.553681
87082.372806,-1554.432478,-612.876398,9918.759623
87082.373135,-1776.494261,0.000000,9104.533087
87082.373464,-962.267725,229.828649,9400.615463
87082.373794,-222.061783,919.314598,9104.533087
87082.374123,74.020594,689.485948,9326.594869
87082.374452,148.041188,536.266849,9178.553681
87082.374781,0.000000,1072.533697,8882.471304
87082.375110,296.082377,612.876398,8882.471304
87082.375439,444.123565,153.219100,9474.636058
87082.375768,0.000000,-459.657299,9400.615463
87082.376098,-370.102971,-536.266849,9104.533087
87082.376427,0.000000,-459.657299,8882.471304
87082.376756,0.000000,0.000000,9252.574275
87082.377085,148.041188,-459.657299,9400.615463
87082.377414,666.185348,0.000000,8956.491898
87082.377743,740.205942,229.828649,9030.512492
87082.378072,1406.391290,383.047749,9326.594869
87082.378402,1480.411884,306.438199,9474.636058
87082.378731,1258.350101,995.924147,9178.553681
87082.379060,962.267725,766.095498,8956.491898
87082.379389,1110.308913,306.438199,8290.306550
87082.379718,1258.350101,612.876398,9104.533087
87082.380047,444.123565,383.047749,9326.594869
87082.380376,296.082377,536.266849,9104.533087
87082.380706,1406.391290,0.000000,9474.636058
87082.381035,1110.308913,612.876398,9696.697840
87082.381364,592.164754,1149.143247,9474.636058
87082.381693,592.164754,1838.629195,8956.491898
87082.382022,1702.473667,1455.581446,9252.574275
87082.382351,1628.453072,1532.190996,9548.656652
87082.382680,814.226536,2221.676944,9252.574275
87082.383010,444.123565,2451.505594,9030.512492
87082.383339,296.082377,1608.800546,9178.553681
87082.383668,-518.144159,1225.752797,9474.636058
87082.383997,-296.082377,689.485948,9474.636058
87082.384326,-592.164754,1455.581446,9622.677246
87082.384655,-1036.288319,1225.752797,9474.636058
87082.384985,-666.185348,612.876398,9696.697840
87082.385314,-1184.329507,1225.752797,9696.697840
87082.385643,-962.267725,1608.800546,9400.615463
87082.385972,-666.185348,1455.581446,8956.491898
87082.386301,-296.082377,1838.629195,9252.574275
87082.386630,-962.267725,612.876398,9474.636058
87082.386959,-1110.308913,1149.143247,9104.533087
87082.387289,-962.267725,919.314598,9326.594869
87082.387618,-1036.288319,306.438199,9770.718434
87082.387947,-1036.288319,0.000000,9622.677246
87082.388276,-1184.329507,0.000000,8956.491898
87082.388605,-1036.288319,76.609550,9104.533087
87082.388934,-740.205942,-229.828649,9104.533087
87082.389263,-518.144159,-153.219100,9474.636058
87082.389593,-296.082377,0.000000,9474.636058
87082.389922,296.082377,306.438199,9474.636058
87082.390251,888.247130,536.266849,9844.739029
87082.390580,592.164754,0.000000,9918.759623
87082.390909,0.000000,383.047749,8956.491898
87082.391238,444.123565,0.000000,8364.327145
87082.391567,444.123565,-1149.143247,9696.697840
87082.391897,0.000000,-1225.752797,9474.636058
87082.392226,-296.082377,-1225.752797,9400.615463
87082.392555,0.000000,-1455.581446,9474.636058
87082.392884,666.185348,-1072.533697,9474.636058
87082.393213,518.144159,-536.266849,9104.533087
87082.393542,0.000000,76.609550,8956.491898
87082.393871,814.226536,0.000000,8734.430116
87082.394201,1184.329507,0.000000,9326.594869
87082.394530,1036.288319,76.609550,9252.574275
87082.394859,666.185348,229.828649,8808.450710
87082.395188,370.102971,229.828649,8808.450710
87082.395517,666.185348,-612.876398,9326.594869
87082.395846,370.102971,-383.047749,9622.677246
87082.396175,-296.082377,0.000000,9326.594869
87082.396505,-592.164754,153.219100,8956.491898
87082.396834,0.000000,0.000000,8956.491898
87082.397163,0.000000,459.657299,9622.677246
87082.397492,-444.123565,1225.752797,8734.430116
87082.397821,-296.082377,1762.019645,8586.388927
87082.398150,222.061783,1072.533697,9030.512492
87082.398480,0.000000,1149.143247,9030.512492
87082.398809,-666.185348,1302.362347,9030.512492
87082.399138,-962.267725,1762.019645,8808.450710
87082.399467,-1406.391290,1608.800546,8808.450710
87082.399796,-1480.411884,383.047749,9104.533087
87082.400125,-2516.700203,536.266849,9252.574275
87082.400454,-2072.576638,536.266849,9622.677246
87082.400784,-2072.576638,842.705048,9252.574275
87082.401113,-1628.453072,306.438199,9326.594869
87082.401442,-1332.370696,536.266849,9474.636058
87082.401771,-1036.288319,1378.971896,8808.450710
87082.402100,0.000000,1915.238745,9474.636058
87082.402429,444.123565,1991.848295,9474.636058
87082.402758,0.000000,1378.971896,9400.615463
87082.403088,74.020594,1532.190996,9030.512492
87082.403417,518.144159,1455.581446,9474.636058
87082.403746,444.123565,1149.143247,9770.718434
87082.404075,0.000000,766.095498,9474.636058
87082.404404,0.000000,229.828649,9326.594869
87082.404733,222.061783,229.828649,9548.656652
87082.405062,0.000000,306.438199,9770.718434
87082.405392,592.164754,306.438199,10140.821405
87082.405721,444.123565,383.047749,9918.759623
87082.406050,1406.391290,536.266849,9548.656652
87082.406379,1702.473667,612.876398,9474.636058
87082.406708,1406.391290,612.876398,9770.718434
87082.407037,1406.391290,1455.581446,9326.594869
87082.407366,1110.308913,229.828649,8956.491898
87082.407696,1110.308913,0.000000,9474.636058
87082.408025,666.185348,-153.219100,9844.739029
87082.408354,222.061783,0.000000,9548.656652
87082.408683,0.000000,-383.047749,9400.615463
87082.409012,0.000000,-306.438199,9474.636058
87082.409341,814.226536,-306.438199,9326.594869
87082.409670,444.123565,766.095498,9474.636058
87082.410000,1036.288319,766.095498,9252.574275
87082.410329,962.267725,306.438199,9400.615463
87082.410658,1036.288319,459.657299,9178.553681
87082.410987,444.123565,1455.581446,8586.388927
87082.411317,222.061783,1608.800546,8808.450710
87082.411646,222.061783,459.657299,8734.430116
87082.411975,0.000000,0.000000,9326.594869
87082.412304,-1036.288319,0.000000,8734.430116
87082.412634,-1406.391290,612.876398,8438.347739
87082.412963,-1036.288319,536.266849,8956.491898
87082.413292,-962.267725,153.219100,8882.471304
87082.413621,-1702.473667,459.657299,8512.368333
87082.413950,-1332.370696,1072.533697,8586.388927
87082.414280,-444.123565,919.314598,9770.718434
87082.414609,-740.205942,536.266849,9252.574275
87082.414938,-1332.370696,383.047749,8956.491898
87082.415267,-1554.432478,919.314598,8808.450710
87082.415597,-962.267725,689.485948,8438.347739
87082.415926,-1258.350101,766.095498,9474.636058
87082.416255,-1480.411884,-306.438199,9252.574275
87082.416584,-1332.370696,76.609550,8808.450710
87082.416913,-740.205942,0.000000,9252.574275
87082.417243,-370.102971,0.000000,9474.636058
87082.417572,-296.082377,306.438199,9474.636058
87082.417901,592.164754,1149.143247,8808.450710
87082.418230,814.226536,1225.752797,9104.533087
87082.418560,592.164754,1149.143247,9400.615463
87082.418889,888.247130,536.266849,9770.718434
87082.419218,740.205942,689.485948,9474.636058
87082.419547,740.205942,459.657299,9474.636058
87082.419876,888.247130,-153.219100,10140.821405
87082.420206,0.000000,-919.314598,9548.656652
87082.420535,222.061783,1225.752797,8882.471304
87082.420864,814.226536,306.438199,9400.615463
87082.421193,814.226536,-76.609550,9548.656652
87082.421523,666.185348,383.047749,9918.759623
87082.421852,814.226536,842.705048,9696.697840
87082.422181,1480.411884,689.485948,9400.615463
87082.422510,1776.494261,536.266849,9844.739029
87082.422840,1258.350101,0.000000,9548.656652
87082.423169,666.185348,1225.752797,9178.553681
87082.423498,1036.288319,689.485948,9474.636058
87082.423827,814.226536,383.047749,9770.718434
87082.424156,74.020594,536.266849,9548.656652
87082.424486,-74.020594,229.828649,9474.636058
87082.424815,-222.061783,153.219100,9474.636058
87082.425144,444.123565,0.000000,9548.656652
87082.425473,222.061783,383.047749,9474.636058
87082.425803,-370.102971,1378.971896,9252.574275
87082.426132,0.000000,1378.971896,8956.491898
87082.426461,370.102971,1455.581446,9400.615463
87082.426790,-148.041188,1378.971896,9104.533087
87082.427119,-1036.288319,1532.190996,8734.430116
87082.427449,-296.082377,919.314598,9030.512492
87082.427778,-592.164754,0.000000,9030.512492
87082.428107,-1850.514855,0.000000,9252.574275
87082.428436,-2368.659014,76.609550,8808.450710
87082.428766,-1924.535449,0.000000,8882.471304
87082.429095,-1850.514855,-153.219100,9178.553681
87082.429424,-2294.638420,-383.047749,9104.533087
87082.429753,-1924.535449,0.000000,8734.430116
87082.430083,-888.247130,383.047749,8734.430116
87082.430412,-444.123565,153.219100,8956.491898
87082.430741,-370.102971,76.609550,9104.533087
87082.431070,-296.082377,383.047749,8956.491898
87082.431399,-518.144159,536.266849,8808.450710
87082.431729,296.082377,0.000000,8882.471304
87082.432058,-666.185348,-766.095498,9326.594869
87082.432387,-296.082377,-612.876398,9548.656652
87082.432716,-370.102971,-383.047749,9030.512492
87082.433046,222.061783,-536.266849,9252.574275
87082.433375,370.102971,-306.438199,9770.718434
87082.433704,444.123565,76.609550,9178.553681
87082.434033,1110.308913,383.047749,8882.471304
87082.434362,1480.411884,766.095498,9400.615463
87082.434692,1628.453072,536.266849,9326.594869
87082.435021,1406.391290,766.095498,9178.553681
87082.435350,1184.329507,689.485948,9252.574275
87082.435679,1184.329507,459.657299,9178.553681
87082.436009,1184.329507,76.609550,9696.697840
87082.436338,592.164754,919.314598,9622.677246
87082.436667,370.102971,153.219100,9178.553681
87082.436996,740.205942,229.828649,9474.636058
87082.437325,888.247130,612.876398,9844.739029
87082.437655,888.247130,766.095498,9992.780217
87082.437984,1110.308913,1532.190996,9474.636058
87082.438313,814.226536,1685.410096,9474.636058
87082.438642,1776.494261,1225.752797,9548.656652
87082.438972,1406.391290,1685.410096,9622.677246
87082.439301,444.123565,2221.676944,8956.491898
87082.439630,962.267725,1608.800546,9474.636058
87082.439959,296.082377,1302.362347,9622.677246
87082.440289,-370.102971,1608.800546,9252.574275
87082.440618,-740.205942,1455.581446,9252.574275
87082.440947,-592.164754,1149.143247,9326.594869
87082.441276,-518.144159,459.657299,9548.656652
87082.441605,-888.247130,1608.800546,9844.739029
87082.441935,-962.267725,1915.238745,9474.636058
87082.442264,-888.247130,1532.190996,9030.512492
87082.442593,-444.123565,1762.019645,9326.594869
87082.442922,-666.185348,2068.457845,9474.636058
87082.443252,-1628.453072,1455.581446,8808.450710
87082.443581,-814.226536,1072.533697,8808.450710
87082.443910,-888.247130,153.219100,9918.759623
87082.444239,-1924.535449,76.609550,9252.574275
87082.444568,-1776.494261,0.000000,9104.533087
87082.444898,-1480.411884,0.000000,9400.615463
87082.445227,-1332.370696,612.876398,8882.471304
87082.445556,-1110.308913,536.266849,9178.553681
87082.445885,-444.123565,-153.219100,9252.574275
87082.446215,74.020594,76.609550,8956.491898
87082.446544,370.102971,0.000000,9474.636058
87082.446873,444.123565,229.828649,9252.574275
87082.447202,0.000000,153.219100,9326.594869
87082.447531,740.205942,-153.219100,8808.450710
87082.447861,592.164754,-229.828649,9400.615463
87082.448190,74.020594,-1072.533697,9400.615463
87082.448519,0.000000,-995.924147,9252.574275
87082.448848,296.082377,-995.924147,9326.594869
87082.449178,592.164754,-1149.143247,9400.615463
87082.449507,370.102971,-383.047749,9326.594869
87082.449836,222.061783,-612.876398,9400.615463
87082.450165,740.205942,536.266849,8438.347739
87082.450495,1332.370696,0.000000,9252.574275
87082.450824,1036.288319,0.000000,9104.533087
87082.451153,592.164754,229.828649,8956.491898
87082.451482,444.123565,0.000000,9252.574275
87082.451811,444.123565,-459.657299,9252.574275
87082.452141,518.144159,-1072.533697,9474.636058
87082.452470,-296.082377,-536.266849,9326.594869
87082.452799,-666.185348,76.609550,8882.471304
87082.453128,-222.061783,-459.657299,9030.512492
87082.453458,74.020594,76.609550,9474.636058
87082.453787,-370.102971,995.924147,9474.636058
87082.454116,-222.061783,1455.581446,9104.533087
87082.454445,370.102971,1378.971896,9400.615463
87082.454774,370.102971,383.047749,9400.615463
87082.455104,-296.082377,1225.752797,8438.347739
87082.455433,-814.226536,1608.800546,9030.512492
87082.455762,-666.185348,1072.533697,9400.615463
87082.456091,-1110.308913,459.657299,9474.636058
87082.456421,-1702.473667,612.876398,9252.574275
87082.456750,-1480.411884,1225.752797,9992.780217
87082.457079,-1554.432478,536.266849,9548.656652
87082.457408,-962.267725,-153.219100,9696.697840
87082.457737,-1554.432478,612.876398,9474.636058
87082.458067,-1332.370696,1302.362347,9474.636058
87082.458396,-296.082377,1455.581446,9474.636058
87082.458725,0.000000,1225.752797,9844.739029
87082.459054,-666.185348,1455.581446,8808.450710
87082.459384,370.102971,1685.410096,9474.636058
87082.459713,444.123565,1302.362347,8956.491898
87082.460042,0.000000,536.266849,9770.718434
87082.460371,-296.082377,153.219100,9548.656652
87082.460701,0.000000,0.000000,9326.594869
87082.461030,148.041188,459.657299,9770.718434
87082.461359,148.041188,306.438199,9844.739029
87082.461688,444.123565,459.657299,9622.677246
87082.462017,814.226536,153.219100,9770.718434
87082.462347,1406.391290,612.876398,9252.574275
87082.462676,1480.411884,995.924147,9400.615463
87082.463005,1480.411884,689.485948,9400.615463
87082.463334,1332.370696,612.876398,9400.615463
87082.463664,1480.411884,1149.143247,9252.574275
87082.463993,1036.288319,76.609550,9326.594869
87082.464322,962.267725,0.000000,9548.656652
87082.464651,222.061783,0.000000,9178.553681
87082.464980,518.144159,-612.876398,9030.512492
87082.465310,592.164754,-459.657299,9474.636058
87082.465639,666.185348,76.609550,9770.718434
87082.465968,222.061783,689.485948,9178.553681
87082.466297,1036.288319,229.828649,9030.512492
87082.466627,1184.329507,919.314598,8956.491898
87082.466956,888.247130,1072.533697,9178.553681
87082.467285,444.123565,1149.143247,9030.512492
87082.467614,296.082377,766.095498,8808.450710
87082.467944,222.061783,612.876398,8956.491898
87082.468273,0.000000,459.657299,9178.553681
87082.468602,-888.247130,842.705048,9030.512492
87082.468931,-1036.288319,995.924147,8364.327145
87082.469260,-814.226536,76.609550,8808.450710
87082.469590,-740.205942,229.828649,9252.574275
87082.469919,-1332.370696,1072.533697,8882.471304
87082.470248,-1480.411884,919.314598,8882.471304
87082.470577,-1036.288319,995.924147,8808.450710
87082.470907,-370.102971,229.828649,9178.553681
87082.471236,-1258.350101,842.705048,8734.430116
87082.471565,-1776.494261,766.095498,8808.450710
87082.471894,-1628.453072,306.438199,8882.471304
87082.472223,-1554.432478,-306.438199,9474.636058
87082.472553,-1628.453072,0.000000,9326.594869
87082.472882,-1776.494261,0.000000,8956.491898
87082.473211,-1480.411884,0.000000,9474.636058
87082.473540,-592.164754,153.219100,9400.615463
87082.473870,-740.205942,0.000000,9622.677246
87082.474199,0.000000,919.314598,9252.574275
87082.474528,444.123565,1072.533697,9474.636058
87082.474857,888.247130,689.485948,9696.697840
87082.475186,814.226536,689.485948,9474.636058
87082.475516,666.185348,229.828649,9326.594869
87082.475845,296.082377,612.876398,9622.677246
87082.476174,740.205942,0.000000,10066.800811
87082.476503,444.123565,-153.219100,9770.718434
87082.476833,148.041188,-229.828649,9474.636058
87082.477162,592.164754,153.219100,9400.615463
87082.477491,962.267725,612.876398,9918.759623
87082.477820,592.164754,153.219100,9400.615463
87082.478150,814.226536,689.485948,9400.615463
87082.478479,1628.453072,842.705048,9252.574275
87082.478808,1628.453072,919.314598,9474.636058
87082.479137,1110.308913,1072.533697,9474.636058
87082.479466,814.226536,1072.533697,9548.656652
87082.479796,1406.391290,459.657299,9326.594869
87082.480125,592.164754,536.266849,9400.615463
87082.480454,148.041188,0.000000,9178.553681
87082.480783,-296.082377,306.438199,9400.615463
87082.481113,0.000000,0.000000,8956.491898
87082.481442,0.000000,-306.438199,9474.636058
87082.481771,0.000000,536.266849,9178.553681
87082.482100,148.041188,1302.362347,8956.491898
87082.482429,370.102971,1762.019645,8882.471304
87082.482759,592.164754,1532.190996,9030.512492
87082.483088,0.000000,1225.752797,8734.430116
87082.483417,-592.164754,1225.752797,8956.491898
87082.483746,-518.144159,1072.533697,8734.430116
87082.484076,-814.226536,306.438199,8882.471304
87082.484405,-1480.411884,0.000000,9474.636058
87082.484734,-1776.494261,0.000000,9400.615463
87082.485063,-2146.597232,229.828649,8660.409521
87082.485392,-1702.473667,-536.266849,9178.553681
87082.485722,-1924.535449,0.000000,9474.636058
87082.486051,-2294.638420,536.266849,8364.327145
87082.486380,-1702.473667,919.314598,8660.409521
87082.486709,-814.226536,536.266849,8660.409521
87082.487039,-1036.288319,229.828649,9178.553681
87082.487368,-740.205942,842.705048,8956.491898
87082.487697,-814.226536,383.047749,8882.471304
87082.488026,-370.102971,0.000000,9104.533087
87082.488356,-518.144159,-306.438199,9474.636058
87082.488685,-962.267725,76.609550,9326.594869
87082.489014,-592.164754,229.828649,9326.594869
87082.489343,74.020594,-306.438199,9474.636058
87082.489672,296.082377,-153.219100,9548.656652
87082.490002,74.020594,-229.828649,9696.697840
87082.490331,1110.308913,306.438199,9104.533087
87082.490660,1554.432478,612.876398,9548.656652
87082.490989,1702.473667,383.047749,9770.718434
87082.491319,1406.391290,612.876398,9178.553681
87082.491648,1480.411884,842.705048,9844.739029
87082.491977,1554.432478,229.828649,9918.759623
87082.492306,1110.308913,229.828649,9770.718434
87082.492635,814.226536,0.000000,9548.656652
87082.492965,296.082377,-153.219100,9252.574275
87082.493294,666.185348,229.828649,9400.615463
87082.493623,740.205942,612.876398,9622.677246
87082.493952,74.020594,1149.143247,9844.739029
87082.494282,592.164754,1302.362347,9474.636058
87082.494611,1406.391290,1149.143247,9474.636058
87082.494940,1776.494261,1378.971896,9992.780217
87082.495269,962.267725,1378.971896,9252.574275
87082.495599,814.226536,1685.410096,9252.574275
87082.495928,1258.350101,1838.629195,9400.615463
87082.496257,814.226536,766.095498,9622.677246
87082.496586,148.041188,1225.752797,9622.677246
87082.496915,-222.061783,1608.800546,9326.594869
87082.497245,-222.061783,1608.800546,9178.553681
87082.497574,-222.061783,1225.752797,9326.594869
87082.497903,0.000000,1685.410096,9548.656652
87082.498232,0.000000,1685.410096,9622.677246
87082.498562,-222.061783,1685.410096,9178.553681
87082.498891,-148.041188,1685.410096,9252.574275
87082.499220,-740.205942,1532.190996,9400.615463
87082.499549,-1406.391290,1991.848295,9030.512492
87082.499878,-1184.329507,1149.143247,8882.471304
87082.500208,-1184.329507,612.876398,8586.388927
87082.500537,-2072.576638,229.828649,9474.636058
87082.500866,-2146.597232,536.266849,9400.615463
87082.501195,-1850.514855,306.438199,8956.491898
87082.501525,-1332.370696,-229.828649,9326.594869
87082.501854,-1332.370696,-383.047749,9178.553681
87082.502183,-1184.329507,459.657299,8882.471304
87082.502512,-592.164754,383.047749,8586.388927
87082.502841,444.123565,0.000000,9178.553681
87082.503171,148.041188,0.000000,9252.574275
87082.503500,0.000000,0.000000,9326.594869
87082.503829,222.061783,76.609550,9104.533087
87082.504158,370.102971,0.000000,9474.636058
87082.504488,148.041188,-842.705048,9474.636058
87082.504817,0.000000,-995.924147,9030.512492
87082.505146,74.020594,-689.485948,8882.471304
87082.505475,222.061783,-689.485948,9326.594869
87082.505805,370.102971,-766.095498,9474.636058
87082.506134,74.020594,-842.705048,9400.615463
87082.506463,740.205942,0.000000,8956.491898
87082.506792,1406.391290,-229.828649,9252.574275
87082.507121,1110.308913,689.485948,9400.615463
87082.507451,444.123565,-536.266849,8956.491898
87082.507780,370.102971,-459.657299,9326.594869
87082.508109,666.185348,-306.438199,9326.594869
87082.508438,148.041188,-459.657299,9252.574275
87082.508768,-370.102971,-459.657299,9474.636058
87082.509097,-296.082377,-995.924147,9178.553681
87082.509426,0.000000,76.609550,9326.594869
87082.509755,296.082377,76.609550,9770.718434
87082.510084,0.000000,842.705048,9622.677246
87082.510414,74.020594,995.924147,9400.615463
87082.510743,592.164754,842.705048,9474.636058
87082.511072,666.185348,1149.143247,10066.800811
87082.511401,-370.102971,1532.190996,9178.553681
87082.511731,0.000000,2068.457845,8586.388927
87082.512060,0.000000,1685.410096,9178.553681
87082.512389,-666.185348,229.828649,9474.636058
87082.512718,-1406.391290,536.266849,9474.636058
87082.513047,-1924.535449,1149.143247,9400.615463
87082.513377,-1554.432478,612.876398,9400.615463
87082.513706,-1332.370696,229.828649,9918.759623
87082.514035,-1258.350101,-459.657299,9400.615463
87082.514364,-1850.514855,1915.238745,8586.388927
87082.514694,-888.247130,1378.971896,9104.533087
87082.515023,-148.041188,766.095498,9548.656652
87082.515352,-370.102971,1302.362347,9326.594869
87082.515681,-888.247130,1378.971896,9104.533087
87082.516010,74.020594,1378.971896,9178.553681
87082.516340,0.000000,76.609550,9696.697840
87082.516669,-444.123565,459.657299,9400.615463
87082.516998,-666.185348,689.485948,8660.409521
87082.517327,0.000000,612.876398,9104.533087
87082.517657,222.061783,229.828649,9548.656652
87082.517986,518.144159,0.000000,9622.677246
87082.518315,148.041188,536.266849,9104.533087
87082.518644,1480.411884,1302.362347,10214.842000
87082.518973,1702.473667,612.876398,9104.533087
87082.519303,1480.411884,919.314598,9252.574275
87082.519632,1110.308913,919.314598,9030.512492
87082.519961,1184.329507,612.876398,8956.491898
87082.520290,1702.473667,383.047749,9252.574275
87082.520620,740.205942,153.219100,9030.512492
87082.520949,148.041188,0.000000,8956.491898
87082.521278,592.164754,-76.609550,8956.491898
87082.521607,444.123565,0.000000,9104.533087
87082.521936,296.082377,153.219100,9474.636058
87082.522266,444.123565,0.000000,9252.574275
87082.522595,962.267725,536.266849,8956.491898
87082.522924,1258.350101,766.095498,8734.430116
87082.523253,1184.329507,536.266849,9104.533087
87082.523583,740.205942,842.705048,9030.512492
87082.523912,370.102971,995.924147,8956.491898
87082.524241,444.123565,536.266849,9252.574275
87082.524570,74.020594,306.438199,9474.636058
87082.524899,-370.102971,459.657299,9252.574275
87082.525229,-962.267725,76.609550,8660.409521
87082.525558,-370.102971,306.438199,8512.368333
87082.525887,444.123565,-459.657299,9622.677246
87082.526216,-1036.288319,995.924147,9178.553681
87082.526546,-888.247130,1302.362347,8808.450710
87082.526875,-592.164754,1302.362347,9178.553681
87082.527204,-592.164754,1072.533697,9400.615463
87082.527533,-1036.288319,1225.752797,9474.636058
87082.527862,-1258.350101,1762.019645,9104.533087
87082.528192,-1480.411884,306.438199,9252.574275
87082.528521,-1480.411884,-536.266849,9770.718434
87082.528850,-1998.556043,-229.828649,9474.636058
87082.529179,-2072.576638,229.828649,9326.594869
87082.529509,-1554.432478,0.000000,9474.636058
87082.529838,-1110.308913,-229.828649,9252.574275
87082.530167,-592.164754,0.000000,9622.677246
87082.530496,-592.164754,1378.971896,9252.574275
87082.530825,74.020594,1072.533697,9252.574275
87082.531155,814.226536,842.705048,9696.697840
87082.531484,370.102971,536.266849,9548.656652
87082.531813,444.123565,689.485948,9474.636058
87082.532142,1110.308913,76.609550,9252.574275
87082.532472,888.247130,306.438199,10066.800811
87082.532801,296.082377,-306.438199,9770.718434
87082.533130,444.123565,-306.438199,9548.656652
87082.533459,518.144159,0.000000,9622.677246
87082.533788,814.226536,0.000000,9696.697840
87082.534118,962.267725,306.438199,9104.533087
87082.534447,1702.473667,153.219100,9474.636058
87082.534776,1628.453072,536.266849,9252.574275
87082.535105,1332.370696,1455.581446,8882.471304
87082.535434,1332.370696,995.924147,9400.615463
87082.535764,1184.329507,689.485948,9400.615463
87082.536093,888.247130,689.485948,9104.533087
87082.536422,592.164754,459.657299,9252.574275
87082.536751,222.061783,612.876398,9844.739029
87082.537081,74.020594,-306.438199,9104.533087
87082.537410,0.000000,0.000000,9178.553681
87082.537739,296.082377,229.828649,9326.594869
87082.538068,0.000000,842.705048,9178.553681
87082.538397,74.020594,1225.752797,9178.553681
87082.538727,444.123565,1072.533697,8660.409521
87082.539056,592.164754,1378.971896,8512.368333
87082.539385,370.102971,1762.019645,8734.430116
87082.539714,0.000000,1608.800546,8512.368333
87082.540044,-296.082377,919.314598,8808.450710
87082.540373,-296.082377,536.266849,8586.388927
87082.540702,-1332.370696,689.485948,9178.553681
87082.541031,-1924.535449,536.266849,8956.491898
87082.541360,-1850.514855,-459.657299,8364.327145
87082.541690,-1850.514855,536.266849,8438.347739
87082.542019,-1702.473667,153.219100,9030.512492
87082.542348,-2146.597232,153.219100,8956.491898
87082.542677,-1850.514855,153.219100,8808.450710
87082.543007,-1184.329507,76.609550,9252.574275
87082.543336,-888.247130,153.219100,9252.574275
87082.543665,-1036.288319,919.314598,8808.450710
87082.543994,-666.185348,689.485948,9252.574275
87082.544323,-1036.288319,0.000000,9104.533087
87082.544653,-888.247130,-536.266849,9474.636058
87082.544982,-814.226536,-383.047749,9474.636058
87082.545311,-740.205942,-383.047749,9696.697840
87082.545640,-222.061783,-383.047749,9622.677246
87082.545970,370.102971,-766.095498,9844.739029
87082.546299,370.102971,0.000000,9992.780217
87082.546628,296.082377,612.876398,9474.636058
87082.546957,1110.308913,766.095498,9400.615463
87082.547286,1702.473667,153.219100,9918.759623
87082.547616,1554.432478,383.047749,9844.739029
87082.547945,1184.329507,689.485948,9474.636058
87082.548274,1776.494261,536.266849,9474.636058
87082.548603,1258.350101,766.095498,9770.718434
87082.548933,740.205942,383.047749,9326.594869
87082.549262,740.205942,76.609550,9474.636058
87082.549591,740.205942,76.609550,9474.636058
87082.549920,740.205942,153.219100,9770.718434
87082.550249,888.247130,459.657299,9844.739029
87082.550579,222.061783,1302.362347,9474.636058
87082.550908,1480.411884,1072.533697,9178.553681
87082.551237,1998.556043,1149.143247,9770.718434
87082.551566,888.247130,1378.971896,9474.636058
87082.551896,814.226536,1762.019645,9252.574275
87082.552225,814.226536,1302.362347,9474.636058
87082.552554,962.267725,1455.581446,9548.656652
87082.552883,0.000000,1915.238745,9326.594869
87082.553212,-814.226536,1455.581446,8882.471304
87082.553542,0.000000,1072.533697,9474.636058
87082.553871,222.061783,1225.752797,9474.636058
87082.554200,-222.061783,1608.800546,9030.512492
87082.554529,-518.144159,1991.848295,8882.471304
87082.554859,-222.061783,2374.896044,8438.347739
87082.555188,0.000000,2681.334243,8660.409521
87082.555517,-296.082377,1762.019645,8956.491898
87082.555846,-1110.308913,1762.019645,8660.409521
87082.556175,-1332.370696,1532.190996,8660.409521
87082.556505,-888.247130,229.828649,8882.471304
87082.556834,-1554.432478,-306.438199,9252.574275
87082.557163,-2590.720797,459.657299,8364.327145
87082.557492,-1924.535449,459.657299,8364.327145
87082.557822,-1480.411884,229.828649,8882.471304
87082.558151,-1184.329507,-306.438199,9400.615463
87082.558480,-1554.432478,229.828649,8956.491898
87082.558809,-1036.288319,536.266849,8586.388927
87082.559138,0.000000,459.657299,9104.533087
87082.559468,444.123565,-536.266849,9474.636058
87082.559797,0.000000,-536.266849,9030.512492
87082.560126,-148.041188,919.314598,9326.594869
87082.560455,0.000000,-612.876398,9252.574275
87082.560785,74.020594,-1149.143247,9696.697840
87082.561114,0.000000,-1455.581446,9474.636058
87082.561443,0.000000,-689.485948,9252.574275
87082.561772,666.185348,-689.485948,9326.594869
87082.562101,1036.288319,-1685.410096,9992.780217
87082.562431,592.164754,-612.876398,9400.615463
87082.562760,888.247130,76.609550,9104.533087
87082.563089,1184.329507,229.828649,9178.553681
87082.563418,1184.329507,0.000000,9548.656652
87082.563748,1036.288319,-383.047749,9474.636058
87082.564077,666.185348,-306.438199,9104.533087
87082.564406,1036.288319,-1302.362347,9474.636058
87082.564735,74.020594,-842.705048,9770.718434
87082.565064,-370.102971,-842.705048,9548.656652
87082.565394,-148.041188,-1072.533697,9696.697840
87082.565723,-296.082377,-842.705048,9770.718434
87082.566052,0.000000,-459.657299,9474.636058
87082.566381,-370.102971,383.047749,9548.656652
87082.566711,-296.082377,612.876398,9104.533087
87082.567040,962.267725,459.657299,9474.636058
87082.567369,666.185348,1072.533697,9696.697840
87082.567698,0.000000,1378.971896,9474.636058
87082.568027,-518.144159,1532.190996,9252.574275
87082.568357,-296.082377,995.924147,9252.574275
87082.568686,-1110.308913,689.485948,9252.574275
87082.569015,-1036.288319,919.314598,9474.636058
87082.569344,-1332.370696,536.266849,9252.574275
87082.569674,-1036.288319,0.000000,9548.656652
87082.570003,-1184.329507,306.438199,9770.718434
87082.570332,-1554.432478,1072.533697,9326.594869
87082.570661,-1480.411884,1532.190996,9326.594869
87082.570990,-962.267725,1378.971896,8956.491898
87082.571320,-1184.329507,1225.752797,9104.533087
87082.571649,-222.061783,1455.581446,9474.636058
87082.571978,-666.185348,1762.019645,9030.512492
87082.572307,-444.123565,1532.190996,8808.450710
87082.572637,-296.082377,766.095498,9252.574275
87082.572966,-666.185348,306.438199,9474.636058
87082.573295,-814.226536,-229.828649,8586.388927
87082.573624,-518.144159,536.266849,8808.450710
87082.573953,0.000000,76.609550,9252.574275
87082.574283,518.144159,153.219100,9548.656652
87082.574612,296.082377,612.876398,8882.471304
87082.574941,666.185348,995.924147,8956.491898
87082.575270,1480.411884,1225.752797,9252.574275
87082.575600,1924.535449,766.095498,9178.553681
87082.575929,1480.411884,1225.752797,9030.512492
87082.576258,1332.370696,1149.143247,8364.327145
87082.576587,1406.391290,306.438199,9104.533087
87082.576916,962.267725,0.000000,9400.615463
87082.577246,592.164754,0.000000,9400.615463
87082.577575,518.144159,-229.828649,9252.574275
87082.577904,444.123565,-306.438199,8586.388927
87082.578233,370.102971,-153.219100,9252.574275
87082.578563,222.061783,383.047749,8586.388927
87082.578892,740.205942,766.095498,8808.450710
87082.579221,1258.350101,536.266849,9622.677246
87082.579550,888.247130,306.438199,9326.594869
87082.579879,222.061783,0.000000,8882.471304
87082.580209,222.061783,766.095498,8882.471304
87082.580538,666.185348,612.876398,9474.636058
87082.580867,148.041188,153.219100,9400.615463
87082.581196,-592.164754,76.609550,9326.594869
87082.581526,-518.144159,0.000000,9252.574275
87082.581855,-444.123565,229.828649,9252.574275
87082.582184,0.000000,995.924147,9696.697840
87082.582513,-592.164754,153.219100,9326.594869
87082.582842,-814.226536,1225.752797,8956.491898
87082.583172,0.000000,919.314598,9400.615463
87082.583501,-370.102971,1225.752797,9400.615463
87082.583830,-888.247130,1149.143247,9178.553681
87082.584159,-1332.370696,1072.533697,9104.533087
87082.584489,-962.267725,-76.609550,9548.656652
87082.584818,-1184.329507,76.609550,9252.574275
87082.585147,-1924.535449,-229.828649,9548.656652
87082.585476,-1998.556043,-383.047749,9178.553681
87082.585805,-2072.576638,-229.828649,9474.636058
87082.586135,-1036.288319,-306.438199,9770.718434
87082.586464,-1184.329507,383.047749,9770.718434
87082.586793,-1036.288319,536.266849,9326.594869
87082.587122,74.020594,1072.533697,9400.615463
87082.587452,740.205942,1149.143247,9474.636058
87082.587781,296.082377,383.047749,9622.677246
87082.588110,444.123565,766.095498,9770.718434
87082.588439,666.185348,689.485948,9252.574275
87082.588768,518.144159,0.000000,9622.677246
87082.589098,666.185348,-536.266849,9918.759623
87082.589427,592.164754,-383.047749,9548.656652
87082.589756,592.164754,612.876398,9326.594869
87082.590085,740.205942,229.828649,9474.636058
87082.590415,1406.391290,459.657299,9622.677246
87082.590744,1406.391290,842.705048,9104.533087
87082.591073,1480.411884,1455.581446,9474.636058
87082.591402,1998.556043,1378.971896,8734.430116
87082.591731,1850.514855,1149.143247,9918.759623
87082.592061,1332.370696,995.924147,8956.491898
87082.592390,740.205942,536.266849,8734.430116
87082.592719,592.164754,919.314598,9030.512492
87082.593048,0.000000,0.000000,9474.636058
87082.593378,0.000000,0.000000,9178.553681
87082.593707,296.082377,0.000000,9252.574275
87082.594036,-148.041188,306.438199,8808.450710
87082.594365,0.000000,306.438199,9178.553681
87082.594694,370.102971,612.876398,8660.409521
87082.595024,296.082377,1149.143247,8586.388927
87082.595353,666.185348,1378.971896,9030.512492
87082.595682,444.123565,1302.362347,8882.471304
87082.596011,-222.061783,1838.629195,8438.347739
87082.596340,-370.102971,1378.971896,8586.388927
87082.596670,-370.102971,766.095498,8438.347739
87082.596999,-1110.308913,612.876398,8956.491898
87082.597328,-1554.432478,459.657299,9030.512492
87082.597657,-2072.576638,306.438199,8882.471304
87082.597987,-1406.391290,0.000000,9178.553681
87082.598316,-1480.411884,153.219100,9326.594869
87082.598645,-2368.659014,306.438199,9252.574275
87082.598974,-1702.473667,459.657299,8734.430116
87082.599303,-962.267725,306.438199,9178.553681
87082.599633,-1110.308913,536.266849,9104.533087
87082.599962,-1258.350101,766.095498,9252.574275
87082.600291,-1332.370696,306.438199,9178.553681
87082.600620,-962.267725,-229.828649,9474.636058
87082.600950,-740.205942,-153.219100,9770.718434
87082.601279,-1850.514855,-766.095498,9696.697840
87082.601608,-1110.308913,-383.047749,9474.636058
87082.601937,-222.061783,-612.876398,9992.780217
87082.602266,0.000000,-766.095498,9918.759623
87082.602596,74.020594,0.000000,9918.759623
87082.602925,666.185348,612.876398,9770.718434
87082.603254,1406.391290,-229.828649,9622.677246
87082.603583,1406.391290,766.095498,9770.718434
87082.603913,1554.432478,612.876398,9696.697840
87082.604242,1480.411884,842.705048,9548.656652
87082.604571,1554.432478,612.876398,9622.677246
87082.604900,1554.432478,0.000000,10214.842000
87082.605229,1110.308913,-306.438199,9474.636058
87082.605559,1110.308913,153.219100,9622.677246
87082.605888,1406.391290,153.219100,9474.636058
87082.606217,1110.308913,0.000000,9992.780217
87082.606546,1184.329507,536.266849,9622.677246
87082.606876,1036.288319,1072.533697,9474.636058
87082.607205,1332.370696,1532.190996,9030.512492
87082.607534,1406.391290,1455.581446,9474.636058
87082.607863,1480.411884,1302.362347,9400.615463
87082.608192,1110.308913,1378.971896,9474.636058
87082.608522,962.267725,1455.581446,8882.471304
87082.608851,444.123565,1225.752797,9326.594869
87082.609180,0.000000,919.314598,9474.636058
87082.609509,0.000000,995.924147,8660.409521
87082.609839,0.000000,919.314598,8734.430116
87082.610168,74.020594,2298.286494,9178.553681
87082.610497,0.000000,1455.581446,9178.553681
87082.610826,-148.041188,1838.629195,8956.491898
87082.611155,0.000000,1991.848295,8808.450710
87082.611485,0.000000,2374.896044,8882.471304
87082.611814,0.000000,2451.505594,8808.450710
87082.612143,-592.164754,1915.238745,8438.347739
87082.612472,-888.247130,995.924147,8216.285956
87082.612802,-1184.329507,1072.533697,8438.347739
87082.613131,-1998.556043,995.924147,8882.471304
87082.613460,-2368.659014,536.266849,8586.388927
87082.613789,-2072.576638,0.000000,8808.450710
87082.614118,-2072.576638,-153.219100,8660.409521
87082.614448,-1924.535449,536.266849,9474.636058
87082.614777,-2072.576638,919.314598,8438.347739
87082.615106,-1036.288319,612.876398,8734.430116
87082.615435,0.000000,306.438199,9400.615463
87082.615764,0.000000,0.000000,9252.574275
87082.616093,-370.102971,459.657299,9178.553681
87082.616423,-444.123565,306.438199,9326.594869
87082.616752,148.041188,-842.705048,9622.677246
87082.617081,370.102971,-1455.581446,10362.883188
87082.617410,-444.123565,-536.266849,9474.636058
87082.617739,-222.061783,-536.266849,9622.677246
87082.618068,370.102971,-1149.143247,9622.677246
87082.618398,962.267725,-1072.533697,9992.780217
87082.618727,740.205942,-383.047749,9474.636058
87082.619056,1110.308913,76.609550,9030.512492
87082.619385,1406.391290,-306.438199,9696.697840
87082.619714,1628.453072,-383.047749,9992.780217
87082.620043,888.247130,-306.438199,9474.636058
87082.620373,296.082377,0.000000,9030.512492
87082.620702,740.205942,-536.266849,9622.677246
87082.621031,518.144159,-842.705048,9770.718434
87082.621360,74.020594,-919.314598,9918.759623
87082.621689,-148.041188,-766.095498,9770.718434
87082.622018,0.000000,0.000000,9918.759623
87082.622348,-444.123565,76.609550,9548.656652
87082.622677,-296.082377,-306.438199,9992.780217
87082.623006,0.000000,612.876398,9474.636058
87082.623335,296.082377,1149.143247,9252.574275
87082.623664,888.247130,689.485948,9992.780217
87082.623993,222.061783,1072.533697,9252.574275
87082.624323,-222.061783,1838.629195,8586.388927
87082.624652,74.020594,1455.581446,9252.574275
87082.624981,-222.061783,995.924147,9696.697840
87082.625310,-1036.288319,842.705048,9326.594869
87082.625639,-1110.308913,612.876398,8808.450710
87082.625968,-1406.391290,1072.533697,9104.533087
87082.626298,-1702.473667,1302.362347,8956.491898
87082.626627,-1480.411884,1378.971896,9548.656652
87082.626956,-1554.432478,1378.971896,9030.512492
87082.627285,-888.247130,1455.581446,8956.491898
87082.627614,-518.144159,919.314598,9252.574275
87082.627943,-814.226536,1302.362347,9104.533087
87082.628273,-1258.350101,2068.457845,8290.306550
87082.628602,-888.247130,1302.362347,8660.409521
87082.628931,-740.205942,383.047749,8956.491898
87082.629260,-740.205942,383.047749,9474.636058
87082.629589,-1258.350101,612.876398,8734.430116
87082.629918,-592.164754,536.266849,8808.450710
87082.630248,148.041188,0.000000,9326.594869
87082.630577,0.000000,1225.752797,9178.553681
87082.630906,296.082377,1455.581446,8882.471304
87082.631235,740.205942,995.924147,8882.471304
87082.631564,1332.370696,459.657299,9400.615463
87082.631893,1850.514855,612.876398,9326.594869
87082.632223,1332.370696,995.924147,9252.574275
87082.632552,1480.411884,919.314598,8956.491898
87082.632881,1998.556043,459.657299,9252.574275
87082.633210,1628.453072,0.000000,9770.718434
87082.633539,518.144159,306.438199,9030.512492
87082.633868,666.185348,306.438199,8882.471304
87082.634197,888.247130,-153.219100,9178.553681
87082.634527,666.185348,-153.219100,9474.636058
87082.634856,296.082377,229.828649,9178.553681
87082.635185,888.247130,459.657299,8882.471304
87082.635514,1332.370696,842.705048,9400.615463
87082.635843,666.185348,306.438199,9326.594869
87082.636172,444.123565,383.047749,9030.512492
87082.636502,666.185348,612.876398,9104.533087
87082.636831,148.041188,612.876398,9252.574275
87082.637160,0.000000,689.485948,9474.636058
87082.637489,-666.185348,0.000000,9326.594869
87082.637818,-296.082377,229.828649,9474.636058
87082.638147,-222.061783,306.438199,9992.780217
87082.638477,-296.082377,612.876398,9474.636058
87082.638806,-518.144159,536.266849,9548.656652
87082.639135,-296.082377,842.705048,9474.636058
87082.639464,74.020594,1378.971896,9178.553681
87082.639793,-370.102971,2145.067394,9622.677246
87082.640122,-962.267725,536.266849,9104.533087
87082.640452,-962.267725,995.924147,8956.491898
87082.640781,-740.205942,766.095498,9474.636058
87082.641110,-1480.411884,383.047749,9918.759623
87082.641439,-1998.556043,76.609550,9474.636058
87082.641768,-1998.556043,-383.047749,8956.491898
87082.642097,-1776.494261,-842.705048,9474.636058
87082.642427,-1554.432478,689.485948,9622.677246
87082.642756,-1406.391290,229.828649,9622.677246
87082.643085,-1480.411884,612.876398,9326.594869
87082.643414,74.020594,459.657299,9696.697840
87082.643743,370.102971,229.828649,9622.677246
87082.644072,148.041188,383.047749,10066.800811
87082.644402,0.000000,1685.410096,9104.533087
87082.644731,888.247130,306.438199,9400.615463
87082.645060,518.144159,0.000000,9474.636058
87082.645389,0.000000,-153.219100,9548.656652
87082.645718,148.041188,153.219100,9474.636058
87082.646047,740.205942,0.000000,9474.636058
87082.646377,1406.391290,-689.485948,9770.718434
87082.646706,1480.411884,-536.266849,9770.718434
87082.647035,1110.308913,1302.362347,9030.512492
87082.647364,1924.535449,1072.533697,9252.574275
87082.647693,2146.597232,689.485948,9474.636058
87082.648022,1924.535449,919.314598,9548.656652
87082.648352,1332.370696,1149.143247,9252.574275
87082.648681,1258.350101,1149.143247,8882.471304
87082.649010,1184.329507,-459.657299,9178.553681
87082.649339,740.205942,-536.266849,9252.574275
87082.649668,0.000000,0.000000,8734.430116
87082.649997,-148.041188,459.657299,8956.491898
87082.650327,0.000000,153.219100,9030.512492
87082.650656,0.000000,76.609550,9252.574275
87082.650985,0.000000,995.924147,8734.430116
87082.651314,518.144159,1685.410096,9178.553681
87082.651643,444.123565,1532.190996,9104.533087
87082.651972,444.123565,1072.533697,9178.553681
87082.652302,74.020594,1302.362347,8882.471304
87082.652631,-296.082377,1072.533697,8956.491898
87082.652960,-592.164754,919.314598,8734.430116
87082.653289,-1184.329507,612.876398,8956.491898
87082.653618,-1998.556043,0.000000,8586.388927
87082.653947,-1480.411884,459.657299,9030.512492
87082.654277,-1406.391290,536.266849,8882.471304
87082.654606,-1406.391290,76.609550,9326.594869
87082.654935,-1702.473667,612.876398,9030.512492
87082.655264,-1406.391290,919.314598,8586.388927
87082.655593,-888.247130,536.266849,9252.574275
87082.655922,-1480.411884,766.095498,9030.512492
87082.656252,-2072.576638,76.609550,8660.409521
87082.656581,-1554.432478,0.000000,9252.574275
87082.656910,-1184.329507,-229.828649,9474.636058
87082.657239,-1184.329507,-383.047749,9770.718434
87082.657568,-1480.411884,-459.657299,9844.739029
87082.657897,-1110.308913,-766.095498,9474.636058
87082.658227,-666.185348,-383.047749,9622.677246
87082.658556,-296.082377,-536.266849,9918.759623
87082.658885,-222.061783,0.000000,9992.780217
87082.659214,222.061783,76.609550,9770.718434
87082.659543,1406.391290,76.609550,10288.862594
87082.659872,1480.411884,0.000000,9992.780217
87082.660202,1554.432478,153.219100,9548.656652
87082.660531,1776.494261,842.705048,10066.800811
87082.660860,1628.453072,229.828649,9622.677246
87082.661189,1702.473667,76.609550,10066.800811
87082.661518,1406.391290,0.000000,10066.800811
87082.661847,814.226536,459.657299,9252.574275
87082.662177,1184.329507,689.485948,9400.615463
87082.662506,1554.432478,306.438199,9548.656652
87082.662835,1258.350101,306.438199,9326.594869
87082.663164,962.267725,995.924147,9326.594869
87082.663493,1406.391290,1302.362347,9400.615463
87082.663822,1332.370696,1225.752797,9400.615463
87082.664152,1110.308913,995.924147,9696.697840
87082.664481,518.144159,1608.800546,9326.594869
87082.664810,518.144159,1072.533697,8808.450710
87082.665139,888.247130,995.924147,9252.574275
87082.665468,518.144159,306.438199,9474.636058
87082.665797,0.000000,1149.143247,8808.450710
87082.666127,74.020594,1378.971896,9030.512492
87082.666456,0.000000,1608.800546,9326.594869
87082.666785,-222.061783,2068.457845,8808.450710
87082.667114,-222.061783,1685.410096,8734.430116
87082.667443,148.041188,2068.457845,8364.327145
87082.667772,592.164754,2604.724693,8956.491898
87082.668102,0.000000,2374.896044,8734.430116
87082.668431,-592.164754,2145.067394,8734.430116
87082.668760,-740.205942,1762.019645,8586.388927
87082.669089,-1110.308913,1455.581446,8734.430116
87082.669418,-1776.494261,995.924147,8660.409521
87082.669747,-2590.720797,689.485948,8438.347739
87082.670077,-2368.659014,0.000000,8142.265362
87082.670406,-2146.597232,0.000000,8808.450710
87082.670735,-1850.514855,229.828649,9252.574275
87082.671064,-1850.514855,766.095498,8882.471304
87082.671393,-962.267725,229.828649,8512.368333
87082.671722,-370.102971,229.828649,9474.636058
87082.672052,-296.082377,459.657299,9030.512492
87082.672381,-1110.308913,536.266849,8956.491898
87082.672710,-592.164754,0.000000,9400.615463
87082.673039,0.000000,-919.314598,9770.718434
87082.673368,296.082377,-1149.143247,9844.739029
87082.673697,-148.041188,-1225.752797,9400.615463
87082.674026,-296.082377,-995.924147,9696.697840
87082.674356,592.164754,-995.924147,9622.677246
87082.674685,1258.350101,-1378.971896,10140.821405
87082.675014,666.185348,-612.876398,9696.697840
87082.675343,888.247130,0.000000,9474.636058
87082.675672,1406.391290,-229.828649,9474.636058
87082.676001,1406.391290,-536.266849,9474.636058
87082.676331,1110.308913,306.438199,9622.677246
87082.676660,592.164754,76.609550,9030.512492
87082.676989,740.205942,-459.657299,9400.615463
87082.677318,518.144159,-995.924147,9770.718434
87082.677647,0.000000,-995.924147,9548.656652
87082.677976,0.000000,-536.266849,9918.759623
87082.678306,0.000000,-306.438199,9400.615463
87082.678635,-296.082377,459.657299,9474.636058
87082.678964,222.061783,0.000000,10066.800811
87082.679293,74.020594,383.047749,9622.677246
87082.679622,222.061783,689.485948,9474.636058
87082.679951,222.061783,1072.533697,9622.677246
87082.680281,222.061783,1072.533697,9770.718434
87082.680610,0.000000,1072.533697,9844.739029
87082.680939,0.000000,1532.190996,8734.430116
87082.681268,-370.102971,1302.362347,9400.615463
87082.681597,-814.226536,689.485948,9252.574275
87082.681926,-962.267725,842.705048,9326.594869
87082.682256,-888.247130,1149.143247,9474.636058
87082.682585,-1036.288319,1072.533697,9474.636058
87082.682914,-888.247130,1225.752797,9770.718434
87082.683243,-962.267725,1455.581446,9844.739029
87082.683572,-814.226536,2068.457845,9326.594869
87082.683901,-370.102971,1915.238745,9104.533087
87082.684231,-888.247130,1532.190996,9104.533087
87082.684560,-1036.288319,1378.971896,8956.491898
87082.684889,-666.185348,1302.362347,8956.491898
87082.685218,-888.247130,1302.362347,8882.471304
87082.685547,-1110.308913,1072.533697,9622.677246
87082.685876,-962.267725,536.266849,9252.574275
87082.686206,-740.205942,459.657299,8882.471304
87082.686535,-444.123565,0.000000,9030.512492
87082.686864,-444.123565,919.314598,9030.512492
87082.687193,0.000000,1149.143247,8956.491898
87082.687522,444.123565,536.266849,8734.430116
87082.687851,1036.288319,995.924147,9178.553681
87082.688181,1776.494261,1149.143247,9548.656652
87082.688510,1110.308913,1072.533697,9326.594869
87082.688839,1184.329507,766.095498,9030.512492
87082.689168,1628.453072,76.609550,9400.615463
87082.689497,1258.350101,-306.438199,9548.656652
87082.689826,888.247130,612.876398,9030.512492
87082.690156,888.247130,0.000000,8734.430116
87082.690485,1184.329507,0.000000,9400.615463
87082.690814,1184.329507,-383.047749,9400.615463
87082.691143,740.205942,459.657299,9400.615463
87082.691472,740.205942,536.266849,8956.491898
87082.691801,1924.535449,612.876398,9844.739029
87082.692131,1110.308913,459.657299,9252.574275
87082.692460,444.123565,766.095498,8438.347739
87082.692789,0.000000,612.876398,9326.594869
87082.693118,148.041188,0.000000,9474.636058
87082.693447,-148.041188,-383.047749,9474.636058
87082.693776,-740.205942,-153.219100,9548.656652
87082.694106,-666.185348,306.438199,9474.636058
87082.694435,-518.144159,383.047749,9252.574275
87082.694764,0.000000,-1072.533697,9696.697840
87082.695093,-592.164754,842.705048,9030.512492
87082.695422,-222.061783,1225.752797,9104.533087
87082.695751,222.061783,1915.238745,9104.533087
87082.696081,74.020594,1455.581446,9474.636058
87082.696410,-962.267725,1302.362347,9030.512492
87082.696739,-814.226536,1302.362347,9326.594869
87082.697068,-740.205942,1378.971896,9400.615463
87082.697397,-1332.370696,459.657299,9918.759623
87082.697726,-1850.514855,0.000000,9770.718434
87082.698056,-1776.494261,-459.657299,9474.636058
87082.698385,-1776.494261,76.609550,9696.697840
87082.698714,-1850.514855,306.438199,9622.677246
87082.699043,-1702.473667,536.266849,9622.677246
87082.699372,-518.144159,306.438199,9844.739029
87082.699701,-592.164754,766.095498,9178.553681
87082.700031,-148.041188,1149.143247,9474.636058
87082.700360,-296.082377,1225.752797,9474.636058
87082.700689,-370.102971,842.705048,9178.553681
87082.701018,296.082377,612.876398,9474.636058
87082.701347,222.061783,76.609550,9474.636058
87082.701676,-814.226536,306.438199,9770.718434
87082.702006,-148.041188,76.609550,9622.677246
87082.702335,74.020594,-306.438199,9474.636058
87082.702664,888.247130,-306.438199,9918.759623
87082.702993,962.267725,76.609550,9770.718434
87082.703322,814.226536,1149.143247,9104.533087
87082.703651,1924.535449,995.924147,9178.553681
87082.703981,2220.617826,536.266849,9326.594869
87082.704310,1850.514855,919.314598,9030.512492
87082.704639,1184.329507,1302.362347,9252.574275
87082.704968,1332.370696,536.266849,8956.491898
87082.705297,1184.329507,0.000000,9104.533087
87082.705626,666.185348,76.609550,9326.594869
87082.705956,74.020594,76.609550,8956.491898
87082.706285,0.000000,459.657299,8808.450710
87082.706614,148.041188,0.000000,9252.574275
87082.706943,0.000000,0.000000,9474.636058
87082.707272,0.000000,766.095498,9252.574275
87082.707601,0.000000,1072.533697,8808.450710
87082.707931,222.061783,919.314598,8956.491898
87082.708260,370.102971,919.314598,8290.306550
87082.708589,74.020594,766.095498,9030.512492
87082.708918,-444.123565,1072.533697,8512.368333
87082.709247,-296.082377,919.314598,8586.388927
87082.709576,-666.185348,153.219100,9104.533087
87082.709906,-1184.329507,76.609550,8882.471304
87082.710235,-1406.391290,536.266849,8438.347739
87082.710564,-1184.329507,689.485948,8808.450710
87082.710893,-1110.308913,0.000000,9178.553681
87082.711222,-1258.350101,229.828649,8956.491898
87082.711551,-1258.350101,766.095498,8734.430116
87082.711881,-740.205942,1072.533697,9178.553681
87082.712210,-888.247130,842.705048,9178.553681
87082.712539,-1406.391290,306.438199,9474.636058
87082.712868,-1628.453072,-153.219100,8956.491898
87082.713197,-962.267725,0.000000,9326.594869
87082.713526,-666.185348,-919.314598,9992.780217
87082.713855,-1554.432478,-536.266849,9548.656652
87082.714184,-1480.411884,-766.095498,9400.615463
87082.714514,-962.267725,-689.485948,9400.615463
87082.714843,-444.123565,-229.828649,9474.636058
87082.715172,-444.123565,76.609550,9696.697840
87082.715501,962.267725,0.000000,10362.883188
87082.715830,888.247130,0.000000,9252.574275
87082.716159,1184.329507,536.266849,10066.800811
87082.716488,1184.329507,536.266849,10214.842000
87082.716817,1184.329507,612.876398,9474.636058
87082.717147,1628.453072,76.609550,9696.697840
87082.717476,1776.494261,-153.219100,9918.759623
87082.717805,1332.370696,612.876398,10066.800811
87082.718134,1332.370696,229.828649,9622.677246
87082.718463,1184.329507,0.000000,9474.636058
87082.718792,1628.453072,306.438199,9696.697840
87082.719121,1554.432478,919.314598,9474.636058
87082.719450,1184.329507,1378.971896,9326.594869
87082.719780,1480.411884,1608.800546,9178.553681
87082.720109,1850.514855,1455.581446,9474.636058
87082.720438,1406.391290,1455.581446,9178.553681
87082.720767,444.123565,1455.581446,9474.636058
87082.721096,666.185348,995.924147,9326.594869
87082.721425,370.102971,612.876398,9400.615463
87082.721754,0.000000,536.266849,9474.636058
87082.722083,-444.123565,1762.019645,9178.553681
87082.722413,-296.082377,1762.019645,9326.594869
87082.722742,74.020594,995.924147,9400.615463
87082.723071,-148.041188,1225.752797,9104.533087
87082.723400,0.000000,1991.848295,9030.512492
87082.723729,74.020594,2221.676944,8734.430116
87082.724058,518.144159,1838.629195,8586.388927
87082.724387,0.000000,2068.457845,8586.388927
87082.724717,0.000000,2145.067394,8734.430116
87082.725046,-222.061783,1608.800546,8660.409521
87082.725375,-592.164754,1455.581446,8808.450710
87082.725704,-1480.411884,919.314598,8808.450710
87082.726033,-2072.576638,383.047749,8586.388927
87082.726362,-1850.514855,153.219100,8734.430116
87082.726691,-1702.473667,0.000000,8512.368333
87082.727020,-1998.556043,766.095498,8438.347739
87082.727350,-1702.473667,919.314598,8512.368333
87082.727679,-1110.308913,459.657299,8882.471304
87082.728008,-814.226536,383.047749,8956.491898
87082.728337,-962.267725,153.219100,9178.553681
87082.728666,-888.247130,229.828649,8586.388927
87082.728995,0.000000,-1072.533697,9326.594869
87082.729324,-444.123565,-995.924147,9252.574275
87082.729653,-888.247130,-1378.971896,9326.594869
87082.729983,-740.205942,-995.924147,9474.636058
87082.730312,-296.082377,-995.924147,9474.636058
87082.730641,0.000000,-1455.581446,9696.697840
87082.730970,814.226536,-842.705048,9622.677246
87082.731299,888.247130,-612.876398,9918.759623
87082.731628,888.247130,-689.485948,9252.574275
87082.731957,1406.391290,76.609550,9474.636058
87082.732286,1924.535449,-306.438199,9918.759623
87082.732616,1258.350101,0.000000,9474.636058
87082.732945,814.226536,0.000000,9400.615463
87082.733274,1258.350101,-383.047749,9474.636058
87082.733603,962.267725,-766.095498,10214.842000
87082.733932,740.205942,-1302.362347,9844.739029
87082.734261,-148.041188,-536.266849,9474.636058
87082.734590,0.000000,-536.266849,9622.677246
87082.734919,74.020594,-689.485948,9622.677246
87082.735249,0.000000,-153.219100,9918.759623
87082.735578,0.000000,919.314598,9326.594869
87082.735907,0.000000,995.924147,9474.636058
87082.736236,1036.288319,536.266849,10066.800811
87082.736565,148.041188,919.314598,9622.677246
87082.736894,-148.041188,1532.190996,9178.553681
87082.737223,-222.061783,995.924147,9178.553681
87082.737552,-222.061783,612.876398,9770.718434
87082.737882,-592.164754,-229.828649,9474.636058
87082.738211,-666.185348,1915.238745,8882.471304
87082.738540,-666.185348,1378.971896,9326.594869
87082.738869,-962.267725,919.314598,9252.574275
87082.739198,-666.185348,919.314598,9696.697840
87082.739527,-666.185348,1455.581446,9622.677246
87082.739856,-592.164754,2145.067394,8956.491898
87082.740185,-444.123565,1762.019645,9178.553681
87082.740515,-888.247130,995.924147,9030.512492
87082.740844,-666.185348,1838.629195,8660.409521
87082.741173,-666.185348,1455.581446,8956.491898
87082.741502,-888.247130,995.924147,9252.574275
87082.741831,-1258.350101,306.438199,9178.553681
87082.742160,-1332.370696,306.438199,8956.491898
87082.742489,-1184.329507,536.266849,9252.574275
87082.742818,-592.164754,536.266849,8882.471304
87082.743148,-296.082377,842.705048,8956.491898
87082.743477,-296.082377,612.876398,8956.491898
87082.743806,0.000000,766.095498,8808.450710
87082.744135,888.247130,689.485948,9474.636058
87082.744464,1036.288319,459.657299,9326.594869
87082.744793,1184.329507,306.438199,9400.615463
87082.745122,1480.411884,-536.266849,9030.512492
87082.745451,1332.370696,0.000000,8956.491898
87082.745781,1184.329507,0.000000,9326.594869
87082.746110,814.226536,229.828649,9474.636058
87082.746439,962.267725,229.828649,9104.533087
87082.746768,1184.329507,0.000000,9178.553681
87082.747097,1332.370696,306.438199,9622.677246
87082.747426,962.267725,919.314598,8660.409521
87082.747755,1184.329507,612.876398,8660.409521
87082.748084,1258.350101,306.438199,9474.636058
87082.748414,1480.411884,76.609550,9252.574275
87082.748743,592.164754,612.876398,9178.553681
87082.749072,74.020594,612.876398,8956.491898
87082.749401,370.102971,0.000000,9474.636058
87082.749730,222.061783,-536.266849,9400.615463
87082.750059,-888.247130,-229.828649,8808.450710
87082.750388,-1184.329507,459.657299,9252.574275
87082.750717,-592.164754,459.657299,9178.553681
87082.751047,-148.041188,229.828649,9474.636058
87082.751376,-518.144159,536.266849,9474.636058
87082.751705,-518.144159,1149.143247,9252.574275
87082.752034,0.000000,1532.190996,8956.491898
87082.752363,518.144159,1685.410096,9104.533087
87082.752692,222.061783,1072.533697,9474.636058
87082.753021,-370.102971,1378.971896,9030.512492
87082.753350,-740.205942,1149.143247,9400.615463
87082.753680,-666.185348,919.314598,9548.656652
87082.754009,-1184.329507,459.657299,9474.636058
87082.754338,-1776.494261,76.609550,9474.636058
87082.754667,-1924.535449,0.000000,8956.491898
87082.754996,-1554.432478,0.000000,8882.471304
87082.755325,-1406.391290,536.266849,9918.759623
87082.755654,-1110.308913,689.485948,9474.636058
87082.755984,-518.144159,995.924147,9326.594869
87082.756313,-370.102971,766.095498,9326.594869
87082.756642,0.000000,842.705048,9770.718434
87082.756971,0.000000,383.047749,9104.533087
87082.757300,0.000000,306.438199,9252.574275
87082.757629,0.000000,0.000000,9548.656652
87082.757958,-444.123565,0.000000,9770.718434
87082.758287,-370.102971,-383.047749,9474.636058
87082.758617,-74.020594,-536.266849,9622.677246
87082.758946,814.226536,-229.828649,9770.718434
87082.759275,1258.350101,306.438199,10436.903782
87082.759604,1110.308913,612.876398,9178.553681
87082.759933,1702.473667,842.705048,9474.636058
87082.760262,2294.638420,689.485948,9474.636058
87082.760591,1924.535449,995.924147,9400.615463
87082.760920,1554.432478,995.924147,9104.533087
87082.761250,1702.473667,1149.143247,8364.327145
87082.761579,1776.494261,766.095498,8808.450710
87082.761908,814.226536,0.000000,9326.594869
87082.762237,74.020594,76.609550,9252.574275
87082.762566,74.020594,0.000000,8734.430116
87082.762895,370.102971,0.000000,9474.636058
87082.763224,222.061783,0.000000,9104.533087
87082.763553,0.000000,766.095498,8882.471304
87082.763883,0.000000,766.095498,8586.388927
87082.764212,592.164754,842.705048,9326.594869
87082.764541,518.144159,766.095498,9104.533087
87082.764870,0.000000,1302.362347,8808.450710
87082.765199,-592.164754,1072.533697,8512.368333
87082.765528,-370.102971,766.095498,8438.347739
87082.765857,-962.267725,383.047749,9400.615463
87082.766186,-740.205942,766.095498,9474.636058
87082.766516,-1258.350101,306.438199,8734.430116
87082.766845,-962.267725,383.047749,8956.491898
87082.767174,-814.226536,229.828649,9326.594869
87082.767503,-1184.329507,689.485948,9030.512492
87082.767832,-962.267725,1532.190996,8364.327145
87082.768161,-1184.329507,1838.629195,8808.450710
87082.768490,-1702.473667,1455.581446,8660.409521
87082.768819,-1036.288319,383.047749,8956.491898
87082.769149,-1258.350101,536.266849,9104.533087
87082.769478,-1480.411884,306.438199,9326.594869
87082.769807,-1406.391290,0.000000,9400.615463
87082.770136,-1628.453072,-383.047749,9326.594869
87082.770465,-1776.494261,-306.438199,9252.574275
87082.770794,-1110.308913,-842.705048,9400.615463
87082.771123,-1036.288319,-306.438199,9474.636058
87082.771452,-592.164754,-306.438199,9918.759623
87082.771782,-296.082377,0.000000,9400.615463
87082.772111,592.164754,229.828649,9548.656652
87082.772440,1036.288319,1072.533697,9844.739029
87082.772769,666.185348,689.485948,9696.697840
87082.773098,962.267725,0.000000,9548.656652
87082.773427,1258.350101,0.000000,9844.739029
87082.773756,1332.370696,0.000000,10140.821405
87082.774085,666.185348,0.000000,9696.697840
87082.774415,888.247130,0.000000,9918.759623
87082.774744,1480.411884,-383.047749,9918.759623
87082.775073,1628.453072,229.828649,9844.739029
87082.775402,1628.453072,1378.971896,9696.697840
87082.775731,1036.288319,1532.190996,9178.553681
87082.776060,2294.638420,1149.143247,9474.636058
87082.776389,2072.576638,919.314598,9696.697840
87082.776718,1110.308913,1225.752797,9252.574275
87082.777048,814.226536,1455.581446,9326.594869
87082.777377,814.226536,842.705048,9030.512492
87082.777706,592.164754,229.828649,9622.677246
87082.778035,-148.041188,612.876398,9622.677246
87082.778364,-592.164754,919.314598,9400.615463
87082.778693,0.000000,919.314598,9252.574275
87082.779022,222.061783,612.876398,9696.697840
87082.779351,0.000000,1455.581446,9474.636058
87082.779681,0.000000,2451.505594,8882.471304
87082.780010,444.123565,2145.067394,8586.388927
87082.780339,740.205942,1991.848295,8882.471304
87082.780668,370.102971,1991.848295,8956.491898
87082.780997,-296.082377,2298.286494,9030.512492
87082.781326,-222.061783,2145.067394,8734.430116
87082.781655,0.000000,1149.143247,8882.471304
87082.781984,-888.247130,0.000000,9030.512492
87082.782314,-1554.432478,153.219100,8438.347739
87082.782643,-1850.514855,842.705048,8512.368333
87082.782972,-1554.432478,383.047749,8808.450710
87082.783301,-1628.453072,-229.828649,9252.574275
87082.783630,-1406.391290,306.438199,8660.409521
87082.783959,-1258.350101,1991.848295,8586.388927
87082.784288,-962.267725,1072.533697,8734.430116
87082.784617,-740.205942,0.000000,8808.450710
87082.784947,-814.226536,0.000000,8882.471304
87082.785276,-1110.308913,0.000000,8882.471304
87082.785605,-740.205942,-306.438199,9104.533087
87082.785934,-814.226536,-689.485948,9548.656652
87082.786263,-962.267725,-1149.143247,9030.512492
87082.786592,-740.205942,-229.828649,9104.533087
87082.786921,-296.082377,-1149.143247,9178.553681
87082.787250,296.082377,-995.924147,9918.759623
87082.787580,296.082377,-536.266849,9696.697840
87082.787909,814.226536,0.000000,9104.533087
87082.788238,1332.370696,229.828649,9474.636058
87082.788567,1924.535449,-153.219100,9548.656652
87082.788896,1850.514855,536.266849,9696.697840
87082.789225,1110.308913,-153.219100,9252.574275
87082.789554,1406.391290,-689.485948,9400.615463
87082.789884,962.267725,-383.047749,9696.697840
87082.790213,222.061783,-306.438199,9474.636058
87082.790542,0.000000,-612.876398,9400.615463
87082.790871,148.041188,-766.095498,9696.697840
87082.791200,222.061783,0.000000,9548.656652
87082.791529,0.000000,-383.047749,9770.718434
87082.791858,-222.061783,689.485948,9400.615463
87082.792187,296.082377,612.876398,9326.594869
87082.792517,370.102971,153.219100,9918.759623
87082.792846,0.000000,766.095498,9770.718434
87082.793175,-148.041188,1455.581446,9104.533087
87082.793504,0.000000,766.095498,9548.656652
87082.793833,0.000000,-229.828649,10140.821405
87082.794162,-888.247130,-306.438199,9252.574275
87082.794491,-1184.329507,842.705048,9474.636058
87082.794820,-888.247130,995.924147,9104.533087
87082.795150,-592.164754,842.705048,9474.636058
87082.795479,-148.041188,766.095498,9770.718434
87082.795808,-666.185348,1915.238745,9326.594869
87082.796137,-444.123565,2298.286494,9474.636058
87082.796466,74.020594,1149.143247,9696.697840
87082.796795,-592.164754,1302.362347,9252.574275
87082.797124,-814.226536,1838.629195,9178.553681
87082.797453,-814.226536,1225.752797,9178.553681
87082.797783,-740.205942,995.924147,9178.553681
87082.798112,-1332.370696,229.828649,9178.553681
87082.798441,-1998.556043,995.924147,8512.368333
87082.798770,-962.267725,919.314598,9474.636058
87082.799099,-814.226536,383.047749,9252.574275
87082.799428,-814.226536,306.438199,9104.533087
87082.799757,-444.123565,689.485948,8882.471304
87082.800086,0.000000,1378.971896,8882.471304
87082.800416,814.226536,689.485948,9252.574275
87082.800745,296.082377,383.047749,9252.574275
87082.801074,518.144159,0.000000,9696.697840
87082.801403,814.226536,306.438199,9252.574275
87082.801732,1258.350101,76.609550,9400.615463
87082.802061,1036.288319,153.219100,9622.677246
87082.802390,518.144159,153.219100,9178.553681
87082.802719,962.267725,0.000000,8808.450710
87082.803049,1702.473667,229.828649,9104.533087
87082.803378,1110.308913,153.219100,9400.615463
87082.803707,888.247130,766.095498,8956.491898
87082.804036,1258.350101,612.876398,8660.409521
87082.804365,1850.514855,459.657299,8956.491898
87082.804694,1702.473667,612.876398,9252.574275
87082.805023,814.226536,459.657299,8660.409521
87082.805352,518.144159,1072.533697,8586.388927
87082.805682,370.102971,0.000000,8956.491898
87082.806011,0.000000,-383.047749,9474.636058
87082.806340,-370.102971,-459.657299,9622.677246
87082.806669,-814.226536,0.000000,8882.471304
87082.806998,-592.164754,0.000000,8956.491898
87082.807327,-1036.288319,153.219100,9400.615463
87082.807656,-518.144159,842.705048,9474.636058
87082.807985,-148.041188,1149.143247,8882.471304
87082.808315,296.082377,1149.143247,9474.636058
87082.808644,74.020594,919.314598,9178.553681
87082.808973,-222.061783,1455.581446,9326.594869
87082.809302,-518.144159,2298.286494,9104.533087
