#time,accel_x,accel_y,accel_z
516.343487,-444.123565,306.438199,9400.615463
516.343812,0.000000,995.924147,9252.574275
516.344138,444.123565,1072.533697,8956.491898
516.344463,888.247130,842.705048,9474.636058
516.344789,370.102971,1149.143247,9474.636058
516.345114,0.000000,842.705048,9400.615463
516.345440,962.267725,229.828649,9474.636058
516.345765,444.123565,306.438199,9548.656652
516.346091,0.000000,612.876398,9548.656652
516.346416,0.000000,229.828649,9474.636058
516.346742,0.000000,766.095498,9400.615463
516.347067,74.020594,459.657299,9474.636058
516.347393,444.123565,459.657299,9622.677246
516.347718,0.000000,1072.533697,9400.615463
516.348044,222.061783,842.705048,8882.471304
516.348369,1554.432478,536.266849,9252.574275
516.348694,814.226536,1072.533697,9326.594869
516.349020,-296.082377,1225.752797,8734.430116
516.349345,444.123565,995.924147,8882.471304
516.349671,1110.308913,306.438199,8956.491898
516.349996,-74.020594,919.314598,9104.533087
516.350322,-222.061783,766.095498,9104.533087
516.350647,370.102971,536.266849,9326.594869
516.350973,592.164754,612.876398,9178.553681
516.351298,740.205942,612.876398,9178.553681
516.351624,1258.350101,1532.190996,9696.697840
516.351949,1332.370696,1608.800546,9400.615463
516.352275,2664.741391,1762.019645,10066.800811
516.352600,2738.761985,1838.629195,10066.800811
516.352926,1628.453072,2374.896044,9622.677246
516.353251,2072.576638,1991.848295,9622.677246
516.353576,2960.823768,2374.896044,9474.636058
516.353902,2738.761985,1838.629195,9918.759623
516.354227,1998.556043,2757.943793,9326.594869
516.354553,2664.741391,2681.334243,9326.594869
516.354878,2886.803174,3294.210641,9474.636058
516.355204,3404.947333,3830.477490,9252.574275
516.355529,3701.029710,4060.306139,9030.512492
516.355855,4367.215058,4519.963438,8586.388927
516.356180,4811.338623,5286.058936,7994.224174
516.356506,4959.379811,4903.011187,8882.471304
516.356831,4071.132681,5056.230287,8956.491898
516.357157,3256.906145,5209.449386,8512.368333
516.357482,3478.967927,4596.572988,8660.409521
516.357808,2664.741391,4596.572988,8956.491898
516.358133,1776.494261,3907.087040,9030.512492
516.358458,1258.350101,4290.134789,8882.471304
516.358784,666.185348,3753.867940,8512.368333
516.359109,1110.308913,2757.943793,9178.553681
516.359435,148.041188,3217.601092,9104.533087
516.359760,-296.082377,3140.991542,8512.368333
516.360086,148.041188,2987.772442,8438.347739
516.360411,370.102971,3140.991542,9030.512492
516.360737,-222.061783,2681.334243,8956.491898
516.361062,-296.082377,2757.943793,8734.430116
516.361388,0.000000,1608.800546,8734.430116
516.361713,666.185348,1915.238745,9400.615463
516.362039,-148.041188,1838.629195,9770.718434
516.362364,0.000000,1149.143247,9770.718434
516.362690,814.226536,459.657299,9918.759623
516.363015,888.247130,919.314598,10807.006753
516.363340,1036.288319,153.219100,11029.068536
516.363666,962.267725,229.828649,11029.068536
516.363991,2146.597232,306.438199,10881.027347
516.364317,3478.967927,612.876398,11029.068536
516.364642,4293.194464,1378.971896,10658.965565
516.364968,4071.132681,2145.067394,9474.636058
516.365293,4663.297435,1532.190996,8364.327145
516.365619,5625.565159,2298.286494,7624.121203
516.365944,4367.215058,2528.115143,7550.100608
516.366270,3034.844362,2298.286494,7402.059420
516.366595,3034.844362,1608.800546,7031.956449
516.366921,2960.823768,1838.629195,7624.121203
516.367246,2664.741391,1608.800546,8734.430116
516.367572,2368.659014,2221.676944,9326.594869
516.367897,2516.700203,2145.067394,9770.718434
516.368222,3997.112087,2068.457845,10066.800811
516.368548,4515.256246,1838.629195,11325.150913
516.368873,3478.967927,2374.896044,11843.295072
516.369199,2886.803174,1991.848295,11991.336260
516.369524,3552.988522,2298.286494,12361.439231
516.369850,3627.009116,1991.848295,12139.377449
516.370175,2294.638420,1991.848295,12139.377449
516.370501,1628.453072,2528.115143,9326.594869
516.370826,2442.679609,3600.648841,8438.347739
516.371152,3034.844362,5132.839837,7179.997637
516.371477,3478.967927,6435.202183,6439.791695
516.371803,3627.009116,7584.345430,5403.503377
516.372128,3627.009116,7354.516781,3923.091493
516.372454,2960.823768,6971.469032,4737.318029
516.372779,1998.556043,6741.640382,6587.832884
516.373104,-444.123565,4979.620737,8142.265362
516.373430,-1776.494261,2987.772442,9770.718434
516.373755,-2442.679609,919.314598,11917.315666
516.374081,-4663.297435,0.000000,13175.665768
516.374406,-4589.276840,-1302.362347,13101.645173
516.374732,-2220.617826,-919.314598,13101.645173
516.375057,148.041188,1225.752797,12879.583391
516.375383,1924.535449,3447.429741,10658.965565
516.375708,4515.256246,4826.401637,8512.368333
516.376034,6809.894666,7048.078582,7105.977043
516.376359,7476.080014,8044.002729,6069.688724
516.376685,6365.771101,6435.202183,5477.523971
516.377010,5107.421000,5745.716235,4885.359217
516.377336,3701.029710,4979.620737,6069.688724
516.377661,2960.823768,3753.867940,8142.265362
516.377986,888.247130,2528.115143,9844.739029
516.378312,-2146.597232,536.266849,9844.739029
516.378637,-1702.473667,-1072.533697,9104.533087
516.378963,-518.144159,-459.657299,9548.656652
516.379288,-1628.453072,229.828649,11325.150913
516.379614,-518.144159,0.000000,10584.944971
516.379939,2146.597232,-229.828649,11621.233289
516.380265,3404.947333,612.876398,12139.377449
516.380590,4811.338623,1915.238745,11917.315666
516.380916,5625.565159,1991.848295,11621.233289
516.381241,6735.874072,2451.505594,10807.006753
516.381567,6957.935855,2834.553343,11473.192101
516.381892,4441.235652,1149.143247,10362.883188
516.382218,4145.153275,-153.219100,8364.327145
516.382543,3108.864956,2068.457845,9178.553681
516.382868,2812.782580,2451.505594,9178.553681
516.383194,3034.844362,1838.629195,8512.368333
516.383519,4219.173869,2834.553343,7624.121203
516.383845,3997.112087,4903.011187,6735.874072
516.384170,2368.659014,4979.620737,5255.462188
516.384496,3182.885551,3907.087040,5033.400406
516.384821,4441.235652,4903.011187,6439.791695
516.385147,2220.617826,5209.449386,9104.533087
516.385472,296.082377,3294.210641,11547.212695
516.385798,962.267725,1608.800546,11769.274478
516.386123,-222.061783,766.095498,13101.645173
516.386449,-2516.700203,-536.266849,13101.645173
516.386774,-2072.576638,-1915.238745,11621.233289
516.387100,74.020594,153.219100,11547.212695
516.387425,1406.391290,3753.867940,11547.212695
516.387750,1628.453072,4213.525239,9178.553681
516.388076,3478.967927,4673.182538,5625.565159
516.388401,5033.400406,7431.126331,4293.194464
516.388727,6587.832884,8656.879127,2590.720797
516.389052,4885.359217,9193.145976,3552.988522
516.389378,4737.318029,8810.098227,4737.318029
516.389703,3478.967927,7967.393179,6513.812290
516.390029,-222.061783,4903.011187,9622.677246
516.390354,-4219.173869,1915.238745,11621.233289
516.390680,-7698.141797,-1378.971896,12879.583391
516.391005,-8512.368333,-4903.011187,14211.954086
516.391331,-7994.224174,-7201.297681,16062.468941
516.391656,-7031.956449,-5286.058936,17246.798449
516.391982,-3849.070898,-995.924147,15470.304188
516.392307,2368.659014,995.924147,11103.089130
516.392632,8512.368333,4213.525239,6661.853478
516.392958,12213.398043,10189.070123,4071.132681
516.393283,14656.077652,12793.794817,1850.514855
516.393609,15322.262999,11568.042020,444.123565
516.393934,13545.768739,8963.317327,1924.535449
516.394260,7550.100608,7048.078582,5699.585753
516.394585,2368.659014,3907.087040,9326.594869
516.394911,-2294.638420,-689.485948,13841.851115
516.395236,-5773.606348,-4213.525239,16358.551318
516.395562,-8142.265362,-6894.859482,16062.468941
516.395887,-8808.450710,-10418.898773,15026.180623
516.396213,-5699.585753,-8427.050478,11917.315666
516.396538,0.000000,2528.115143,11621.233289
516.396864,6217.729913,6281.983084,11325.150913
516.397189,7328.038826,5362.668486,9844.739029
516.397514,7476.080014,4519.963438,3478.967927
516.397839,11029.068536,7814.174080,1480.411884
516.398164,10807.006753,9269.755526,4441.235652
516.398490,7624.121203,6588.421283,7179.997637
516.398815,5477.523971,3677.258390,9474.636058
516.399140,3330.926739,1838.629195,9696.697840
516.399465,2368.659014,0.000000,10658.965565
516.399791,148.041188,383.047749,11843.295072
516.400116,-1702.473667,1991.848295,9030.512492
516.400441,-1036.288319,229.828649,9474.636058
516.400766,-444.123565,-1302.362347,9770.718434
516.401091,-1258.350101,1838.629195,8808.450710
516.401417,-1702.473667,2451.505594,9104.533087
516.401742,-2664.741391,1378.971896,9474.636058
516.402067,-1332.370696,995.924147,10066.800811
516.402392,222.061783,1915.238745,10288.862594
516.402718,518.144159,2068.457845,9696.697840
516.403043,370.102971,2145.067394,8660.409521
516.403368,-222.061783,2911.162892,6809.894666
516.403693,0.000000,1608.800546,7402.059420
516.404018,592.164754,1149.143247,9696.697840
516.404344,148.041188,689.485948,10510.924376
516.404669,-518.144159,1532.190996,11695.253884
516.404994,-296.082377,0.000000,10881.027347
516.405319,962.267725,0.000000,8808.450710
516.405644,2812.782580,2451.505594,8660.409521
516.405970,2072.576638,3983.696590,8438.347739
516.406295,666.185348,1685.410096,8142.265362
516.406620,518.144159,76.609550,9400.615463
516.406945,-370.102971,1072.533697,10732.986159
516.407271,-2368.659014,-842.705048,10732.986159
516.407596,-4219.173869,-2911.162892,10066.800811
516.407921,-222.061783,-1532.190996,9918.759623
516.408246,1702.473667,229.828649,9326.594869
516.408571,1332.370696,1991.848295,8882.471304
516.408897,1332.370696,2145.067394,7402.059420
516.409222,2146.597232,2221.676944,5033.400406
516.409547,3627.009116,1378.971896,5921.647536
516.409872,2368.659014,1455.581446,7920.203579
516.410198,0.000000,2221.676944,9474.636058
516.410523,-1332.370696,612.876398,9400.615463
516.410848,0.000000,-2451.505594,9474.636058
516.411173,-1480.411884,-2757.943793,10732.986159
516.411498,-2294.638420,-306.438199,11843.295072
516.411824,-2516.700203,-919.314598,11177.109724
516.412149,-1924.535449,-3370.820191,12435.459826
516.412474,-1554.432478,-3217.601092,11325.150913
516.412799,-1480.411884,0.000000,11473.192101
516.413125,-1628.453072,0.000000,9474.636058
516.413450,-222.061783,-229.828649,9252.574275
516.413775,1554.432478,-306.438199,8882.471304
516.414100,4515.256246,3294.210641,7846.182985
516.414425,4441.235652,4826.401637,6439.791695
516.414751,2442.679609,3370.820191,6439.791695
516.415076,2368.659014,1915.238745,6809.894666
516.415401,1702.473667,1378.971896,7920.203579
516.415726,0.000000,1072.533697,9326.594869
516.416051,-2886.803174,459.657299,11177.109724
516.416377,-2886.803174,-842.705048,11399.171507
516.416702,-518.144159,-2374.896044,11695.253884
516.417027,-296.082377,-1455.581446,11399.171507
516.417352,-2590.720797,1302.362347,10362.883188
516.417678,-1184.329507,1455.581446,8660.409521
516.418003,1332.370696,-306.438199,7994.224174
516.418328,-148.041188,689.485948,8956.491898
516.418653,-1924.535449,1455.581446,9326.594869
516.418978,-962.267725,1838.629195,7105.977043
516.419304,444.123565,0.000000,8142.265362
516.419629,2146.597232,842.705048,8438.347739
516.419954,1850.514855,3064.381992,9178.553681
516.420279,222.061783,2604.724693,7476.080014
516.420605,444.123565,76.609550,8142.265362
516.420930,888.247130,-306.438199,9400.615463
516.421255,-1110.308913,536.266849,11103.089130
516.421580,-2812.782580,0.000000,11843.295072
516.421905,-1776.494261,-2221.676944,11621.233289
516.422231,0.000000,-2451.505594,10140.821405
516.422556,296.082377,612.876398,11029.068536
516.422881,1628.453072,2757.943793,8808.450710
516.423206,1258.350101,3600.648841,8216.285956
516.423532,1924.535449,1991.848295,7105.977043
516.423857,3182.885551,1149.143247,6957.935855
516.424182,2220.617826,2145.067394,8586.388927
516.424507,592.164754,2757.943793,7994.224174
516.424832,2294.638420,1991.848295,7920.203579
516.425158,1924.535449,459.657299,9622.677246
516.425483,740.205942,689.485948,9252.574275
516.425808,740.205942,1378.971896,9030.512492
516.426133,-74.020594,1378.971896,9918.759623
516.426458,-1184.329507,0.000000,10214.842000
516.426784,-1332.370696,-1991.848295,10066.800811
516.427109,-1110.308913,-1378.971896,11473.192101
516.427434,-1628.453072,1225.752797,11473.192101
516.427759,-1702.473667,-689.485948,10658.965565
516.428085,370.102971,-1378.971896,9844.739029
516.428410,592.164754,842.705048,10066.800811
516.428735,-740.205942,2145.067394,9622.677246
516.429060,-222.061783,1072.533697,8216.285956
516.429385,-518.144159,-536.266849,6587.832884
516.429711,-4071.132681,-383.047749,7254.018232
516.430036,-4219.173869,-1225.752797,7105.977043
516.430361,-3108.864956,459.657299,7402.059420
516.430686,-3108.864956,-689.485948,8734.430116
516.431012,-2442.679609,-1762.019645,8808.450710
516.431337,-1924.535449,-1532.190996,9548.656652
516.431662,-1998.556043,1685.410096,9918.759623
516.431987,-740.205942,306.438199,9178.553681
516.432312,-148.041188,-2451.505594,9770.718434
516.432638,1036.288319,-1302.362347,10066.800811
516.432963,1406.391290,1991.848295,12509.480420
516.433288,1480.411884,459.657299,11177.109724
516.433613,2812.782580,-1149.143247,9030.512492
516.433939,5403.503377,1608.800546,9474.636058
516.434264,5181.441594,4519.963438,10066.800811
516.434589,3478.967927,4136.915689,8216.285956
516.434914,3775.050304,612.876398,6217.729913
516.435239,2738.761985,383.047749,6809.894666
516.435565,-148.041188,2145.067394,9474.636058
516.435890,-1628.453072,459.657299,10362.883188
516.436215,-1184.329507,-1378.971896,10214.842000
516.436540,-1110.308913,-1378.971896,9696.697840
516.436865,-370.102971,306.438199,10510.924376
516.437191,-296.082377,1225.752797,10066.800811
516.437516,-1480.411884,1915.238745,7698.141797
516.437841,-296.082377,-995.924147,7476.080014
516.438166,-592.164754,229.828649,9030.512492
516.438492,-1776.494261,2221.676944,9326.594869
516.438817,-1554.432478,766.095498,8808.450710
516.439142,370.102971,-995.924147,8956.491898
516.439467,1924.535449,1915.238745,9474.636058
516.439792,2590.720797,2757.943793,9030.512492
516.440118,1628.453072,2451.505594,9622.677246
516.440443,1628.453072,2528.115143,9104.533087
516.440768,2368.659014,1838.629195,8586.388927
516.441093,1554.432478,536.266849,10066.800811
516.441419,-1332.370696,766.095498,9844.739029
516.441744,-1850.514855,689.485948,9622.677246
516.442069,-222.061783,-153.219100,10214.842000
516.442394,74.020594,-766.095498,10066.800811
516.442719,-1776.494261,1532.190996,10066.800811
516.443045,-1702.473667,2374.896044,8956.491898
516.443370,-814.226536,1225.752797,8586.388927
516.443695,-1554.432478,-689.485948,8068.244768
516.444020,-962.267725,612.876398,7179.997637
516.444346,-1554.432478,2221.676944,7698.141797
516.444671,-888.247130,1072.533697,9178.553681
516.444996,444.123565,-536.266849,9252.574275
516.445321,222.061783,153.219100,9622.677246
516.445646,-592.164754,1225.752797,9770.718434
516.445972,-592.164754,0.000000,7994.224174
516.446297,-370.102971,-1685.410096,8512.368333
516.446622,-1184.329507,-1532.190996,9548.656652
516.446947,-3923.091493,-1225.752797,11621.233289
516.447272,-3849.070898,-1915.238745,10510.924376
516.447598,-1628.453072,-2221.676944,9548.656652
516.447923,-296.082377,-995.924147,10288.862594
516.448248,592.164754,842.705048,10066.800811
516.448573,888.247130,2068.457845,8956.491898
516.448899,2146.597232,1149.143247,8882.471304
516.449224,2072.576638,0.000000,9178.553681
516.449549,518.144159,536.266849,9474.636058
516.449874,444.123565,842.705048,10658.965565
516.450199,2072.576638,76.609550,9770.718434
516.450525,1554.432478,-995.924147,9918.759623
516.450850,2664.741391,459.657299,9104.533087
516.451175,3404.947333,2681.334243,8512.368333
516.451500,2368.659014,2221.676944,7772.162391
516.451826,2368.659014,1149.143247,7994.224174
516.452151,1406.391290,536.266849,8660.409521
516.452476,0.000000,1532.190996,9474.636058
516.452801,-592.164754,1225.752797,9474.636058
516.453126,-2516.700203,-536.266849,9548.656652
516.453452,-3108.864956,-995.924147,8586.388927
516.453777,888.247130,0.000000,8438.347739
516.454102,-962.267725,2451.505594,11399.171507
516.454427,-1258.350101,1685.410096,8734.430116
516.454753,-1628.453072,-383.047749,7476.080014
516.455078,-1702.473667,-229.828649,8438.347739
516.455403,-888.247130,1608.800546,8216.285956
516.455728,-1554.432478,2145.067394,8586.388927
516.456053,962.267725,1302.362347,9252.574275
516.456379,1702.473667,1532.190996,10584.944971
516.456704,1702.473667,2298.286494,10362.883188
516.457029,2220.617826,2987.772442,10510.924376
516.457354,2664.741391,2145.067394,9252.574275
516.457679,74.020594,766.095498,8882.471304
516.458005,0.000000,0.000000,10436.903782
516.458330,0.000000,1838.629195,11769.274478
516.458655,-1850.514855,919.314598,10732.986159
516.458980,-1332.370696,-1302.362347,9104.533087
516.459306,74.020594,-306.438199,8734.430116
516.459631,0.000000,2604.724693,8512.368333
516.459956,444.123565,2834.553343,7846.182985
516.460281,444.123565,612.876398,7846.182985
516.460606,0.000000,766.095498,6513.812290
516.460932,148.041188,1685.410096,7402.059420
516.461257,-1332.370696,1225.752797,9104.533087
516.461582,-1480.411884,-153.219100,7920.203579
516.461907,-666.185348,-842.705048,9622.677246
516.462233,666.185348,229.828649,10214.842000
516.462558,-592.164754,919.314598,10362.883188
516.462883,-1332.370696,306.438199,9400.615463
516.463208,74.020594,-689.485948,10066.800811
516.463533,148.041188,-1532.190996,10066.800811
516.463859,-518.144159,-995.924147,10436.903782
516.464184,-740.205942,0.000000,11103.089130
516.464509,-222.061783,76.609550,11177.109724
516.464834,1406.391290,-766.095498,9252.574275
516.465160,1702.473667,-766.095498,9992.780217
516.465485,0.000000,1302.362347,8586.388927
516.465810,74.020594,1685.410096,8660.409521
516.466135,1406.391290,-1072.533697,8438.347739
516.466460,0.000000,-2221.676944,9030.512492
516.466786,-3849.070898,-306.438199,9918.759623
516.467111,-3256.906145,536.266849,8882.471304
516.467436,-592.164754,-1762.019645,7920.203579
516.467761,-148.041188,-2298.286494,9326.594869
516.468086,-370.102971,1149.143247,10066.800811
516.468412,0.000000,3064.381992,10881.027347
516.468737,1998.556043,229.828649,8364.327145
516.469062,2368.659014,-1455.581446,8660.409521
516.469387,-296.082377,229.828649,9622.677246
516.469713,-444.123565,3217.601092,9104.533087
516.470038,1924.535449,536.266849,9400.615463
516.470363,1998.556043,-1302.362347,9104.533087
516.470688,1184.329507,383.047749,9030.512492
516.471013,370.102971,3064.381992,8586.388927
516.471339,814.226536,2451.505594,8808.450710
516.471664,518.144159,153.219100,9474.636058
516.471989,0.000000,-306.438199,9844.739029
516.472314,0.000000,919.314598,10955.047942
516.472640,1332.370696,1762.019645,9918.759623
516.472965,888.247130,689.485948,10288.862594
516.473290,-148.041188,-689.485948,11399.171507
516.473615,-1036.288319,1378.971896,11177.109724
516.473940,-1628.453072,2221.676944,10955.047942
516.474266,-222.061783,1149.143247,7994.224174
516.474591,-1110.308913,-919.314598,7550.100608
516.474916,-1628.453072,1455.581446,6735.874072
516.475241,-1184.329507,2604.724693,8660.409521
516.475567,-1850.514855,919.314598,7624.121203
516.475892,-1554.432478,0.000000,7476.080014
516.476217,148.041188,2604.724693,8216.285956
516.476542,1924.535449,5209.449386,7846.182985
516.476867,1332.370696,2987.772442,8068.244768
516.477193,2072.576638,536.266849,7179.997637
516.477518,1110.308913,1072.533697,8438.347739
516.477843,222.061783,2451.505594,9622.677246
516.478168,-592.164754,1532.190996,11177.109724
516.478493,-222.061783,-1225.752797,10732.986159
516.478819,296.082377,-1532.190996,10436.903782
516.479144,-296.082377,766.095498,11399.171507
516.479469,814.226536,1762.019645,9992.780217
516.479794,888.247130,459.657299,9474.636058
516.480120,814.226536,-612.876398,9030.512492
516.480445,592.164754,76.609550,9326.594869
516.480770,444.123565,1302.362347,10732.986159
516.481095,518.144159,612.876398,10807.006753
516.481420,-962.267725,-306.438199,10436.903782
516.481746,-296.082377,-1838.629195,8290.306550
516.482071,74.020594,-459.657299,7846.182985
516.482396,-592.164754,995.924147,7624.121203
516.482721,-1776.494261,1302.362347,6957.935855
516.483047,-2590.720797,-1149.143247,8142.265362
516.483372,-2960.823768,-2145.067394,7920.203579
516.483697,-2516.700203,-2221.676944,9474.636058
516.484022,-2886.803174,-1762.019645,9622.677246
516.484347,-2146.597232,-1991.848295,10732.986159
516.484673,-74.020594,-1762.019645,10436.903782
516.484998,2368.659014,383.047749,10140.821405
516.485323,2220.617826,919.314598,10881.027347
516.485648,1776.494261,1455.581446,8216.285956
516.485974,2368.659014,383.047749,8068.244768
516.486299,2886.803174,536.266849,10140.821405
516.486624,1554.432478,1149.143247,11695.253884
516.486949,148.041188,229.828649,9474.636058
516.487274,1406.391290,-1072.533697,8956.491898
516.487600,1850.514855,459.657299,9918.759623
516.487925,888.247130,2145.067394,10436.903782
516.488250,-444.123565,1838.629195,9474.636058
516.488575,-1850.514855,-1685.410096,8364.327145
516.488900,-74.020594,-459.657299,7031.956449
516.489226,0.000000,2757.943793,10584.944971
516.489551,-2516.700203,1608.800546,10732.986159
516.489876,-3108.864956,-1378.971896,8142.265362
516.490201,-1332.370696,-2528.115143,9400.615463
516.490527,592.164754,1991.848295,10288.862594
516.490852,-518.144159,2528.115143,8734.430116
516.491177,-1332.370696,1072.533697,8290.306550
516.491502,370.102971,689.485948,7476.080014
516.491827,-148.041188,2145.067394,8586.388927
516.492153,-444.123565,2604.724693,8734.430116
516.492478,74.020594,1838.629195,7402.059420
516.492803,814.226536,1915.238745,7476.080014
516.493128,2664.741391,2298.286494,10362.883188
516.493454,2664.741391,3447.429741,10807.006753
516.493779,740.205942,2757.943793,9474.636058
516.494104,1036.288319,1149.143247,9104.533087
516.494429,2146.597232,612.876398,9252.574275
516.494754,740.205942,1225.752797,10436.903782
516.495080,296.082377,1378.971896,12509.480420
516.495405,222.061783,383.047749,10955.047942
516.495730,962.267725,459.657299,10214.842000
516.496055,2886.803174,1302.362347,9474.636058
516.496381,1998.556043,2911.162892,9474.636058
516.496706,962.267725,3524.039291,8586.388927
516.497031,2664.741391,2221.676944,6957.935855
516.497356,1702.473667,-1149.143247,7550.100608
516.497681,-1850.514855,153.219100,8364.327145
516.498007,-3478.967927,1838.629195,8882.471304
516.498332,-2886.803174,383.047749,8882.471304
516.498657,-2442.679609,-3064.381992,8808.450710
516.498982,-3701.029710,-2757.943793,9326.594869
516.499307,-3627.009116,842.705048,8290.306550
516.499632,-1480.411884,1762.019645,6883.915261
516.499957,-1776.494261,-2068.457845,8660.409521
516.500282,-2664.741391,-2604.724693,8660.409521
516.500607,-1924.535449,306.438199,10362.883188
516.500933,-74.020594,306.438199,10436.903782
516.501258,1258.350101,-1378.971896,11103.089130
516.501583,1332.370696,-1762.019645,11473.192101
516.501908,1850.514855,76.609550,10362.883188
516.502233,1702.473667,766.095498,10658.965565
516.502558,1924.535449,-229.828649,10288.862594
516.502883,148.041188,-766.095498,9474.636058
516.503208,-1480.411884,-1685.410096,10807.006753
516.503533,1184.329507,-1455.581446,9770.718434
516.503859,74.020594,612.876398,10584.944971
516.504184,-1036.288319,-1378.971896,9474.636058
516.504509,-370.102971,-2145.067394,8068.244768
516.504834,1036.288319,995.924147,9252.574275
516.505159,962.267725,2681.334243,9252.574275
516.505484,296.082377,-383.047749,8364.327145
516.505809,-1332.370696,-1838.629195,7698.141797
516.506134,-814.226536,689.485948,8882.471304
516.506459,-814.226536,459.657299,9548.656652
516.506785,-1480.411884,-459.657299,7846.182985
516.507110,-592.164754,-766.095498,8734.430116
516.507435,1628.453072,1685.410096,8142.265362
516.507760,2664.741391,2911.162892,8882.471304
516.508085,1702.473667,1838.629195,9178.553681
516.508410,1184.329507,1378.971896,8068.244768
516.508735,0.000000,1225.752797,8734.430116
516.509060,814.226536,1225.752797,10066.800811
516.509385,370.102971,842.705048,10436.903782
516.509711,-296.082377,842.705048,10362.883188
516.510036,592.164754,0.000000,9918.759623
516.510361,2368.659014,995.924147,10881.027347
516.510686,1480.411884,3064.381992,11399.171507
516.511011,0.000000,2298.286494,10362.883188
516.511336,74.020594,0.000000,7402.059420
516.511661,-296.082377,689.485948,7846.182985
516.511986,-518.144159,2834.553343,9622.677246
516.512311,-148.041188,3370.820191,9770.718434
516.512637,148.041188,1608.800546,8660.409521
516.512962,1036.288319,1378.971896,7920.203579
516.513287,2590.720797,3677.258390,7846.182985
516.513612,1332.370696,5669.106685,8586.388927
516.513937,222.061783,3294.210641,7920.203579
516.514262,-370.102971,306.438199,7920.203579
516.514587,-222.061783,229.828649,8512.368333
516.514912,-2368.659014,1532.190996,10362.883188
516.515237,-3701.029710,383.047749,9178.553681
516.515563,-1628.453072,-766.095498,8068.244768
516.515888,-962.267725,0.000000,9326.594869
516.516213,-740.205942,1762.019645,10066.800811
516.516538,-592.164754,2451.505594,9400.615463
516.516863,444.123565,995.924147,9030.512492
516.517188,1258.350101,153.219100,8734.430116
516.517513,-222.061783,0.000000,10140.821405
516.517838,-2368.659014,0.000000,10066.800811
516.518163,0.000000,-995.924147,9474.636058
516.518489,1480.411884,-383.047749,10214.842000
516.518814,518.144159,-459.657299,10658.965565
516.519139,-666.185348,0.000000,9548.656652
516.519464,-296.082377,-612.876398,9178.553681
516.519789,-222.061783,-1378.971896,9992.780217
516.520114,-740.205942,-1915.238745,9252.574275
516.520439,-1702.473667,-1302.362347,10584.944971
516.520764,-1850.514855,-459.657299,9770.718434
516.521089,-740.205942,-1225.752797,8956.491898
516.521415,1036.288319,-1838.629195,8734.430116
516.521740,1258.350101,1149.143247,8438.347739
516.522065,518.144159,1762.019645,9030.512492
516.522390,1702.473667,842.705048,8142.265362
516.522715,2146.597232,-306.438199,8142.265362
516.523040,296.082377,-842.705048,8586.388927
516.523365,-1554.432478,76.609550,8956.491898
516.523690,-740.205942,-1149.143247,8438.347739
516.524015,-296.082377,-1302.362347,9400.615463
516.524341,888.247130,-1149.143247,11029.068536
516.524666,962.267725,1072.533697,11621.233289
516.524991,1554.432478,1838.629195,10140.821405
516.525316,1702.473667,153.219100,10066.800811
516.525641,888.247130,-1455.581446,9474.636058
516.525966,-1628.453072,-536.266849,9104.533087
516.526291,-1628.453072,842.705048,9844.739029
516.526616,-666.185348,689.485948,10436.903782
516.526941,-444.123565,-612.876398,9696.697840
516.527267,-666.185348,153.219100,8882.471304
516.527592,0.000000,2604.724693,9178.553681
516.527917,370.102971,2681.334243,9548.656652
516.528242,0.000000,459.657299,8808.450710
516.528567,0.000000,0.000000,8438.347739
516.528892,-370.102971,2374.896044,8438.347739
516.529217,0.000000,2911.162892,9622.677246
516.529542,1184.329507,1532.190996,9474.636058
516.529867,1850.514855,842.705048,7476.080014
516.530193,1036.288319,2757.943793,8586.388927
516.530518,2368.659014,4596.572988,8808.450710
516.530843,2368.659014,3753.867940,7550.100608
516.531168,1628.453072,1762.019645,7624.121203
516.531493,1776.494261,1225.752797,8216.285956
516.531818,296.082377,2604.724693,9474.636058
516.532143,444.123565,2221.676944,10732.986159
516.532468,1258.350101,459.657299,10658.965565
516.532793,296.082377,0.000000,10214.842000
516.533119,0.000000,1915.238745,10066.800811
516.533444,740.205942,2834.553343,9622.677246
516.533769,740.205942,2911.162892,8882.471304
516.534094,-1110.308913,153.219100,8290.306550
516.534419,-2220.617826,-383.047749,9104.533087
516.534744,-2368.659014,1072.533697,9030.512492
516.535069,-3256.906145,536.266849,9770.718434
516.535394,-3182.885551,-2145.067394,9474.636058
516.535719,-2442.679609,-1915.238745,9474.636058
516.536045,-1702.473667,1532.190996,10066.800811
516.536370,-296.082377,1991.848295,9548.656652
516.536695,518.144159,0.000000,8586.388927
516.537020,296.082377,-383.047749,7476.080014
516.537345,-148.041188,536.266849,8586.388927
516.537670,-1554.432478,919.314598,9622.677246
516.537995,-1332.370696,-1072.533697,7698.141797
516.538320,0.000000,-1991.848295,8364.327145
516.538645,2294.638420,76.609550,9770.718434
516.538971,74.020594,2834.553343,10066.800811
516.539296,74.020594,153.219100,8586.388927
516.539621,666.185348,-2451.505594,8290.306550
516.539946,148.041188,-1225.752797,9918.759623
516.540271,-1702.473667,842.705048,10658.965565
516.540596,-2812.782580,-1225.752797,10214.842000
516.540921,1036.288319,-3677.258390,8956.491898
516.541246,3552.988522,-1378.971896,9770.718434
516.541571,1998.556043,2221.676944,11843.295072
516.541897,888.247130,1685.410096,10510.924376
516.542222,592.164754,-1378.971896,7698.141797
516.542547,1406.391290,-2145.067394,8512.368333
516.542872,814.226536,-536.266849,8586.388927
516.543197,-2664.741391,842.705048,9992.780217
516.543522,-1332.370696,-2374.896044,8956.491898
516.543847,-888.247130,-3064.381992,10140.821405
516.544172,-1332.370696,-1991.848295,10881.027347
516.544497,-666.185348,1225.752797,9992.780217
516.544823,444.123565,1685.410096,8068.244768
516.545148,1628.453072,229.828649,7994.224174
516.545473,3182.885551,842.705048,8956.491898
516.545798,1332.370696,2145.067394,10214.842000
516.546123,-740.205942,1455.581446,8068.244768
516.546448,1036.288319,-306.438199,8364.327145
516.546773,1332.370696,995.924147,11029.068536
516.547098,1258.350101,2911.162892,10881.027347
516.547423,1110.308913,2451.505594,10140.821405
516.547749,1776.494261,1455.581446,7994.224174
516.548074,888.247130,2681.334243,7179.997637
516.548399,888.247130,3064.381992,7328.038826
516.548724,0.000000,2911.162892,9252.574275
516.549049,0.000000,2681.334243,9474.636058
516.549374,0.000000,2374.896044,10288.862594
516.549699,592.164754,842.705048,9918.759623
516.550024,-222.061783,1608.800546,8068.244768
516.550349,-1480.411884,2451.505594,8586.388927
516.550675,-1776.494261,2528.115143,9400.615463
516.551000,-2368.659014,306.438199,9326.594869
516.551325,-2220.617826,306.438199,9252.574275
516.551650,-3108.864956,1302.362347,9400.615463
516.551975,-4219.173869,995.924147,8882.471304
516.552300,-3108.864956,919.314598,8512.368333
516.552625,0.000000,76.609550,8660.409521
516.552950,0.000000,2834.553343,8586.388927
516.553275,0.000000,3753.867940,8512.368333
516.553600,1258.350101,2374.896044,8586.388927
516.553926,1258.350101,383.047749,8142.265362
516.554251,-296.082377,0.000000,9770.718434
516.554576,-518.144159,842.705048,10288.862594
516.554901,370.102971,536.266849,9696.697840
516.555226,222.061783,-2068.457845,10066.800811
516.555551,0.000000,-2068.457845,9696.697840
516.555876,0.000000,766.095498,10732.986159
516.556201,666.185348,995.924147,10436.903782
516.556526,2590.720797,-1762.019645,8660.409521
516.556852,2220.617826,-1915.238745,9474.636058
516.557177,518.144159,383.047749,10955.047942
516.557502,666.185348,612.876398,8364.327145
516.557827,962.267725,-1762.019645,8142.265362
516.558152,518.144159,-2681.334243,9474.636058
516.558477,814.226536,536.266849,11177.109724
516.558802,888.247130,766.095498,10881.027347
516.559127,0.000000,-2298.286494,9474.636058
516.559452,-2146.597232,-4366.744339,8290.306550
516.559778,-888.247130,-1762.019645,9178.553681
516.560103,222.061783,0.000000,9474.636058
516.560428,-1554.432478,-1302.362347,9992.780217
516.560753,-1480.411884,-2987.772442,10436.903782
516.561078,1036.288319,-459.657299,9770.718434
516.561403,2664.741391,1532.190996,9326.594869
516.561728,2294.638420,2145.067394,9030.512492
516.562053,1776.494261,1072.533697,7846.182985
516.562378,592.164754,383.047749,8216.285956
516.562704,962.267725,153.219100,8808.450710
516.563029,-592.164754,842.705048,9252.574275
516.563354,-1702.473667,1762.019645,9474.636058
516.563679,-444.123565,1149.143247,9178.553681
516.564004,444.123565,76.609550,8734.430116
516.564329,74.020594,1685.410096,9178.553681
516.564654,740.205942,4596.572988,8512.368333
516.564979,148.041188,3370.820191,8808.450710
516.565304,1110.308913,383.047749,9030.512492
516.565630,1406.391290,1072.533697,10584.944971
516.565955,-1480.411884,2451.505594,11325.150913
516.566280,-1998.556043,1838.629195,9252.574275
516.566605,592.164754,0.000000,9474.636058
516.566930,1258.350101,2757.943793,9400.615463
516.567255,0.000000,4136.915689,9474.636058
516.567580,-1110.308913,2298.286494,7698.141797
516.567905,296.082377,1378.971896,6735.874072
516.568230,-370.102971,2374.896044,8956.491898
516.568556,-2738.761985,2911.162892,11103.089130
516.568881,-2368.659014,1072.533697,8808.450710
516.569206,-962.267725,0.000000,8068.244768
516.569531,666.185348,1149.143247,7846.182985
516.569856,0.000000,3140.991542,9400.615463
516.570181,-1258.350101,3600.648841,9326.594869
516.570506,-666.185348,842.705048,8660.409521
516.570831,0.000000,-1608.800546,6957.935855
516.571156,-1332.370696,-153.219100,9696.697840
516.571482,-1850.514855,1072.533697,9622.677246
516.571807,-1628.453072,1302.362347,8956.491898
516.572132,0.000000,-1608.800546,10807.006753
516.572457,1406.391290,-995.924147,9696.697840
516.572782,1184.329507,1685.410096,10066.800811
516.573107,0.000000,1455.581446,8808.450710
516.573432,1998.556043,-536.266849,8290.306550
516.573757,2516.700203,-612.876398,9104.533087
516.574082,222.061783,-383.047749,11029.068536
516.574408,-1110.308913,153.219100,10066.800811
516.574733,-1110.308913,-1991.848295,9030.512492
516.575058,-444.123565,-2681.334243,9696.697840
516.575383,-518.144159,-2221.676944,9252.574275
516.575708,-888.247130,153.219100,8882.471304
516.576033,1258.350101,1072.533697,10362.883188
516.576358,814.226536,-995.924147,9844.739029
516.576683,0.000000,-3294.210641,7624.121203
516.577008,-592.164754,-2068.457845,9548.656652
516.577334,0.000000,0.000000,9030.512492
516.577659,1036.288319,-459.657299,10658.965565
516.577984,3552.988522,-1302.362347,10955.047942
516.578309,3256.906145,306.438199,11177.109724
516.578634,962.267725,1991.848295,9770.718434
516.578959,2294.638420,1225.752797,7402.059420
516.579284,1184.329507,-612.876398,7105.977043
516.579609,0.000000,0.000000,7772.162391
516.579934,-1184.329507,1225.752797,10214.842000
516.580260,-1184.329507,0.000000,9474.636058
516.580585,-1258.350101,-536.266849,9178.553681
516.580910,-1480.411884,0.000000,10288.862594
516.581235,-296.082377,1608.800546,9400.615463
516.581560,74.020594,2145.067394,9030.512492
516.581885,0.000000,689.485948,9474.636058
516.582210,-1184.329507,766.095498,9696.697840
516.582535,-1332.370696,1685.410096,9992.780217
516.582860,-222.061783,1685.410096,9770.718434
516.583186,-962.267725,383.047749,9326.594869
516.583511,-148.041188,1455.581446,9844.739029
516.583836,1924.535449,2834.553343,9770.718434
516.584161,1406.391290,3600.648841,8734.430116
516.584486,0.000000,3294.210641,8068.244768
516.584811,296.082377,2604.724693,7179.997637
516.585136,518.144159,3064.381992,7254.018232
516.585461,-370.102971,2528.115143,9178.553681
516.585786,-2220.617826,1608.800546,9548.656652
516.586112,-2516.700203,1072.533697,8586.388927
516.586437,-1406.391290,842.705048,8068.244768
516.586762,222.061783,1455.581446,8586.388927
516.587087,-666.185348,1685.410096,9030.512492
516.587412,-1184.329507,2834.553343,8586.388927
516.587737,-740.205942,689.485948,8512.368333
516.588062,-296.082377,-383.047749,8882.471304
516.588387,-814.226536,919.314598,9918.759623
516.588712,-444.123565,1302.362347,9770.718434
516.589038,-444.123565,-229.828649,10066.800811
516.589363,1554.432478,-459.657299,9474.636058
516.589688,3997.112087,1685.410096,10955.047942
516.590013,2590.720797,2987.772442,11251.130318
516.590338,740.205942,1149.143247,9992.780217
516.590663,962.267725,-2681.334243,8956.491898
516.590988,444.123565,-1378.971896,9992.780217
516.591313,-962.267725,-612.876398,10362.883188
516.591638,-2368.659014,-1608.800546,9770.718434
516.591964,-1480.411884,-2298.286494,9696.697840
516.592289,1850.514855,-612.876398,9770.718434
516.592614,2072.576638,995.924147,10362.883188
516.592939,222.061783,536.266849,8734.430116
516.593264,1258.350101,76.609550,6661.853478
516.593589,2812.782580,0.000000,7476.080014
516.593914,2368.659014,842.705048,9548.656652
516.594239,-148.041188,1072.533697,9548.656652
516.594564,-592.164754,0.000000,8808.450710
516.594890,1776.494261,-1072.533697,9030.512492
516.595215,1332.370696,-689.485948,10510.924376
516.595540,-1332.370696,766.095498,9918.759623
516.595865,-962.267725,1072.533697,9474.636058
516.596190,814.226536,-1915.238745,9030.512492
516.596515,-814.226536,-1302.362347,10140.821405
516.596840,-2886.803174,76.609550,10288.862594
516.597165,-1406.391290,383.047749,8882.471304
516.597490,-1110.308913,-842.705048,9622.677246
516.597816,0.000000,-1225.752797,10288.862594
516.598141,-518.144159,1608.800546,10732.986159
516.598466,-1036.288319,2757.943793,8512.368333
516.598791,-1036.288319,306.438199,8660.409521
516.599116,-1036.288319,-995.924147,7698.141797
516.599441,-1924.535449,612.876398,9326.594869
516.599766,-1628.453072,1072.533697,10214.842000
516.600091,-1554.432478,-306.438199,9548.656652
516.600416,-1036.288319,-1149.143247,9844.739029
516.600741,962.267725,1378.971896,10436.903782
516.601066,1924.535449,3217.601092,9548.656652
516.601391,1998.556043,2757.943793,8364.327145
516.601716,3256.906145,2451.505594,7772.162391
516.602041,3182.885551,2604.724693,8586.388927
516.602366,962.267725,3294.210641,9474.636058
516.602691,296.082377,1762.019645,8586.388927
516.603016,74.020594,919.314598,8142.265362
516.603341,740.205942,919.314598,8808.450710
516.603665,-74.020594,2451.505594,8364.327145
516.603990,-1554.432478,1915.238745,8956.491898
516.604315,-666.185348,1762.019645,8586.388927
516.604640,-740.205942,459.657299,9252.574275
516.604965,-740.205942,-536.266849,9252.574275
516.605290,-1332.370696,459.657299,9918.759623
516.605615,-740.205942,459.657299,9696.697840
516.605940,148.041188,1149.143247,9104.533087
516.606265,222.061783,0.000000,9474.636058
516.606590,-370.102971,995.924147,10066.800811
516.606915,222.061783,2298.286494,9252.574275
516.607240,1628.453072,1762.019645,9474.636058
516.607565,-296.082377,0.000000,10436.903782
516.607890,-2146.597232,0.000000,9326.594869
516.608215,-3627.009116,76.609550,10214.842000
516.608540,-370.102971,-1685.410096,8586.388927
516.608865,-1036.288319,-1455.581446,10436.903782
516.609190,-962.267725,459.657299,11325.150913
516.609515,2368.659014,2451.505594,10066.800811
516.609840,2516.700203,1302.362347,9844.739029
516.610165,1480.411884,536.266849,8216.285956
516.610490,1554.432478,1685.410096,6513.812290
516.610815,2812.782580,2451.505594,6809.894666
516.611140,1554.432478,2145.067394,8438.347739
516.611465,370.102971,383.047749,8660.409521
516.611790,-592.164754,0.000000,8808.450710
516.612115,740.205942,-229.828649,8808.450710
516.612440,-370.102971,306.438199,9992.780217
516.612765,-1776.494261,153.219100,10807.006753
516.613090,-1776.494261,-995.924147,10658.965565
516.613415,-1406.391290,-2987.772442,9400.615463
516.613740,-2220.617826,-2374.896044,9548.656652
516.614065,-1776.494261,306.438199,10362.883188
516.614390,-2146.597232,689.485948,9696.697840
516.614715,0.000000,-995.924147,8808.450710
516.615040,1924.535449,-153.219100,10214.842000
516.615365,0.000000,995.924147,9474.636058
516.615690,0.000000,1532.190996,7698.141797
516.616015,888.247130,76.609550,8068.244768
516.616340,0.000000,-229.828649,9622.677246
516.616665,-1258.350101,383.047749,10584.944971
516.616990,-666.185348,0.000000,9992.780217
516.617315,-518.144159,-689.485948,9992.780217
516.617640,1628.453072,0.000000,9178.553681
516.617965,2368.659014,2068.457845,9844.739029
516.618290,1702.473667,2604.724693,9400.615463
516.618615,2072.576638,1302.362347,8290.306550
516.618940,2960.823768,1072.533697,7772.162391
516.619265,2590.720797,2528.115143,8216.285956
516.619590,592.164754,1762.019645,8808.450710
516.619914,74.020594,0.000000,8290.306550
516.620239,0.000000,612.876398,9548.656652
516.620564,962.267725,1072.533697,9992.780217
516.620889,-592.164754,842.705048,9918.759623
516.621214,-2146.597232,995.924147,8808.450710
516.621539,-1480.411884,1149.143247,8660.409521
516.621864,-1184.329507,-306.438199,9474.636058
516.622189,-2368.659014,-1225.752797,9844.739029
516.622514,-4441.235652,-919.314598,9474.636058
516.622839,-3478.967927,0.000000,9548.656652
516.623164,-666.185348,383.047749,10732.986159
516.623489,-148.041188,306.438199,10140.821405
516.623814,-2072.576638,1149.143247,9030.512492
516.624139,-518.144159,1608.800546,8364.327145
516.624464,962.267725,1532.190996,8438.347739
516.624789,222.061783,689.485948,8290.306550
516.625114,-1258.350101,459.657299,9030.512492
516.625439,148.041188,1302.362347,8512.368333
516.625764,2220.617826,2374.896044,10066.800811
516.626089,3552.988522,306.438199,10955.047942
516.626414,2072.576638,1302.362347,9474.636058
516.626739,444.123565,1915.238745,8068.244768
516.627064,2072.576638,1455.581446,8438.347739
516.627389,1480.411884,229.828649,7179.997637
516.627714,-740.205942,612.876398,8808.450710
516.628039,-962.267725,842.705048,9326.594869
516.628364,-1036.288319,842.705048,9400.615463
516.628689,0.000000,-1302.362347,9770.718434
516.629014,1406.391290,-1302.362347,9252.574275
516.629339,-296.082377,459.657299,10140.821405
516.629664,666.185348,1532.190996,9474.636058
516.629989,2590.720797,459.657299,9770.718434
516.630314,-296.082377,-1532.190996,10066.800811
516.630639,-1036.288319,-1225.752797,9030.512492
516.630964,74.020594,76.609550,8956.491898
516.631289,592.164754,-153.219100,9918.759623
516.631614,222.061783,-1608.800546,10140.821405
516.631939,740.205942,-766.095498,10436.903782
516.632264,1258.350101,2068.457845,9622.677246
516.632589,1036.288319,1762.019645,9622.677246
516.632914,592.164754,-1378.971896,7476.080014
516.633239,-370.102971,-1455.581446,8660.409521
516.633564,148.041188,1072.533697,10436.903782
516.633889,-444.123565,1608.800546,10732.986159
516.634214,-1258.350101,-1455.581446,10807.006753
516.634539,-370.102971,-1915.238745,8068.244768
516.634864,666.185348,1455.581446,7772.162391
516.635189,74.020594,3677.258390,9474.636058
516.635514,444.123565,2374.896044,8142.265362
516.635838,0.000000,-153.219100,6439.791695
516.636163,-814.226536,459.657299,7920.203579
516.636488,-1258.350101,2298.286494,8882.471304
516.636813,-1332.370696,1838.629195,8586.388927
516.637138,222.061783,-153.219100,8882.471304
516.637463,518.144159,306.438199,10955.047942
516.637788,1110.308913,2604.724693,11029.068536
516.638113,1332.370696,3524.039291,10510.924376
516.638438,148.041188,459.657299,9104.533087
516.638763,-1332.370696,-995.924147,7105.977043
516.639088,-2220.617826,612.876398,9548.656652
516.639413,-2368.659014,1532.190996,10881.027347
516.639738,-3701.029710,229.828649,10066.800811
516.640063,-2664.741391,-1838.629195,8734.430116
516.640388,-2146.597232,-306.438199,9548.656652
516.640713,-2072.576638,1838.629195,9252.574275
516.641038,-1258.350101,1915.238745,9474.636058
516.641363,-518.144159,0.000000,9252.574275
516.641688,-666.185348,0.000000,8586.388927
516.642013,-296.082377,612.876398,9474.636058
516.642338,296.082377,1455.581446,9030.512492
516.642663,-370.102971,-459.657299,9030.512492
516.642988,2516.700203,612.876398,9548.656652
516.643313,4589.276840,2451.505594,11917.315666
516.643638,3478.967927,3140.991542,10362.883188
516.643963,2590.720797,995.924147,6883.915261
516.644288,2516.700203,0.000000,7105.977043
516.644613,2294.638420,1762.019645,8364.327145
516.644938,592.164754,2374.896044,9400.615463
516.645263,-814.226536,306.438199,9918.759623
516.645588,0.000000,-1302.362347,9252.574275
516.645913,370.102971,-612.876398,9474.636058
516.646238,444.123565,383.047749,9696.697840
516.646563,-814.226536,995.924147,9030.512492
516.646888,-1480.411884,153.219100,8438.347739
516.647213,-222.061783,-995.924147,8882.471304
516.647538,0.000000,-1685.410096,9474.636058
516.647863,-2738.761985,-766.095498,9178.553681
516.648188,-2664.741391,-536.266849,9992.780217
516.648513,296.082377,-1149.143247,10066.800811
516.648838,1628.453072,-229.828649,10807.006753
516.649163,1110.308913,1225.752797,11325.150913
516.649488,1406.391290,1838.629195,9622.677246
516.649813,2516.700203,2068.457845,7920.203579
516.650138,2294.638420,689.485948,9030.512492
516.650463,296.082377,383.047749,9696.697840
516.650788,-296.082377,1455.581446,8956.491898
516.651113,444.123565,1302.362347,9548.656652
516.651438,518.144159,0.000000,9474.636058
516.651763,-1184.329507,229.828649,8512.368333
516.652087,-1184.329507,1991.848295,8068.244768
516.652412,-888.247130,1608.800546,6957.935855
516.652737,-1332.370696,306.438199,7179.997637
516.653062,-1998.556043,0.000000,8290.306550
516.653387,-3108.864956,842.705048,9178.553681
516.653712,-3256.906145,229.828649,7994.224174
516.654037,-962.267725,-919.314598,9252.574275
516.654362,962.267725,-995.924147,9696.697840
516.654687,444.123565,1762.019645,10584.944971
516.655012,444.123565,2987.772442,11177.109724
516.655337,1332.370696,1072.533697,9622.677246
516.655662,1332.370696,-919.314598,7920.203579
516.655987,148.041188,-459.657299,8438.347739
516.656312,0.000000,1532.190996,9400.615463
516.656637,-296.082377,1991.848295,11621.233289
516.656962,148.041188,76.609550,12361.439231
516.657287,666.185348,-995.924147,11621.233289
516.657612,370.102971,0.000000,8068.244768
516.657937,370.102971,2451.505594,7550.100608
516.658262,1850.514855,2145.067394,8512.368333
516.658587,666.185348,1685.410096,9548.656652
516.658912,-518.144159,0.000000,9400.615463
516.659237,-1776.494261,229.828649,9474.636058
516.659562,-1110.308913,153.219100,7624.121203
516.659887,-370.102971,0.000000,7179.997637
516.660212,0.000000,0.000000,7920.203579
516.660537,-592.164754,2451.505594,10140.821405
516.660862,370.102971,2757.943793,9770.718434
516.661187,296.082377,-842.705048,6883.915261
516.661512,-962.267725,-1455.581446,6809.894666
516.661837,-2146.597232,1378.971896,9178.553681
516.662162,-296.082377,2145.067394,10510.924376
516.662487,1628.453072,-306.438199,11769.274478
516.662812,1850.514855,-2298.286494,10510.924376
516.663137,518.144159,689.485948,9844.739029
516.663462,2886.803174,3753.867940,9844.739029
516.663787,2368.659014,2911.162892,9326.594869
516.664112,666.185348,-1225.752797,9474.636058
516.664437,1184.329507,-306.438199,10732.986159
516.664762,888.247130,1762.019645,9770.718434
516.665087,-1480.411884,766.095498,10288.862594
516.665412,-1184.329507,-2221.676944,9474.636058
516.665737,-592.164754,-919.314598,8512.368333
516.666062,1406.391290,2451.505594,9992.780217
516.666387,740.205942,2145.067394,10140.821405
516.666712,-1850.514855,153.219100,8586.388927
516.667037,-1036.288319,-919.314598,6217.729913
516.667362,-370.102971,766.095498,6809.894666
516.667687,-2590.720797,1072.533697,8438.347739
516.668011,-1554.432478,229.828649,7994.224174
516.668336,-148.041188,-536.266849,7994.224174
516.668661,0.000000,612.876398,9400.615463
516.668986,-444.123565,1455.581446,8068.244768
516.669311,-592.164754,1915.238745,8364.327145
516.669636,1406.391290,536.266849,7698.141797
516.669961,1776.494261,0.000000,9326.594869
516.670286,740.205942,612.876398,11029.068536
516.670611,0.000000,1225.752797,11325.150913
516.670936,0.000000,0.000000,11029.068536
516.671261,2368.659014,-1762.019645,10214.842000
516.671586,3701.029710,766.095498,11251.130318
516.671911,2368.659014,2451.505594,10955.047942
516.672236,1702.473667,2757.943793,9178.553681
516.672561,2442.679609,153.219100,9992.780217
516.672886,296.082377,383.047749,9326.594869
516.673211,-814.226536,0.000000,8142.265362
516.673536,-1258.350101,612.876398,9030.512492
516.673861,-2220.617826,229.828649,10584.944971
516.674186,-1554.432478,-536.266849,10140.821405
516.674511,-1924.535449,-459.657299,10658.965565
516.674836,-3330.926739,0.000000,8216.285956
516.675161,-3108.864956,229.828649,6883.915261
516.675486,-1184.329507,-229.828649,7031.956449
516.675811,-740.205942,1302.362347,9252.574275
516.676136,-2516.700203,612.876398,8734.430116
516.676461,-2146.597232,536.266849,7698.141797
516.676786,1258.350101,0.000000,7920.203579
516.677111,2146.597232,2298.286494,7698.141797
516.677436,1554.432478,3064.381992,9178.553681
516.677761,1406.391290,2987.772442,9178.553681
516.678086,1406.391290,1149.143247,9178.553681
516.678411,444.123565,0.000000,10140.821405
516.678736,-444.123565,-766.095498,9622.677246
516.679061,-3701.029710,-153.219100,10066.800811
516.679386,-2146.597232,-919.314598,10140.821405
516.679711,370.102971,-2145.067394,12139.377449
516.680036,0.000000,-1685.410096,10288.862594
516.680361,-1184.329507,-229.828649,9548.656652
516.680686,-222.061783,1149.143247,8734.430116
516.681011,814.226536,1608.800546,8586.388927
516.681336,1702.473667,153.219100,10066.800811
516.681661,296.082377,306.438199,9548.656652
516.681986,666.185348,1225.752797,9178.553681
516.682311,3330.926739,766.095498,9400.615463
516.682636,3108.864956,-153.219100,10214.842000
516.682961,296.082377,536.266849,10362.883188
516.683286,1554.432478,1915.238745,9252.574275
516.683611,2368.659014,1302.362347,9104.533087
516.683936,888.247130,-306.438199,8216.285956
516.684260,148.041188,-153.219100,8142.265362
516.684585,-1184.329507,995.924147,9326.594869
516.684910,-1332.370696,1072.533697,9844.739029
516.685235,296.082377,-459.657299,8216.285956
516.685560,592.164754,-306.438199,8216.285956
516.685885,222.061783,2681.334243,7920.203579
516.686210,444.123565,4136.915689,8068.244768
516.686535,1776.494261,1991.848295,8068.244768
516.686860,444.123565,-766.095498,7328.038826
516.687185,-1406.391290,-383.047749,8956.491898
516.687510,-222.061783,1532.190996,10436.903782
516.687835,-962.267725,1608.800546,12361.439231
516.688160,-1480.411884,-2757.943793,10881.027347
516.688485,-1480.411884,-2451.505594,10066.800811
516.688810,888.247130,1149.143247,11177.109724
516.689135,1776.494261,4519.963438,9030.512492
516.689460,1554.432478,1149.143247,8956.491898
516.689785,370.102971,-459.657299,8438.347739
516.690110,-370.102971,2528.115143,10140.821405
516.690435,518.144159,3447.429741,11029.068536
516.690760,296.082377,306.438199,9918.759623
516.691085,-444.123565,-1915.238745,9104.533087
516.691410,-518.144159,995.924147,9252.574275
516.691735,962.267725,3907.087040,9104.533087
516.692060,0.000000,2221.676944,8438.347739
516.692385,-1480.411884,-1532.190996,6883.915261
516.692710,-2516.700203,-306.438199,7402.059420
516.693035,-2812.782580,2374.896044,9474.636058
516.693360,-2146.597232,766.095498,9326.594869
516.693685,-2072.576638,-2681.334243,8142.265362
516.694010,-1776.494261,-1302.362347,8734.430116
516.694335,-296.082377,2681.334243,9400.615463
516.694660,-888.247130,2911.162892,10140.821405
516.694985,-1110.308913,-612.876398,8586.388927
516.695310,0.000000,-2757.943793,7476.080014
516.695635,740.205942,-229.828649,9474.636058
516.695960,518.144159,1608.800546,11473.192101
516.696285,-444.123565,153.219100,10807.006753
516.696610,0.000000,-2987.772442,10510.924376
516.696935,1184.329507,-1838.629195,10140.821405
516.697260,1554.432478,1991.848295,10510.924376
516.697585,1776.494261,3217.601092,9992.780217
516.697910,3034.844362,76.609550,8660.409521
516.698235,3034.844362,-689.485948,8808.450710
516.698560,1924.535449,1302.362347,9474.636058
516.698885,666.185348,2374.896044,9326.594869
516.699210,1110.308913,-153.219100,8660.409521
516.699533,1702.473667,-1072.533697,9548.656652
516.699858,2886.803174,1378.971896,9992.780217
516.700183,814.226536,3217.601092,9252.574275
516.700508,0.000000,919.314598,8364.327145
516.700833,518.144159,-536.266849,6957.935855
516.701158,-370.102971,1149.143247,7624.121203
516.701483,-1184.329507,1149.143247,8956.491898
516.701808,-1924.535449,229.828649,8734.430116
516.702133,-518.144159,0.000000,8586.388927
516.702459,962.267725,1608.800546,9918.759623
516.702784,-962.267725,842.705048,10436.903782
516.703109,-1998.556043,0.000000,8734.430116
516.703434,370.102971,919.314598,8364.327145
516.703759,1332.370696,1608.800546,10658.965565
516.704084,370.102971,1072.533697,10140.821405
516.704409,-1036.288319,842.705048,10214.842000
516.704734,-592.164754,1072.533697,9918.759623
516.705059,444.123565,1378.971896,9696.697840
516.705384,1110.308913,2298.286494,10140.821405
516.705709,-444.123565,1838.629195,9696.697840
516.706034,-888.247130,1532.190996,8142.265362
516.706359,296.082377,1378.971896,9030.512492
516.706684,740.205942,1378.971896,9474.636058
516.707010,-3404.947333,766.095498,10362.883188
516.707335,-3256.906145,-229.828649,8364.327145
516.707660,-1702.473667,-459.657299,8438.347739
516.707985,-518.144159,0.000000,8734.430116
516.708310,-1036.288319,612.876398,9548.656652
516.708635,0.000000,1532.190996,8956.491898
516.708960,222.061783,1455.581446,8882.471304
516.709285,74.020594,-229.828649,7698.141797
516.709610,0.000000,306.438199,8512.368333
516.709935,-592.164754,842.705048,9252.574275
516.710260,-74.020594,919.314598,8364.327145
516.710585,444.123565,-1302.362347,9770.718434
516.710910,740.205942,-1302.362347,9844.739029
516.711235,74.020594,689.485948,9844.739029
516.711560,-962.267725,1072.533697,10140.821405
516.711886,-370.102971,-536.266849,8956.491898
516.712211,-592.164754,-2298.286494,8068.244768
516.712536,-1628.453072,-2451.505594,8438.347739
516.712861,-1924.535449,-612.876398,10436.903782
516.713186,-1258.350101,-306.438199,10807.006753
516.713511,0.000000,-1915.238745,10881.027347
516.713836,444.123565,-1991.848295,11325.150913
516.714161,1850.514855,612.876398,9400.615463
516.714486,2294.638420,2451.505594,8956.491898
516.714811,2812.782580,76.609550,7772.162391
516.715136,2220.617826,-536.266849,7994.224174
516.715461,1628.453072,612.876398,10362.883188
516.715786,1332.370696,1225.752797,10881.027347
516.716111,444.123565,-766.095498,10214.842000
516.716437,888.247130,-2145.067394,9178.553681
516.716762,1998.556043,1072.533697,8142.265362
516.717087,1850.514855,3370.820191,9030.512492
516.717412,1702.473667,2604.724693,7920.203579
516.717737,518.144159,842.705048,8068.244768
516.718062,-296.082377,459.657299,7402.059420
516.718387,-222.061783,2451.505594,9178.553681
516.718712,-592.164754,1302.362347,9992.780217
516.719037,-2738.761985,-842.705048,10140.821405
516.719362,-2368.659014,-919.314598,9770.718434
516.719687,0.000000,766.095498,10362.883188
516.720012,-592.164754,2145.067394,9474.636058
516.720337,-2072.576638,1532.190996,7698.141797
516.720662,-666.185348,1455.581446,8364.327145
516.720987,370.102971,2374.896044,10066.800811
516.721313,-740.205942,2834.553343,9696.697840
516.721638,-1036.288319,766.095498,8216.285956
516.721963,222.061783,919.314598,7772.162391
516.722288,2072.576638,3294.210641,9178.553681
516.722613,1776.494261,4443.353888,11621.233289
516.722938,222.061783,2451.505594,10732.986159
516.723263,-296.082377,1225.752797,8512.368333
516.723588,-592.164754,229.828649,7624.121203
516.723913,-740.205942,919.314598,9696.697840
516.724238,-2294.638420,766.095498,9400.615463
516.724563,-2146.597232,0.000000,9030.512492
516.724888,148.041188,-919.314598,8586.388927
516.725213,518.144159,1762.019645,9918.759623
516.725538,370.102971,3217.601092,8660.409521
516.725863,370.102971,2145.067394,7476.080014
516.726189,1036.288319,-919.314598,7476.080014
516.726514,666.185348,459.657299,8882.471304
516.726839,592.164754,1149.143247,10140.821405
516.727164,-296.082377,612.876398,9474.636058
516.727489,-1110.308913,-1915.238745,9030.512492
516.727814,-222.061783,-2374.896044,9844.739029
516.728139,1628.453072,-842.705048,10362.883188
516.728464,1184.329507,536.266849,10658.965565
516.728789,888.247130,-459.657299,10732.986159
516.729114,2516.700203,-1378.971896,9252.574275
516.729439,2072.576638,-612.876398,9622.677246
516.729764,-1110.308913,-383.047749,10732.986159
516.730089,-1554.432478,-995.924147,9178.553681
516.730414,370.102971,-1225.752797,8364.327145
516.730740,1776.494261,-1302.362347,9474.636058
516.731065,296.082377,-229.828649,10214.842000
516.731390,-1628.453072,153.219100,8956.491898
516.731715,-962.267725,-383.047749,9326.594869
516.732040,-814.226536,-3294.210641,9474.636058
516.732365,-3330.926739,-3217.601092,9548.656652
516.732690,-3478.967927,-919.314598,9770.718434
516.733015,-1702.473667,536.266849,9696.697840
516.733340,-592.164754,-2298.286494,8882.471304
516.733665,222.061783,-1991.848295,9030.512492
516.733990,592.164754,1991.848295,9030.512492
516.734315,1258.350101,4903.011187,9326.594869
516.734640,3701.029710,2528.115143,9178.553681
516.734965,2886.803174,536.266849,9326.594869
516.735290,1110.308913,2068.457845,7402.059420
516.735616,0.000000,3140.991542,7698.141797
516.735941,1036.288319,1532.190996,9474.636058
516.736266,0.000000,306.438199,9770.718434
516.736591,-370.102971,842.705048,10066.800811
516.736916,-1036.288319,2604.724693,11917.315666
516.737241,-1036.288319,2681.334243,9844.739029
516.737566,-1036.288319,1072.533697,7476.080014
516.737891,-518.144159,153.219100,7254.018232
516.738216,-1480.411884,3064.381992,8438.347739
516.738541,-1998.556043,4366.744339,8438.347739
516.738866,-1258.350101,1838.629195,8660.409521
516.739191,-666.185348,-153.219100,8882.471304
516.739516,-1036.288319,2987.772442,8882.471304
516.739841,-666.185348,5362.668486,10066.800811
516.740167,-1036.288319,919.314598,9104.533087
516.740492,-1480.411884,-2987.772442,6883.915261
516.740817,-2294.638420,-1302.362347,9474.636058
516.741142,-1702.473667,2221.676944,9918.759623
516.741467,-1110.308913,1838.629195,10658.965565
516.741792,1702.473667,-1838.629195,10584.944971
516.742117,3330.926739,-229.828649,10436.903782
516.742442,3849.070898,2681.334243,9992.780217
516.742767,5255.462188,4673.182538,8216.285956
516.743092,5403.503377,2298.286494,7402.059420
516.743417,3997.112087,1072.533697,7920.203579
516.743742,3182.885551,2451.505594,10436.903782
516.744067,2072.576638,2068.457845,11103.089130
516.744392,0.000000,-1608.800546,9548.656652
516.744717,-1924.535449,-3524.039291,9548.656652
516.745043,-1110.308913,-2221.676944,10214.842000
516.745368,-1036.288319,229.828649,11103.089130
516.745693,-1184.329507,-919.314598,9992.780217
516.746018,-2220.617826,-2451.505594,8512.368333
516.746343,-1628.453072,-1762.019645,7624.121203
516.746668,-296.082377,766.095498,8586.388927
516.746993,-1924.535449,995.924147,9770.718434
516.747318,-1998.556043,-612.876398,8734.430116
516.747643,-740.205942,-2374.896044,7698.141797
516.747968,-740.205942,-1072.533697,9104.533087
516.748293,-1406.391290,1532.190996,9696.697840
516.748618,-2442.679609,536.266849,9326.594869
516.748943,-2368.659014,-2068.457845,9030.512492
516.749268,-1998.556043,-3294.210641,10510.924376
516.749594,-1702.473667,-1072.533697,10436.903782
516.749919,-1776.494261,995.924147,8882.471304
516.750244,0.000000,-1149.143247,8586.388927
516.750569,1036.288319,-1685.410096,8882.471304
516.750894,2072.576638,2068.457845,10658.965565
516.751219,2368.659014,3140.991542,11029.068536
516.751544,1628.453072,1608.800546,7772.162391
516.751869,1184.329507,0.000000,7846.182985
516.752194,518.144159,919.314598,9548.656652
516.752519,0.000000,2145.067394,8956.491898
516.752844,-1184.329507,229.828649,9474.636058
516.753169,74.020594,-1225.752797,10140.821405
516.753494,74.020594,919.314598,9770.718434
516.753819,148.041188,2145.067394,9474.636058
516.754144,-296.082377,1302.362347,9178.553681
516.754470,-666.185348,76.609550,7624.121203
516.754795,-222.061783,306.438199,8956.491898
516.755120,-296.082377,306.438199,9992.780217
516.755445,-2368.659014,1302.362347,9178.553681
516.755770,-1332.370696,766.095498,9696.697840
516.756095,740.205942,-842.705048,9400.615463
516.756420,740.205942,383.047749,7920.203579
516.756745,222.061783,2451.505594,9844.739029
516.757070,1184.329507,3064.381992,8068.244768
516.757395,1628.453072,1608.800546,7772.162391
516.757720,2072.576638,766.095498,9474.636058
516.758045,2220.617826,2221.676944,9326.594869
516.758370,1480.411884,4060.306139,9400.615463
516.758695,3256.906145,1302.362347,8882.471304
516.759020,4145.153275,-536.266849,9474.636058
516.759346,2368.659014,2451.505594,10658.965565
516.759671,2220.617826,4136.915689,10807.006753
516.759996,2072.576638,1149.143247,9992.780217
516.760321,1406.391290,-1072.533697,9030.512492
516.760646,1036.288319,-383.047749,9252.574275
516.760971,-2590.720797,1532.190996,10436.903782
516.761296,-3478.967927,-612.876398,9400.615463
516.761621,-1850.514855,-2221.676944,9474.636058
516.761946,-1850.514855,0.000000,9844.739029
516.762271,-2960.823768,1455.581446,9474.636058
516.762596,-2812.782580,536.266849,7550.100608
516.762921,-1628.453072,-229.828649,8364.327145
516.763246,-2368.659014,0.000000,9770.718434
516.763571,-2368.659014,0.000000,8142.265362
516.763897,-3182.885551,-995.924147,8660.409521
516.764222,-370.102971,-612.876398,8068.244768
516.764547,-296.082377,1072.533697,9474.636058
516.764872,296.082377,0.000000,9474.636058
516.765197,814.226536,995.924147,9326.594869
516.765522,1036.288319,1455.581446,9770.718434
516.765847,2220.617826,536.266849,7476.080014
516.766172,1332.370696,-306.438199,8660.409521
516.766497,-1554.432478,0.000000,10214.842000
516.766822,-1184.329507,1455.581446,10140.821405
516.767147,370.102971,-919.314598,10881.027347
516.767472,74.020594,-1991.848295,8956.491898
516.767797,0.000000,0.000000,8882.471304
516.768122,-814.226536,2528.115143,10436.903782
516.768447,74.020594,153.219100,8290.306550
516.768773,-1850.514855,-2757.943793,8512.368333
516.769098,-2664.741391,-2604.724693,8956.491898
516.769423,-1480.411884,153.219100,8438.347739
516.769748,74.020594,536.266849,9474.636058
516.770073,814.226536,-536.266849,11769.274478
516.770398,1998.556043,-536.266849,10362.883188
516.770723,3034.844362,1762.019645,10584.944971
516.771048,4071.132681,2145.067394,8882.471304
516.771373,2146.597232,1685.410096,9474.636058
516.771698,518.144159,383.047749,8586.388927
516.772023,1776.494261,-306.438199,8808.450710
516.772348,1776.494261,1149.143247,10140.821405
516.772673,0.000000,1302.362347,9992.780217
516.772998,-592.164754,-229.828649,10140.821405
516.773324,888.247130,-383.047749,8068.244768
516.773649,-666.185348,1838.629195,9992.780217
516.773974,-1036.288319,2528.115143,9844.739029
516.774299,-222.061783,842.705048,7476.080014
516.774624,296.082377,-612.876398,7328.038826
516.774949,-444.123565,1378.971896,9548.656652
516.775274,-2294.638420,2145.067394,9696.697840
516.775599,-2146.597232,76.609550,9030.512492
516.775924,814.226536,0.000000,8364.327145
516.776249,888.247130,1991.848295,10214.842000
516.776574,-592.164754,3907.087040,9770.718434
516.776899,0.000000,2911.162892,7476.080014
516.777224,962.267725,-306.438199,7550.100608
516.777549,-222.061783,1455.581446,8068.244768
516.777874,-1480.411884,2911.162892,9918.759623
516.778200,-222.061783,2757.943793,10510.924376
516.778525,888.247130,995.924147,10066.800811
516.778850,2220.617826,383.047749,9326.594869
516.779175,2368.659014,2987.772442,9178.553681
516.779500,1480.411884,4596.572988,8956.491898
516.779825,1258.350101,2834.553343,8364.327145
516.780150,222.061783,0.000000,8956.491898
516.780475,-1332.370696,0.000000,9474.636058
516.780800,-3404.947333,995.924147,9622.677246
516.781125,-3108.864956,-536.266849,7994.224174
516.781450,-740.205942,-1532.190996,9104.533087
516.781775,222.061783,-536.266849,10510.924376
516.782100,-1850.514855,1915.238745,11029.068536
516.782425,-1998.556043,995.924147,8586.388927
516.782750,0.000000,-1302.362347,6291.750507
516.783076,740.205942,-1149.143247,8142.265362
516.783401,-296.082377,1072.533697,10436.903782
516.783726,-592.164754,1532.190996,10584.944971
516.784051,74.020594,-1455.581446,10140.821405
516.784376,1406.391290,-2834.553343,9326.594869
516.784701,1184.329507,-459.657299,9548.656652
516.785026,222.061783,2221.676944,9030.512492
516.785351,1110.308913,0.000000,9178.553681
516.785676,1332.370696,-2911.162892,9992.780217
516.786001,-222.061783,-1149.143247,11103.089130
516.786326,-666.185348,689.485948,10658.965565
516.786651,-592.164754,-842.705048,8808.450710
516.786976,1184.329507,-2374.896044,9474.636058
516.787301,3034.844362,-536.266849,11251.130318
516.787627,1406.391290,2374.896044,11769.274478
516.787952,0.000000,766.095498,9104.533087
516.788277,1406.391290,-1149.143247,7328.038826
516.788602,1776.494261,-383.047749,7624.121203
516.788927,296.082377,995.924147,9326.594869
516.789252,-1480.411884,842.705048,9400.615463
516.789577,-1924.535449,-306.438199,9326.594869
516.789902,296.082377,-1072.533697,8956.491898
516.790227,222.061783,689.485948,9474.636058
516.790552,-1036.288319,2374.896044,7920.203579
516.790877,-814.226536,2528.115143,7994.224174
516.791202,2664.741391,1149.143247,9104.533087
516.791527,1628.453072,1378.971896,9918.759623
516.791852,-1776.494261,1608.800546,9400.615463
516.792177,-962.267725,1378.971896,8216.285956
516.792503,666.185348,995.924147,8808.450710
516.792828,1184.329507,229.828649,10436.903782
516.793153,0.000000,2145.067394,10807.006753
516.793478,592.164754,3907.087040,10288.862594
516.793803,814.226536,2604.724693,9252.574275
516.794128,-296.082377,383.047749,8290.306550
516.794453,-1258.350101,0.000000,8068.244768
516.794778,-370.102971,2451.505594,9030.512492
516.795103,-296.082377,2681.334243,10584.944971
516.795428,592.164754,612.876398,10955.047942
516.795753,1406.391290,1225.752797,9770.718434
516.796078,1036.288319,2451.505594,8660.409521
516.796403,1184.329507,3907.087040,8660.409521
516.796728,666.185348,2911.162892,8142.265362
516.797054,962.267725,919.314598,6513.812290
516.797379,1036.288319,1608.800546,7846.182985
516.797704,-1554.432478,2374.896044,9030.512492
516.798029,-2812.782580,1072.533697,8808.450710
516.798354,-740.205942,-689.485948,8364.327145
516.798679,-444.123565,-689.485948,9844.739029
516.799004,-518.144159,1149.143247,9622.677246
516.799329,-296.082377,2298.286494,9030.512492
516.799654,0.000000,0.000000,9844.739029
516.799979,-1036.288319,-1149.143247,9696.697840
516.800304,-1184.329507,-1685.410096,8808.450710
516.800629,-740.205942,-459.657299,9326.594869
516.800954,-444.123565,0.000000,10066.800811
516.801279,222.061783,-612.876398,10658.965565
516.801604,1480.411884,-229.828649,9474.636058
516.801930,74.020594,383.047749,9918.759623
516.802255,-814.226536,766.095498,9622.677246
516.802580,0.000000,-536.266849,8290.306550
516.802905,-222.061783,-2451.505594,8956.491898
516.803230,-888.247130,-1532.190996,11473.192101
516.803555,-2368.659014,76.609550,11177.109724
516.803880,-1628.453072,-1302.362347,8586.388927
516.804205,592.164754,-3447.429741,7624.121203
516.804530,1480.411884,0.000000,9252.574275
516.804855,740.205942,3677.258390,10732.986159
516.805181,888.247130,2145.067394,9696.697840
516.805506,888.247130,-2298.286494,7550.100608
516.805831,2368.659014,-1072.533697,7994.224174
516.806156,0.000000,3447.429741,9030.512492
516.806481,-1406.391290,2298.286494,8808.450710
516.806806,296.082377,-2145.067394,8586.388927
516.807131,1480.411884,-2451.505594,10214.842000
516.807457,592.164754,1302.362347,12065.356855
516.807782,-814.226536,2068.457845,9770.718434
516.808107,-962.267725,-842.705048,8364.327145
516.808432,-370.102971,-2911.162892,8882.471304
516.808757,-1184.329507,-76.609550,9326.594869
516.809082,-2146.597232,2374.896044,9474.636058
516.809407,-666.185348,459.657299,7698.141797
516.809732,518.144159,-689.485948,6809.894666
516.810058,962.267725,536.266849,9400.615463
516.810383,888.247130,3983.696590,11399.171507
516.810708,222.061783,2987.772442,10510.924376
516.811033,814.226536,-1072.533697,8808.450710
516.811358,1184.329507,-2145.067394,9326.594869
516.811683,962.267725,2068.457845,11325.150913
516.812008,0.000000,3753.867940,10658.965565
516.812334,148.041188,-536.266849,9474.636058
516.812659,1776.494261,-2528.115143,9252.574275
516.812984,1998.556043,3064.381992,10288.862594
516.813309,2368.659014,6128.763984,9992.780217
516.813634,2516.700203,2987.772442,6957.935855
516.813959,1998.556043,-536.266849,6587.832884
516.814284,1036.288319,2681.334243,9104.533087
516.814610,592.164754,5362.668486,9030.512492
516.814935,-814.226536,2528.115143,7105.977043
516.815260,-444.123565,-1762.019645,7550.100608
516.815585,-1554.432478,383.047749,9918.759623
516.815910,-2368.659014,3677.258390,10510.924376
516.816235,-1776.494261,1532.190996,9030.512492
516.816560,-1998.556043,-1838.629195,7254.018232
516.816885,-2812.782580,-1762.019645,8142.265362
516.817211,-2960.823768,1991.848295,9696.697840
516.817536,-2442.679609,1455.581446,9474.636058
516.817861,-1850.514855,-995.924147,8290.306550
516.818186,-592.164754,-1455.581446,9030.512492
516.818511,296.082377,2298.286494,10214.842000
516.818836,1480.411884,3140.991542,10214.842000
516.819161,1850.514855,1455.581446,10807.006753
516.819487,1184.329507,-842.705048,10066.800811
516.819812,0.000000,153.219100,10214.842000
516.820137,-592.164754,383.047749,9696.697840
516.820462,-740.205942,-383.047749,9992.780217
516.820787,-444.123565,-1302.362347,9400.615463
516.821112,-1110.308913,-919.314598,9400.615463
516.821437,-592.164754,306.438199,9178.553681
516.821762,666.185348,1455.581446,8882.471304
516.822088,1036.288319,1455.581446,8734.430116
516.822413,222.061783,0.000000,8068.244768
516.822738,0.000000,-536.266849,7772.162391
516.823063,-814.226536,306.438199,8734.430116
516.823388,0.000000,0.000000,8882.471304
516.823713,370.102971,-612.876398,9844.739029
516.824038,-148.041188,-1608.800546,9474.636058
516.824364,1258.350101,0.000000,9030.512492
516.824689,3701.029710,766.095498,10510.924376
516.825014,2220.617826,1149.143247,10584.944971
516.825339,1480.411884,-1225.752797,8882.471304
516.825664,2072.576638,-1378.971896,9030.512492
516.825989,740.205942,76.609550,10955.047942
516.826314,-740.205942,229.828649,10584.944971
516.826639,0.000000,-1072.533697,10214.842000
516.826965,148.041188,-1532.190996,9770.718434
516.827290,0.000000,76.609550,9400.615463
516.827615,-666.185348,919.314598,9992.780217
516.827940,-888.247130,766.095498,8216.285956
516.828265,-370.102971,0.000000,8290.306550
516.828590,-1480.411884,-383.047749,9918.759623
516.828915,-1480.411884,-306.438199,9104.533087
516.829241,-1628.453072,229.828649,8734.430116
516.829566,-518.144159,-229.828649,7476.080014
516.829891,-444.123565,1685.410096,8882.471304
516.830216,814.226536,2604.724693,9030.512492
516.830541,1480.411884,3524.039291,9474.636058
516.830866,1554.432478,1378.971896,8882.471304
516.831191,1332.370696,1072.533697,7550.100608
516.831516,1184.329507,2757.943793,9622.677246
516.831842,666.185348,2911.162892,10436.903782
516.832167,296.082377,1072.533697,10214.842000
516.832492,1554.432478,306.438199,9474.636058
516.832817,1850.514855,1838.629195,9770.718434
516.833142,370.102971,3983.696590,9474.636058
516.833467,-222.061783,3677.258390,8808.450710
516.833792,666.185348,1455.581446,8512.368333
516.834118,-666.185348,1225.752797,7550.100608
516.834443,-3256.906145,1915.238745,7846.182985
516.834768,-3923.091493,2221.676944,7550.100608
516.835093,-2664.741391,536.266849,7254.018232
516.835418,-2368.659014,-1225.752797,9844.739029
516.835743,-1924.535449,76.609550,11843.295072
516.836068,-3923.091493,1378.971896,11103.089130
516.836393,-3034.844362,-995.924147,8882.471304
516.836719,-740.205942,-2145.067394,8216.285956
516.837044,-1258.350101,383.047749,9400.615463
516.837369,-2294.638420,2068.457845,8956.491898
516.837694,1036.288319,153.219100,8808.450710
516.838019,3182.885551,-306.438199,9696.697840
516.838344,3182.885551,1302.362347,11843.295072
516.838669,1850.514855,2911.162892,10807.006753
516.838995,2664.741391,1532.190996,9030.512492
516.839320,4219.173869,-1455.581446,9030.512492
516.839645,3775.050304,-766.095498,7994.224174
516.839970,2072.576638,1608.800546,9252.574275
516.840295,1554.432478,1225.752797,9474.636058
516.840620,592.164754,-1149.143247,9844.739029
516.840945,222.061783,-3140.991542,9400.615463
516.841271,74.020594,-1378.971896,9030.512492
516.841596,-888.247130,383.047749,8956.491898
516.841921,-1332.370696,-459.657299,8216.285956
516.842246,0.000000,-2374.896044,9326.594869
516.842571,-1184.329507,-2451.505594,10436.903782
516.842896,-3108.864956,-383.047749,10288.862594
516.843221,-2738.761985,-995.924147,9252.574275
516.843546,-1332.370696,-2451.505594,8364.327145
516.843872,518.144159,-2757.943793,9992.780217
516.844197,-296.082377,1532.190996,11621.233289
516.844522,296.082377,1838.629195,9918.759623
516.844847,1628.453072,-1072.533697,9252.574275
516.845172,888.247130,-1685.410096,8882.471304
516.845497,666.185348,2145.067394,9474.636058
516.845822,814.226536,2681.334243,9104.533087
516.846148,666.185348,536.266849,9326.594869
516.846473,1406.391290,-1302.362347,9326.594869
516.846798,2664.741391,1915.238745,9252.574275
516.847123,2516.700203,4749.792088,8808.450710
516.847448,1628.453072,3217.601092,8512.368333
516.847773,1702.473667,1378.971896,9104.533087
516.848098,1036.288319,1685.410096,9030.512492
516.848423,-814.226536,2451.505594,8512.368333
516.848749,-1036.288319,1762.019645,8068.244768
516.849074,-1184.329507,766.095498,8586.388927
516.849399,-1258.350101,612.876398,8956.491898
516.849724,-1850.514855,1608.800546,9770.718434
516.850049,-1110.308913,2604.724693,9918.759623
516.850374,-1554.432478,2068.457845,9104.533087
516.850699,-1406.391290,1532.190996,8512.368333
516.851025,-1258.350101,1149.143247,8956.491898
516.851350,-1776.494261,1762.019645,8956.491898
516.851675,-1924.535449,1762.019645,9030.512492
516.852000,-962.267725,1225.752797,10140.821405
516.852325,-1332.370696,766.095498,10362.883188
516.852650,-148.041188,1762.019645,9770.718434
516.852975,888.247130,1915.238745,9104.533087
516.853300,296.082377,1991.848295,8586.388927
516.853626,-444.123565,689.485948,8068.244768
516.853951,518.144159,383.047749,7624.121203
516.854276,888.247130,1225.752797,8586.388927
516.854601,-370.102971,2298.286494,10658.965565
516.854926,296.082377,1072.533697,10140.821405
516.855251,1332.370696,0.000000,8364.327145
516.855576,2368.659014,229.828649,8364.327145
516.855902,1184.329507,2451.505594,9548.656652
516.856227,-666.185348,2145.067394,8734.430116
516.856552,0.000000,-1532.190996,7846.182985
516.856877,1184.329507,-2757.943793,9474.636058
516.857202,-740.205942,-459.657299,11399.171507
516.857527,-1628.453072,-536.266849,10658.965565
516.857852,1406.391290,-2681.334243,9252.574275
516.858177,962.267725,-2911.162892,11029.068536
516.858503,370.102971,-306.438199,11843.295072
516.858828,0.000000,1302.362347,9474.636058
516.859153,814.226536,-1532.190996,8142.265362
516.859478,1184.329507,-2145.067394,6883.915261
516.859803,-444.123565,0.000000,10658.965565
516.860128,-1628.453072,842.705048,10214.842000
516.860453,-740.205942,-1302.362347,8068.244768
516.860779,-370.102971,-4060.306139,9696.697840
516.861104,-444.123565,-1225.752797,10584.944971
516.861429,-518.144159,2451.505594,9622.677246
516.861754,888.247130,0.000000,7624.121203
516.862079,518.144159,-2834.553343,8068.244768
516.862404,592.164754,-229.828649,9474.636058
516.862729,740.205942,3140.991542,10658.965565
516.863055,518.144159,1378.971896,8586.388927
516.863380,0.000000,-2451.505594,7624.121203
516.863705,1036.288319,-842.705048,9474.636058
516.864030,2294.638420,4213.525239,11473.192101
516.864355,814.226536,2681.334243,11103.089130
516.864680,-1702.473667,-1225.752797,8956.491898
516.865005,-1776.494261,-1991.848295,7698.141797
516.865330,-1702.473667,919.314598,8956.491898
516.865656,-1702.473667,1532.190996,8438.347739
516.865981,-1776.494261,306.438199,7846.182985
516.866306,-592.164754,842.705048,9474.636058
516.866631,814.226536,3753.867940,10214.842000
516.866956,1184.329507,4673.182538,8512.368333
516.867281,0.000000,2911.162892,7031.956449
516.867606,148.041188,1762.019645,5181.441594
516.867932,444.123565,2911.162892,8216.285956
516.868257,-740.205942,2987.772442,11399.171507
516.868582,-2886.803174,1225.752797,10214.842000
516.868907,-1924.535449,-536.266849,9844.739029
516.869232,888.247130,-306.438199,9918.759623
516.869557,296.082377,2068.457845,10214.842000
516.869882,74.020594,3217.601092,10732.986159
516.870207,1406.391290,2451.505594,9622.677246
516.870533,2590.720797,1149.143247,8660.409521
516.870858,814.226536,2451.505594,8290.306550
516.871183,0.000000,3370.820191,8512.368333
516.871508,-962.267725,2681.334243,8290.306550
516.871833,1110.308913,919.314598,8882.471304
516.872158,444.123565,229.828649,9992.780217
516.872483,-962.267725,919.314598,9548.656652
516.872809,-2368.659014,919.314598,9622.677246
516.873134,-1628.453072,-1302.362347,8956.491898
516.873459,-2146.597232,-2911.162892,8808.450710
516.873784,-2812.782580,-2834.553343,9326.594869
516.874109,-2294.638420,-383.047749,8660.409521
516.874434,-888.247130,-459.657299,9400.615463
516.874759,1184.329507,-689.485948,9844.739029
516.875084,1924.535449,-153.219100,9326.594869
516.875410,2072.576638,1378.971896,8586.388927
516.875735,2960.823768,2298.286494,8882.471304
516.876060,3775.050304,1225.752797,9252.574275
516.876385,1924.535449,-459.657299,9622.677246
516.876710,-518.144159,-1225.752797,8808.450710
516.877035,-518.144159,-766.095498,9548.656652
516.877360,-222.061783,-1991.848295,9770.718434
516.877686,-666.185348,-2451.505594,10066.800811
516.878011,-592.164754,-2298.286494,10066.800811
516.878336,-888.247130,229.828649,10732.986159
516.878661,592.164754,-459.657299,9992.780217
516.878986,518.144159,-1455.581446,8956.491898
516.879311,74.020594,-1762.019645,8660.409521
516.879636,-1184.329507,612.876398,9918.759623
516.879961,-1036.288319,689.485948,10510.924376
516.880287,1628.453072,-1149.143247,9104.533087
516.880612,148.041188,-995.924147,9696.697840
516.880937,592.164754,459.657299,9178.553681
516.881262,-222.061783,2451.505594,10214.842000
516.881587,-296.082377,153.219100,9400.615463
516.881912,-1036.288319,-1762.019645,8808.450710
516.882237,-1998.556043,-1838.629195,8882.471304
516.882563,-1480.411884,689.485948,8882.471304
516.882888,-444.123565,2374.896044,9400.615463
516.883213,-222.061783,0.000000,8956.491898
516.883538,0.000000,229.828649,7254.018232
516.883863,2738.761985,2834.553343,7698.141797
516.884188,1480.411884,5362.668486,8512.368333
516.884513,1036.288319,2834.553343,8068.244768
516.884838,0.000000,536.266849,8586.388927
516.885164,296.082377,1455.581446,10214.842000
516.885489,-740.205942,2757.943793,11473.192101
516.885814,-1258.350101,612.876398,9252.574275
516.886139,-888.247130,-1455.581446,7994.224174
516.886464,-592.164754,536.266849,10807.006753
516.886789,-740.205942,3600.648841,11547.212695
516.887114,1184.329507,3217.601092,9548.656652
516.887440,0.000000,459.657299,9992.780217
516.887765,0.000000,919.314598,8660.409521
516.888090,-592.164754,2757.943793,9474.636058
516.888415,-444.123565,2528.115143,10066.800811
516.888740,-1480.411884,459.657299,8364.327145
516.889065,-1258.350101,-306.438199,8290.306550
516.889390,1480.411884,1685.410096,8438.347739
516.889716,-370.102971,3677.258390,9992.780217
516.890041,-2516.700203,1608.800546,8438.347739
516.890366,-1406.391290,-1608.800546,6513.812290
516.890691,222.061783,-229.828649,7846.182985
516.891016,-1628.453072,2451.505594,9622.677246
516.891341,-1110.308913,1991.848295,9104.533087
516.891666,1258.350101,-1455.581446,7179.997637
516.891991,2220.617826,-842.705048,9252.574275
516.892317,1850.514855,2451.505594,11103.089130
516.892642,1702.473667,4136.915689,10955.047942
516.892967,2590.720797,-383.047749,8438.347739
516.893292,3034.844362,-1915.238745,7994.224174
516.893617,1184.329507,153.219100,10658.965565
516.893942,74.020594,2834.553343,9178.553681
516.894267,740.205942,-459.657299,9474.636058
516.894593,296.082377,-3907.087040,10510.924376
516.894918,1184.329507,-766.095498,9918.759623
516.895243,814.226536,3524.039291,12213.398043
516.895568,-518.144159,1532.190996,10807.006753
516.895893,-296.082377,-2834.553343,6809.894666
516.896218,740.205942,-2834.553343,8586.388927
516.896543,-1110.308913,1685.410096,10658.965565
516.896868,-2738.761985,1991.848295,9770.718434
516.897194,-1850.514855,-2068.457845,9400.615463
516.897519,-296.082377,-2374.896044,8808.450710
516.897844,-666.185348,306.438199,8734.430116
516.898169,-1110.308913,2221.676944,8142.265362
516.898494,888.247130,1149.143247,8142.265362
516.898819,1332.370696,-459.657299,9992.780217
516.899144,0.000000,0.000000,10732.986159
516.899470,-222.061783,1072.533697,9104.533087
516.899795,-296.082377,306.438199,6883.915261
516.900120,1554.432478,229.828649,7920.203579
516.900445,2812.782580,1072.533697,10436.903782
516.900770,2146.597232,2451.505594,11177.109724
516.901095,666.185348,1762.019645,9918.759623
516.901420,962.267725,0.000000,9252.574275
516.901745,296.082377,459.657299,8290.306550
516.902071,-1628.453072,612.876398,8142.265362
516.902396,-1332.370696,1455.581446,10066.800811
516.902721,-666.185348,1302.362347,10214.842000
516.903046,-444.123565,76.609550,9326.594869
516.903371,-666.185348,0.000000,8734.430116
516.903696,-1406.391290,1915.238745,8808.450710
516.904021,-1776.494261,3217.601092,9252.574275
516.904347,0.000000,229.828649,10732.986159
516.904672,-1184.329507,-1532.190996,10214.842000
516.904997,-2960.823768,153.219100,8068.244768
516.905322,-2368.659014,1225.752797,8290.306550
516.905647,-1702.473667,306.438199,8068.244768
516.905972,-1924.535449,-229.828649,9474.636058
516.906297,-1036.288319,76.609550,10288.862594
516.906622,-592.164754,2374.896044,10066.800811
516.906947,-740.205942,1225.752797,8808.450710
516.907272,0.000000,153.219100,5995.668130
516.907597,444.123565,76.609550,5847.626942
516.907922,962.267725,1915.238745,8512.368333
516.908248,1776.494261,2987.772442,10288.862594
516.908573,1406.391290,689.485948,11325.150913
516.908898,3034.844362,-2604.724693,10436.903782
516.909223,3108.864956,0.000000,11029.068536
516.909548,2220.617826,1455.581446,10584.944971
516.909873,1110.308913,-306.438199,9326.594869
516.910198,74.020594,-2834.553343,10288.862594
516.910523,-222.061783,-1838.629195,11251.130318
516.910848,-222.061783,1302.362347,9548.656652
516.911173,-1332.370696,229.828649,8660.409521
516.911498,74.020594,-2068.457845,8290.306550
516.911823,1110.308913,-766.095498,9474.636058
516.912149,1184.329507,2681.334243,11325.150913
516.912474,1332.370696,995.924147,9770.718434
516.912799,-888.247130,-1378.971896,7105.977043
516.913124,-1110.308913,0.000000,7031.956449
516.913449,666.185348,1685.410096,9252.574275
516.913774,148.041188,689.485948,9770.718434
516.914099,-962.267725,-1532.190996,8290.306550
516.914424,-740.205942,0.000000,8660.409521
516.914749,1258.350101,2374.896044,8438.347739
516.915074,1554.432478,3447.429741,8808.450710
516.915399,592.164754,1838.629195,8068.244768
516.915725,1480.411884,1072.533697,7698.141797
516.916050,1850.514855,3217.601092,7624.121203
516.916375,1702.473667,2911.162892,9104.533087
516.916700,-1258.350101,1838.629195,10214.842000
516.917025,-1998.556043,0.000000,9104.533087
516.917350,-1554.432478,-383.047749,9474.636058
516.917675,-370.102971,76.609550,10955.047942
516.918000,-2146.597232,1838.629195,12065.356855
516.918325,-1702.473667,689.485948,10140.821405
516.918650,-740.205942,-1302.362347,10066.800811
516.918975,-1406.391290,-995.924147,11177.109724
516.919300,-1850.514855,1532.190996,10436.903782
516.919626,-888.247130,1762.019645,8734.430116
516.919951,1554.432478,383.047749,7476.080014
516.920276,2516.700203,2298.286494,9622.677246
516.920601,2220.617826,4673.182538,11251.130318
516.920926,666.185348,3983.696590,9844.739029
516.921251,0.000000,76.609550,7179.997637
516.921576,1480.411884,-612.876398,5477.523971
516.921901,-666.185348,2911.162892,8586.388927
516.922226,-2664.741391,1532.190996,7772.162391
516.922551,-4293.194464,-1685.410096,7254.018232
516.922876,-888.247130,-3447.429741,8734.430116
516.923202,0.000000,1225.752797,9918.759623
516.923527,-888.247130,2681.334243,9252.574275
516.923852,-962.267725,229.828649,8512.368333
516.924177,962.267725,-919.314598,8068.244768
516.924502,592.164754,-229.828649,9474.636058
516.924827,0.000000,1378.971896,10436.903782
516.925152,518.144159,536.266849,9252.574275
516.925477,148.041188,-229.828649,10140.821405
516.925802,1776.494261,-1225.752797,12287.418637
516.926127,592.164754,-689.485948,12213.398043
516.926452,-1036.288319,-1225.752797,10436.903782
516.926777,-518.144159,-1532.190996,9992.780217
516.927103,1554.432478,-1149.143247,10436.903782
516.927428,518.144159,-536.266849,10510.924376
516.927753,-740.205942,-995.924147,10658.965565
516.928078,-962.267725,-383.047749,7920.203579
516.928403,1776.494261,153.219100,7994.224174
516.928728,3404.947333,1225.752797,9252.574275
516.929053,1850.514855,2528.115143,9178.553681
516.929378,814.226536,2221.676944,8734.430116
516.929703,1776.494261,306.438199,7179.997637
516.930028,-74.020594,-536.266849,8216.285956
516.930353,-2146.597232,0.000000,7920.203579
516.930678,-1924.535449,766.095498,7031.956449
516.931004,-1776.494261,-995.924147,8882.471304
516.931329,-1332.370696,-1838.629195,9030.512492
516.931654,-666.185348,229.828649,9844.739029
516.931979,148.041188,2298.286494,9326.594869
516.932304,666.185348,1762.019645,8438.347739
516.932629,1332.370696,536.266849,9104.533087
516.932954,0.000000,1225.752797,10214.842000
516.933279,-1110.308913,1302.362347,10066.800811
516.933604,-2368.659014,153.219100,10436.903782
516.933929,-1184.329507,-1072.533697,9030.512492
516.934254,-1332.370696,-536.266849,9844.739029
516.934580,-1036.288319,76.609550,11251.130318
516.934905,-888.247130,1762.019645,12361.439231
516.935230,-518.144159,919.314598,11547.212695
516.935555,-1406.391290,-995.924147,9844.739029
516.935880,148.041188,-1225.752797,7624.121203
516.936205,3034.844362,3677.258390,6883.915261
516.936530,1776.494261,4290.134789,9696.697840
516.936855,2442.679609,1455.581446,9474.636058
516.937180,2664.741391,1302.362347,8364.327145
516.937505,3627.009116,3907.087040,9844.739029
516.937830,3627.009116,4366.744339,7179.997637
516.938155,1776.494261,2068.457845,7698.141797
516.938481,1628.453072,766.095498,7920.203579
516.938806,0.000000,1762.019645,8956.491898
516.939131,-1554.432478,1149.143247,7772.162391
516.939456,-2368.659014,76.609550,7254.018232
516.939781,-814.226536,612.876398,7476.080014
516.940106,-1332.370696,1838.629195,9770.718434
516.940431,-518.144159,689.485948,9992.780217
516.940756,-1332.370696,0.000000,9474.636058
516.941081,-2368.659014,-306.438199,9474.636058
516.941406,-2368.659014,919.314598,9474.636058
516.941731,-1628.453072,-306.438199,10066.800811
516.942057,-2146.597232,-1532.190996,10732.986159
516.942382,-2294.638420,-1072.533697,10584.944971
516.942707,-518.144159,-306.438199,10288.862594
516.943032,2072.576638,536.266849,9844.739029
516.943357,1998.556043,1532.190996,10510.924376
516.943682,592.164754,1302.362347,10658.965565
516.944007,370.102971,0.000000,8808.450710
516.944332,740.205942,-459.657299,7994.224174
516.944657,1184.329507,536.266849,9252.574275
516.944982,-444.123565,1685.410096,9474.636058
516.945307,-370.102971,-383.047749,7328.038826
516.945632,1110.308913,-689.485948,7994.224174
516.945958,1332.370696,1225.752797,9992.780217
516.946283,-370.102971,3217.601092,10288.862594
516.946608,-592.164754,536.266849,7328.038826
516.946933,0.000000,-2145.067394,6291.750507
516.947258,-444.123565,-1072.533697,8364.327145
516.947583,-2220.617826,1072.533697,9178.553681
516.947908,-2960.823768,-689.485948,8586.388927
516.948233,-1184.329507,-2145.067394,7920.203579
516.948558,222.061783,-2221.676944,9030.512492
516.948883,370.102971,1378.971896,12287.418637
516.949208,1332.370696,1762.019645,11547.212695
516.949533,2664.741391,-1072.533697,10288.862594
516.949859,2664.741391,-2374.896044,11029.068536
516.950184,2590.720797,-383.047749,9918.759623
516.950509,1184.329507,1608.800546,10510.924376
516.950834,444.123565,-306.438199,9770.718434
516.951159,296.082377,-2145.067394,9992.780217
516.951484,1406.391290,-1149.143247,10807.006753
516.951809,1480.411884,2681.334243,10362.883188
516.952134,1110.308913,2451.505594,9030.512492
516.952459,1036.288319,153.219100,7105.977043
516.952784,1036.288319,0.000000,7624.121203
516.953109,-1702.473667,1991.848295,8438.347739
516.953435,-2738.761985,2068.457845,6661.853478
516.953760,0.000000,-919.314598,5921.647536
516.954085,814.226536,-612.876398,8438.347739
516.954410,-1110.308913,2145.067394,11177.109724
516.954735,-592.164754,2604.724693,9992.780217
516.955060,740.205942,153.219100,8882.471304
516.955385,0.000000,-919.314598,9030.512492
516.955710,-1480.411884,1455.581446,8734.430116
516.956035,-740.205942,2604.724693,9326.594869
516.956360,-370.102971,842.705048,9844.739029
516.956685,444.123565,306.438199,9548.656652
516.957010,592.164754,2298.286494,10288.862594
516.957336,1036.288319,3064.381992,9326.594869
516.957661,0.000000,2987.772442,10658.965565
516.957986,592.164754,1149.143247,10881.027347
516.958311,1036.288319,1532.190996,9178.553681
516.958636,-1480.411884,1225.752797,9918.759623
516.958961,-2220.617826,1762.019645,8512.368333
516.959286,-1776.494261,1302.362347,7772.162391
516.959611,-2516.700203,-306.438199,9622.677246
516.959936,-2738.761985,-766.095498,8808.450710
516.960261,-2442.679609,1685.410096,9104.533087
516.960586,-1332.370696,2757.943793,10436.903782
516.960911,74.020594,1685.410096,9400.615463
516.961237,-1332.370696,-689.485948,7994.224174
516.961562,-1554.432478,-689.485948,6587.832884
516.961887,-1332.370696,2528.115143,7698.141797
516.962212,370.102971,1608.800546,8586.388927
516.962537,1998.556043,612.876398,8882.471304
516.962862,1776.494261,-76.609550,9474.636058
516.963187,814.226536,2681.334243,10140.821405
516.963512,2146.597232,2451.505594,9696.697840
516.963837,3108.864956,153.219100,8290.306550
516.964162,1332.370696,-536.266849,9252.574275
516.964487,296.082377,1532.190996,9696.697840
516.964813,1332.370696,1838.629195,10436.903782
516.965138,2072.576638,-1608.800546,9104.533087
516.965463,444.123565,-2528.115143,8068.244768
516.965788,148.041188,-383.047749,11177.109724
516.966113,1036.288319,2987.772442,12287.418637
516.966438,888.247130,-306.438199,11177.109724
516.966763,-740.205942,-3140.991542,10066.800811
516.967088,-740.205942,-2528.115143,9030.512492
516.967413,-296.082377,1455.581446,8512.368333
516.967738,740.205942,459.657299,8734.430116
516.968063,1406.391290,-1302.362347,10510.924376
516.968388,1628.453072,612.876398,11547.212695
516.968714,2664.741391,2911.162892,9474.636058
516.969039,2590.720797,1991.848295,7698.141797
516.969364,1036.288319,-153.219100,6809.894666
516.969689,-148.041188,383.047749,7328.038826
516.970014,-592.164754,1532.190996,9918.759623
516.970339,-2368.659014,689.485948,9696.697840
516.970664,-5033.400406,-2604.724693,9548.656652
516.970989,-3849.070898,-3600.648841,5995.668130
516.971314,-1702.473667,-229.828649,7846.182985
516.971639,-2146.597232,383.047749,11177.109724
516.971964,-3849.070898,0.000000,10288.862594
516.972290,-2368.659014,-3600.648841,7550.100608
516.972615,0.000000,-2221.676944,8364.327145
516.972940,518.144159,1608.800546,8586.388927
516.973265,-1702.473667,2221.676944,9474.636058
516.973590,444.123565,-1915.238745,8660.409521
516.973915,1554.432478,-2911.162892,9252.574275
516.974240,1332.370696,-689.485948,11399.171507
516.974565,74.020594,2757.943793,11917.315666
516.974890,-370.102971,766.095498,11103.089130
516.975215,-518.144159,-2757.943793,9252.574275
516.975540,-296.082377,-4366.744339,9104.533087
516.975865,-2664.741391,-1149.143247,10955.047942
516.976191,-4441.235652,1149.143247,10436.903782
516.976516,-2738.761985,-1378.971896,9400.615463
516.976841,-1850.514855,-4443.353888,9474.636058
516.977166,-2442.679609,-2681.334243,9474.636058
516.977491,-4959.379811,3064.381992,9622.677246
516.977816,-2664.741391,1838.629195,8956.491898
516.978141,-2664.741391,-2451.505594,9252.574275
516.978466,-3775.050304,-3447.429741,7402.059420
516.978791,-4959.379811,0.000000,6809.894666
516.979116,-4145.153275,919.314598,6809.894666
516.979441,-3849.070898,-1378.971896,8438.347739
516.979766,-2664.741391,-2834.553343,8882.471304
516.980092,-740.205942,229.828649,9474.636058
516.980417,666.185348,2145.067394,7254.018232
516.980742,1998.556043,919.314598,7476.080014
516.981067,3775.050304,919.314598,8734.430116
516.981392,2516.700203,995.924147,9992.780217
516.981717,592.164754,1685.410096,8956.491898
516.982042,1184.329507,536.266849,10955.047942
516.982367,1702.473667,-919.314598,11843.295072
516.982692,-1110.308913,-1532.190996,11843.295072
516.983017,-1776.494261,-2911.162892,9992.780217
516.983342,-962.267725,-1225.752797,9474.636058
516.983668,-2146.597232,1302.362347,10881.027347
516.983993,-2220.617826,0.000000,11177.109724
516.984318,-4219.173869,-2374.896044,8734.430116
516.984643,-4885.359217,-2987.772442,7105.977043
516.984968,-4737.318029,-1915.238745,7920.203579
516.985293,-4737.318029,-1302.362347,10066.800811
516.985618,-5773.606348,-2911.162892,11547.212695
516.985943,-5625.565159,-2987.772442,9918.759623
516.986268,-5033.400406,-4519.963438,8068.244768
516.986593,-4293.194464,-4673.182538,7031.956449
516.986918,-148.041188,153.219100,6217.729913
516.987243,2220.617826,3830.477490,8956.491898
516.987569,2516.700203,2068.457845,9992.780217
516.987894,1924.535449,-766.095498,8142.265362
516.988219,370.102971,-2221.676944,7254.018232
516.988544,-740.205942,-1149.143247,6809.894666
516.988869,-1702.473667,-612.876398,9104.533087
516.989194,0.000000,-2221.676944,11473.192101
516.989519,-666.185348,-3524.039291,12583.501014
516.989844,-3108.864956,-4290.134789,11177.109724
516.990169,-3034.844362,-4673.182538,8068.244768
516.990494,-2146.597232,-2221.676944,7772.162391
516.990819,-3108.864956,-306.438199,9622.677246
516.991145,-2442.679609,-766.095498,11399.171507
516.991470,-1998.556043,-2068.457845,11473.192101
516.991795,-4589.276840,-4060.306139,10140.821405
516.992120,-6217.729913,-5362.668486,8956.491898
516.992445,-7624.121203,-5056.230287,9548.656652
516.992770,-6365.771101,-4136.915689,11843.295072
516.993095,-3775.050304,-3753.867940,12953.603985
516.993420,-3627.009116,-4749.792088,11399.171507
516.993745,-4145.153275,-4443.353888,8068.244768
516.994070,-2368.659014,-1072.533697,6291.750507
516.994395,814.226536,1685.410096,6291.750507
516.994720,3108.864956,2298.286494,7476.080014
516.995046,3775.050304,2298.286494,8586.388927
516.995371,2368.659014,3140.991542,8364.327145
516.995696,1702.473667,2374.896044,7920.203579
516.996021,148.041188,-229.828649,8734.430116
516.996346,-2886.803174,-3064.381992,8438.347739
516.996671,-3404.947333,-2911.162892,9178.553681
516.996996,-2664.741391,-3140.991542,11029.068536
516.997321,-3404.947333,-3983.696590,11251.130318
516.997646,-5033.400406,-3524.039291,9548.656652
516.997971,-4811.338623,-2221.676944,8142.265362
516.998296,-1258.350101,-306.438199,8068.244768
516.998621,0.000000,1149.143247,9474.636058
516.998947,-1258.350101,1149.143247,10140.821405
516.999272,-2220.617826,1532.190996,8512.368333
516.999597,-2220.617826,1685.410096,7772.162391
516.999922,-3997.112087,76.609550,9178.553681
517.000247,-3849.070898,-1455.581446,9474.636058
517.000572,-3701.029710,-2528.115143,10658.965565
517.000897,-5033.400406,-4366.744339,11177.109724
517.001222,-6291.750507,-5975.544884,11029.068536
517.001547,-5403.503377,-7048.078582,10658.965565
517.001872,-3330.926739,-5209.449386,9770.718434
517.002197,-518.144159,-1608.800546,9992.780217
517.002522,1776.494261,153.219100,10214.842000
517.002848,2886.803174,1685.410096,8956.491898
517.003173,3701.029710,2681.334243,7994.224174
517.003498,3256.906145,3830.477490,6661.853478
517.003823,2146.597232,3907.087040,5403.503377
517.004148,0.000000,2987.772442,6883.915261
517.004473,-2516.700203,0.000000,8290.306550
517.004798,-6513.812290,-2528.115143,7994.224174
517.005123,-9252.574275,-5669.106685,8216.285956
517.005448,-9178.553681,-8197.221829,10510.924376
517.005773,-8216.285956,-9193.145976,11029.068536
517.006098,-7328.038826,-7967.393179,12065.356855
517.006423,-3701.029710,-7124.688131,12435.459826
517.006748,-2072.576638,-4213.525239,12065.356855
517.007073,-148.041188,-1378.971896,9992.780217
517.007398,2812.782580,919.314598,8956.491898
517.007723,5033.400406,2145.067394,8956.491898
517.008048,4885.359217,3217.601092,9474.636058
517.008374,4663.297435,4366.744339,9326.594869
517.008699,3701.029710,3294.210641,8438.347739
517.009024,370.102971,1455.581446,8438.347739
517.009349,-2516.700203,0.000000,8068.244768
517.009674,-5403.503377,-1991.848295,8438.347739
517.009999,-7994.224174,-4136.915689,8290.306550
517.010324,-9992.780217,-6511.811733,9104.533087
517.010649,-11029.068536,-8273.831378,8660.409521
517.010974,-11029.068536,-8503.660028,7994.224174
517.011299,-8290.306550,-7277.907231,9104.533087
517.011624,-3849.070898,-4903.011187,10214.842000
517.011949,0.000000,-1685.410096,10955.047942
517.012274,2516.700203,842.705048,11325.150913
517.012599,6217.729913,3370.820191,9622.677246
517.012924,9696.697840,5132.839837,9696.697840
517.013249,10066.800811,5286.058936,8956.491898
517.013575,7105.977043,5056.230287,8290.306550
517.013900,4885.359217,3294.210641,9474.636058
517.014225,2294.638420,1762.019645,10288.862594
517.014550,-2072.576638,-766.095498,11029.068536
517.014875,-6365.771101,-2451.505594,10066.800811
517.015200,-8956.491898,-4826.401637,8956.491898
517.015525,-9844.739029,-7124.688131,9326.594869
517.015850,-10066.800811,-7048.078582,8956.491898
517.016175,-10732.986159,-6205.373534,8734.430116
517.016500,-9770.718434,-4979.620737,7402.059420
517.016825,-6513.812290,-2681.334243,6809.894666
517.017150,-2368.659014,229.828649,8068.244768
517.017475,-592.164754,1455.581446,8438.347739
517.017800,-444.123565,2298.286494,7994.224174
517.018125,814.226536,1762.019645,8142.265362
517.018450,2072.576638,1608.800546,8216.285956
517.018775,1406.391290,995.924147,8734.430116
517.019101,-148.041188,0.000000,9622.677246
517.019426,-1628.453072,-1225.752797,10732.986159
517.019751,-3034.844362,-2681.334243,11991.336260
517.020076,-2812.782580,-4673.182538,12805.562797
517.020401,-3478.967927,-6358.592633,11547.212695
517.020726,-4737.318029,-6128.763984,9844.739029
517.021051,-3552.988522,-5362.668486,10140.821405
517.021376,-1628.453072,-3447.429741,11177.109724
517.021701,-1036.288319,-1149.143247,10584.944971
517.022026,-962.267725,306.438199,9326.594869
517.022351,222.061783,-306.438199,7994.224174
517.022676,1036.288319,612.876398,7624.121203
517.023001,-296.082377,1762.019645,7994.224174
517.023326,-1110.308913,1072.533697,7105.977043
517.023651,-1554.432478,-766.095498,7105.977043
517.023976,-2442.679609,-1072.533697,7624.121203
517.024302,-3552.988522,-1378.971896,8290.306550
517.024627,-4145.153275,-2911.162892,8660.409521
517.024952,-4145.153275,-3524.039291,9030.512492
517.025277,-4293.194464,-4060.306139,9474.636058
517.025602,-3330.926739,-4366.744339,10140.821405
517.025927,-2590.720797,-3753.867940,10288.862594
517.026252,-2072.576638,-2145.067394,9548.656652
517.026577,370.102971,-919.314598,9844.739029
517.026902,1776.494261,383.047749,10658.965565
517.027227,2072.576638,919.314598,10214.842000
517.027552,1776.494261,2068.457845,10436.903782
517.027877,1480.411884,1302.362347,9770.718434
517.028202,444.123565,612.876398,8882.471304
517.028527,148.041188,612.876398,9696.697840
517.028852,-370.102971,1455.581446,10362.883188
517.029177,-1702.473667,1149.143247,10140.821405
517.029502,-2368.659014,-153.219100,11621.233289
517.029828,-2294.638420,-1991.848295,10881.027347
517.030153,-3849.070898,-995.924147,9104.533087
517.030478,-4071.132681,-995.924147,8216.285956
517.030803,-2590.720797,-536.266849,8808.450710
517.031128,-2220.617826,689.485948,8216.285956
517.031453,-2442.679609,766.095498,7550.100608
517.031778,-1924.535449,919.314598,6587.832884
517.032103,-2516.700203,1608.800546,5847.626942
517.032428,-2294.638420,2374.896044,5995.668130
517.032753,0.000000,2451.505594,7328.038826
517.033078,1258.350101,2145.067394,7920.203579
517.033403,-814.226536,1378.971896,7179.997637
517.033728,-1110.308913,153.219100,8068.244768
517.034053,0.000000,76.609550,9104.533087
517.034378,-740.205942,-459.657299,10140.821405
517.034703,-1998.556043,-1608.800546,11251.130318
517.035029,-2220.617826,-2528.115143,11769.274478
517.035354,-2368.659014,-2834.553343,11251.130318
517.035679,-1924.535449,-2528.115143,11177.109724
517.036004,-1850.514855,-2987.772442,11473.192101
517.036329,-3478.967927,-2528.115143,10881.027347
517.036654,-4145.153275,-2451.505594,9696.697840
517.036979,-3330.926739,-2757.943793,10066.800811
517.037304,-3552.988522,-2834.553343,9696.697840
517.037629,-5551.544565,-3447.429741,8216.285956
517.037954,-6513.812290,-3370.820191,7105.977043
517.038279,-6365.771101,-5439.278036,7624.121203
517.038604,-5477.523971,-5898.935335,9326.594869
517.038929,-5181.441594,-5898.935335,9104.533087
517.039254,-5995.668130,-5439.278036,8956.491898
517.039579,-5107.421000,-5822.325785,8512.368333
517.039904,-2368.659014,-6281.983084,9030.512492
517.040229,0.000000,-4903.011187,10288.862594
517.040555,0.000000,-3447.429741,10214.842000
517.040880,0.000000,-3064.381992,9400.615463
517.041205,2886.803174,-2451.505594,10288.862594
517.041530,3404.947333,-1915.238745,10881.027347
517.041855,2442.679609,-1838.629195,10807.006753
517.042180,814.226536,-1915.238745,9844.739029
517.042505,-592.164754,-2374.896044,9622.677246
517.042830,-962.267725,-2451.505594,10510.924376
517.043155,-2442.679609,-3447.429741,10140.821405
517.043480,-4959.379811,-4290.134789,8956.491898
517.043805,-5699.585753,-4749.792088,9030.512492
517.044130,-5477.523971,-4826.401637,10140.821405
517.044455,-5551.544565,-3217.601092,9992.780217
517.044780,-6069.688724,-1991.848295,8808.450710
517.045105,-5773.606348,-1302.362347,8142.265362
517.045430,-4663.297435,-1149.143247,7994.224174
517.045756,-2738.761985,0.000000,8216.285956
517.046081,-3034.844362,842.705048,8290.306550
517.046406,-3552.988522,842.705048,8142.265362
517.046731,-2738.761985,536.266849,8438.347739
517.047056,-1332.370696,383.047749,9030.512492
517.047381,-1258.350101,1072.533697,8956.491898
517.047706,-1332.370696,842.705048,8438.347739
517.048031,-296.082377,689.485948,8364.327145
517.048356,1628.453072,1532.190996,9918.759623
517.048681,2738.761985,2757.943793,10658.965565
517.049006,2590.720797,3447.429741,9844.739029
517.049331,3404.947333,3600.648841,8808.450710
517.049656,4811.338623,4443.353888,9400.615463
517.049981,4737.318029,4903.011187,9474.636058
517.050306,2886.803174,4749.792088,9400.615463
517.050631,888.247130,3677.258390,8956.491898
517.050956,-1110.308913,1838.629195,8586.388927
517.051282,-4515.256246,153.219100,9178.553681
517.051607,-7402.059420,-1685.410096,7920.203579
517.051932,-8290.306550,-2987.772442,8068.244768
517.052257,-8808.450710,-5132.839837,8660.409521
517.052582,-8438.347739,-4366.744339,9030.512492
517.052907,-7105.977043,-3907.087040,9104.533087
517.053232,-4959.379811,-2681.334243,8216.285956
517.053557,-2220.617826,-383.047749,8438.347739
517.053882,0.000000,1072.533697,9252.574275
517.054207,1184.329507,1149.143247,9474.636058
517.054532,1776.494261,459.657299,8438.347739
517.054857,1924.535449,-459.657299,8586.388927
517.055182,1110.308913,-1149.143247,9770.718434
517.055507,-888.247130,-2451.505594,10584.944971
517.055832,-1702.473667,-3753.867940,10362.883188
517.056157,-1702.473667,-5592.497135,11769.274478
517.056482,-1998.556043,-6818.249932,12213.398043
517.056808,-3034.844362,-5745.716235,11399.171507
517.057133,-2072.576638,-5822.325785,11177.109724
517.057458,-1702.473667,-4290.134789,9844.739029
517.057783,-1258.350101,-4213.525239,9844.739029
517.058108,-2368.659014,-3830.477490,9992.780217
517.058433,-3627.009116,-3524.039291,8512.368333
517.058758,-4293.194464,-3370.820191,7772.162391
517.059083,-4219.173869,-3370.820191,8142.265362
517.059408,-5181.441594,-3217.601092,8956.491898
517.059733,-7476.080014,-3983.696590,7846.182985
517.060058,-7105.977043,-5822.325785,7105.977043
517.060383,-7105.977043,-6894.859482,8364.327145
517.060708,-7254.018232,-6511.811733,8216.285956
517.061033,-6069.688724,-5056.230287,8808.450710
517.061358,-3404.947333,-3907.087040,9474.636058
517.061683,-1110.308913,-4443.353888,10510.924376
517.062009,148.041188,-4749.792088,11991.336260
517.062334,962.267725,-3064.381992,11251.130318
517.062659,3108.864956,-995.924147,11103.089130
517.062984,4663.297435,-306.438199,12065.356855
517.063309,4441.235652,536.266849,11177.109724
517.063634,4071.132681,1915.238745,10066.800811
517.063959,2886.803174,3370.820191,9474.636058
517.064284,592.164754,2757.943793,8586.388927
517.064609,-1184.329507,2451.505594,7920.203579
517.064934,-2590.720797,2145.067394,7105.977043
517.065259,-5107.421000,1455.581446,7031.956449
517.065584,-7994.224174,-689.485948,6735.874072
517.065909,-9696.697840,-2604.724693,7476.080014
517.066234,-11251.130318,-3600.648841,8956.491898
517.066559,-11103.089130,-5592.497135,9030.512492
517.066884,-9918.759623,-7354.516781,9622.677246
517.067209,-6143.709319,-5439.278036,11769.274478
517.067535,-1332.370696,-1225.752797,11473.192101
517.067860,2146.597232,1225.752797,10510.924376
517.068185,4959.379811,3064.381992,10288.862594
517.068510,7624.121203,5898.935335,9622.677246
517.068835,8956.491898,8273.831378,7550.100608
517.069160,10140.821405,8044.002729,7179.997637
517.069485,8956.491898,8044.002729,7402.059420
517.069810,4145.153275,7354.516781,8216.285956
517.070135,-1110.308913,3064.381992,9030.512492
517.070460,-5699.585753,-2298.286494,8290.306550
517.070785,-10362.883188,-6128.763984,8068.244768
517.071110,-11991.336260,-7507.735880,8882.471304
517.071435,-11769.274478,-9346.365076,9178.553681
517.071760,-10658.965565,-7890.783629,10436.903782
517.072085,-7105.977043,-5822.325785,10362.883188
517.072410,-2368.659014,-3983.696590,10066.800811
517.072736,2072.576638,689.485948,7772.162391
517.073061,5847.626942,4596.572988,7920.203579
517.073386,7179.997637,5669.106685,10584.944971
517.073711,8068.244768,4290.134789,11547.212695
517.074036,5995.668130,2528.115143,9622.677246
517.074361,2146.597232,0.000000,8216.285956
517.074686,-1332.370696,-2374.896044,8364.327145
517.075011,-3775.050304,-3447.429741,10436.903782
517.075336,-6883.915261,-4060.306139,11917.315666
517.075661,-8734.430116,-7431.126331,11547.212695
517.075986,-9548.656652,-9806.022374,8734.430116
517.076311,-8956.491898,-9422.974625,7476.080014
517.076636,-7105.977043,-5669.106685,7476.080014
517.076961,-5625.565159,-2757.943793,8586.388927
517.077286,-4737.318029,-3217.601092,7846.182985
517.077611,-1258.350101,-3677.258390,8512.368333
517.077936,1554.432478,-1838.629195,9770.718434
517.078262,1776.494261,1302.362347,9252.574275
517.078587,2294.638420,383.047749,9252.574275
517.078912,4145.153275,-1915.238745,9918.759623
517.079237,5773.606348,459.657299,9918.759623
517.079562,3404.947333,2374.896044,11547.212695
517.079887,592.164754,76.609550,10140.821405
517.080212,-1332.370696,-2451.505594,8956.491898
517.080537,-2664.741391,-3447.429741,9696.697840
517.080862,-4219.173869,-2987.772442,11325.150913
517.081187,-6957.935855,-3370.820191,10807.006753
517.081512,-7846.182985,-4519.963438,9992.780217
517.081837,-5921.647536,-6128.763984,10066.800811
517.082162,-4663.297435,-5209.449386,10584.944971
517.082487,-3923.091493,-306.438199,8512.368333
517.082812,-2590.720797,2374.896044,7920.203579
517.083137,-518.144159,306.438199,7105.977043
517.083463,-370.102971,76.609550,7105.977043
517.083788,0.000000,2681.334243,6957.935855
517.084113,2220.617826,4519.963438,6513.812290
517.084438,814.226536,2911.162892,9178.553681
517.084763,1702.473667,1838.629195,8364.327145
517.085088,3256.906145,4903.011187,10732.986159
517.085413,3108.864956,4749.792088,11547.212695
517.085738,518.144159,2145.067394,8808.450710
517.086063,518.144159,-383.047749,7994.224174
517.086388,962.267725,1838.629195,8808.450710
517.086713,-814.226536,3830.477490,10066.800811
517.087038,-1850.514855,1838.629195,9400.615463
517.087363,-1332.370696,-612.876398,9326.594869
517.087688,-222.061783,536.266849,9844.739029
517.088013,1628.453072,3830.477490,8956.491898
517.088338,74.020594,3753.867940,11621.233289
517.088663,-1998.556043,995.924147,11251.130318
517.088989,-666.185348,995.924147,8068.244768
517.089314,1924.535449,2987.772442,8808.450710
517.089639,814.226536,4290.134789,8290.306550
517.089964,-666.185348,3677.258390,7179.997637
517.090289,2368.659014,2298.286494,9326.594869
517.090614,4441.235652,2528.115143,9622.677246
517.090939,2294.638420,2451.505594,9622.677246
517.091264,1628.453072,2068.457845,9030.512492
517.091589,2516.700203,919.314598,8734.430116
517.091914,1628.453072,-536.266849,8882.471304
517.092239,518.144159,-1685.410096,9326.594869
517.092564,740.205942,-383.047749,9474.636058
517.092889,1184.329507,1532.190996,9252.574275
517.093214,2294.638420,1302.362347,9400.615463
517.093539,4293.194464,612.876398,10214.842000
517.093864,4589.276840,2451.505594,8956.491898
517.094190,2072.576638,4060.306139,9400.615463
517.094515,740.205942,2221.676944,8216.285956
517.094840,0.000000,-995.924147,8068.244768
517.095165,-2294.638420,-2451.505594,8142.265362
517.095490,-5995.668130,-2451.505594,8882.471304
517.095815,-8364.327145,-3753.867940,9474.636058
517.096140,-7105.977043,-4826.401637,10140.821405
517.096465,-4885.359217,-6741.640382,11843.295072
517.096790,-5255.462188,-5439.278036,12139.377449
517.097115,-5921.647536,-3753.867940,9474.636058
517.097440,-2886.803174,-2221.676944,8512.368333
517.097765,222.061783,-1302.362347,9252.574275
517.098090,1036.288319,229.828649,9474.636058
517.098415,2368.659014,1915.238745,9474.636058
517.098740,3775.050304,2911.162892,8808.450710
517.099065,5847.626942,1762.019645,8882.471304
517.099390,6809.894666,1991.848295,9548.656652
517.099716,3701.029710,4443.353888,9474.636058
517.100041,888.247130,3217.601092,7994.224174
517.100366,296.082377,-1838.629195,7105.977043
517.100691,0.000000,-2451.505594,7772.162391
517.101016,-2368.659014,306.438199,9992.780217
517.101341,-5033.400406,383.047749,10362.883188
517.101666,-4737.318029,-2757.943793,8956.491898
517.101991,-1184.329507,-4366.744339,9474.636058
517.102316,-1480.411884,76.609550,11547.212695
517.102641,-2294.638420,3447.429741,10214.842000
517.102966,-1332.370696,2681.334243,9548.656652
517.103291,-666.185348,-995.924147,7624.121203
517.103616,-148.041188,-689.485948,8512.368333
517.103941,-296.082377,3217.601092,9252.574275
517.104266,-370.102971,4826.401637,8956.491898
517.104591,888.247130,1685.410096,9326.594869
517.104916,2516.700203,229.828649,10955.047942
517.105241,2368.659014,4290.134789,10436.903782
517.105566,2368.659014,5132.839837,8734.430116
517.105891,1332.370696,1455.581446,7031.956449
517.106216,1776.494261,-612.876398,7550.100608
517.106541,1480.411884,2145.067394,10584.944971
517.106866,518.144159,3064.381992,8438.347739
517.107191,0.000000,766.095498,9178.553681
517.107517,2812.782580,306.438199,9548.656652
517.107842,3256.906145,2987.772442,9030.512492
517.108167,2072.576638,3677.258390,9696.697840
517.108492,3108.864956,3907.087040,8882.471304
517.108817,4219.173869,3830.477490,6735.874072
517.109142,3552.988522,3447.429741,8438.347739
517.109467,2590.720797,3524.039291,9104.533087
517.109792,0.000000,2681.334243,9844.739029
517.110117,74.020594,1532.190996,9252.574275
517.110442,814.226536,229.828649,9770.718434
517.110767,-370.102971,-306.438199,11695.253884
517.111092,-2146.597232,1225.752797,10510.924376
517.111417,-2960.823768,-612.876398,9400.615463
517.111742,-3330.926739,-3370.820191,9252.574275
517.112067,-5699.585753,-2681.334243,9918.759623
517.112392,-4811.338623,-1685.410096,10066.800811
517.112717,-2220.617826,0.000000,9252.574275
517.113042,222.061783,-1608.800546,9474.636058
517.113367,518.144159,-612.876398,10140.821405
517.113692,2072.576638,2068.457845,8808.450710
517.114017,2590.720797,3907.087040,9622.677246
517.114342,2886.803174,2221.676944,9400.615463
517.114667,1258.350101,-306.438199,7105.977043
517.114992,1332.370696,-1149.143247,7476.080014
517.115317,222.061783,766.095498,8956.491898
517.115642,-1702.473667,76.609550,10288.862594
517.115967,-1480.411884,-2451.505594,10140.821405
517.116292,-1110.308913,-2987.772442,9770.718434
517.116617,-1480.411884,-536.266849,9696.697840
517.116942,-1554.432478,766.095498,9252.574275
517.117267,-1036.288319,-1455.581446,7550.100608
517.117592,-2368.659014,-3677.258390,6957.935855
517.117917,-2146.597232,-1225.752797,9030.512492
517.118243,-962.267725,1915.238745,10807.006753
517.118568,888.247130,153.219100,10436.903782
517.118893,222.061783,-1838.629195,9844.739029
517.119218,-814.226536,-1225.752797,10807.006753
517.119543,1110.308913,1915.238745,11473.192101
517.119868,2664.741391,1149.143247,9400.615463
517.120193,148.041188,-1838.629195,9326.594869
517.120518,-444.123565,-1532.190996,8660.409521
517.120843,-1258.350101,2068.457845,9474.636058
517.121168,-1184.329507,536.266849,9992.780217
517.121493,-370.102971,-3600.648841,8512.368333
517.121818,0.000000,-1149.143247,9030.512492
517.122143,1110.308913,3140.991542,10732.986159
517.122468,1776.494261,2911.162892,9474.636058
517.122793,-296.082377,-383.047749,8364.327145
517.123118,-740.205942,-459.657299,7031.956449
517.123443,222.061783,2604.724693,7402.059420
517.123768,1924.535449,3064.381992,8216.285956
517.124093,1406.391290,1072.533697,9548.656652
517.124418,592.164754,536.266849,9030.512492
517.124743,1776.494261,2987.772442,9548.656652
517.125068,2664.741391,3370.820191,9252.574275
517.125393,1406.391290,2374.896044,8586.388927
517.125718,1258.350101,2834.553343,9474.636058
517.126043,592.164754,2604.724693,9548.656652
517.126368,592.164754,536.266849,9104.533087
517.126693,-666.185348,76.609550,9844.739029
517.127018,-2146.597232,1302.362347,10658.965565
517.127343,-962.267725,1685.410096,10214.842000
517.127668,518.144159,0.000000,10584.944971
517.127993,0.000000,0.000000,10436.903782
517.128318,-1110.308913,2451.505594,9622.677246
517.128643,444.123565,2221.676944,7476.080014
517.128969,1628.453072,1225.752797,7328.038826
517.129294,148.041188,1608.800546,8956.491898
517.129619,-1184.329507,3600.648841,10140.821405
517.129944,0.000000,2145.067394,8438.347739
517.130269,1924.535449,766.095498,7031.956449
517.130594,2738.761985,2221.676944,9326.594869
517.130919,666.185348,3907.087040,9844.739029
517.131244,-666.185348,2145.067394,7846.182985
517.131569,0.000000,-1608.800546,8142.265362
517.131894,-888.247130,-1532.190996,9104.533087
517.132219,-3997.112087,766.095498,9030.512492
517.132544,-2886.803174,0.000000,9178.553681
517.132869,-962.267725,-3294.210641,8438.347739
517.133194,0.000000,-2451.505594,9992.780217
517.133519,-1184.329507,0.000000,11769.274478
517.133844,222.061783,1685.410096,9548.656652
517.134169,-296.082377,0.000000,9252.574275
517.134494,518.144159,-2834.553343,8808.450710
517.134819,222.061783,-1225.752797,10288.862594
517.135144,-1110.308913,229.828649,10362.883188
517.135469,-814.226536,-995.924147,10436.903782
517.135794,0.000000,-2757.943793,9992.780217
517.136119,370.102971,-995.924147,10955.047942
517.136444,-888.247130,689.485948,10955.047942
517.136769,-1850.514855,-1225.752797,8438.347739
517.137094,-1332.370696,-3524.039291,6587.832884
517.137419,-296.082377,-2221.676944,8808.450710
517.137744,-1702.473667,612.876398,9696.697840
517.138069,-1258.350101,-689.485948,8512.368333
517.138394,222.061783,-2604.724693,9474.636058
517.138719,1110.308913,-1838.629195,10362.883188
517.139044,518.144159,689.485948,10658.965565
517.139369,962.267725,1915.238745,8586.388927
517.139694,1110.308913,229.828649,7920.203579
517.140020,962.267725,0.000000,7624.121203
517.140345,-370.102971,842.705048,8364.327145
517.140670,-2220.617826,919.314598,8808.450710
517.140995,-1702.473667,153.219100,9992.780217
517.141320,-1480.411884,-842.705048,10362.883188
517.141645,-444.123565,-689.485948,10288.862594
517.141970,-370.102971,536.266849,9918.759623
517.142295,-1110.308913,1149.143247,8882.471304
517.142620,222.061783,995.924147,9770.718434
517.142945,1036.288319,612.876398,9770.718434
517.143270,666.185348,1149.143247,9400.615463
517.143595,1184.329507,2221.676944,9252.574275
517.143920,2812.782580,3217.601092,9400.615463
517.144245,4145.153275,2528.115143,7698.141797
517.144570,3923.091493,3677.258390,7402.059420
517.144895,3775.050304,4903.011187,8438.347739
517.145220,2294.638420,6128.763984,8734.430116
517.145545,2072.576638,2757.943793,8512.368333
517.145870,1184.329507,1685.410096,8956.491898
517.146195,-1036.288319,2451.505594,8660.409521
517.146520,-1332.370696,2911.162892,8882.471304
517.146845,-592.164754,536.266849,8882.471304
517.147170,-1924.535449,76.609550,7772.162391
517.147495,-3256.906145,1225.752797,7846.182985
517.147820,-2960.823768,2604.724693,9474.636058
517.148145,-1332.370696,1225.752797,8956.491898
517.148470,-1480.411884,-229.828649,8438.347739
517.148795,-1332.370696,-229.828649,8808.450710
517.149120,-222.061783,2145.067394,9992.780217
517.149445,1184.329507,2757.943793,11621.233289
517.149770,2368.659014,1608.800546,10658.965565
517.150095,3256.906145,995.924147,10881.027347
517.150420,3182.885551,2374.896044,10807.006753
517.150746,2960.823768,3294.210641,10510.924376
517.151071,2368.659014,995.924147,10658.965565
517.151396,444.123565,-1532.190996,9252.574275
517.151721,-1776.494261,-1225.752797,9030.512492
517.152046,-2146.597232,-306.438199,8956.491898
517.152371,-2220.617826,-612.876398,10214.842000
517.152696,-2664.741391,-2451.505594,9696.697840
517.153021,-1702.473667,-2298.286494,8438.347739
517.153346,-740.205942,-76.609550,8660.409521
517.153671,-1110.308913,1149.143247,8142.265362
517.153996,-1554.432478,-689.485948,6069.688724
517.154321,0.000000,-1762.019645,6661.853478
517.154646,518.144159,-612.876398,8734.430116
517.154971,-222.061783,842.705048,10436.903782
517.155296,74.020594,-1225.752797,10140.821405
517.155621,814.226536,-2451.505594,9326.594869
517.155946,-296.082377,-1991.848295,10955.047942
517.156271,-1406.391290,0.000000,10510.924376
517.156596,-1998.556043,-689.485948,9992.780217
517.156921,-1628.453072,-2834.553343,9252.574275
517.157246,-1258.350101,-3064.381992,9252.574275
517.157571,-2294.638420,-919.314598,10510.924376
517.157896,-2886.803174,536.266849,10807.006753
517.158221,-2294.638420,-1532.190996,9474.636058
517.158546,-222.061783,-2911.162892,8882.471304
517.158871,1924.535449,229.828649,9474.636058
517.159196,1332.370696,3140.991542,10807.006753
517.159521,0.000000,1072.533697,9474.636058
517.159846,2072.576638,-1838.629195,8216.285956
517.160171,2812.782580,-995.924147,9104.533087
517.160496,888.247130,2374.896044,10140.821405
517.160821,740.205942,2757.943793,8734.430116
517.161146,2886.803174,0.000000,8438.347739
517.161472,5181.441594,689.485948,9474.636058
517.161797,1850.514855,3830.477490,10288.862594
517.162122,370.102971,3064.381992,9030.512492
517.162447,518.144159,2145.067394,8068.244768
517.162772,1924.535449,383.047749,8438.347739
517.163097,-666.185348,1225.752797,9696.697840
517.163422,-2442.679609,2068.457845,8512.368333
517.163747,-2812.782580,1762.019645,8512.368333
517.164072,0.000000,-306.438199,8586.388927
517.164397,0.000000,459.657299,10140.821405
517.164722,-1702.473667,3524.039291,10584.944971
517.165047,-740.205942,3524.039291,8364.327145
517.165372,370.102971,1149.143247,7550.100608
517.165697,1036.288319,306.438199,7846.182985
517.166022,-444.123565,4136.915689,8660.409521
517.166347,0.000000,3983.696590,9400.615463
517.166672,1480.411884,1991.848295,10362.883188
517.166997,2886.803174,536.266849,10436.903782
517.167322,1924.535449,2528.115143,11695.253884
517.167647,1258.350101,3907.087040,10436.903782
517.167972,0.000000,1762.019645,9104.533087
517.168297,370.102971,-842.705048,9326.594869
517.168622,666.185348,0.000000,9474.636058
517.168947,-1036.288319,2068.457845,8586.388927
517.169272,-740.205942,2374.896044,8364.327145
517.169597,222.061783,2374.896044,8882.471304
517.169922,740.205942,1225.752797,9622.677246
517.170247,1258.350101,1838.629195,8068.244768
517.170572,-518.144159,3217.601092,7105.977043
517.170897,-222.061783,1991.848295,7402.059420
517.171222,148.041188,306.438199,7698.141797
517.171547,-1924.535449,-383.047749,9030.512492
517.171872,-3256.906145,0.000000,9178.553681
