#time,accel_x,accel_y,accel_z
16277.821251,370.102971,76.609550,9326.594869
16277.821575,1036.288319,1225.752797,9474.636058
16277.821899,-148.041188,1149.143247,9252.574275
16277.822223,0.000000,995.924147,9474.636058
16277.822547,444.123565,842.705048,9548.656652
16277.822871,592.164754,536.266849,9326.594869
16277.823195,0.000000,612.876398,9548.656652
16277.823520,-444.123565,689.485948,9400.615463
16277.823844,74.020594,-153.219100,8956.491898
16277.824168,0.000000,76.609550,9252.574275
16277.824492,296.082377,766.095498,9326.594869
16277.824816,-222.061783,383.047749,9622.677246
16277.825140,148.041188,612.876398,9252.574275
16277.825464,1258.350101,995.924147,9400.615463
16277.825788,1110.308913,689.485948,9030.512492
16277.826112,-222.061783,536.266849,9326.594869
16277.826437,-296.082377,612.876398,8956.491898
16277.826761,296.082377,76.609550,9030.512492
16277.827085,0.000000,0.000000,9326.594869
16277.827409,-962.267725,229.828649,9400.615463
16277.827733,-1332.370696,306.438199,8956.491898
16277.828057,0.000000,0.000000,8956.491898
16277.828381,0.000000,689.485948,9178.553681
16277.828705,74.020594,1149.143247,9474.636058
16277.829030,0.000000,1302.362347,9400.615463
16277.829354,1036.288319,1072.533697,8882.471304
16277.829678,2072.576638,1608.800546,9548.656652
16277.830002,814.226536,1685.410096,9030.512492
16277.830326,814.226536,1225.752797,9178.553681
16277.830650,1776.494261,1302.362347,9474.636058
16277.830974,2072.576638,1915.238745,9474.636058
16277.831298,666.185348,1302.362347,9474.636058
16277.831622,1258.350101,1685.410096,9326.594869
16277.831947,1110.308913,1762.019645,9326.594869
16277.832271,1776.494261,1532.190996,9400.615463
16277.832595,2442.679609,1762.019645,9622.677246
16277.832919,2590.720797,2451.505594,9844.739029
16277.833243,2516.700203,2604.724693,9400.615463
16277.833567,3108.864956,2757.943793,9770.718434
16277.833891,3478.967927,2451.505594,9400.615463
16277.834215,2146.597232,2681.334243,9400.615463
16277.834539,2368.659014,2681.334243,9104.533087
16277.834864,3404.947333,3064.381992,9252.574275
16277.835188,2886.803174,3524.039291,9104.533087
16277.835512,2072.576638,3140.991542,8142.265362
16277.835836,1998.556043,3524.039291,8290.306550
16277.836160,2146.597232,3677.258390,8364.327145
16277.836484,2220.617826,3753.867940,8808.450710
16277.836808,1998.556043,3907.087040,8808.450710
16277.837132,1554.432478,3600.648841,8586.388927
16277.837457,1628.453072,3753.867940,8734.430116
16277.837781,2886.803174,2911.162892,9400.615463
16277.838105,1480.411884,3370.820191,9622.677246
16277.838429,888.247130,3140.991542,9548.656652
16277.838753,1628.453072,3140.991542,9548.656652
16277.839077,2442.679609,3294.210641,9844.739029
16277.839401,1998.556043,3677.258390,9770.718434
16277.839725,2072.576638,3600.648841,9474.636058
16277.840049,2516.700203,3907.087040,9696.697840
16277.840374,2738.761985,3677.258390,9252.574275
16277.840698,3330.926739,3753.867940,9474.636058
16277.841022,3478.967927,3753.867940,9400.615463
16277.841346,3256.906145,3907.087040,8956.491898
16277.841670,3923.091493,3907.087040,9178.553681
16277.841994,4589.276840,3524.039291,9030.512492
16277.842318,2738.761985,3524.039291,8068.244768
16277.842642,2664.741391,3907.087040,9030.512492
16277.842966,2960.823768,3370.820191,8586.388927
16277.843291,1924.535449,2528.115143,8512.368333
16277.843615,592.164754,2374.896044,8586.388927
16277.843939,740.205942,2911.162892,8364.327145
16277.844263,1110.308913,1991.848295,8586.388927
16277.844587,1184.329507,1685.410096,9252.574275
16277.844911,1776.494261,2145.067394,9548.656652
16277.845235,1924.535449,2451.505594,9326.594869
16277.845559,2886.803174,2757.943793,9326.594869
16277.845884,4293.194464,2757.943793,9844.739029
16277.846208,3552.988522,2987.772442,10066.800811
16277.846532,2812.782580,1991.848295,10510.924376
16277.846856,3701.029710,1608.800546,11473.192101
16277.847180,2886.803174,1685.410096,11769.274478
16277.847504,1258.350101,842.705048,11917.315666
16277.847828,0.000000,306.438199,11325.150913
16277.848152,0.000000,689.485948,10066.800811
16277.848476,74.020594,612.876398,8882.471304
16277.848801,814.226536,1532.190996,7846.182985
16277.849125,1924.535449,2604.724693,6809.894666
16277.849449,1850.514855,3830.477490,5477.523971
16277.849773,2960.823768,4136.915689,5699.585753
16277.850097,3034.844362,3907.087040,5699.585753
16277.850421,1480.411884,3370.820191,6365.771101
16277.850745,740.205942,2374.896044,7772.162391
16277.851069,0.000000,1149.143247,9548.656652
16277.851394,-1702.473667,0.000000,11547.212695
16277.851718,-3849.070898,-2374.896044,13249.686362
16277.852042,-3627.009116,-3064.381992,13397.727550
16277.852366,-1850.514855,-2604.724693,14211.954086
16277.852690,814.226536,-689.485948,14211.954086
16277.853014,3775.050304,1225.752797,12583.501014
16277.853338,7402.059420,3907.087040,10881.027347
16277.853662,10510.924376,7201.297681,8586.388927
16277.853986,12287.418637,8120.612279,7105.977043
16277.854311,11177.109724,8427.050478,6291.750507
16277.854635,8512.368333,7967.393179,5995.668130
16277.854959,6587.832884,6205.373534,7031.956449
16277.855283,3256.906145,3600.648841,7772.162391
16277.855607,-592.164754,1915.238745,8438.347739
16277.855931,-3034.844362,1378.971896,9696.697840
16277.856255,-3997.112087,229.828649,9474.636058
16277.856579,-3849.070898,766.095498,9326.594869
16277.856903,-2664.741391,1762.019645,8216.285956
16277.857228,-592.164754,3524.039291,7476.080014
16277.857552,1036.288319,4749.792088,7105.977043
16277.857876,2960.823768,4903.011187,6217.729913
16277.858200,4737.318029,5362.668486,5847.626942
16277.858524,5033.400406,7048.078582,6883.915261
16277.858848,4811.338623,6281.983084,8956.491898
16277.859172,5403.503377,4596.572988,10955.047942
16277.859496,4367.215058,3447.429741,11695.253884
16277.859821,2368.659014,2604.724693,12509.480420
16277.860145,1110.308913,1455.581446,13027.624579
16277.860469,518.144159,1225.752797,13397.727550
16277.860793,814.226536,1608.800546,12805.562797
16277.861117,2368.659014,2451.505594,11695.253884
16277.861441,2294.638420,3370.820191,9474.636058
16277.861765,3849.070898,5209.449386,7476.080014
16277.862089,6661.853478,7507.735880,6217.729913
16277.862413,5477.523971,7814.174080,6217.729913
16277.862738,3627.009116,6435.202183,4441.235652
16277.863062,3701.029710,5745.716235,4663.297435
16277.863386,2886.803174,4903.011187,6291.750507
16277.863710,-222.061783,3753.867940,8438.347739
16277.864034,-2812.782580,229.828649,9992.780217
16277.864358,-4293.194464,-1532.190996,11103.089130
16277.864682,-6069.688724,-3064.381992,12731.542202
16277.865006,-6809.894666,-4979.620737,12213.398043
16277.865330,-6365.771101,-4979.620737,10881.027347
16277.865655,-4293.194464,-3600.648841,11251.130318
16277.865979,-1184.329507,-612.876398,11695.253884
16277.866303,1628.453072,0.000000,9844.739029
16277.866627,4737.318029,2298.286494,6587.832884
16277.866951,6661.853478,4826.401637,5477.523971
16277.867275,7254.018232,4596.572988,4145.153275
16277.867599,7031.956449,4290.134789,4219.173869
16277.867923,6217.729913,4366.744339,7254.018232
16277.868248,4145.153275,2528.115143,10436.903782
16277.868572,444.123565,-1149.143247,11917.315666
16277.868896,-1776.494261,-3447.429741,13471.748144
16277.869220,-4589.276840,-4903.011187,15618.345376
16277.869544,-7550.100608,-5822.325785,15840.407159
16277.869868,-5921.647536,-6435.202183,15544.324782
16277.870192,-2960.823768,-4673.182538,13915.871710
16277.870516,-2516.700203,-1991.848295,12065.356855
16277.870840,-666.185348,-306.438199,8364.327145
16277.871165,3108.864956,2834.553343,5477.523971
16277.871489,6365.771101,5132.839837,2886.803174
16277.871813,8290.306550,7660.954980,962.267725
16277.872137,9326.594869,8886.707777,222.061783
16277.872461,8512.368333,7814.174080,2294.638420
16277.872785,4959.379811,5209.449386,4589.276840
16277.873109,148.041188,3064.381992,8660.409521
16277.873433,-4293.194464,-1455.581446,12435.459826
16277.873758,-7328.038826,-5209.449386,14434.015869
16277.874082,-8068.244768,-5669.106685,17098.757260
16277.874406,-8438.347739,-5669.106685,17838.963202
16277.874730,-8216.285956,-5515.887586,16358.551318
16277.875054,-5403.503377,-2757.943793,13841.851115
16277.875378,-1110.308913,1302.362347,9548.656652
16277.875702,4219.173869,5669.106685,5995.668130
16277.876026,9104.533087,8733.488677,3923.091493
16277.876350,11177.109724,10878.556072,2738.761985
16277.876675,9992.780217,11338.213370,1184.329507
16277.876999,7624.121203,9116.536426,2886.803174
16277.877323,3701.029710,5515.887586,7031.956449
16277.877647,-518.144159,1991.848295,9474.636058
16277.877971,-5551.544565,-1838.629195,11991.336260
16277.878284,-8882.471304,-5056.230287,14730.098246
16277.878608,-11177.109724,-6511.811733,15396.283594
16277.878933,-10510.924376,-5439.278036,14434.015869
16277.879257,-8068.244768,-5209.449386,13397.727550
16277.879581,-4737.318029,-2145.067394,9844.739029
16277.879905,370.102971,1532.190996,7402.059420
16277.880230,5107.421000,4979.620737,6365.771101
16277.880554,7476.080014,6588.421283,4367.215058
16277.880878,7328.038826,6588.421283,3478.967927
16277.881202,5773.606348,4903.011187,4071.132681
16277.881527,4145.153275,2451.505594,6291.750507
16277.881851,1554.432478,-459.657299,9104.533087
16277.882175,-2664.741391,-3370.820191,12065.356855
16277.882499,-5033.400406,-4903.011187,14285.974681
16277.882823,-4737.318029,-6511.811733,14508.036463
16277.883148,-4219.173869,-6052.154434,14137.933492
16277.883472,-2368.659014,-3907.087040,10658.965565
16277.883796,666.185348,-766.095498,7772.162391
16277.884120,3701.029710,1991.848295,6069.688724
16277.884445,6809.894666,3907.087040,7402.059420
16277.884769,6217.729913,4673.182538,7254.018232
16277.885093,6365.771101,3064.381992,5773.606348
16277.885417,2738.761985,1838.629195,8586.388927
16277.885741,0.000000,612.876398,10584.944971
16277.886066,-1628.453072,-1685.410096,13693.809927
16277.886390,-4219.173869,-4673.182538,14804.118840
16277.886714,-5477.523971,-5669.106685,12879.583391
16277.887038,-4959.379811,-5362.668486,13471.748144
16277.887363,-4145.153275,-3447.429741,11177.109724
16277.887687,-1776.494261,-1455.581446,7846.182985
16277.888011,2220.617826,1915.238745,5699.585753
16277.888335,4367.215058,6511.811733,3552.988522
16277.888660,7402.059420,7354.516781,2886.803174
16277.888984,7624.121203,6818.249932,2368.659014
16277.889308,3627.009116,5669.106685,5847.626942
16277.889632,-370.102971,3370.820191,8734.430116
16277.889956,-2220.617826,0.000000,11769.274478
16277.890281,-4589.276840,-3447.429741,13767.830521
16277.890605,-7402.059420,-3830.477490,14656.077652
16277.890929,-8882.471304,-4596.572988,14952.160028
16277.891253,-7772.162391,-4903.011187,13545.768739
16277.891578,-5033.400406,-3370.820191,11029.068536
16277.891902,-1480.411884,766.095498,7105.977043
16277.892226,2294.638420,4826.401637,4589.276840
16277.892550,4885.359217,7124.688131,3627.009116
16277.892874,7105.977043,7431.126331,3108.864956
16277.893199,6365.771101,6358.592633,5107.421000
16277.893523,2294.638420,4903.011187,6883.915261
16277.893847,-814.226536,1608.800546,8216.285956
16277.894171,-2368.659014,-995.924147,11251.130318
16277.894496,-6217.729913,-3983.696590,14878.139434
16277.894820,-9178.553681,-5439.278036,16580.613101
16277.895144,-7402.059420,-5898.935335,15988.448347
16277.895468,-5847.626942,-5286.058936,14137.933492
16277.895793,-2442.679609,-2911.162892,10807.006753
16277.896117,2516.700203,1762.019645,8364.327145
16277.896441,6143.709319,4826.401637,5847.626942
16277.896765,8364.327145,5822.325785,3849.070898
16277.897089,9770.718434,7048.078582,3330.926739
16277.897414,8512.368333,7048.078582,4293.194464
16277.897738,4885.359217,3677.258390,4811.338623
16277.898062,2368.659014,229.828649,7254.018232
16277.898386,0.000000,-995.924147,11917.315666
16277.898711,-3552.988522,-2757.943793,14211.954086
16277.899035,-5551.544565,-5975.544884,14359.995275
16277.899359,-7031.956449,-6818.249932,13693.809927
16277.899683,-5255.462188,-4673.182538,11399.171507
16277.900007,-1258.350101,-1455.581446,9992.780217
16277.900332,2368.659014,842.705048,9400.615463
16277.900656,4885.359217,2757.943793,7179.997637
16277.900980,6365.771101,4903.011187,5773.606348
16277.901304,5477.523971,4826.401637,5699.585753
16277.901629,3108.864956,2681.334243,7402.059420
16277.901953,1036.288319,2221.676944,8438.347739
16277.902277,0.000000,-229.828649,10732.986159
16277.902601,-3404.947333,-2834.553343,13027.624579
16277.902926,-5625.565159,-4443.353888,13619.789333
16277.903250,-5847.626942,-4290.134789,13693.809927
16277.903574,-5329.482782,-3907.087040,12805.562797
16277.903898,-2886.803174,-2451.505594,9696.697840
16277.904222,296.082377,1608.800546,7772.162391
16277.904547,3108.864956,4136.915689,6587.832884
16277.904871,5847.626942,5515.887586,5255.462188
16277.905195,5329.482782,5822.325785,4737.318029
16277.905519,1998.556043,4596.572988,5255.462188
16277.905844,-296.082377,2681.334243,6957.935855
16277.906168,-962.267725,612.876398,9770.718434
16277.906492,-3330.926739,-1685.410096,13175.665768
16277.906816,-5625.565159,-3064.381992,13767.830521
16277.907140,-6735.874072,-4290.134789,13397.727550
16277.907465,-5551.544565,-3447.429741,11991.336260
16277.907789,-2368.659014,-2451.505594,8660.409521
16277.908113,814.226536,536.266849,6439.791695
16277.908437,3478.967927,4366.744339,5625.565159
16277.908762,5255.462188,6588.421283,5255.462188
16277.909086,6809.894666,5898.935335,4589.276840
16277.909410,5181.441594,4903.011187,6291.750507
16277.909734,888.247130,3600.648841,7920.203579
16277.910059,-740.205942,1225.752797,10214.842000
16277.910383,-1924.535449,-1991.848295,13915.871710
16277.910707,-4515.256246,-4903.011187,15174.221811
16277.911031,-6513.812290,-4596.572988,15396.283594
16277.911355,-5551.544565,-4443.353888,14656.077652
16277.911680,-3182.885551,-3370.820191,13767.830521
16277.912004,592.164754,-842.705048,9622.677246
16277.912328,4885.359217,3370.820191,6957.935855
16277.912652,7550.100608,6281.983084,5551.544565
16277.912977,9252.574275,7124.688131,3330.926739
16277.913301,8586.388927,6741.640382,3478.967927
16277.913625,5773.606348,6281.983084,4737.318029
16277.913949,2664.741391,3294.210641,7254.018232
16277.914273,888.247130,0.000000,9326.594869
16277.914598,-2960.823768,-2221.676944,11621.233289
16277.914922,-6143.709319,-3830.477490,13915.871710
16277.915246,-7179.997637,-4673.182538,14285.974681
16277.915570,-7031.956449,-5209.449386,13323.706956
16277.915895,-4589.276840,-3370.820191,9918.759623
16277.916219,-962.267725,153.219100,7698.141797
16277.916543,2294.638420,2834.553343,6735.874072
16277.916867,4219.173869,4826.401637,5995.668130
16277.917192,5255.462188,5209.449386,5403.503377
16277.917516,4293.194464,5286.058936,6143.709319
16277.917840,1924.535449,3600.648841,7402.059420
16277.918164,0.000000,1225.752797,9400.615463
16277.918488,-2294.638420,-1225.752797,11769.274478
16277.918813,-4663.297435,-3600.648841,14656.077652
16277.919137,-5995.668130,-5056.230287,14952.160028
16277.919461,-5255.462188,-4903.011187,14211.954086
16277.919785,-4737.318029,-3370.820191,12213.398043
16277.920110,-2516.700203,-1378.971896,8882.471304
16277.920434,1036.288319,2221.676944,6735.874072
16277.920758,4145.153275,4060.306139,6365.771101
16277.921082,5699.585753,6052.154434,4811.338623
16277.921406,4737.318029,5515.887586,4737.318029
16277.921731,2368.659014,3677.258390,6365.771101
16277.922055,740.205942,2145.067394,8068.244768
16277.922379,-666.185348,0.000000,10288.862594
16277.922703,-2664.741391,-1991.848295,12065.356855
16277.923028,-3997.112087,-3753.867940,12879.583391
16277.923352,-4071.132681,-3600.648841,11991.336260
16277.923676,-3552.988522,-3370.820191,12065.356855
16277.924000,-1332.370696,-1915.238745,9104.533087
16277.924325,2146.597232,919.314598,6587.832884
16277.924649,4737.318029,3753.867940,5847.626942
16277.924973,6143.709319,5515.887586,5921.647536
16277.925297,6217.729913,4903.011187,4885.359217
16277.925621,4367.215058,4519.963438,7105.977043
16277.925946,1110.308913,2911.162892,9104.533087
16277.926270,0.000000,153.219100,10658.965565
16277.926594,-1258.350101,-2451.505594,13767.830521
16277.926918,-3404.947333,-3524.039291,15248.242405
16277.927243,-4441.235652,-3677.258390,15470.304188
16277.927567,-2368.659014,-4366.744339,14359.995275
16277.927891,-666.185348,-3294.210641,11843.295072
16277.928215,1406.391290,459.657299,8512.368333
16277.928539,4071.132681,3983.696590,6587.832884
16277.928864,5773.606348,5975.544884,5625.565159
16277.929188,6883.915261,6971.469032,4367.215058
16277.929512,5477.523971,7048.078582,4293.194464
16277.929836,2812.782580,5286.058936,4737.318029
16277.930161,-1554.432478,2298.286494,6809.894666
16277.930485,-3923.091493,-536.266849,9622.677246
16277.930809,-6069.688724,-2298.286494,13027.624579
16277.931133,-8068.244768,-4596.572988,13767.830521
16277.931458,-7994.224174,-4903.011187,12953.603985
16277.931782,-6587.832884,-3830.477490,11843.295072
16277.932106,-3478.967927,-1072.533697,8734.430116
16277.932430,1332.370696,1455.581446,7920.203579
16277.932754,4737.318029,5132.839837,6809.894666
16277.933079,6587.832884,6971.469032,4737.318029
16277.933403,7920.203579,6971.469032,4071.132681
16277.933727,6365.771101,6511.811733,5773.606348
16277.934051,2960.823768,4826.401637,8438.347739
16277.934376,-814.226536,1378.971896,9992.780217
16277.934700,-3330.926739,-1455.581446,11991.336260
16277.935024,-4885.359217,-2987.772442,14063.912898
16277.935348,-7179.997637,-4060.306139,15100.201217
16277.935672,-7105.977043,-5132.839837,14211.954086
16277.935997,-5625.565159,-3983.696590,11843.295072
16277.936321,-1776.494261,-1455.581446,8808.450710
16277.936645,2072.576638,2145.067394,7624.121203
16277.936969,4811.338623,4903.011187,6291.750507
16277.937294,5847.626942,5745.716235,5033.400406
16277.937618,5477.523971,4673.182538,4737.318029
16277.937942,2960.823768,3600.648841,6439.791695
16277.938266,740.205942,2068.457845,8068.244768
16277.938591,-2072.576638,-1455.581446,9770.718434
16277.938915,-2146.597232,-3370.820191,11251.130318
16277.939239,-2886.803174,-3524.039291,14063.912898
16277.939563,-4293.194464,-4749.792088,14211.954086
16277.939887,-2960.823768,-4519.963438,12287.418637
16277.940212,-1258.350101,-2757.943793,9178.553681
16277.940536,1702.473667,459.657299,6957.935855
16277.940860,4441.235652,2528.115143,7179.997637
16277.941184,6217.729913,4903.011187,5921.647536
16277.941509,6143.709319,4749.792088,5403.503377
16277.941833,3997.112087,3753.867940,7105.977043
16277.942157,222.061783,2298.286494,8438.347739
16277.942481,-1110.308913,-919.314598,10732.986159
16277.942805,-2590.720797,-2987.772442,12731.542202
16277.943130,-4441.235652,-3907.087040,14878.139434
16277.943454,-5107.421000,-3677.258390,14804.118840
16277.943778,-4515.256246,-4519.963438,13619.789333
16277.944102,-2664.741391,-3753.867940,10436.903782
16277.944427,962.267725,383.047749,7624.121203
16277.944751,3849.070898,4290.134789,7624.121203
16277.945075,5847.626942,5286.058936,6291.750507
16277.945399,6439.791695,4979.620737,4737.318029
16277.945724,4885.359217,5898.935335,4589.276840
16277.946048,1998.556043,4749.792088,6661.853478
16277.946372,-592.164754,1991.848295,8512.368333
16277.946696,-3478.967927,-1378.971896,9844.739029
16277.947020,-5625.565159,-2604.724693,13175.665768
16277.947345,-6883.915261,-3294.210641,13989.892304
16277.947669,-6809.894666,-4443.353888,12657.521608
16277.947993,-5107.421000,-3064.381992,10732.986159
16277.948317,-1110.308913,229.828649,8216.285956
16277.948642,2294.638420,3907.087040,6883.915261
16277.948966,4811.338623,4903.011187,5773.606348
16277.949290,6513.812290,6052.154434,4515.256246
16277.949614,6365.771101,6894.859482,4811.338623
16277.949938,3701.029710,5362.668486,7031.956449
16277.950263,1332.370696,2374.896044,8882.471304
16277.950587,-1702.473667,-383.047749,11103.089130
16277.950911,-4071.132681,-2451.505594,13767.830521
16277.951235,-5403.503377,-2987.772442,15174.221811
16277.951560,-5847.626942,-4903.011187,14359.995275
16277.951884,-5995.668130,-4826.401637,11843.295072
16277.952208,-3849.070898,-2451.505594,9992.780217
16277.952532,-222.061783,459.657299,7772.162391
16277.952857,3775.050304,3140.991542,7105.977043
16277.953181,5773.606348,4979.620737,5551.544565
16277.953505,6069.688724,5822.325785,3849.070898
16277.953829,4885.359217,5286.058936,5033.400406
16277.954153,3330.926739,3140.991542,7105.977043
16277.954478,666.185348,612.876398,9400.615463
16277.954802,-1850.514855,-1838.629195,11547.212695
16277.955126,-2516.700203,-2528.115143,13175.665768
16277.955450,-3849.070898,-4060.306139,14063.912898
16277.955775,-4293.194464,-4903.011187,13989.892304
16277.956099,-3256.906145,-3447.429741,11621.233289
16277.956423,-370.102971,-1991.848295,8438.347739
16277.956747,3404.947333,766.095498,6883.915261
16277.957071,5255.462188,3830.477490,6809.894666
16277.957396,5773.606348,5515.887586,5033.400406
16277.957720,5625.565159,3447.429741,5329.482782
16277.958044,2812.782580,2911.162892,7179.997637
16277.958368,148.041188,1378.971896,9178.553681
16277.958693,-2220.617826,-1762.019645,10955.047942
16277.959017,-4071.132681,-4290.134789,12509.480420
16277.959341,-5181.441594,-4290.134789,14063.912898
16277.959665,-5921.647536,-4519.963438,13619.789333
16277.959990,-4441.235652,-4596.572988,12583.501014
16277.960314,-1850.514855,-2068.457845,9252.574275
16277.960638,1406.391290,1149.143247,7105.977043
16277.960962,3923.091493,3983.696590,6513.812290
16277.961286,5847.626942,5745.716235,5995.668130
16277.961611,5921.647536,5362.668486,4885.359217
16277.961935,4663.297435,4826.401637,5625.565159
16277.962259,2146.597232,3600.648841,7698.141797
16277.962583,-740.205942,1072.533697,9474.636058
16277.962908,-2886.803174,-1915.238745,11991.336260
16277.963232,-5107.421000,-2834.553343,13471.748144
16277.963556,-5329.482782,-3217.601092,14137.933492
16277.963880,-5403.503377,-4290.134789,12731.542202
16277.964204,-4515.256246,-3370.820191,9252.574275
16277.964529,-962.267725,76.609550,6883.915261
16277.964853,2886.803174,3907.087040,6439.791695
16277.965177,3997.112087,5362.668486,5847.626942
16277.965501,4959.379811,5132.839837,4737.318029
16277.965826,4959.379811,5745.716235,4293.194464
16277.966150,1776.494261,4366.744339,7031.956449
16277.966474,-1184.329507,766.095498,8882.471304
16277.966798,-3256.906145,-1685.410096,11769.274478
16277.967123,-5181.441594,-2757.943793,14211.954086
16277.967447,-5921.647536,-3524.039291,14730.098246
16277.967771,-6439.791695,-5362.668486,14211.954086
16277.968095,-4885.359217,-4366.744339,11695.253884
16277.968419,-1924.535449,-919.314598,9844.739029
16277.968744,2146.597232,1225.752797,7105.977043
16277.969068,5477.523971,3907.087040,6069.688724
16277.969392,7105.977043,6435.202183,5477.523971
16277.969716,7476.080014,7354.516781,4071.132681
16277.970041,5625.565159,4903.011187,5847.626942
16277.970365,2516.700203,2145.067394,7920.203579
16277.970689,0.000000,-306.438199,9696.697840
16277.971013,-3627.009116,-3064.381992,12509.480420
16277.971337,-5329.482782,-4903.011187,14285.974681
16277.971662,-5181.441594,-5362.668486,14878.139434
16277.971986,-5995.668130,-4903.011187,13101.645173
16277.972310,-3552.988522,-4136.915689,10732.986159
16277.972634,296.082377,-919.314598,7328.038826
16277.972959,4071.132681,3064.381992,6513.812290
16277.973283,5773.606348,5132.839837,6143.709319
16277.973607,7031.956449,6052.154434,4293.194464
16277.973931,6957.935855,5286.058936,4663.297435
16277.974256,3330.926739,4673.182538,7328.038826
16277.974580,296.082377,1915.238745,9252.574275
16277.974904,-1998.556043,-1378.971896,11325.150913
16277.975228,-4441.235652,-2987.772442,13471.748144
16277.975552,-6069.688724,-3677.258390,14952.160028
16277.975877,-6291.750507,-4290.134789,14063.912898
16277.976201,-5403.503377,-3830.477490,11399.171507
16277.976525,-2886.803174,-1532.190996,8882.471304
16277.976849,1850.514855,2451.505594,6587.832884
16277.977174,4737.318029,5439.278036,5995.668130
16277.977498,6513.812290,7048.078582,4663.297435
16277.977822,6217.729913,7201.297681,4515.256246
16277.978146,4145.153275,5822.325785,5847.626942
16277.978470,1924.535449,4060.306139,8438.347739
16277.978795,-740.205942,919.314598,10288.862594
16277.979119,-3108.864956,-2145.067394,11991.336260
16277.979443,-5107.421000,-2987.772442,14137.933492
16277.979767,-5699.585753,-3677.258390,14878.139434
16277.980091,-7031.956449,-4903.011187,13471.748144
16277.980415,-4515.256246,-3217.601092,9474.636058
16277.980740,148.041188,536.266849,6957.935855
16277.981064,2738.761985,3524.039291,6883.915261
16277.981388,3701.029710,4903.011187,6365.771101
16277.981712,4737.318029,4903.011187,5625.565159
16277.982036,3997.112087,4979.620737,5403.503377
16277.982360,1480.411884,3370.820191,8142.265362
16277.982685,0.000000,1991.848295,9252.574275
16277.983009,-1480.411884,-459.657299,10955.047942
16277.983333,-4293.194464,-2834.553343,12731.542202
16277.983657,-5033.400406,-3677.258390,13767.830521
16277.983981,-4737.318029,-4136.915689,13545.768739
16277.984305,-3849.070898,-3064.381992,11177.109724
16277.984630,-888.247130,-1378.971896,8808.450710
16277.984954,3108.864956,1762.019645,7402.059420
16277.985278,5773.606348,4290.134789,7105.977043
16277.985602,7328.038826,5286.058936,6439.791695
16277.985926,7031.956449,5975.544884,5107.421000
16277.986251,5699.585753,4366.744339,6143.709319
16277.986575,2664.741391,2834.553343,7846.182985
16277.986899,296.082377,383.047749,10288.862594
16277.987223,-2442.679609,-2145.067394,12657.521608
16277.987547,-4589.276840,-2757.943793,13841.851115
16277.987871,-4811.338623,-4366.744339,14582.057057
16277.988196,-5107.421000,-4060.306139,11917.315666
16277.988520,-4219.173869,-3294.210641,9770.718434
16277.988844,-222.061783,0.000000,7254.018232
16277.989168,1924.535449,2604.724693,7179.997637
16277.989492,2442.679609,3677.258390,6143.709319
16277.989816,5033.400406,4903.011187,4589.276840
16277.990141,4737.318029,4903.011187,5847.626942
16277.990465,1258.350101,2221.676944,7920.203579
16277.990789,0.000000,766.095498,9400.615463
16277.991113,-2368.659014,-1455.581446,11399.171507
16277.991437,-4515.256246,-3370.820191,12879.583391
16277.991761,-4885.359217,-3370.820191,14508.036463
16277.992086,-3923.091493,-3370.820191,13915.871710
16277.992410,-3404.947333,-2374.896044,11769.274478
16277.992734,-740.205942,-1455.581446,8808.450710
16277.993058,2886.803174,2911.162892,7031.956449
16277.993382,5181.441594,5286.058936,6143.709319
16277.993706,5625.565159,5898.935335,5329.482782
16277.994031,5107.421000,5515.887586,5477.523971
16277.994355,2886.803174,4366.744339,7031.956449
16277.994679,-148.041188,2145.067394,8290.306550
16277.995003,-2368.659014,-1149.143247,9918.759623
16277.995327,-4737.318029,-2451.505594,11325.150913
16277.995651,-5033.400406,-2834.553343,13323.706956
16277.995976,-5403.503377,-3983.696590,13915.871710
16277.996300,-4737.318029,-4213.525239,12287.418637
16277.996624,-3034.844362,-1685.410096,9030.512492
16277.996948,666.185348,842.705048,7031.956449
16277.997272,4145.153275,3370.820191,6587.832884
16277.997596,5625.565159,4826.401637,6143.709319
16277.997921,6143.709319,6128.763984,5551.544565
16277.998245,4589.276840,4366.744339,6809.894666
16277.998569,1628.453072,2451.505594,9030.512492
16277.998893,0.000000,536.266849,10214.842000
16277.999217,-2220.617826,-2145.067394,11917.315666
16277.999541,-4367.215058,-3370.820191,13027.624579
16277.999866,-3701.029710,-2834.553343,13619.789333
16278.000190,-3256.906145,-2834.553343,12805.562797
16278.000514,-3330.926739,-2145.067394,10066.800811
16278.000838,74.020594,153.219100,7550.100608
16278.001162,4441.235652,3524.039291,5847.626942
16278.001486,5921.647536,5669.106685,6365.771101
16278.001811,6365.771101,6205.373534,5773.606348
16278.002135,5625.565159,5515.887586,5551.544565
16278.002459,3330.926739,3983.696590,7920.203579
16278.002783,296.082377,1532.190996,9178.553681
16278.003107,-1776.494261,-689.485948,10584.944971
16278.003431,-4663.297435,-2911.162892,13101.645173
16278.003756,-5329.482782,-2834.553343,14285.974681
16278.004080,-4737.318029,-4136.915689,14211.954086
16278.004404,-4811.338623,-3983.696590,11621.233289
16278.004728,-3552.988522,-1378.971896,8438.347739
16278.005052,1110.308913,2068.457845,5847.626942
16278.005376,4367.215058,4136.915689,5181.441594
16278.005701,4737.318029,5056.230287,6069.688724
16278.006025,5107.421000,5822.325785,5551.544565
16278.006349,3478.967927,4826.401637,6661.853478
16278.006673,296.082377,1378.971896,8586.388927
16278.006997,-1776.494261,-919.314598,10658.965565
16278.007321,-3701.029710,-2451.505594,12361.439231
16278.007646,-5477.523971,-4290.134789,13989.892304
16278.007970,-4811.338623,-4366.744339,14508.036463
16278.008294,-4145.153275,-3600.648841,13545.768739
16278.008618,-3775.050304,-3217.601092,9992.780217
16278.008942,-518.144159,-612.876398,7031.956449
16278.009266,4367.215058,3370.820191,6735.874072
16278.009591,7031.956449,6281.983084,6439.791695
16278.009915,6217.729913,5822.325785,5773.606348
16278.010239,5699.585753,5056.230287,5255.462188
16278.010563,2960.823768,4060.306139,7105.977043
16278.010887,0.000000,1378.971896,8808.450710
16278.011211,-1628.453072,-1378.971896,10362.883188
16278.011536,-4737.318029,-3677.258390,12657.521608
16278.011860,-4811.338623,-3140.991542,13397.727550
16278.012184,-4737.318029,-4519.963438,13693.809927
16278.012508,-5255.462188,-4443.353888,11769.274478
16278.012832,-2294.638420,-1685.410096,9030.512492
16278.013156,2812.782580,2068.457845,6809.894666
16278.013481,5773.606348,3447.429741,6143.709319
16278.013805,5921.647536,5056.230287,5477.523971
16278.014129,6957.935855,6511.811733,5107.421000
16278.014453,5181.441594,4979.620737,7031.956449
16278.014777,1998.556043,2451.505594,8808.450710
16278.015101,-296.082377,76.609550,9696.697840
16278.015426,-2886.803174,-1762.019645,11843.295072
16278.015750,-4293.194464,-3217.601092,13619.789333
16278.016074,-5107.421000,-3447.429741,14285.974681
16278.016398,-5033.400406,-4290.134789,13249.686362
16278.016722,-3701.029710,-2987.772442,10436.903782
16278.017046,-222.061783,-229.828649,7254.018232
16278.017371,3182.885551,3064.381992,6291.750507
16278.017695,4145.153275,4826.401637,6439.791695
16278.018019,4515.256246,5592.497135,5329.482782
16278.018343,4737.318029,4826.401637,6291.750507
16278.018667,1628.453072,3370.820191,7846.182985
16278.018992,-1184.329507,1225.752797,8956.491898
16278.019316,-3701.029710,-1762.019645,10881.027347
16278.019640,-5773.606348,-3830.477490,12361.439231
16278.019964,-6217.729913,-4060.306139,13767.830521
16278.020288,-5107.421000,-4136.915689,13175.665768
16278.020612,-4441.235652,-3064.381992,11177.109724
16278.020937,-2368.659014,-1838.629195,8068.244768
16278.021261,1998.556043,689.485948,6587.832884
16278.021585,4959.379811,3983.696590,6587.832884
16278.021909,6069.688724,5362.668486,6661.853478
16278.022233,6513.812290,4979.620737,5847.626942
16278.022557,5255.462188,4366.744339,6513.812290
16278.022882,1776.494261,1378.971896,9400.615463
16278.023206,-962.267725,-153.219100,11325.150913
16278.023530,-3627.009116,-3524.039291,11917.315666
16278.023854,-4811.338623,-3983.696590,13693.809927
16278.024178,-5033.400406,-4596.572988,14359.995275
16278.024502,-4737.318029,-4366.744339,12435.459826
16278.024827,-3701.029710,-2757.943793,10288.862594
16278.025151,-296.082377,0.000000,6365.771101
16278.025475,4737.318029,3524.039291,6291.750507
16278.025799,6661.853478,4979.620737,5551.544565
16278.026123,6439.791695,5286.058936,5255.462188
16278.026447,5699.585753,5515.887586,5847.626942
16278.026772,3552.988522,4443.353888,8142.265362
16278.027096,222.061783,842.705048,9326.594869
16278.027420,-2294.638420,-1532.190996,10510.924376
16278.027744,-3997.112087,-2145.067394,12805.562797
16278.028068,-3923.091493,-2221.676944,13989.892304
16278.028392,-4663.297435,-4060.306139,14211.954086
16278.028717,-4219.173869,-4060.306139,10955.047942
16278.029041,-1036.288319,0.000000,7624.121203
16278.029365,3182.885551,3217.601092,6883.915261
16278.029689,5403.503377,4826.401637,6365.771101
16278.030013,5329.482782,5745.716235,6217.729913
16278.030337,5995.668130,7737.564530,5181.441594
16278.030662,4293.194464,4903.011187,5995.668130
16278.030986,296.082377,2068.457845,8364.327145
16278.031310,-2072.576638,306.438199,9474.636058
16278.031634,-4663.297435,-1302.362347,12731.542202
16278.031958,-5773.606348,-2987.772442,13619.789333
16278.032282,-5329.482782,-3907.087040,13619.789333
16278.032607,-5033.400406,-3524.039291,11917.315666
16278.032931,-4367.215058,-1608.800546,9030.512492
16278.033255,-666.185348,229.828649,7772.162391
16278.033579,3552.988522,2987.772442,7179.997637
16278.033903,5255.462188,5209.449386,7105.977043
16278.034227,5477.523971,6818.249932,5477.523971
16278.034552,4885.359217,5132.839837,6291.750507
16278.034876,3256.906145,3907.087040,7402.059420
16278.035200,370.102971,1762.019645,9918.759623
16278.035524,-2886.803174,-1302.362347,11251.130318
16278.035848,-5847.626942,-4290.134789,12657.521608
16278.036172,-6217.729913,-4213.525239,13693.809927
16278.036497,-4663.297435,-3753.867940,13767.830521
16278.036821,-5255.462188,-3983.696590,12657.521608
16278.037145,-1406.391290,-2298.286494,8808.450710
16278.037469,4219.173869,2298.286494,6957.935855
16278.037793,6439.791695,5669.106685,6365.771101
16278.038117,6809.894666,5209.449386,6143.709319
16278.038442,6735.874072,5822.325785,4737.318029
16278.038766,5329.482782,4903.011187,5625.565159
16278.039090,1406.391290,2221.676944,7698.141797
16278.039414,-1110.308913,-612.876398,9326.594869
16278.039738,-4219.173869,-2834.553343,12139.377449
16278.040062,-6365.771101,-4596.572988,13693.809927
16278.040387,-6661.853478,-6205.373534,14137.933492
16278.040711,-6661.853478,-5822.325785,13693.809927
16278.041035,-5107.421000,-4749.792088,9844.739029
16278.041359,-1258.350101,-1532.190996,7846.182985
16278.041683,3034.844362,1762.019645,6513.812290
16278.042007,5255.462188,4596.572988,7254.018232
16278.042332,7179.997637,5592.497135,6069.688724
16278.042656,6439.791695,5362.668486,5773.606348
16278.042980,3627.009116,4290.134789,7846.182985
16278.043304,1036.288319,1762.019645,9400.615463
16278.043628,-888.247130,-1149.143247,11473.192101
16278.043952,-3701.029710,-3064.381992,12953.603985
16278.044277,-3849.070898,-2834.553343,13767.830521
16278.044601,-3552.988522,-3753.867940,13323.706956
16278.044925,-4367.215058,-3677.258390,11843.295072
16278.045249,-2146.597232,-1149.143247,8808.450710
16278.045573,2590.720797,2911.162892,6217.729913
16278.045897,4441.235652,5209.449386,6365.771101
16278.046222,4515.256246,6588.421283,5255.462188
16278.046546,5033.400406,6741.640382,3182.885551
16278.046870,2368.659014,5209.449386,5699.585753
16278.047194,-962.267725,2528.115143,7328.038826
16278.047518,-2738.761985,306.438199,9030.512492
16278.047842,-5107.421000,-2451.505594,11251.130318
16278.048167,-7179.997637,-2834.553343,13767.830521
16278.048491,-7105.977043,-3370.820191,14582.057057
16278.048815,-4811.338623,-3600.648841,13323.706956
16278.049139,-4293.194464,-3064.381992,10732.986159
16278.049463,74.020594,1149.143247,7402.059420
16278.049788,4885.359217,4903.011187,6735.874072
16278.050112,6661.853478,6128.763984,6661.853478
16278.050436,7105.977043,7201.297681,5625.565159
16278.050760,6661.853478,7354.516781,6439.791695
16278.051084,2664.741391,3983.696590,7254.018232
16278.051408,74.020594,1762.019645,9104.533087
16278.051733,-1554.432478,-383.047749,11769.274478
16278.052057,-4663.297435,-2604.724693,13397.727550
16278.052381,-5033.400406,-3677.258390,14063.912898
16278.052705,-3997.112087,-3447.429741,13545.768739
16278.053029,-4663.297435,-3447.429741,10658.965565
16278.053353,-2442.679609,-1072.533697,7698.141797
16278.053678,3404.947333,2528.115143,6217.729913
16278.054002,5107.421000,5209.449386,6513.812290
16278.054326,5773.606348,5132.839837,5403.503377
16278.054650,5995.668130,5439.278036,4663.297435
16278.054974,3478.967927,3677.258390,6069.688724
16278.055298,-740.205942,1685.410096,8808.450710
16278.055623,-2220.617826,-2604.724693,10436.903782
16278.055947,-3478.967927,-3753.867940,11769.274478
16278.056271,-5033.400406,-4060.306139,14508.036463
16278.056595,-5107.421000,-4443.353888,14730.098246
16278.056919,-4737.318029,-5515.887586,12805.562797
16278.057243,-3330.926739,-3753.867940,10214.842000
16278.057568,1702.473667,229.828649,7920.203579
16278.057892,5699.585753,3140.991542,7402.059420
16278.058216,6587.832884,4290.134789,6587.832884
16278.058540,6661.853478,5745.716235,5773.606348
16278.058864,5625.565159,5515.887586,6809.894666
16278.059188,2590.720797,2757.943793,8956.491898
16278.059513,222.061783,536.266849,9474.636058
16278.059837,-2590.720797,-2298.286494,11621.233289
16278.060161,-4663.297435,-2911.162892,12879.583391
16278.060485,-5625.565159,-3983.696590,14359.995275
16278.060809,-5181.441594,-4673.182538,13175.665768
16278.061133,-4515.256246,-3600.648841,10510.924376
16278.061458,-1998.556043,-536.266849,7105.977043
16278.061782,3478.967927,2604.724693,5699.585753
16278.062106,5033.400406,4213.525239,6217.729913
16278.062430,5033.400406,5822.325785,5033.400406
16278.062754,5551.544565,6435.202183,3330.926739
16278.063078,4145.153275,4366.744339,6439.791695
16278.063403,74.020594,1915.238745,8216.285956
16278.063727,-1628.453072,0.000000,10584.944971
16278.064051,-3552.988522,-1991.848295,12731.542202
16278.064375,-4737.318029,-3140.991542,14952.160028
16278.064699,-4071.132681,-3064.381992,15026.180623
16278.065023,-3701.029710,-3064.381992,12435.459826
16278.065348,-3182.885551,-1762.019645,9844.739029
16278.065672,1258.350101,1532.190996,7179.997637
16278.065996,5403.503377,4596.572988,6883.915261
16278.066320,6143.709319,6128.763984,6439.791695
16278.066644,5477.523971,7354.516781,4885.359217
16278.066968,4737.318029,6052.154434,5403.503377
16278.067293,1406.391290,3600.648841,7698.141797
16278.067617,-1776.494261,1378.971896,9548.656652
16278.067941,-3923.091493,-995.924147,11843.295072
16278.068265,-6217.729913,-2987.772442,12879.583391
16278.068589,-6883.915261,-4366.744339,13619.789333
16278.068913,-5847.626942,-4596.572988,13027.624579
16278.069238,-5033.400406,-3140.991542,10732.986159
16278.069562,-1406.391290,-689.485948,7920.203579
16278.069886,3552.988522,2221.676944,6291.750507
16278.070210,6587.832884,5286.058936,5625.565159
16278.070534,7476.080014,6435.202183,5329.482782
16278.070858,7402.059420,6052.154434,4885.359217
16278.071183,4959.379811,4213.525239,6661.853478
16278.071507,2442.679609,2604.724693,7920.203579
16278.071831,74.020594,-766.095498,11547.212695
16278.072155,-4293.194464,-3983.696590,14137.933492
16278.072479,-7105.977043,-5515.887586,14804.118840
16278.072803,-6661.853478,-6665.030833,14952.160028
16278.073128,-6513.812290,-6052.154434,12361.439231
16278.073452,-5477.523971,-4213.525239,10362.883188
16278.073776,-1258.350101,-459.657299,6957.935855
16278.074100,3923.091493,3064.381992,6439.791695
16278.074424,5477.523971,4060.306139,5773.606348
16278.074748,5107.421000,5362.668486,4737.318029
16278.075073,5551.544565,4903.011187,5773.606348
16278.075397,2738.761985,3294.210641,7328.038826
16278.075721,74.020594,383.047749,10658.965565
16278.076045,-2960.823768,-2221.676944,12657.521608
16278.076369,-3849.070898,-4060.306139,13175.665768
16278.076693,-3256.906145,-4136.915689,14211.954086
16278.077018,-3775.050304,-4136.915689,13545.768739
16278.077342,-4071.132681,-3677.258390,10436.903782
16278.077666,-296.082377,-1455.581446,7550.100608
16278.077990,4589.276840,2757.943793,6143.709319
16278.078314,5699.585753,4749.792088,6809.894666
16278.078638,5625.565159,6511.811733,5107.421000
16278.078963,6217.729913,6052.154434,4219.173869
16278.079287,3627.009116,4060.306139,6217.729913
16278.079611,-518.144159,1685.410096,7994.224174
16278.079935,-2590.720797,0.000000,10140.821405
16278.080259,-5107.421000,-2221.676944,12213.398043
16278.080583,-6735.874072,-3830.477490,13249.686362
16278.080907,-5921.647536,-4136.915689,14508.036463
16278.081231,-5329.482782,-3753.867940,13249.686362
16278.081555,-3478.967927,-2451.505594,10732.986159
16278.081880,1406.391290,766.095498,7105.977043
16278.082204,5403.503377,4596.572988,6587.832884
16278.082528,6661.853478,6358.592633,6587.832884
16278.082852,7402.059420,6894.859482,4885.359217
16278.083176,6291.750507,7124.688131,5625.565159
16278.083500,3182.885551,4979.620737,8216.285956
16278.083824,-666.185348,2374.896044,10362.883188
16278.084148,-2886.803174,-1762.019645,10732.986159
16278.084472,-4145.153275,-3064.381992,11547.212695
16278.084796,-5699.585753,-2374.896044,14211.954086
16278.085120,-6217.729913,-3600.648841,13693.809927
16278.085445,-5847.626942,-3524.039291,10362.883188
16278.085769,-1998.556043,-2068.457845,7772.162391
16278.086093,2442.679609,2528.115143,7179.997637
16278.086417,5255.462188,4826.401637,7254.018232
16278.086741,5847.626942,5132.839837,5477.523971
16278.087065,6735.874072,5209.449386,5181.441594
16278.087389,3775.050304,4519.963438,6809.894666
16278.087713,814.226536,2145.067394,7920.203579
16278.088037,-444.123565,-1532.190996,9400.615463
16278.088361,-3108.864956,-2604.724693,12361.439231
16278.088686,-5107.421000,-3294.210641,14211.954086
16278.089010,-4441.235652,-4673.182538,14878.139434
16278.089334,-3923.091493,-5592.497135,12435.459826
16278.089658,-2812.782580,-3294.210641,9622.677246
16278.089982,1332.370696,459.657299,7698.141797
16278.090306,4885.359217,3217.601092,7179.997637
16278.090630,5181.441594,3600.648841,6809.894666
16278.090954,4885.359217,4903.011187,5551.544565
16278.091278,3627.009116,5132.839837,6587.832884
16278.091602,814.226536,1991.848295,8438.347739
16278.091926,-1110.308913,-1455.581446,8734.430116
16278.092251,-3108.864956,-2068.457845,10807.006753
16278.092575,-5847.626942,-3064.381992,13545.768739
16278.092899,-5477.523971,-3907.087040,14952.160028
16278.093223,-5033.400406,-5056.230287,12731.542202
16278.093547,-4293.194464,-4060.306139,9992.780217
16278.093871,-1332.370696,-842.705048,7476.080014
16278.094195,4293.194464,3064.381992,7031.956449
16278.094519,5625.565159,4213.525239,7105.977043
16278.094843,5181.441594,4213.525239,6883.915261
16278.095167,5329.482782,5515.887586,5995.668130
16278.095492,2590.720797,3294.210641,7402.059420
16278.095816,-962.267725,612.876398,7846.182985
16278.096140,-2442.679609,-612.876398,10362.883188
16278.096464,-4589.276840,-1302.362347,13471.748144
16278.096788,-5921.647536,-3064.381992,14434.015869
16278.097112,-4441.235652,-4136.915689,13693.809927
16278.097436,-4515.256246,-2298.286494,11029.068536
16278.097760,-4071.132681,-995.924147,7476.080014
16278.098084,1110.308913,1685.410096,5477.523971
16278.098408,5403.503377,4979.620737,6365.771101
16278.098733,5477.523971,7048.078582,6513.812290
16278.099057,4441.235652,6205.373534,4737.318029
16278.099381,3701.029710,4596.572988,5551.544565
16278.099705,740.205942,2987.772442,7402.059420
16278.100029,-1628.453072,0.000000,10214.842000
16278.100353,-3108.864956,-1685.410096,12583.501014
16278.100677,-3701.029710,-2528.115143,13915.871710
16278.101001,-2960.823768,-3140.991542,14434.015869
16278.101325,-2146.597232,-2757.943793,12361.439231
16278.101649,-1332.370696,-2221.676944,9548.656652
16278.101973,1924.535449,229.828649,7105.977043
16278.102298,6809.894666,3600.648841,6883.915261
16278.102622,7105.977043,5439.278036,6883.915261
16278.102946,5847.626942,5745.716235,5477.523971
16278.103270,4811.338623,5056.230287,5699.585753
16278.103594,2442.679609,2681.334243,8290.306550
16278.103918,-1036.288319,536.266849,10140.821405
16278.104242,-3330.926739,-1608.800546,11547.212695
16278.104566,-5847.626942,-3983.696590,13249.686362
16278.104890,-6735.874072,-4749.792088,13841.851115
16278.105214,-5477.523971,-4979.620737,12287.418637
16278.105539,-4737.318029,-4060.306139,10436.903782
16278.105863,-2368.659014,-1072.533697,8068.244768
16278.106187,2664.741391,2681.334243,6143.709319
16278.106511,5329.482782,4673.182538,6661.853478
16278.106835,5255.462188,5132.839837,5921.647536
16278.107159,5329.482782,5975.544884,5107.421000
16278.107483,4663.297435,4903.011187,6735.874072
16278.107807,518.144159,1762.019645,8956.491898
16278.108131,-2220.617826,-536.266849,10436.903782
16278.108455,-3552.988522,-1762.019645,12731.542202
16278.108779,-5921.647536,-3753.867940,13323.706956
16278.109104,-4071.132681,-3907.087040,14730.098246
16278.109428,-3552.988522,-3447.429741,12805.562797
16278.109752,-3404.947333,-2451.505594,9400.615463
16278.110076,148.041188,-383.047749,6883.915261
16278.110400,4885.359217,3217.601092,6291.750507
16278.110724,5255.462188,5286.058936,6957.935855
16278.111048,4367.215058,5898.935335,5255.462188
16278.111372,4367.215058,4673.182538,5329.482782
16278.111696,592.164754,2681.334243,7772.162391
16278.112020,-1998.556043,229.828649,9548.656652
16278.112345,-3330.926739,-2145.067394,11621.233289
16278.112669,-6069.688724,-3907.087040,13101.645173
16278.112993,-6439.791695,-4443.353888,14285.974681
16278.113317,-3701.029710,-3677.258390,13323.706956
16278.113641,-2738.761985,-2528.115143,10658.965565
16278.113965,-370.102971,-459.657299,7698.141797
16278.114289,4885.359217,3447.429741,5403.503377
16278.114613,8216.285956,6741.640382,6439.791695
16278.114937,8290.306550,6281.983084,5255.462188
16278.115261,7031.956449,6818.249932,4737.318029
16278.115585,4219.173869,4903.011187,7920.203579
16278.115910,518.144159,2298.286494,9178.553681
16278.116234,-1702.473667,-766.095498,11251.130318
16278.116558,-4737.318029,-2451.505594,12953.603985
16278.116882,-6661.853478,-3753.867940,13989.892304
16278.117206,-5107.421000,-4443.353888,13545.768739
16278.117530,-3404.947333,-4060.306139,11547.212695
16278.117854,-3701.029710,-2757.943793,9622.677246
16278.118178,518.144159,1072.533697,7254.018232
16278.118502,5773.606348,4290.134789,6883.915261
16278.118826,6439.791695,5132.839837,6957.935855
16278.119151,5699.585753,5975.544884,5847.626942
16278.119475,5255.462188,5822.325785,5255.462188
16278.119799,740.205942,2834.553343,7920.203579
16278.120123,-2590.720797,-459.657299,9030.512492
16278.120447,-3997.112087,-1685.410096,11843.295072
16278.120771,-6513.812290,-3753.867940,13915.871710
16278.121095,-6957.935855,-4443.353888,13693.809927
16278.121419,-4589.276840,-4366.744339,13175.665768
16278.121743,-5033.400406,-3217.601092,9548.656652
16278.122067,-2886.803174,-1455.581446,6957.935855
16278.122392,2442.679609,2374.896044,5847.626942
16278.122716,5551.544565,5975.544884,5107.421000
16278.123040,4441.235652,5439.278036,5699.585753
16278.123364,3775.050304,4903.011187,4515.256246
16278.123688,2664.741391,3907.087040,6735.874072
16278.124012,-444.123565,2068.457845,9252.574275
16278.124336,-2146.597232,-306.438199,11547.212695
16278.124660,-3849.070898,-3294.210641,13101.645173
16278.124984,-4959.379811,-3983.696590,13471.748144
16278.125308,-3701.029710,-4213.525239,14137.933492
16278.125632,-2368.659014,-3447.429741,12583.501014
16278.125957,-1110.308913,-1991.848295,9696.697840
16278.126281,3034.844362,1225.752797,7031.956449
16278.126605,7105.977043,3600.648841,6809.894666
16278.126929,6809.894666,4749.792088,6957.935855
16278.127253,5847.626942,5209.449386,5921.647536
16278.127577,5107.421000,4366.744339,6513.812290
16278.127901,1406.391290,2298.286494,9178.553681
16278.128225,-1036.288319,76.609550,10214.842000
16278.128549,-2442.679609,-2298.286494,11473.192101
16278.128873,-4737.318029,-3524.039291,12509.480420
16278.129198,-5107.421000,-3217.601092,13175.665768
16278.129522,-2368.659014,-2834.553343,12953.603985
16278.129846,-2220.617826,-2298.286494,10436.903782
16278.130170,-1036.288319,-842.705048,7328.038826
16278.130494,3997.112087,3524.039291,5403.503377
16278.130818,5995.668130,5592.497135,5921.647536
16278.131142,5403.503377,5669.106685,5329.482782
16278.131466,4737.318029,5592.497135,5181.441594
16278.131790,2442.679609,4903.011187,7402.059420
16278.132114,-888.247130,1685.410096,9474.636058
16278.132438,-2960.823768,-995.924147,11547.212695
16278.132763,-5255.462188,-2834.553343,12361.439231
16278.133087,-6217.729913,-3370.820191,13693.809927
16278.133411,-3775.050304,-3524.039291,14063.912898
16278.133735,-3404.947333,-3064.381992,12065.356855
16278.134059,-2590.720797,-1915.238745,8882.471304
16278.134383,1332.370696,1532.190996,6809.894666
16278.134707,5403.503377,4826.401637,6957.935855
16278.135031,5847.626942,5439.278036,7031.956449
16278.135355,4737.318029,5056.230287,5625.565159
16278.135679,4219.173869,4519.963438,6217.729913
16278.136004,222.061783,2451.505594,8586.388927
16278.136328,-1850.514855,-689.485948,9400.615463
16278.136652,-4515.256246,-2911.162892,11251.130318
16278.136976,-6587.832884,-3524.039291,13027.624579
16278.137300,-6439.791695,-3753.867940,13545.768739
16278.137624,-4589.276840,-4673.182538,12583.501014
16278.137948,-3404.947333,-3140.991542,9918.759623
16278.138272,-888.247130,153.219100,6957.935855
16278.138596,4589.276840,3600.648841,5773.606348
16278.138920,7105.977043,3753.867940,6291.750507
16278.139245,6587.832884,5286.058936,6069.688724
16278.139569,5477.523971,6205.373534,6143.709319
16278.139893,3034.844362,3600.648841,8216.285956
16278.140217,666.185348,0.000000,9474.636058
16278.140541,-1406.391290,-1302.362347,11843.295072
16278.140865,-4219.173869,-2528.115143,13767.830521
16278.141189,-5477.523971,-4443.353888,14804.118840
16278.141513,-3552.988522,-4903.011187,14211.954086
16278.141837,-2812.782580,-3753.867940,11547.212695
16278.142161,-2220.617826,-1838.629195,8512.368333
16278.142485,2072.576638,1762.019645,6143.709319
16278.142810,5847.626942,4596.572988,6439.791695
16278.143134,5699.585753,5898.935335,5699.585753
16278.143458,5403.503377,5439.278036,5181.441594
16278.143782,3552.988522,3983.696590,6069.688724
16278.144106,0.000000,1685.410096,7994.224174
16278.144430,-2516.700203,-689.485948,10214.842000
16278.144754,-4293.194464,-3064.381992,12213.398043
16278.145078,-6513.812290,-4366.744339,13545.768739
16278.145402,-5329.482782,-4519.963438,13545.768739
16278.145726,-2812.782580,-2757.943793,12583.501014
16278.146051,-2368.659014,-2068.457845,10214.842000
16278.146375,-296.082377,-306.438199,7402.059420
16278.146699,4737.318029,3370.820191,6143.709319
16278.147023,6587.832884,5898.935335,6587.832884
16278.147347,5551.544565,6205.373534,5551.544565
16278.147671,4737.318029,5745.716235,5847.626942
16278.147995,2146.597232,3294.210641,7402.059420
16278.148319,-1998.556043,1072.533697,9548.656652
16278.148643,-4293.194464,-1991.848295,11473.192101
16278.148967,-6365.771101,-3677.258390,13101.645173
16278.149291,-6883.915261,-4060.306139,13767.830521
16278.149616,-5181.441594,-4060.306139,13471.748144
16278.149940,-3330.926739,-2987.772442,11251.130318
16278.150264,-1628.453072,-1149.143247,8660.409521
16278.150588,2738.761985,2528.115143,6217.729913
16278.150912,6809.894666,5515.887586,5773.606348
16278.151236,7254.018232,5898.935335,6143.709319
16278.151560,6143.709319,6588.421283,5551.544565
16278.151884,5033.400406,5439.278036,6587.832884
16278.152208,1480.411884,3140.991542,8882.471304
16278.152532,-1184.329507,-766.095498,9844.739029
16278.152857,-3034.844362,-2298.286494,12287.418637
16278.153181,-5921.647536,-3064.381992,14063.912898
16278.153505,-5699.585753,-3677.258390,14137.933492
16278.153829,-3478.967927,-3907.087040,12361.439231
16278.154153,-2442.679609,-2451.505594,9474.636058
16278.154477,-1110.308913,0.000000,6291.750507
16278.154801,4441.235652,3983.696590,6069.688724
16278.155125,6883.915261,5669.106685,6217.729913
16278.155449,5477.523971,5439.278036,5773.606348
16278.155773,4367.215058,4979.620737,5995.668130
16278.156097,2072.576638,3983.696590,8364.327145
16278.156422,-444.123565,919.314598,8808.450710
16278.156746,-2294.638420,-2221.676944,11473.192101
16278.157070,-4663.297435,-3677.258390,13619.789333
16278.157394,-5699.585753,-4136.915689,13619.789333
16278.157718,-3923.091493,-4596.572988,13989.892304
16278.158042,-2294.638420,-3447.429741,11917.315666
16278.158366,-1628.453072,-2221.676944,9400.615463
16278.158690,2146.597232,1608.800546,6957.935855
16278.159014,5921.647536,4060.306139,7031.956449
16278.159338,5699.585753,5362.668486,6513.812290
16278.159663,3923.091493,4596.572988,5329.482782
16278.159987,2664.741391,3830.477490,6143.709319
16278.160311,74.020594,1762.019645,8142.265362
16278.160635,-2516.700203,-919.314598,10066.800811
16278.160959,-4737.318029,-2987.772442,11991.336260
16278.161283,-6439.791695,-4213.525239,12953.603985
16278.161607,-5551.544565,-3983.696590,12583.501014
16278.161931,-2886.803174,-3600.648841,11473.192101
16278.162255,-2368.659014,-2757.943793,9622.677246
16278.162579,0.000000,-229.828649,7254.018232
16278.162904,5107.421000,3064.381992,7105.977043
16278.163228,7550.100608,4903.011187,7846.182985
16278.163552,7105.977043,5362.668486,7846.182985
16278.163876,6513.812290,4903.011187,7031.956449
16278.164200,3330.926739,3064.381992,8512.368333
16278.164524,-296.082377,612.876398,9252.574275
16278.164848,-1406.391290,-766.095498,11547.212695
16278.165172,-4071.132681,-2221.676944,12805.562797
16278.165496,-5181.441594,-3677.258390,12583.501014
16278.165820,-2738.761985,-2757.943793,11991.336260
16278.166144,-3552.988522,-2145.067394,10955.047942
16278.166469,-3404.947333,-995.924147,7772.162391
16278.166793,1332.370696,1838.629195,6439.791695
16278.167117,4145.153275,4903.011187,6143.709319
16278.167441,4367.215058,5745.716235,6069.688724
16278.167765,3849.070898,5439.278036,5699.585753
16278.168089,2590.720797,4979.620737,6143.709319
16278.168413,-888.247130,2145.067394,8290.306550
16278.168737,-2294.638420,-536.266849,10288.862594
16278.169061,-3330.926739,-1685.410096,12509.480420
16278.169385,-5107.421000,-3294.210641,12879.583391
16278.169710,-4589.276840,-3447.429741,13249.686362
16278.170034,-2516.700203,-2451.505594,12509.480420
16278.170358,-1850.514855,-2145.067394,10362.883188
16278.170682,296.082377,383.047749,7624.121203
16278.171006,5477.523971,4060.306139,6439.791695
16278.171330,6883.915261,6281.983084,7550.100608
16278.171654,5773.606348,5362.668486,6661.853478
16278.171978,4737.318029,4673.182538,6661.853478
16278.172302,1702.473667,3907.087040,8882.471304
16278.172626,-1702.473667,1455.581446,9326.594869
16278.172950,-2960.823768,-1838.629195,10732.986159
16278.173275,-5699.585753,-3064.381992,11473.192101
16278.173599,-7179.997637,-3830.477490,12065.356855
16278.173923,-5107.421000,-3753.867940,12509.480420
16278.174247,-4071.132681,-3600.648841,10658.965565
16278.174571,-3330.926739,-2451.505594,8512.368333
16278.174895,1110.308913,1072.533697,6365.771101
16278.175219,6217.729913,4136.915689,6957.935855
16278.175543,6143.709319,3600.648841,7031.956449
16278.175867,5551.544565,5515.887586,5773.606348
16278.176191,4367.215058,4596.572988,7698.141797
16278.176516,1258.350101,1838.629195,8586.388927
16278.176840,-444.123565,-1149.143247,9770.718434
16278.177164,-2442.679609,-2451.505594,12065.356855
16278.177488,-4811.338623,-3140.991542,12879.583391
16278.177812,-4293.194464,-2987.772442,13989.892304
16278.178136,-1850.514855,-4060.306139,12139.377449
16278.178460,-1184.329507,-2374.896044,9400.615463
16278.178784,444.123565,536.266849,7031.956449
16278.179108,4885.359217,3140.991542,6291.750507
16278.179432,6365.771101,4366.744339,7179.997637
16278.179757,4885.359217,4826.401637,7105.977043
16278.180081,2960.823768,3907.087040,7254.018232
16278.180405,1258.350101,1838.629195,8512.368333
16278.180729,-1184.329507,-306.438199,8956.491898
16278.181053,-3404.947333,-1838.629195,11769.274478
16278.181378,-5847.626942,-2757.943793,13619.789333
16278.181702,-5847.626942,-3524.039291,13101.645173
16278.182026,-3478.967927,-3524.039291,11473.192101
16278.182350,-2886.803174,-2757.943793,9252.574275
16278.182674,-2146.597232,0.000000,6883.915261
16278.182999,2294.638420,2757.943793,6587.832884
16278.183323,5255.462188,4366.744339,6957.935855
16278.183647,4959.379811,4826.401637,7105.977043
16278.183971,3997.112087,5209.449386,6883.915261
16278.184295,3256.906145,4136.915689,7772.162391
16278.184620,74.020594,689.485948,8660.409521
16278.184944,-1998.556043,-536.266849,9844.739029
16278.185268,-3182.885551,-1532.190996,11843.295072
16278.185592,-4663.297435,-2604.724693,13175.665768
16278.185917,-3552.988522,-3217.601092,12287.418637
16278.186241,-2368.659014,-2068.457845,11399.171507
16278.186565,-2664.741391,-1762.019645,8882.471304
16278.186889,518.144159,766.095498,7179.997637
16278.187213,5329.482782,3677.258390,6661.853478
16278.187538,5329.482782,5056.230287,6661.853478
16278.187862,3256.906145,4596.572988,7105.977043
16278.188186,2146.597232,4213.525239,7550.100608
16278.188510,74.020594,1762.019645,8586.388927
16278.188834,-1628.453072,-612.876398,9400.615463
16278.189159,-2220.617826,-1225.752797,12287.418637
16278.189483,-4293.194464,-2451.505594,13249.686362
16278.189807,-3478.967927,-3370.820191,12139.377449
16278.190131,-1258.350101,-3140.991542,11325.150913
16278.190455,-888.247130,-919.314598,10066.800811
16278.190780,814.226536,1302.362347,7550.100608
16278.191104,5329.482782,3294.210641,6069.688724
16278.191428,7105.977043,5056.230287,6661.853478
16278.191752,5107.421000,5439.278036,6513.812290
16278.192076,3256.906145,4749.792088,5403.503377
16278.192401,2368.659014,2528.115143,7550.100608
16278.192725,-1184.329507,76.609550,8882.471304
16278.193049,-3627.009116,-1838.629195,10881.027347
16278.193373,-5477.523971,-3064.381992,13101.645173
16278.193697,-6661.853478,-4213.525239,12953.603985
16278.194022,-4959.379811,-3983.696590,11547.212695
16278.194346,-2072.576638,-2681.334243,10140.821405
16278.194670,-1332.370696,-689.485948,8512.368333
16278.194994,1628.453072,1608.800546,7105.977043
16278.195318,5255.462188,3677.258390,6809.894666
16278.195643,5255.462188,5209.449386,7920.203579
16278.195967,3701.029710,5056.230287,7402.059420
16278.196291,2442.679609,3830.477490,7698.141797
16278.196615,0.000000,689.485948,8586.388927
16278.196939,-2664.741391,-383.047749,10510.924376
16278.197264,-4441.235652,-2298.286494,13471.748144
16278.197588,-5995.668130,-3677.258390,13397.727550
16278.197912,-5403.503377,-4060.306139,12139.377449
16278.198236,-3182.885551,-2757.943793,10807.006753
16278.198561,-2072.576638,-1455.581446,8956.491898
16278.198885,-74.020594,536.266849,6143.709319
16278.199209,4441.235652,3524.039291,5773.606348
16278.199533,6365.771101,5592.497135,6587.832884
16278.199857,4811.338623,5439.278036,6735.874072
16278.200182,3997.112087,3753.867940,6439.791695
16278.200506,1924.535449,2068.457845,7772.162391
16278.200830,-1628.453072,153.219100,9696.697840
16278.201154,-3404.947333,-1838.629195,12435.459826
16278.201478,-3701.029710,-3830.477490,13767.830521
16278.201803,-4367.215058,-3600.648841,13471.748144
16278.202127,-2738.761985,-2987.772442,11917.315666
16278.202451,-888.247130,-2374.896044,10140.821405
16278.202775,148.041188,-919.314598,7698.141797
16278.203099,3701.029710,2834.553343,6365.771101
16278.203424,7031.956449,4519.963438,6661.853478
16278.203748,5847.626942,5209.449386,6735.874072
16278.204072,4219.173869,4903.011187,7254.018232
16278.204396,2590.720797,3370.820191,7994.224174
16278.204720,-222.061783,536.266849,9252.574275
16278.205045,-3108.864956,-1762.019645,11029.068536
16278.205369,-4737.318029,-1838.629195,12657.521608
16278.205693,-4663.297435,-3447.429741,13249.686362
16278.206017,-3552.988522,-3677.258390,12213.398043
16278.206341,-1850.514855,-2298.286494,10807.006753
16278.206666,-1554.432478,0.000000,8290.306550
16278.206990,740.205942,1532.190996,5699.585753
16278.207314,4811.338623,4366.744339,4885.359217
16278.207638,6365.771101,6205.373534,6883.915261
16278.207962,3552.988522,5592.497135,6069.688724
16278.208287,2960.823768,3983.696590,5995.668130
16278.208611,740.205942,2528.115143,8512.368333
16278.208935,-2072.576638,229.828649,10362.883188
16278.209259,-3923.091493,-2374.896044,11843.295072
16278.209583,-5107.421000,-4136.915689,13619.789333
16278.209908,-5477.523971,-4213.525239,12731.542202
16278.210232,-3034.844362,-2757.943793,13027.624579
16278.210556,-2368.659014,-2221.676944,11473.192101
16278.210880,-1554.432478,-1225.752797,8216.285956
16278.211205,2590.720797,2451.505594,6439.791695
16278.211529,6365.771101,5439.278036,6143.709319
16278.211853,5477.523971,4749.792088,6661.853478
16278.212177,3552.988522,4213.525239,5773.606348
16278.212501,2146.597232,3983.696590,7994.224174
16278.212826,-1110.308913,919.314598,9696.697840
16278.213150,-3552.988522,-2604.724693,10881.027347
16278.213474,-3849.070898,-3447.429741,11399.171507
16278.213798,-5625.565159,-2757.943793,13101.645173
16278.214122,-5107.421000,-3370.820191,12657.521608
16278.214447,-2146.597232,-2834.553343,12139.377449
16278.214771,-592.164754,-1685.410096,9326.594869
16278.215095,1998.556043,2298.286494,5477.523971
16278.215419,5773.606348,4213.525239,5181.441594
16278.215743,6957.935855,5745.716235,6143.709319
16278.216068,6291.750507,5898.935335,6513.812290
16278.216392,4441.235652,4903.011187,8438.347739
16278.216716,1184.329507,1915.238745,9104.533087
16278.217040,-2368.659014,-689.485948,8734.430116
16278.217364,-3997.112087,-3294.210641,11325.150913
16278.217689,-5699.585753,-3907.087040,12805.562797
16278.218013,-6661.853478,-4596.572988,13693.809927
16278.218337,-3701.029710,-4519.963438,12731.542202
16278.218661,-1998.556043,-2221.676944,10732.986159
16278.218985,-1332.370696,-153.219100,7772.162391
16278.219310,2368.659014,3217.601092,5255.462188
16278.219634,6217.729913,5592.497135,7105.977043
16278.219958,5921.647536,6205.373534,6809.894666
16278.220282,4737.318029,5439.278036,6587.832884
16278.220606,2442.679609,4213.525239,7254.018232
16278.220931,-666.185348,1302.362347,8882.471304
16278.221255,-3404.947333,-1225.752797,11177.109724
16278.221579,-4589.276840,-3447.429741,13397.727550
16278.221903,-6069.688724,-3753.867940,13693.809927
16278.222227,-4885.359217,-4136.915689,12583.501014
16278.222552,-2368.659014,-2068.457845,10658.965565
16278.222876,-2072.576638,-536.266849,8586.388927
16278.223200,0.000000,1608.800546,5921.647536
16278.223524,5477.523971,4519.963438,4441.235652
16278.223849,6661.853478,5669.106685,5773.606348
16278.224173,4441.235652,4979.620737,6513.812290
16278.224497,3330.926739,4060.306139,7254.018232
16278.224821,0.000000,1685.410096,9770.718434
16278.225145,-3701.029710,-1378.971896,10658.965565
16278.225470,-3701.029710,-3600.648841,11695.253884
16278.225794,-3627.009116,-3064.381992,13545.768739
16278.226118,-6217.729913,-3983.696590,14211.954086
16278.226442,-3849.070898,-3524.039291,11917.315666
16278.226766,-740.205942,-3907.087040,10658.965565
16278.227091,-222.061783,-459.657299,8364.327145
16278.227415,4367.215058,2604.724693,6217.729913
16278.227739,7846.182985,5515.887586,6439.791695
16278.228063,6883.915261,5975.544884,7105.977043
16278.228387,4515.256246,5669.106685,7476.080014
16278.228712,3256.906145,3370.820191,7105.977043
16278.229036,-296.082377,229.828649,8438.347739
16278.229360,-2590.720797,-1455.581446,10732.986159
16278.229684,-3775.050304,-2298.286494,13693.809927
16278.230008,-6439.791695,-3677.258390,14804.118840
16278.230333,-4959.379811,-4673.182538,12435.459826
16278.230657,-1924.535449,-2528.115143,9844.739029
16278.230981,-1036.288319,-229.828649,7698.141797
16278.231305,1258.350101,2145.067394,5699.585753
16278.231629,6069.688724,4519.963438,5477.523971
16278.231954,6365.771101,6358.592633,6587.832884
16278.232278,3849.070898,5745.716235,6291.750507
16278.232602,2294.638420,4060.306139,6587.832884
16278.232926,-444.123565,1532.190996,8438.347739
16278.233250,-3997.112087,-766.095498,10066.800811
16278.233575,-4737.318029,-2451.505594,12953.603985
16278.233899,-5921.647536,-4366.744339,13471.748144
16278.234223,-6143.709319,-4903.011187,12805.562797
16278.234547,-3182.885551,-3447.429741,11621.233289
16278.234871,-592.164754,-1378.971896,11029.068536
16278.235196,222.061783,0.000000,9030.512492
16278.235520,4737.318029,2987.772442,6217.729913
16278.235844,8882.471304,6128.763984,6291.750507
16278.236168,6587.832884,6358.592633,6439.791695
16278.236493,4737.318029,5132.839837,6217.729913
16278.236817,2368.659014,3524.039291,8438.347739
16278.237141,-1184.329507,459.657299,9696.697840
16278.237465,-4367.215058,-2451.505594,11029.068536
16278.237789,-5847.626942,-4673.182538,12731.542202
16278.238114,-7328.038826,-3907.087040,13841.851115
16278.238438,-6439.791695,-4213.525239,12805.562797
16278.238762,-2516.700203,-3294.210641,10362.883188
16278.239086,-740.205942,-1225.752797,8142.265362
16278.239410,2516.700203,3140.991542,5033.400406
16278.239735,6957.935855,5822.325785,5033.400406
16278.240059,7328.038826,6128.763984,6217.729913
16278.240383,5921.647536,5745.716235,6365.771101
16278.240707,4441.235652,5286.058936,7772.162391
16278.241031,1702.473667,2068.457845,8882.471304
16278.241356,-1924.535449,-1378.971896,10214.842000
16278.241680,-3923.091493,-3064.381992,12509.480420
16278.242004,-5773.606348,-4060.306139,14434.015869
16278.242328,-6217.729913,-5056.230287,14137.933492
16278.242652,-2960.823768,-4136.915689,11621.233289
16278.242977,-1628.453072,-1838.629195,9696.697840
16278.243301,-518.144159,0.000000,7920.203579
16278.243625,4071.132681,4366.744339,6365.771101
16278.243949,7105.977043,5898.935335,6883.915261
16278.244273,5181.441594,5669.106685,5477.523971
16278.244598,3997.112087,5898.935335,5699.585753
16278.244922,2294.638420,5056.230287,7328.038826
16278.245246,-2072.576638,689.485948,8882.471304
16278.245570,-4737.318029,-2374.896044,11399.171507
16278.245894,-5107.421000,-3140.991542,13101.645173
16278.246219,-7031.956449,-4213.525239,13841.851115
16278.246543,-6143.709319,-4673.182538,12361.439231
16278.246867,-2664.741391,-2451.505594,10807.006753
16278.247191,-1406.391290,-919.314598,8586.388927
16278.247515,1850.514855,2068.457845,5773.606348
16278.247840,5921.647536,5439.278036,5625.565159
16278.248164,7105.977043,6665.030833,5551.544565
16278.248488,4737.318029,5822.325785,5847.626942
16278.248812,3552.988522,3753.867940,6809.894666
16278.249137,444.123565,2374.896044,10140.821405
16278.249461,-3108.864956,-1302.362347,11251.130318
16278.249785,-4959.379811,-3753.867940,12879.583391
16278.250109,-6069.688724,-5898.935335,14434.015869
16278.250433,-6661.853478,-5362.668486,13471.748144
16278.250758,-4219.173869,-4596.572988,13397.727550
16278.251082,-1554.432478,-2834.553343,10881.027347
16278.251406,222.061783,229.828649,7772.162391
16278.251730,4737.318029,3524.039291,5847.626942
16278.252054,8068.244768,5975.544884,6217.729913
16278.252379,7698.141797,5975.544884,6291.750507
16278.252703,6217.729913,5745.716235,6217.729913
16278.253027,2664.741391,3983.696590,8068.244768
16278.253351,-1036.288319,76.609550,8956.491898
16278.253675,-3182.885551,-1915.238745,10732.986159
16278.254000,-4441.235652,-3447.429741,13323.706956
16278.254324,-6365.771101,-3983.696590,14359.995275
16278.254648,-5329.482782,-4903.011187,11917.315666
16278.254972,-2368.659014,-2834.553343,10288.862594
16278.255296,-1480.411884,-536.266849,7994.224174
16278.255621,1554.432478,2681.334243,5181.441594
16278.255945,6513.812290,5669.106685,5551.544565
16278.256269,7846.182985,6205.373534,5181.441594
16278.256593,5181.441594,4979.620737,5107.421000
16278.256917,4071.132681,4596.572988,6809.894666
16278.257242,1036.288319,2528.115143,9474.636058
16278.257566,-2812.782580,-1608.800546,11325.150913
16278.257890,-3330.926739,-3064.381992,13471.748144
16278.258214,-4071.132681,-3524.039291,14952.160028
16278.258538,-5403.503377,-4749.792088,14211.954086
16278.258863,-3182.885551,-3600.648841,12435.459826
16278.259187,-1110.308913,-1455.581446,10362.883188
16278.259511,222.061783,689.485948,7402.059420
16278.259835,3923.091493,3370.820191,5551.544565
16278.260159,6883.915261,6128.763984,5551.544565
16278.260484,5403.503377,6588.421283,5847.626942
16278.260808,2960.823768,4903.011187,6587.832884
16278.261132,962.267725,3600.648841,7402.059420
16278.261456,-1702.473667,536.266849,8068.244768
16278.261781,-4515.256246,-2681.334243,10362.883188
16278.262105,-6069.688724,-3524.039291,13027.624579
16278.262429,-7772.162391,-4443.353888,13915.871710
16278.262753,-5107.421000,-4826.401637,12509.480420
16278.263077,-1924.535449,-2834.553343,10658.965565
16278.263402,-814.226536,-1149.143247,8512.368333
16278.263726,2368.659014,2298.286494,5699.585753
16278.264050,6587.832884,4979.620737,6217.729913
16278.264374,7179.997637,6052.154434,7105.977043
16278.264698,4959.379811,5286.058936,6809.894666
16278.265023,3256.906145,4290.134789,7179.997637
16278.265347,888.247130,2145.067394,9104.533087
16278.265671,-1924.535449,-1532.190996,10955.047942
16278.265995,-3849.070898,-2911.162892,12953.603985
16278.266319,-4811.338623,-4213.525239,14137.933492
16278.266644,-4737.318029,-4443.353888,13397.727550
16278.266968,-2516.700203,-3370.820191,11547.212695
16278.267292,-740.205942,-2221.676944,9178.553681
16278.267616,814.226536,0.000000,6883.915261
16278.267940,4959.379811,3677.258390,5847.626942
16278.268265,6957.935855,6052.154434,5995.668130
16278.268589,5477.523971,5286.058936,6661.853478
16278.268913,2960.823768,4749.792088,6587.832884
16278.269237,74.020594,2757.943793,8438.347739
16278.269561,-2738.761985,-459.657299,9030.512492
16278.269886,-5107.421000,-2451.505594,10214.842000
16278.270210,-6735.874072,-3524.039291,12213.398043
16278.270534,-8290.306550,-3753.867940,13101.645173
16278.270858,-6957.935855,-4290.134789,11843.295072
16278.271182,-2738.761985,-3140.991542,10436.903782
16278.271507,-222.061783,-153.219100,8586.388927
16278.271831,2220.617826,2757.943793,6809.894666
16278.272155,6365.771101,5362.668486,6661.853478
16278.272479,7994.224174,6588.421283,7550.100608
16278.272804,6439.791695,6128.763984,7476.080014
16278.273128,4737.318029,4826.401637,7994.224174
16278.273452,1628.453072,2374.896044,8438.347739
16278.273776,-1628.453072,-383.047749,9844.739029
16278.274100,-3478.967927,-2145.067394,12953.603985
16278.274425,-5107.421000,-3983.696590,13989.892304
16278.274749,-5699.585753,-4290.134789,13175.665768
16278.275073,-3034.844362,-3064.381992,10955.047942
16278.275397,-2146.597232,-1685.410096,8882.471304
16278.275721,-740.205942,-306.438199,7105.977043
16278.276046,3034.844362,3370.820191,7105.977043
16278.276370,5773.606348,5669.106685,6883.915261
16278.276694,5181.441594,5439.278036,5477.523971
16278.277018,3330.926739,4749.792088,5921.647536
16278.277342,888.247130,3907.087040,7328.038826
16278.277667,-1332.370696,1225.752797,9326.594869
16278.277991,-3627.009116,-1991.848295,10732.986159
16278.278315,-3997.112087,-3140.991542,12805.562797
16278.278639,-4811.338623,-3294.210641,13767.830521
16278.278963,-3701.029710,-3370.820191,12065.356855
16278.279288,-1332.370696,-2374.896044,11251.130318
16278.279612,-296.082377,-1225.752797,8734.430116
16278.279936,2960.823768,2528.115143,7105.977043
16278.280260,7254.018232,5515.887586,6883.915261
16278.280584,7772.162391,5132.839837,6365.771101
16278.280908,5107.421000,4826.401637,6513.812290
16278.281233,3256.906145,4826.401637,7920.203579
16278.281557,444.123565,1991.848295,9622.677246
16278.281881,-1924.535449,-1685.410096,9918.759623
16278.282205,-3404.947333,-2681.334243,11547.212695
16278.282529,-5551.544565,-2451.505594,14063.912898
16278.282853,-5403.503377,-3983.696590,13101.645173
16278.283177,-3034.844362,-4366.744339,11621.233289
16278.283501,-962.267725,-1838.629195,9252.574275
16278.283826,370.102971,2068.457845,7105.977043
16278.284150,3627.009116,3677.258390,5847.626942
16278.284474,6217.729913,4826.401637,5477.523971
16278.284798,4885.359217,5209.449386,6291.750507
16278.285122,2146.597232,4749.792088,6883.915261
16278.285446,-444.123565,2451.505594,8216.285956
16278.285770,-2294.638420,-536.266849,9400.615463
16278.286094,-4219.173869,-2374.896044,11399.171507
16278.286419,-6069.688724,-3064.381992,13619.789333
16278.286743,-6735.874072,-3830.477490,12953.603985
16278.287067,-3849.070898,-3600.648841,12213.398043
16278.287391,-962.267725,-2298.286494,10436.903782
16278.287715,0.000000,306.438199,9326.594869
16278.288039,3034.844362,2221.676944,7179.997637
16278.288363,7328.038826,4903.011187,7179.997637
16278.288687,7772.162391,6435.202183,7624.121203
16278.289012,5995.668130,5975.544884,7846.182985
16278.289336,3552.988522,4213.525239,8660.409521
16278.289660,444.123565,1225.752797,9030.512492
16278.289984,-2590.720797,-1762.019645,9474.636058
16278.290308,-3775.050304,-2681.334243,11769.274478
16278.290632,-4811.338623,-2681.334243,13471.748144
16278.290956,-4515.256246,-3830.477490,11843.295072
16278.291281,-2442.679609,-3830.477490,10584.944971
16278.291605,-1554.432478,-1915.238745,8512.368333
16278.291929,74.020594,1762.019645,6513.812290
16278.292253,3627.009116,3677.258390,5403.503377
16278.292577,5625.565159,5515.887586,5477.523971
16278.292901,4219.173869,5362.668486,5477.523971
16278.293225,3182.885551,4903.011187,6439.791695
16278.293549,370.102971,2681.334243,8438.347739
16278.293874,-2368.659014,-459.657299,8734.430116
16278.294198,-4885.359217,-2528.115143,10881.027347
16278.294522,-4959.379811,-3447.429741,13397.727550
16278.294846,-4737.318029,-3753.867940,13915.871710
16278.295170,-2664.741391,-3447.429741,12509.480420
16278.295494,-740.205942,-2068.457845,11103.089130
16278.295818,222.061783,76.609550,8956.491898
16278.296142,3552.988522,2911.162892,7402.059420
16278.296467,6513.812290,4596.572988,6809.894666
16278.296791,6217.729913,5362.668486,7105.977043
16278.297115,4515.256246,5286.058936,6883.915261
16278.297439,1628.453072,3447.429741,8438.347739
16278.297763,-1702.473667,153.219100,9474.636058
16278.298087,-3849.070898,-1532.190996,9770.718434
16278.298411,-4811.338623,-2911.162892,12139.377449
16278.298735,-6439.791695,-3907.087040,13397.727550
16278.299060,-5773.606348,-4290.134789,12213.398043
16278.299384,-3552.988522,-3064.381992,10584.944971
16278.299708,-2294.638420,-1685.410096,8660.409521
16278.300032,-296.082377,306.438199,6291.750507
16278.300356,3923.091493,3677.258390,5921.647536
16278.300680,5773.606348,5286.058936,6883.915261
16278.301004,4811.338623,4979.620737,6143.709319
16278.301329,3775.050304,4213.525239,6291.750507
16278.301653,1776.494261,3524.039291,8586.388927
16278.301977,-592.164754,766.095498,9474.636058
16278.302301,-1184.329507,-1838.629195,11029.068536
16278.302625,-2146.597232,-2221.676944,11843.295072
16278.302949,-2590.720797,-2145.067394,13767.830521
16278.303273,-1332.370696,-2068.457845,13101.645173
16278.303597,1406.391290,-1991.848295,10584.944971
16278.303922,2368.659014,306.438199,8660.409521
16278.304246,4811.338623,3140.991542,7550.100608
16278.304570,7179.997637,5515.887586,7994.224174
16278.304894,7105.977043,3830.477490,7476.080014
16278.305218,4589.276840,3983.696590,7402.059420
16278.305542,1332.370696,3524.039291,8956.491898
16278.305866,-2072.576638,1149.143247,9030.512492
16278.306190,-5033.400406,-2987.772442,9252.574275
16278.306515,-6883.915261,-3907.087040,10807.006753
16278.306839,-7772.162391,-2834.553343,12583.501014
16278.307163,-7846.182985,-4213.525239,11251.130318
16278.307487,-4589.276840,-4519.963438,10214.842000
16278.307811,-2442.679609,-1378.971896,8512.368333
16278.308135,-962.267725,1685.410096,6587.832884
16278.308459,3404.947333,3217.601092,5773.606348
16278.308783,7105.977043,4903.011187,6587.832884
16278.309108,6661.853478,6741.640382,7328.038826
16278.309432,4441.235652,6358.592633,8734.430116
16278.309756,2220.617826,2604.724693,8956.491898
16278.310080,0.000000,-459.657299,8734.430116
16278.310404,-1924.535449,-1302.362347,11251.130318
16278.310728,-3997.112087,-1762.019645,13767.830521
16278.311052,-4071.132681,-2987.772442,13693.809927
16278.311376,-2146.597232,-3677.258390,11843.295072
16278.311701,-1258.350101,-2528.115143,9844.739029
16278.312025,-888.247130,76.609550,7994.224174
16278.312349,1998.556043,2757.943793,6883.915261
16278.312673,5033.400406,3677.258390,7031.956449
16278.312997,4219.173869,4826.401637,6809.894666
16278.313321,1480.411884,4290.134789,7328.038826
16278.313645,-296.082377,2757.943793,8290.306550
16278.313970,-2664.741391,-383.047749,8734.430116
16278.314294,-4737.318029,-1685.410096,9400.615463
16278.314618,-5181.441594,-3447.429741,11991.336260
16278.314942,-4959.379811,-4366.744339,13249.686362
16278.315266,-3849.070898,-3983.696590,12065.356855
16278.315590,-888.247130,-1455.581446,11695.253884
16278.315914,2146.597232,0.000000,9474.636058
16278.316238,4071.132681,1915.238745,6587.832884
16278.316563,7846.182985,4673.182538,5403.503377
16278.316887,9252.574275,7048.078582,6291.750507
16278.317211,7179.997637,6358.592633,7105.977043
16278.317535,3775.050304,5056.230287,8512.368333
16278.317859,370.102971,2068.457845,8956.491898
16278.318183,-2220.617826,-995.924147,8364.327145
16278.318507,-4219.173869,-2298.286494,10955.047942
16278.318831,-5625.565159,-2987.772442,13027.624579
16278.319156,-7031.956449,-4136.915689,13619.789333
16278.319480,-5773.606348,-4136.915689,11843.295072
16278.319804,-3256.906145,-2374.896044,10288.862594
16278.320128,-1702.473667,0.000000,7105.977043
16278.320452,1776.494261,2298.286494,5329.482782
16278.320776,4811.338623,5286.058936,6809.894666
16278.321100,4367.215058,5515.887586,7402.059420
16278.321424,2886.803174,4060.306139,7624.121203
16278.321749,2220.617826,2987.772442,7476.080014
16278.322073,-888.247130,766.095498,9030.512492
16278.322397,-4441.235652,-2068.457845,10584.944971
16278.322721,-5107.421000,-3677.258390,13323.706956
16278.323045,-4441.235652,-3217.601092,13841.851115
16278.323369,-3404.947333,-3447.429741,11991.336260
16278.323693,-1998.556043,-2681.334243,9548.656652
16278.324017,148.041188,-153.219100,6957.935855
16278.324342,2516.700203,2528.115143,6809.894666
16278.324666,4515.256246,4519.963438,7254.018232
16278.324990,5255.462188,4903.011187,6957.935855
16278.325314,4367.215058,4366.744339,6365.771101
16278.325638,1924.535449,3140.991542,7402.059420
16278.325962,-2516.700203,612.876398,9178.553681
16278.326286,-3849.070898,-2221.676944,9548.656652
16278.326611,-4663.297435,-4060.306139,12213.398043
16278.326935,-5329.482782,-3753.867940,13619.789333
16278.327259,-4737.318029,-3983.696590,13101.645173
16278.327583,-1628.453072,-3753.867940,11473.192101
16278.327907,1184.329507,-2068.457845,10214.842000
16278.328231,2664.741391,1455.581446,7846.182985
16278.328555,5699.585753,4366.744339,6883.915261
16278.328879,8660.409521,5822.325785,6735.874072
16278.329204,8438.347739,6052.154434,6957.935855
16278.329528,5033.400406,5669.106685,7476.080014
16278.329852,1480.411884,2834.553343,8956.491898
16278.330176,-962.267725,-383.047749,9104.533087
16278.330500,-2664.741391,-2604.724693,11103.089130
16278.330824,-3627.009116,-2451.505594,11991.336260
16278.331148,-4885.359217,-3294.210641,13175.665768
16278.331472,-4441.235652,-3447.429741,10807.006753
16278.331797,-1924.535449,-1685.410096,9104.533087
16278.332121,-444.123565,153.219100,7920.203579
16278.332445,1628.453072,3064.381992,6439.791695
16278.332769,4811.338623,4903.011187,6365.771101
16278.333093,5477.523971,5975.544884,6883.915261
16278.333417,3849.070898,4903.011187,6439.791695
16278.333741,814.226536,3677.258390,7920.203579
16278.334065,-1184.329507,1838.629195,8586.388927
16278.334390,-2960.823768,-1149.143247,10066.800811
16278.334714,-4959.379811,-3064.381992,11991.336260
16278.335038,-5181.441594,-3064.381992,12583.501014
16278.335362,-4663.297435,-3064.381992,13101.645173
16278.335686,-3034.844362,-3064.381992,11843.295072
16278.336010,-962.267725,-689.485948,10362.883188
16278.336334,1480.411884,1991.848295,8364.327145
16278.336659,3701.029710,3677.258390,6883.915261
16278.336983,4737.318029,4826.401637,6735.874072
16278.337307,3627.009116,5515.887586,6069.688724
16278.337631,1036.288319,4213.525239,7846.182985
16278.337955,-1110.308913,1762.019645,9474.636058
16278.338279,-2516.700203,-536.266849,9400.615463
16278.338603,-4663.297435,-2604.724693,10436.903782
16278.338927,-5921.647536,-3983.696590,12213.398043
16278.339252,-5625.565159,-3447.429741,12583.501014
16278.339576,-3701.029710,-3447.429741,11029.068536
16278.339900,-518.144159,-1838.629195,9696.697840
16278.340224,2516.700203,1072.533697,7920.203579
16278.340548,5551.544565,3677.258390,5551.544565
16278.340872,7550.100608,5822.325785,6513.812290
16278.341196,8216.285956,5822.325785,7031.956449
16278.341520,7105.977043,5132.839837,6883.915261
16278.341845,3775.050304,3677.258390,8512.368333
16278.342169,444.123565,995.924147,9474.636058
16278.342493,-3034.844362,-2604.724693,10658.965565
16278.342817,-5107.421000,-3983.696590,12583.501014
16278.343141,-5921.647536,-4596.572988,13693.809927
16278.343465,-5921.647536,-5209.449386,12805.562797
16278.343789,-3923.091493,-4596.572988,9844.739029
16278.344113,-1850.514855,-1991.848295,8512.368333
16278.344438,148.041188,919.314598,7105.977043
16278.344762,3849.070898,3370.820191,6513.812290
16278.345086,6217.729913,4903.011187,6143.709319
16278.345410,5921.647536,5745.716235,6365.771101
16278.345734,3849.070898,5209.449386,8364.327145
16278.346058,1036.288319,2451.505594,9474.636058
16278.346382,-1480.411884,-459.657299,9844.739029
16278.346706,-3034.844362,-1762.019645,11325.150913
16278.347031,-4293.194464,-2145.067394,12879.583391
16278.347355,-4071.132681,-3447.429741,12583.501014
16278.347679,-3849.070898,-3983.696590,11547.212695
16278.348003,-2146.597232,-1762.019645,10362.883188
16278.348327,592.164754,766.095498,8068.244768
16278.348651,2886.803174,2834.553343,6069.688724
16278.348975,4663.297435,4903.011187,5847.626942
16278.349300,4663.297435,5362.668486,6291.750507
16278.349624,2812.782580,5515.887586,6957.935855
16278.349948,74.020594,2681.334243,8956.491898
16278.350272,-2368.659014,76.609550,8808.450710
16278.350596,-4145.153275,-1762.019645,9252.574275
16278.350920,-5255.462188,-3447.429741,12213.398043
16278.351244,-6365.771101,-4443.353888,13915.871710
16278.351568,-4811.338623,-4213.525239,12731.542202
16278.351893,-1480.411884,-3217.601092,11547.212695
16278.352217,518.144159,-1149.143247,10140.821405
16278.352541,2368.659014,2298.286494,7328.038826
16278.352865,5403.503377,4136.915689,6439.791695
16278.353189,6587.832884,5592.497135,6365.771101
16278.353513,5921.647536,5745.716235,6217.729913
16278.353837,3108.864956,5439.278036,7254.018232
16278.354161,444.123565,2757.943793,8290.306550
16278.354486,-1998.556043,-1072.533697,9178.553681
16278.354810,-4737.318029,-3140.991542,10658.965565
16278.355134,-5625.565159,-3447.429741,13101.645173
16278.355458,-5329.482782,-3370.820191,13027.624579
16278.355782,-3627.009116,-4290.134789,10955.047942
16278.356106,-1776.494261,-1762.019645,8808.450710
16278.356430,1406.391290,536.266849,7476.080014
16278.356754,4293.194464,3370.820191,6513.812290
16278.357079,6365.771101,5132.839837,6809.894666
16278.357403,7105.977043,6358.592633,6513.812290
16278.357727,5773.606348,5975.544884,8068.244768
16278.358051,2294.638420,3753.867940,8956.491898
16278.358375,0.000000,1225.752797,9252.574275
16278.358699,-1406.391290,-1302.362347,9992.780217
16278.359023,-4071.132681,-2451.505594,11917.315666
16278.359348,-4811.338623,-3294.210641,13323.706956
16278.359672,-4959.379811,-3524.039291,12139.377449
16278.359996,-3701.029710,-2451.505594,11103.089130
16278.360320,-1406.391290,-306.438199,9252.574275
16278.360644,1036.288319,1838.629195,7105.977043
16278.360968,2516.700203,4060.306139,6143.709319
16278.361292,4589.276840,5439.278036,6957.935855
16278.361616,3775.050304,5822.325785,6217.729913
16278.361941,1998.556043,4519.963438,7179.997637
16278.362265,-740.205942,1378.971896,8882.471304
16278.362589,-3108.864956,-612.876398,8586.388927
16278.362913,-3997.112087,-1455.581446,11029.068536
16278.363237,-5033.400406,-2757.943793,13471.748144
16278.363561,-4811.338623,-3677.258390,12731.542202
16278.363885,-2886.803174,-2987.772442,10362.883188
16278.364209,-814.226536,-1608.800546,8438.347739
16278.364534,814.226536,76.609550,8216.285956
16278.364858,2738.761985,2911.162892,7105.977043
16278.365182,5625.565159,4060.306139,7476.080014
16278.365506,6365.771101,4903.011187,8216.285956
16278.365830,4885.359217,3600.648841,8142.265362
16278.366154,1924.535449,2757.943793,8882.471304
16278.366478,-370.102971,153.219100,9474.636058
16278.366802,-2664.741391,-2451.505594,10881.027347
16278.367127,-4663.297435,-2757.943793,11917.315666
16278.367451,-4071.132681,-2528.115143,12657.521608
16278.367775,-2442.679609,-2987.772442,11843.295072
16278.368099,-2294.638420,-2911.162892,10362.883188
16278.368423,-666.185348,-1149.143247,9178.553681
16278.368747,2072.576638,995.924147,7772.162391
16278.369071,4367.215058,3217.601092,6883.915261
16278.369395,5403.503377,4673.182538,6735.874072
16278.369720,5033.400406,4903.011187,6809.894666
16278.370044,1924.535449,3907.087040,7698.141797
16278.370368,0.000000,1455.581446,8956.491898
16278.370692,-1480.411884,-689.485948,8142.265362
16278.371016,-2812.782580,-1685.410096,9992.780217
16278.371340,-4293.194464,-1915.238745,11991.336260
16278.371664,-4737.318029,-2911.162892,11991.336260
16278.371989,-4145.153275,-3600.648841,10732.986159
16278.372313,-1702.473667,-2145.067394,9918.759623
16278.372637,-370.102971,229.828649,7994.224174
16278.372961,2664.741391,2451.505594,6957.935855
16278.373285,4589.276840,4443.353888,7846.182985
16278.373609,4885.359217,4903.011187,7772.162391
16278.373933,3997.112087,4979.620737,7402.059420
16278.374257,888.247130,2451.505594,7550.100608
16278.374582,-1480.411884,459.657299,8512.368333
16278.374906,-3552.988522,-1225.752797,10140.821405
16278.375230,-4811.338623,-3140.991542,12731.542202
16278.375554,-5329.482782,-3447.429741,13989.892304
16278.375878,-5403.503377,-3217.601092,12657.521608
16278.376202,-3552.988522,-3064.381992,9844.739029
16278.376526,-740.205942,-1455.581446,8364.327145
16278.376850,1480.411884,1991.848295,7624.121203
16278.377175,3627.009116,3907.087040,7550.100608
16278.377499,5551.544565,4826.401637,7328.038826
16278.377823,5551.544565,5132.839837,6735.874072
16278.378147,3182.885551,4749.792088,8068.244768
16278.378471,814.226536,1838.629195,8438.347739
16278.378795,-148.041188,536.266849,8734.430116
16278.379119,-2220.617826,-1532.190996,11177.109724
16278.379443,-3478.967927,-2298.286494,12287.418637
16278.379768,-3849.070898,-3907.087040,11621.233289
16278.380092,-2886.803174,-3370.820191,10362.883188
16278.380416,-888.247130,-1149.143247,9400.615463
16278.380740,1924.535449,995.924147,7994.224174
16278.381064,4441.235652,2528.115143,6439.791695
16278.381388,5773.606348,5132.839837,6883.915261
16278.381712,5773.606348,5822.325785,7105.977043
16278.382036,4145.153275,4749.792088,7105.977043
16278.382360,1406.391290,2068.457845,8068.244768
16278.382684,-370.102971,153.219100,8586.388927
16278.383008,-3182.885551,-1072.533697,10214.842000
16278.383333,-4589.276840,-1991.848295,13323.706956
16278.383657,-4737.318029,-3677.258390,13471.748144
16278.383981,-3627.009116,-3524.039291,11251.130318
16278.384305,-2368.659014,-2451.505594,9622.677246
16278.384629,148.041188,0.000000,9474.636058
16278.384953,2590.720797,2681.334243,7846.182985
16278.385277,4145.153275,4136.915689,7994.224174
16278.385601,5033.400406,5132.839837,8142.265362
16278.385925,4367.215058,4749.792088,8290.306550
16278.386249,2368.659014,3370.820191,7698.141797
16278.386573,-296.082377,842.705048,8142.265362
16278.386897,-2516.700203,-689.485948,9918.759623
16278.387222,-5255.462188,-2221.676944,11547.212695
16278.387546,-5847.626942,-3677.258390,12583.501014
16278.387870,-4589.276840,-3830.477490,10955.047942
16278.388194,-4219.173869,-2145.067394,9918.759623
16278.388518,-2368.659014,-919.314598,8956.491898
16278.388842,592.164754,0.000000,7179.997637
16278.389166,3256.906145,2604.724693,7402.059420
16278.389490,4737.318029,4903.011187,7624.121203
16278.389814,4737.318029,4903.011187,7994.224174
16278.390138,3552.988522,3907.087040,7772.162391
16278.390462,814.226536,1762.019645,8734.430116
16278.390786,-1850.514855,0.000000,9474.636058
16278.391110,-2368.659014,-1915.238745,10732.986159
16278.391435,-2664.741391,-3217.601092,12435.459826
16278.391759,-3404.947333,-2757.943793,12805.562797
16278.392083,-3701.029710,-2834.553343,11843.295072
16278.392407,-2072.576638,-2145.067394,10066.800811
16278.392731,1184.329507,-383.047749,8068.244768
16278.393055,3775.050304,2451.505594,6883.915261
16278.393379,4219.173869,3677.258390,6883.915261
16278.393703,4293.194464,4673.182538,7328.038826
16278.394027,3849.070898,3524.039291,7846.182985
16278.394351,962.267725,2451.505594,9030.512492
16278.394675,-1924.535449,76.609550,10288.862594
16278.394999,-2516.700203,-2604.724693,8512.368333
16278.395323,-3034.844362,-3447.429741,10658.965565
16278.395648,-3923.091493,-2834.553343,12435.459826
16278.395972,-3552.988522,-2604.724693,12361.439231
16278.396296,-1406.391290,-2298.286494,9918.759623
16278.396620,1480.411884,-383.047749,8586.388927
16278.396944,3552.988522,2451.505594,7846.182985
16278.397268,4737.318029,4136.915689,7031.956449
16278.397592,5625.565159,4673.182538,7772.162391
16278.397916,4959.379811,5056.230287,7846.182985
16278.398240,2442.679609,3830.477490,8512.368333
16278.398564,-1924.535449,1378.971896,9178.553681
16278.398888,-3034.844362,-383.047749,8734.430116
16278.399212,-3997.112087,-1838.629195,10732.986159
16278.399536,-6365.771101,-2298.286494,12213.398043
16278.399861,-6291.750507,-2528.115143,12287.418637
16278.400185,-3552.988522,-2528.115143,10584.944971
16278.400509,-3182.885551,-1455.581446,8364.327145
16278.400833,-1110.308913,612.876398,7920.203579
16278.401157,2294.638420,3447.429741,7624.121203
16278.401481,4515.256246,5132.839837,7550.100608
16278.401805,4663.297435,4903.011187,7328.038826
16278.402129,4071.132681,4290.134789,6661.853478
16278.402453,1110.308913,3907.087040,8068.244768
16278.402777,-1998.556043,1072.533697,9474.636058
16278.403101,-2516.700203,-2145.067394,9992.780217
16278.403425,-3478.967927,-2681.334243,11399.171507
16278.403749,-3997.112087,-2604.724693,13027.624579
16278.404074,-3478.967927,-2911.162892,11621.233289
16278.404398,-1850.514855,-2604.724693,10214.842000
16278.404722,740.205942,-995.924147,8882.471304
16278.405046,3701.029710,2374.896044,8216.285956
16278.405370,6143.709319,4060.306139,7254.018232
16278.405694,6513.812290,4903.011187,7846.182985
16278.406018,5921.647536,5439.278036,8438.347739
16278.406342,5033.400406,3753.867940,8660.409521
16278.406666,1628.453072,1378.971896,9252.574275
16278.406990,-1850.514855,-383.047749,10436.903782
16278.407314,-3478.967927,-1762.019645,10362.883188
16278.407638,-4219.173869,-3370.820191,12139.377449
16278.407962,-4367.215058,-3830.477490,11843.295072
16278.408287,-3849.070898,-2681.334243,10436.903782
16278.408611,-2516.700203,-1225.752797,8364.327145
16278.408935,370.102971,306.438199,7179.997637
16278.409259,3108.864956,2757.943793,6513.812290
16278.409583,3701.029710,4060.306139,7105.977043
16278.409907,3330.926739,4673.182538,6957.935855
16278.410231,3627.009116,4673.182538,7254.018232
16278.410555,888.247130,3064.381992,9252.574275
16278.410879,-1332.370696,-306.438199,9104.533087
16278.411203,-2738.761985,-2298.286494,9844.739029
16278.411527,-4737.318029,-3064.381992,11547.212695
16278.411851,-4367.215058,-3677.258390,13767.830521
16278.412176,-2812.782580,-3907.087040,13693.809927
16278.412500,-2368.659014,-2757.943793,11029.068536
16278.412824,-370.102971,-536.266849,9696.697840
16278.413148,3478.967927,2528.115143,8364.327145
16278.413472,4885.359217,4749.792088,7476.080014
16278.413796,5255.462188,4979.620737,7328.038826
16278.414120,4441.235652,5515.887586,7254.018232
16278.414444,2664.741391,4366.744339,7328.038826
16278.414768,-666.185348,2068.457845,8882.471304
16278.415092,-2960.823768,-383.047749,9104.533087
16278.415416,-4737.318029,-2145.067394,10140.821405
16278.415740,-6291.750507,-2374.896044,11843.295072
16278.416064,-5551.544565,-3294.210641,10955.047942
16278.416389,-4145.153275,-3753.867940,10214.842000
16278.416713,-2294.638420,-1762.019645,8586.388927
16278.417037,148.041188,1149.143247,8068.244768
16278.417361,3627.009116,2911.162892,7105.977043
16278.417685,5403.503377,4673.182538,7402.059420
16278.418009,5403.503377,5286.058936,7994.224174
16278.418333,4959.379811,5286.058936,7846.182985
16278.418657,2886.803174,4060.306139,8956.491898
16278.418981,444.123565,229.828649,9104.533087
16278.419305,-2146.597232,-2451.505594,9400.615463
16278.419629,-3330.926739,-3907.087040,11695.253884
16278.419953,-4589.276840,-2987.772442,13323.706956
16278.420277,-3404.947333,-4060.306139,13619.789333
16278.420602,-2812.782580,-4060.306139,10955.047942
16278.420926,-296.082377,-459.657299,8734.430116
16278.421250,3552.988522,2374.896044,7624.121203
16278.421574,5773.606348,3753.867940,7031.956449
16278.421898,5477.523971,5592.497135,7179.997637
16278.422222,5033.400406,6281.983084,7772.162391
16278.422546,2664.741391,3753.867940,7920.203579
16278.422870,-370.102971,383.047749,7772.162391
16278.423194,-2738.761985,-766.095498,8808.450710
16278.423518,-5033.400406,-1762.019645,11547.212695
16278.423842,-6439.791695,-3830.477490,13101.645173
16278.424166,-5181.441594,-4443.353888,12065.356855
16278.424490,-4145.153275,-3447.429741,10584.944971
16278.424815,-3330.926739,-1608.800546,9474.636058
16278.425139,814.226536,1149.143247,7698.141797
16278.425463,4145.153275,3064.381992,6957.935855
16278.425787,4959.379811,4903.011187,7476.080014
16278.426111,4441.235652,5592.497135,7328.038826
16278.426435,5181.441594,4749.792088,7254.018232
16278.426759,2368.659014,2681.334243,8586.388927
16278.427083,-1480.411884,0.000000,9548.656652
16278.427407,-3330.926739,-1378.971896,10362.883188
16278.427731,-4737.318029,-3217.601092,11843.295072
16278.428055,-4441.235652,-3753.867940,12583.501014
16278.428379,-3256.906145,-2987.772442,11917.315666
16278.428703,-2220.617826,-1685.410096,10288.862594
16278.429028,370.102971,0.000000,9030.512492
16278.429352,4071.132681,2834.553343,7031.956449
16278.429676,5403.503377,4519.963438,6439.791695
16278.430000,4959.379811,5515.887586,7402.059420
16278.430324,5107.421000,5975.544884,7624.121203
16278.430648,3108.864956,4443.353888,8882.471304
16278.430972,-888.247130,1225.752797,8586.388927
16278.431296,-2590.720797,-689.485948,8808.450710
16278.431620,-3701.029710,-2604.724693,9918.759623
16278.431944,-5477.523971,-2834.553343,11103.089130
16278.432268,-4515.256246,-3294.210641,11843.295072
16278.432592,-3923.091493,-2528.115143,9992.780217
16278.432917,-2442.679609,-1302.362347,8512.368333
16278.433241,1258.350101,1072.533697,7031.956449
16278.433565,4811.338623,4136.915689,7105.977043
16278.433889,5995.668130,5286.058936,7846.182985
16278.434213,5181.441594,5515.887586,8734.430116
16278.434537,4811.338623,4213.525239,8068.244768
16278.434861,2516.700203,2528.115143,8956.491898
16278.435185,-1332.370696,-612.876398,9474.636058
16278.435509,-2294.638420,-1838.629195,10214.842000
16278.435833,-3256.906145,-2681.334243,13027.624579
16278.436157,-4071.132681,-3677.258390,13175.665768
16278.436481,-3108.864956,-3983.696590,12583.501014
16278.436805,-1998.556043,-1991.848295,10658.965565
16278.437130,0.000000,-306.438199,7920.203579
16278.437454,3330.926739,1378.971896,6957.935855
16278.437778,4441.235652,4213.525239,7179.997637
16278.438102,3923.091493,5822.325785,7698.141797
16278.438426,3404.947333,4596.572988,7179.997637
16278.438750,2072.576638,2528.115143,7476.080014
16278.439074,-1036.288319,1608.800546,8290.306550
16278.439398,-4145.153275,-459.657299,9844.739029
16278.439722,-5625.565159,-3217.601092,10955.047942
16278.440046,-5107.421000,-4060.306139,11695.253884
16278.440370,-3923.091493,-3447.429741,12139.377449
16278.440694,-3256.906145,-2298.286494,10436.903782
16278.441018,-1184.329507,-1762.019645,8586.388927
16278.441343,3404.947333,306.438199,7402.059420
16278.441667,6069.688724,3907.087040,7698.141797
16278.441991,6513.812290,4826.401637,8808.450710
16278.442315,6587.832884,4979.620737,8660.409521
16278.442639,5403.503377,4290.134789,8586.388927
16278.442963,1332.370696,2374.896044,9252.574275
16278.443287,-2146.597232,-459.657299,9770.718434
16278.443611,-3256.906145,-2528.115143,9696.697840
16278.443935,-4515.256246,-2987.772442,11473.192101
16278.444259,-5255.462188,-3753.867940,12805.562797
16278.444583,-4811.338623,-3983.696590,11547.212695
16278.444907,-4071.132681,-3140.991542,9326.594869
16278.445231,-1184.329507,0.000000,7624.121203
16278.445556,3108.864956,2681.334243,6439.791695
16278.445880,4589.276840,4826.401637,6809.894666
16278.446204,4737.318029,5439.278036,7179.997637
16278.446528,4071.132681,4749.792088,7698.141797
16278.446852,2368.659014,3140.991542,8586.388927
16278.447176,-1702.473667,612.876398,8734.430116
16278.447500,-4145.153275,-1072.533697,9474.636058
16278.447824,-3330.926739,-1532.190996,10584.944971
16278.448148,-4959.379811,-2451.505594,13175.665768
16278.448472,-4959.379811,-4903.011187,12065.356855
16278.448796,-4219.173869,-3294.210641,10732.986159
16278.449120,-1850.514855,-1532.190996,8956.491898
16278.449444,1924.535449,1225.752797,8438.347739
16278.449769,4959.379811,3140.991542,8364.327145
16278.450093,5107.421000,6358.592633,8068.244768
16278.450417,5625.565159,6741.640382,8142.265362
16278.450741,5181.441594,4136.915689,7920.203579
16278.451065,1554.432478,2145.067394,7920.203579
16278.451389,-1258.350101,459.657299,8882.471304
16278.451713,-3701.029710,-1762.019645,9770.718434
16278.452037,-4663.297435,-3600.648841,11917.315666
16278.452361,-4663.297435,-3753.867940,13323.706956
16278.452685,-4663.297435,-3447.429741,10807.006753
16278.453009,-3701.029710,-2298.286494,7994.224174
16278.453333,-444.123565,1072.533697,7254.018232
16278.453658,3701.029710,3140.991542,6735.874072
16278.453982,5033.400406,4290.134789,7105.977043
16278.454306,4441.235652,5898.935335,7105.977043
16278.454630,4441.235652,5362.668486,6735.874072
16278.454954,2590.720797,4366.744339,7772.162391
16278.455278,-148.041188,1302.362347,9252.574275
16278.455602,-2368.659014,-1149.143247,10214.842000
16278.455926,-3849.070898,-3064.381992,11843.295072
16278.456250,-4293.194464,-3677.258390,12583.501014
16278.456574,-2590.720797,-3064.381992,13397.727550
16278.456898,-2368.659014,-2374.896044,11843.295072
16278.457222,-1332.370696,-1915.238745,9326.594869
16278.457546,3330.926739,1378.971896,8364.327145
16278.457871,6291.750507,4749.792088,7105.977043
16278.458195,5773.606348,4903.011187,7476.080014
16278.458519,4663.297435,4903.011187,6661.853478
16278.458843,4367.215058,4979.620737,7105.977043
16278.459167,1184.329507,2757.943793,9474.636058
16278.459491,-2220.617826,-766.095498,9474.636058
16278.459815,-3997.112087,-3217.601092,9030.512492
16278.460139,-4737.318029,-2757.943793,10436.903782
16278.460463,-5551.544565,-3447.429741,12213.398043
16278.460787,-4811.338623,-3983.696590,10732.986159
16278.461111,-3182.885551,-3294.210641,9474.636058
16278.461435,-666.185348,-459.657299,7994.224174
16278.461759,3552.988522,2911.162892,7624.121203
16278.462084,4885.359217,3600.648841,7698.141797
16278.462408,4293.194464,4826.401637,7698.141797
16278.462732,4737.318029,4443.353888,8364.327145
16278.463056,3478.967927,3983.696590,9474.636058
16278.463380,-518.144159,1149.143247,9474.636058
16278.463704,-2516.700203,-1302.362347,9696.697840
16278.464028,-4515.256246,-2451.505594,11547.212695
16278.464352,-5403.503377,-3753.867940,12731.542202
16278.464676,-4515.256246,-3983.696590,12879.583391
16278.465000,-3330.926739,-3677.258390,11843.295072
16278.465324,-2812.782580,-1762.019645,9030.512492
16278.465648,1036.288319,919.314598,7402.059420
16278.465972,4959.379811,3370.820191,6957.935855
16278.466297,5033.400406,4596.572988,7105.977043
16278.466621,5255.462188,5745.716235,6809.894666
16278.466945,4885.359217,5056.230287,7105.977043
16278.467269,1924.535449,2757.943793,7476.080014
16278.467593,-1184.329507,76.609550,8586.388927
16278.467917,-2294.638420,-1532.190996,9548.656652
16278.468241,-3478.967927,-2298.286494,11103.089130
16278.468565,-3701.029710,-3753.867940,12583.501014
16278.468889,-2812.782580,-3294.210641,10955.047942
16278.469213,-3256.906145,-2604.724693,10436.903782
16278.469537,-370.102971,-995.924147,8216.285956
16278.469861,4737.318029,1991.848295,7402.059420
16278.470185,5551.544565,4673.182538,8364.327145
16278.470510,4811.338623,5822.325785,7846.182985
16278.470834,4367.215058,4749.792088,7994.224174
16278.471158,2886.803174,3753.867940,8734.430116
16278.471482,-370.102971,1225.752797,9178.553681
16278.471806,-2812.782580,0.000000,9474.636058
16278.472130,-4367.215058,-2528.115143,10288.862594
16278.472454,-5403.503377,-3370.820191,11917.315666
16278.472778,-5329.482782,-3217.601092,12213.398043
16278.473102,-4885.359217,-3370.820191,11473.192101
16278.473426,-3256.906145,-2068.457845,8586.388927
16278.473750,1554.432478,842.705048,7624.121203
16278.474074,4219.173869,3370.820191,7624.121203
16278.474399,4515.256246,4673.182538,7994.224174
16278.474723,4515.256246,4979.620737,7624.121203
16278.475047,4663.297435,4749.792088,7994.224174
16278.475371,1036.288319,2604.724693,9104.533087
16278.475695,-1850.514855,0.000000,9178.553681
16278.476019,-2590.720797,-1685.410096,10436.903782
16278.476343,-4367.215058,-2604.724693,11695.253884
16278.476667,-4737.318029,-3064.381992,12139.377449
16278.476991,-3478.967927,-3064.381992,10807.006753
16278.477315,-2590.720797,-1838.629195,9104.533087
16278.477639,-888.247130,229.828649,7624.121203
16278.477963,3330.926739,2451.505594,6735.874072
16278.478287,4219.173869,3370.820191,7476.080014
16278.478612,3552.988522,4519.963438,7402.059420
16278.478936,3923.091493,4826.401637,7698.141797
16278.479260,1850.514855,1991.848295,8882.471304
16278.479584,-1258.350101,0.000000,9474.636058
16278.479908,-3552.988522,-1149.143247,10214.842000
16278.480232,-2812.782580,-2604.724693,10955.047942
16278.480556,-2738.761985,-2604.724693,12065.356855
16278.480880,-1998.556043,-2681.334243,12953.603985
16278.481204,-1850.514855,-1762.019645,11029.068536
16278.481528,222.061783,-1225.752797,9548.656652
16278.481853,3997.112087,2068.457845,7624.121203
16278.482177,7031.956449,3753.867940,7476.080014
16278.482501,5551.544565,5132.839837,7476.080014
16278.482825,5033.400406,5209.449386,7031.956449
16278.483149,4515.256246,4290.134789,7846.182985
16278.483474,592.164754,1149.143247,8882.471304
16278.483798,-2368.659014,-1149.143247,8660.409521
16278.484122,-3108.864956,-1455.581446,9178.553681
16278.484446,-3997.112087,-2451.505594,10881.027347
16278.484770,-5255.462188,-3064.381992,12065.356855
16278.485094,-4293.194464,-2528.115143,10732.986159
16278.485419,-4219.173869,-1302.362347,8660.409521
16278.485743,-1184.329507,536.266849,6365.771101
16278.486067,3256.906145,2604.724693,6957.935855
16278.486391,4515.256246,4519.963438,7476.080014
16278.486715,3627.009116,4749.792088,8290.306550
16278.487040,2886.803174,4290.134789,8068.244768
16278.487364,1258.350101,2681.334243,9030.512492
16278.487688,-2072.576638,383.047749,9252.574275
16278.488012,-2812.782580,-1685.410096,9622.677246
16278.488336,-3627.009116,-2681.334243,11473.192101
16278.488660,-4071.132681,-2987.772442,13397.727550
16278.488985,-3256.906145,-3294.210641,13101.645173
16278.489309,-2368.659014,-2834.553343,11177.109724
16278.489633,-370.102971,-1762.019645,8660.409521
16278.489957,3997.112087,1608.800546,8216.285956
16278.490281,7328.038826,4519.963438,8364.327145
16278.490606,5699.585753,4366.744339,8290.306550
16278.490930,5329.482782,5209.449386,7105.977043
16278.491254,4515.256246,4903.011187,7402.059420
16278.491578,592.164754,919.314598,7402.059420
16278.491902,-2664.741391,-1302.362347,8216.285956
16278.492226,-4367.215058,-919.314598,10658.965565
16278.492551,-6365.771101,-3524.039291,11473.192101
16278.492875,-5625.565159,-5362.668486,10881.027347
16278.493199,-4219.173869,-3064.381992,9696.697840
16278.493523,-3997.112087,-1455.581446,9178.553681
16278.493847,-1332.370696,-153.219100,6439.791695
16278.494172,3404.947333,1915.238745,6587.832884
16278.494496,4441.235652,5515.887586,7402.059420
16278.494820,3775.050304,5439.278036,7402.059420
16278.495144,4219.173869,4826.401637,7772.162391
16278.495468,3627.009116,3294.210641,9696.697840
16278.495793,148.041188,1302.362347,10288.862594
16278.496117,-2146.597232,-1455.581446,9844.739029
16278.496441,-3034.844362,-2451.505594,11473.192101
16278.496765,-4441.235652,-2451.505594,11917.315666
16278.497089,-3256.906145,-2298.286494,11991.336260
16278.497413,-1850.514855,-2604.724693,11029.068536
16278.497738,-296.082377,-1608.800546,8290.306550
16278.498062,3108.864956,2834.553343,7550.100608
16278.498386,5847.626942,5286.058936,8734.430116
16278.498710,4737.318029,5132.839837,8290.306550
16278.499034,4663.297435,4519.963438,6883.915261
16278.499359,2590.720797,4060.306139,7254.018232
16278.499683,-740.205942,2604.724693,8660.409521
16278.500007,-3182.885551,-383.047749,9770.718434
16278.500331,-3997.112087,-2451.505594,10362.883188
16278.500655,-5625.565159,-2834.553343,11547.212695
16278.500979,-5773.606348,-2604.724693,11843.295072
16278.501304,-4589.276840,-3370.820191,10436.903782
16278.501628,-3923.091493,-1991.848295,7846.182985
16278.501952,-1776.494261,842.705048,6513.812290
16278.502276,3034.844362,3064.381992,7846.182985
16278.502600,4367.215058,4290.134789,7550.100608
16278.502925,3552.988522,4136.915689,7254.018232
16278.503249,2812.782580,4290.134789,7105.977043
16278.503573,888.247130,2987.772442,8956.491898
16278.503897,-1554.432478,-1072.533697,9992.780217
16278.504221,-1480.411884,-2221.676944,10510.924376
16278.504545,-1036.288319,-2298.286494,11991.336260
16278.504870,-2146.597232,-2528.115143,13101.645173
16278.505194,-1850.514855,-3524.039291,12139.377449
16278.505518,-592.164754,-2681.334243,10732.986159
16278.505842,1184.329507,-612.876398,8512.368333
16278.506166,4811.338623,2681.334243,8068.244768
16278.506491,7179.997637,4060.306139,7994.224174
16278.506815,5921.647536,4366.744339,8290.306550
16278.507139,3552.988522,4596.572988,7994.224174
16278.507463,2368.659014,2911.162892,8290.306550
16278.507787,-518.144159,76.609550,8438.347739
16278.508111,-2886.803174,-1532.190996,8290.306550
16278.508436,-4737.318029,-2681.334243,9474.636058
16278.508760,-5773.606348,-3217.601092,11769.274478
16278.509084,-5995.668130,-4903.011187,11473.192101
16278.509408,-4811.338623,-3907.087040,9770.718434
16278.509732,-3478.967927,-1762.019645,8808.450710
16278.510057,-444.123565,306.438199,7846.182985
16278.510381,4071.132681,3524.039291,7846.182985
16278.510705,5699.585753,5209.449386,8586.388927
16278.511029,4959.379811,5515.887586,7698.141797
16278.511353,4959.379811,4673.182538,8364.327145
16278.511678,3627.009116,3677.258390,8956.491898
16278.512002,666.185348,1225.752797,9474.636058
16278.512326,-1480.411884,-766.095498,11103.089130
16278.512650,-3997.112087,-1838.629195,11547.212695
16278.512974,-4441.235652,-2221.676944,11917.315666
16278.513298,-2664.741391,-3064.381992,11177.109724
16278.513623,-2960.823768,-2451.505594,10214.842000
16278.513947,-2072.576638,-383.047749,7994.224174
16278.514271,2368.659014,2451.505594,7328.038826
16278.514595,4367.215058,4060.306139,8512.368333
16278.514919,3034.844362,5056.230287,7846.182985
16278.515244,3034.844362,4136.915689,7105.977043
16278.515568,1702.473667,3140.991542,7698.141797
16278.515892,-962.267725,1072.533697,8882.471304
16278.516216,-2294.638420,-153.219100,9548.656652
16278.516540,-3701.029710,-2221.676944,10436.903782
16278.516864,-5847.626942,-3600.648841,11473.192101
16278.517189,-4293.194464,-3294.210641,11103.089130
16278.517513,-2664.741391,-1991.848295,10584.944971
16278.517837,-1628.453072,-2298.286494,9474.636058
16278.518161,2294.638420,1455.581446,7105.977043
16278.518485,6439.791695,5132.839837,7698.141797
16278.518810,6513.812290,5592.497135,8734.430116
16278.519134,5181.441594,4519.963438,7846.182985
16278.519458,5329.482782,4903.011187,8142.265362
16278.519782,2812.782580,3370.820191,8956.491898
16278.520106,-1406.391290,0.000000,9770.718434
16278.520430,-1406.391290,-2145.067394,10066.800811
16278.520755,-2516.700203,-1762.019645,11325.150913
16278.521079,-4145.153275,-3217.601092,12213.398043
16278.521403,-3330.926739,-3524.039291,11399.171507
16278.521727,-2516.700203,-1455.581446,10140.821405
16278.522051,-1184.329507,0.000000,7698.141797
16278.522376,2738.761985,1915.238745,7105.977043
16278.522700,5107.421000,3983.696590,7920.203579
16278.523024,3775.050304,5132.839837,7624.121203
16278.523348,2220.617826,4366.744339,7698.141797
16278.523672,666.185348,2757.943793,8586.388927
16278.523996,-1554.432478,842.705048,8512.368333
16278.524321,-4367.215058,-1532.190996,9326.594869
16278.524645,-5181.441594,-3524.039291,10140.821405
16278.524969,-5773.606348,-2987.772442,10732.986159
16278.525293,-4589.276840,-3370.820191,11251.130318
16278.525617,-3627.009116,-3524.039291,11103.089130
16278.525942,-2294.638420,-1762.019645,9474.636058
16278.526266,1628.453072,1915.238745,7772.162391
16278.526590,5921.647536,3907.087040,8068.244768
16278.526914,5477.523971,4366.744339,8586.388927
16278.527238,4515.256246,4596.572988,8068.244768
16278.527563,3404.947333,4903.011187,8586.388927
16278.527887,1184.329507,1302.362347,9548.656652
16278.528211,-2442.679609,-1072.533697,9030.512492
16278.528535,-4441.235652,-2451.505594,10288.862594
16278.528859,-5773.606348,-3907.087040,12213.398043
16278.529183,-6143.709319,-5056.230287,12213.398043
16278.529508,-4589.276840,-5209.449386,12361.439231
16278.529832,-3997.112087,-3753.867940,10288.862594
16278.530156,-1480.411884,-1455.581446,8068.244768
16278.530480,2886.803174,1991.848295,7328.038826
16278.530804,6143.709319,3983.696590,7846.182985
16278.531129,5255.462188,5439.278036,7772.162391
16278.531453,5699.585753,5362.668486,8068.244768
16278.531777,4663.297435,3907.087040,7920.203579
16278.532101,1702.473667,1608.800546,7846.182985
16278.532425,-1110.308913,0.000000,8734.430116
16278.532749,-2368.659014,-1378.971896,10658.965565
16278.533074,-2516.700203,-2911.162892,11399.171507
16278.533398,-2516.700203,-3217.601092,11843.295072
16278.533722,-1406.391290,-2068.457845,9770.718434
16278.534046,-1332.370696,0.000000,8438.347739
16278.534370,2072.576638,1915.238745,7179.997637
16278.534695,5551.544565,4673.182538,8290.306550
16278.535019,6735.874072,6128.763984,8660.409521
16278.535343,4737.318029,5515.887586,7698.141797
16278.535667,2886.803174,4903.011187,9326.594869
16278.535991,1924.535449,3447.429741,8956.491898
16278.536315,-1036.288319,306.438199,10140.821405
16278.536640,-3108.864956,-1149.143247,10658.965565
16278.536964,-4811.338623,-1302.362347,10881.027347
16278.537288,-5773.606348,-2221.676944,11547.212695
16278.537612,-4219.173869,-3064.381992,10955.047942
16278.537936,-2664.741391,-1532.190996,9622.677246
16278.538261,-962.267725,1072.533697,7994.224174
16278.538585,3256.906145,4060.306139,6439.791695
16278.538909,5847.626942,5898.935335,7105.977043
16278.539233,4663.297435,5975.544884,7254.018232
16278.539557,2368.659014,4979.620737,7179.997637
16278.539881,1628.453072,3830.477490,8512.368333
16278.540206,518.144159,1455.581446,8734.430116
16278.540530,-2294.638420,-536.266849,9104.533087
16278.540854,-4811.338623,-2834.553343,9622.677246
16278.541178,-5403.503377,-3140.991542,10288.862594
16278.541502,-4293.194464,-3140.991542,10140.821405
16278.541827,-2960.823768,-3447.429741,10584.944971
16278.542151,-1480.411884,-1762.019645,8956.491898
16278.542475,1406.391290,919.314598,8142.265362
16278.542799,5329.482782,3600.648841,9104.533087
16278.543123,3701.029710,4136.915689,10732.986159
16278.543447,2146.597232,3677.258390,9030.512492
16278.543772,4589.276840,3677.258390,7772.162391
16278.544096,1110.308913,919.314598,9474.636058
16278.544420,-2516.700203,-1915.238745,8956.491898
16278.544744,-3701.029710,-2987.772442,11251.130318
16278.545068,-4737.318029,-3370.820191,11399.171507
16278.545393,-4441.235652,-5362.668486,11029.068536
16278.545717,-3108.864956,-4290.134789,11251.130318
16278.546041,-1110.308913,-2145.067394,10066.800811
16278.546365,-370.102971,-766.095498,8512.368333
16278.546689,3923.091493,1225.752797,8216.285956
16278.547014,6809.894666,4826.401637,8142.265362
16278.547338,5847.626942,5132.839837,7328.038826
16278.547662,3182.885551,4213.525239,6217.729913
16278.547986,2146.597232,3524.039291,6809.894666
16278.548310,-814.226536,766.095498,7920.203579
16278.548634,-3775.050304,-2068.457845,9400.615463
16278.548959,-4441.235652,-3600.648841,10658.965565
16278.549283,-5255.462188,-3524.039291,10658.965565
16278.549607,-4515.256246,-3907.087040,11103.089130
16278.549931,-3849.070898,-3217.601092,11325.150913
16278.550255,-2516.700203,-1302.362347,9770.718434
16278.550580,1332.370696,1072.533697,7846.182985
16278.550904,5773.606348,4060.306139,8956.491898
16278.551228,5921.647536,5286.058936,9622.677246
16278.551552,3923.091493,4903.011187,9178.553681
16278.551876,2516.700203,3907.087040,9326.594869
16278.552200,1924.535449,1608.800546,9400.615463
16278.552525,-1332.370696,153.219100,9474.636058
16278.552849,-3108.864956,-766.095498,10214.842000
16278.553173,-3849.070898,-1532.190996,11177.109724
16278.553497,-3552.988522,-2604.724693,10510.924376
16278.553821,-3034.844362,-2145.067394,10066.800811
16278.554146,-2146.597232,-536.266849,9326.594869
16278.554470,296.082377,1838.629195,7105.977043
16278.554794,3701.029710,4596.572988,7476.080014
16278.555118,6143.709319,5286.058936,7772.162391
16278.555442,4589.276840,4903.011187,7624.121203
16278.555766,3330.926739,4979.620737,6809.894666
16278.556091,1332.370696,3753.867940,8142.265362
16278.556415,-1332.370696,842.705048,8734.430116
16278.556739,-2812.782580,0.000000,10066.800811
16278.557063,-4515.256246,-1455.581446,11473.192101
16278.557387,-3997.112087,-2068.457845,10140.821405
16278.557712,-3256.906145,-2451.505594,10362.883188
16278.558036,-2664.741391,-1532.190996,10658.965565
16278.558360,-1480.411884,306.438199,9918.759623
16278.558684,2738.761985,1991.848295,7550.100608
16278.559008,6439.791695,3983.696590,7772.162391
16278.559332,5255.462188,4826.401637,8512.368333
16278.559657,3923.091493,5056.230287,8364.327145
16278.559981,2368.659014,2757.943793,8956.491898
16278.560305,592.164754,76.609550,9770.718434
16278.560629,-2146.597232,-919.314598,10066.800811
16278.560953,-3849.070898,-2298.286494,9844.739029
16278.561278,-4515.256246,-4366.744339,10658.965565
16278.561602,-4293.194464,-3600.648841,10881.027347
16278.561926,-2664.741391,-2221.676944,11103.089130
16278.562250,-1332.370696,-3064.381992,9252.574275
16278.562574,666.185348,-995.924147,7179.997637
16278.562899,4071.132681,2528.115143,7105.977043
16278.563223,5847.626942,4519.963438,7920.203579
16278.563547,4737.318029,2987.772442,8586.388927
16278.563871,3330.926739,2221.676944,8660.409521
16278.564195,2294.638420,3064.381992,10066.800811
16278.564519,0.000000,-459.657299,9252.574275
16278.564844,-3256.906145,-3370.820191,10436.903782
16278.565168,-5107.421000,-3140.991542,11325.150913
16278.565492,-4737.318029,-3677.258390,11843.295072
16278.565816,-4071.132681,-4366.744339,11621.233289
16278.566140,-2960.823768,-3294.210641,10881.027347
16278.566465,-1850.514855,-1225.752797,9770.718434
16278.566789,444.123565,1762.019645,7624.121203
16278.567113,4737.318029,3294.210641,7994.224174
16278.567437,5403.503377,5132.839837,8216.285956
16278.567761,4219.173869,4979.620737,7254.018232
16278.568085,2960.823768,4213.525239,7550.100608
16278.568410,1776.494261,2604.724693,8512.368333
16278.568734,-370.102971,459.657299,9326.594869
16278.569058,-2220.617826,-766.095498,10658.965565
16278.569382,-2294.638420,-1072.533697,10362.883188
16278.569706,-2368.659014,-1532.190996,10066.800811
16278.570031,-1924.535449,-1685.410096,10214.842000
16278.570355,-1776.494261,0.000000,9030.512492
16278.570679,0.000000,1685.410096,7402.059420
16278.571003,3627.009116,3600.648841,7624.121203
16278.571327,4737.318029,5209.449386,8438.347739
16278.571651,2590.720797,4903.011187,8068.244768
16278.571976,370.102971,4136.915689,8512.368333
16278.572300,-1258.350101,2604.724693,9252.574275
16278.572624,-3034.844362,0.000000,9252.574275
16278.572948,-5329.482782,-1455.581446,9696.697840
16278.573272,-5255.462188,-2221.676944,10436.903782
16278.573597,-4441.235652,-1225.752797,10807.006753
16278.573921,-3478.967927,-1532.190996,12509.480420
16278.574245,-2368.659014,-1225.752797,10066.800811
16278.574569,148.041188,229.828649,8438.347739
16278.574893,3330.926739,3677.258390,6957.935855
16278.575217,6143.709319,4979.620737,8068.244768
16278.575542,5403.503377,5362.668486,9844.739029
16278.575866,4293.194464,4749.792088,9178.553681
16278.576190,3182.885551,4366.744339,9326.594869
16278.576514,2294.638420,842.705048,8216.285956
16278.576838,-444.123565,-766.095498,8438.347739
16278.577163,-2886.803174,-1302.362347,9918.759623
16278.577487,-4367.215058,-2604.724693,10881.027347
16278.577811,-3997.112087,-3983.696590,10214.842000
16278.578135,-3182.885551,-2681.334243,9844.739029
16278.578459,-2294.638420,-842.705048,8734.430116
16278.578784,-592.164754,0.000000,6661.853478
16278.579108,3404.947333,1915.238745,7179.997637
16278.579432,5107.421000,3753.867940,9178.553681
16278.579756,3108.864956,3830.477490,9474.636058
16278.580080,2368.659014,1915.238745,8512.368333
16278.580404,1406.391290,1302.362347,8660.409521
16278.580729,-1036.288319,-459.657299,10288.862594
16278.581053,-3108.864956,-2451.505594,11177.109724
16278.581377,-3627.009116,-3677.258390,11843.295072
16278.581701,-2812.782580,-3753.867940,11695.253884
16278.582025,-2072.576638,-3217.601092,11177.109724
16278.582350,-1036.288319,-2298.286494,10732.986159
16278.582674,444.123565,-536.266849,8956.491898
16278.582998,3330.926739,1838.629195,8734.430116
16278.583322,6365.771101,4136.915689,7476.080014
16278.583647,6735.874072,4673.182538,8660.409521
16278.583971,3849.070898,3907.087040,8364.327145
16278.584295,2590.720797,3830.477490,7994.224174
16278.584619,962.267725,1149.143247,8734.430116
16278.584943,-2072.576638,-842.705048,8586.388927
16278.585268,-5329.482782,-2068.457845,10510.924376
16278.585592,-4589.276840,-1838.629195,9474.636058
16278.585916,-3701.029710,-2681.334243,9400.615463
16278.586240,-3923.091493,-2451.505594,9474.636058
16278.586564,-2960.823768,-229.828649,7624.121203
16278.586889,-1628.453072,995.924147,6439.791695
16278.587213,1628.453072,2451.505594,7031.956449
16278.587537,2738.761985,4366.744339,9622.677246
16278.587861,2442.679609,4596.572988,9918.759623
16278.588186,1332.370696,3370.820191,9252.574275
16278.588510,518.144159,1991.848295,9548.656652
16278.588834,-518.144159,1608.800546,9548.656652
16278.589158,-1850.514855,0.000000,10658.965565
16278.589482,-3182.885551,-1225.752797,11177.109724
16278.589807,-2812.782580,-842.705048,10584.944971
16278.590131,-1776.494261,0.000000,10584.944971
16278.590455,-962.267725,-995.924147,9992.780217
16278.590779,0.000000,229.828649,8808.450710
16278.591104,3108.864956,2681.334243,7254.018232
16278.591428,5699.585753,4673.182538,8734.430116
16278.591752,4811.338623,5132.839837,9622.677246
16278.592076,2812.782580,4213.525239,9326.594869
16278.592400,2294.638420,3217.601092,7920.203579
16278.592725,1110.308913,1072.533697,8216.285956
16278.593049,-1184.329507,-995.924147,9252.574275
16278.593373,-2294.638420,-1378.971896,9622.677246
16278.593697,-2664.741391,-1685.410096,10288.862594
16278.594021,-3034.844362,-2911.162892,9548.656652
16278.594346,-2220.617826,-1225.752797,9844.739029
16278.594670,-592.164754,-153.219100,9252.574275
16278.594994,666.185348,0.000000,7105.977043
16278.595318,3775.050304,2145.067394,8142.265362
16278.595643,4663.297435,4213.525239,10066.800811
16278.595967,1776.494261,2681.334243,10214.842000
16278.596291,814.226536,1225.752797,9400.615463
16278.596615,222.061783,1149.143247,8808.450710
16278.596939,-1924.535449,-306.438199,9622.677246
16278.597264,-3404.947333,-2757.943793,11103.089130
16278.597588,-3849.070898,-3370.820191,11251.130318
16278.597912,-2960.823768,-2604.724693,10658.965565
16278.598236,-2220.617826,-2528.115143,10807.006753
16278.598561,-1776.494261,-1838.629195,9770.718434
