#time,accel_x,accel_y,accel_z
5021.463120,148.041188,689.485948,9474.636058
5021.463434,0.000000,536.266849,9178.553681
5021.463748,148.041188,-229.828649,9474.636058
5021.464062,222.061783,919.314598,9548.656652
5021.464377,148.041188,1072.533697,9400.615463
5021.464691,74.020594,689.485948,9400.615463
5021.465005,222.061783,689.485948,9474.636058
5021.465319,74.020594,842.705048,9474.636058
5021.465633,0.000000,842.705048,9326.594869
5021.465948,-296.082377,459.657299,9548.656652
5021.466262,-370.102971,919.314598,9178.553681
5021.466576,148.041188,383.047749,9178.553681
5021.466890,0.000000,459.657299,9326.594869
5021.467204,0.000000,919.314598,9400.615463
5021.467519,0.000000,689.485948,9252.574275
5021.467833,148.041188,842.705048,9548.656652
5021.468147,0.000000,536.266849,9252.574275
5021.468461,296.082377,919.314598,9474.636058
5021.468775,0.000000,1072.533697,9030.512492
5021.469090,74.020594,689.485948,9030.512492
5021.469404,74.020594,766.095498,9400.615463
5021.469718,0.000000,766.095498,9326.594869
5021.470032,148.041188,689.485948,9474.636058
5021.470346,74.020594,766.095498,9474.636058
5021.470660,222.061783,842.705048,9326.594869
5021.470975,148.041188,1149.143247,9104.533087
5021.471289,148.041188,919.314598,9030.512492
5021.471603,148.041188,842.705048,9622.677246
5021.471917,0.000000,842.705048,9400.615463
5021.472231,-296.082377,842.705048,9474.636058
5021.472546,0.000000,612.876398,9178.553681
5021.472860,74.020594,995.924147,9474.636058
5021.473174,148.041188,995.924147,9178.553681
5021.473488,0.000000,919.314598,9326.594869
5021.473802,296.082377,1072.533697,9252.574275
5021.474117,74.020594,919.314598,9400.615463
5021.474431,0.000000,995.924147,9400.615463
5021.474745,0.000000,1149.143247,9400.615463
5021.475059,-296.082377,995.924147,9252.574275
5021.475373,0.000000,995.924147,9252.574275
5021.475688,74.020594,1149.143247,9474.636058
5021.476002,-222.061783,1685.410096,9252.574275
5021.476316,148.041188,1608.800546,9178.553681
5021.476630,-148.041188,1608.800546,9252.574275
5021.476944,0.000000,1225.752797,9400.615463
5021.477258,-370.102971,1378.971896,9548.656652
5021.477573,-666.185348,1608.800546,9326.594869
5021.477887,-740.205942,1685.410096,9326.594869
5021.478201,-740.205942,2298.286494,9474.636058
5021.478515,-1184.329507,1838.629195,9844.739029
5021.478829,-1184.329507,2068.457845,9844.739029
5021.479144,-1702.473667,2145.067394,9918.759623
5021.479458,-1776.494261,2374.896044,9844.739029
5021.479772,-1924.535449,2604.724693,9696.697840
5021.480086,-2146.597232,2757.943793,9548.656652
5021.480400,-2294.638420,2987.772442,9622.677246
5021.480715,-2368.659014,2987.772442,9400.615463
5021.481029,-2664.741391,3217.601092,9474.636058
5021.481343,-2516.700203,3447.429741,9474.636058
5021.481657,-3182.885551,3370.820191,9104.533087
5021.481971,-3701.029710,3370.820191,9104.533087
5021.482286,-3552.988522,3524.039291,8956.491898
5021.482600,-3552.988522,3983.696590,8660.409521
5021.482914,-3478.967927,3677.258390,8290.306550
5021.483228,-3849.070898,3830.477490,8956.491898
5021.483542,-3627.009116,3907.087040,8438.347739
5021.483856,-3330.926739,4213.525239,8586.388927
5021.484171,-3034.844362,4060.306139,8734.430116
5021.484485,-2886.803174,4366.744339,8586.388927
5021.484799,-2590.720797,4519.963438,9030.512492
5021.485113,-2664.741391,3983.696590,8364.327145
5021.485427,-2294.638420,3677.258390,8956.491898
5021.485742,-1998.556043,3983.696590,8956.491898
5021.486056,-2072.576638,3907.087040,8956.491898
5021.486370,-1998.556043,3600.648841,9104.533087
5021.486684,-1776.494261,2911.162892,9326.594869
5021.486998,-1628.453072,2987.772442,9252.574275
5021.487313,-1406.391290,2374.896044,9622.677246
5021.487627,-1036.288319,2528.115143,9548.656652
5021.487941,-1036.288319,2834.553343,9252.574275
5021.488255,-740.205942,2528.115143,9030.512492
5021.488569,74.020594,2068.457845,9622.677246
5021.488884,222.061783,2068.457845,9474.636058
5021.489198,296.082377,1762.019645,9622.677246
5021.489512,370.102971,1915.238745,10140.821405
5021.489826,0.000000,1762.019645,10140.821405
5021.490140,-962.267725,1838.629195,10658.965565
5021.490454,-1480.411884,919.314598,10732.986159
5021.490769,-1924.535449,1149.143247,11325.150913
5021.491083,-2664.741391,1608.800546,11399.171507
5021.491397,-3182.885551,2298.286494,11325.150913
5021.491711,-3627.009116,2604.724693,10881.027347
5021.492025,-3775.050304,3140.991542,10288.862594
5021.492340,-4071.132681,4136.915689,9992.780217
5021.492654,-3997.112087,4903.011187,9178.553681
5021.492968,-3923.091493,4749.792088,7698.141797
5021.493282,-3108.864956,4979.620737,7105.977043
5021.493596,-2072.576638,4290.134789,6069.688724
5021.493911,-1480.411884,4136.915689,6143.709319
5021.494225,-1184.329507,3600.648841,6069.688724
5021.494539,-592.164754,2451.505594,7031.956449
5021.494853,-1702.473667,1685.410096,7772.162391
5021.495167,-2072.576638,612.876398,9326.594869
5021.495482,-2960.823768,153.219100,10214.842000
5021.495796,-2960.823768,0.000000,11177.109724
5021.496110,-2812.782580,536.266849,11621.233289
5021.496424,-2368.659014,1455.581446,11177.109724
5021.496738,-1406.391290,2374.896044,10658.965565
5021.497052,-444.123565,3830.477490,9326.594869
5021.497367,666.185348,5056.230287,8438.347739
5021.497681,1628.453072,6052.154434,7402.059420
5021.497995,1702.473667,5286.058936,7254.018232
5021.498309,1332.370696,3677.258390,7624.121203
5021.498623,74.020594,2145.067394,9178.553681
5021.498938,-2072.576638,689.485948,11103.089130
5021.499252,-3997.112087,-1149.143247,12583.501014
5021.499566,-5773.606348,-2451.505594,13989.892304
5021.499880,-6513.812290,-2757.943793,15322.262999
5021.500194,-6883.915261,-1762.019645,15248.242405
5021.500509,-6069.688724,-383.047749,13175.665768
5021.500823,-4219.173869,2834.553343,11029.068536
5021.501137,-1702.473667,5669.106685,8808.450710
5021.501451,592.164754,8580.269578,6587.832884
5021.501765,2294.638420,10648.727422,5181.441594
5021.502080,2368.659014,10495.508323,4515.256246
5021.502394,2664.741391,10112.460574,4441.235652
5021.502708,1850.514855,7354.516781,4885.359217
5021.503022,370.102971,4903.011187,6143.709319
5021.503336,-1258.350101,1149.143247,6957.935855
5021.503650,-3478.967927,-1149.143247,8068.244768
5021.503965,-4811.338623,-2145.067394,9474.636058
5021.504279,-6217.729913,-2451.505594,10584.944971
5021.504593,-6217.729913,-2374.896044,10732.986159
5021.504907,-5033.400406,-1225.752797,11399.171507
5021.505221,-4885.359217,766.095498,11029.068536
5021.505536,-4145.153275,2987.772442,10584.944971
5021.505850,-2294.638420,5132.839837,9696.697840
5021.506164,-148.041188,7814.174080,10362.883188
5021.506478,962.267725,9499.584175,10658.965565
5021.506792,2442.679609,9806.022374,9548.656652
5021.507107,1702.473667,9422.974625,9326.594869
5021.507421,1110.308913,7660.954980,9326.594869
5021.507735,888.247130,6205.373534,9548.656652
5021.508049,222.061783,3983.696590,10066.800811
5021.508363,-1554.432478,1762.019645,10214.842000
5021.508678,-2590.720797,-919.314598,9030.512492
5021.508992,-3256.906145,-3064.381992,7920.203579
5021.509306,-4737.318029,-3600.648841,9474.636058
5021.509620,-6439.791695,-3447.429741,9918.759623
5021.509934,-6809.894666,-3524.039291,10140.821405
5021.510248,-6069.688724,-2757.943793,11177.109724
5021.510563,-5699.585753,0.000000,12361.439231
5021.510877,-4589.276840,2604.724693,11769.274478
5021.511191,-1998.556043,5209.449386,9252.574275
5021.511505,222.061783,8273.831378,7994.224174
5021.511819,666.185348,11797.870669,8216.285956
5021.512134,2146.597232,13100.233016,6809.894666
5021.512448,3552.988522,11951.089769,4515.256246
5021.512762,3108.864956,10418.898773,3997.112087
5021.513076,2072.576638,7814.174080,4071.132681
5021.513390,1406.391290,3600.648841,4367.215058
5021.513705,-296.082377,-766.095498,5847.626942
5021.514019,-2220.617826,-5592.497135,8808.450710
5021.514333,-5699.585753,-7431.126331,11917.315666
5021.514647,-7920.203579,-9499.584175,13841.851115
5021.514961,-8808.450710,-9346.365076,15766.386565
5021.515276,-7698.141797,-7354.516781,17320.819043
5021.515590,-5107.421000,-5439.278036,16580.613101
5021.515904,-1850.514855,-1302.362347,13471.748144
5021.516218,296.082377,4060.306139,11473.192101
5021.516532,3108.864956,8656.879127,9178.553681
5021.516846,6513.812290,13330.061665,5921.647536
5021.517161,7920.203579,14555.814462,4071.132681
5021.517475,8956.491898,13100.233016,3478.967927
5021.517789,6957.935855,9959.241474,3923.091493
5021.518103,4589.276840,4596.572988,4885.359217
5021.518417,962.267725,-612.876398,7105.977043
5021.518732,-3404.947333,-5745.716235,11325.150913
5021.519046,-8216.285956,-10495.508323,14730.098246
5021.519360,-10214.842000,-13100.233016,15026.180623
5021.519674,-9844.739029,-12640.575717,14285.974681
5021.519988,-8512.368333,-10342.289223,13841.851115
5021.520303,-5181.441594,-5745.716235,11547.212695
5021.520617,-296.082377,76.609550,8068.244768
5021.520931,4441.235652,6435.202183,5329.482782
5021.521245,8068.244768,12027.699319,3849.070898
5021.521559,10362.883188,13483.280765,3404.947333
5021.521874,13471.748144,12947.013916,2220.617826
5021.522188,11917.315666,12027.699319,4885.359217
5021.522502,7254.018232,8427.050478,8956.491898
5021.522816,2812.782580,2374.896044,11029.068536
5021.523130,-1258.350101,-2451.505594,12435.459826
5021.523444,-5181.441594,-6971.469032,15100.201217
5021.523759,-8216.285956,-9806.022374,15766.386565
5021.524073,-10955.047942,-9806.022374,14582.057057
5021.524387,-10955.047942,-10189.070123,12139.377449
5021.524701,-8216.285956,-6205.373534,9548.656652
5021.525015,-4737.318029,-2221.676944,8660.409521
5021.525329,-1036.288319,0.000000,7031.956449
5021.525644,3478.967927,2834.553343,3552.988522
5021.525958,6217.729913,4749.792088,3849.070898
5021.526272,7772.162391,5975.544884,7179.997637
5021.526586,8216.285956,7277.907231,9474.636058
5021.526900,6957.935855,5132.839837,11325.150913
5021.527214,4959.379811,3294.210641,13397.727550
5021.527528,2812.782580,2221.676944,14434.015869
5021.527843,962.267725,-229.828649,14063.912898
5021.528157,-592.164754,-383.047749,12953.603985
5021.528471,-1850.514855,0.000000,10658.965565
5021.528785,-2072.576638,1532.190996,6439.791695
5021.529099,-814.226536,2374.896044,4515.256246
5021.529413,0.000000,2451.505594,2812.782580
5021.529728,-148.041188,1608.800546,1998.556043
5021.530042,0.000000,0.000000,2738.761985
5021.530356,-962.267725,-995.924147,5181.441594
5021.530670,-2590.720797,-1915.238745,9030.512492
5021.530984,-2368.659014,-2911.162892,13323.706956
5021.531298,-3701.029710,-2451.505594,15618.345376
5021.531612,-2886.803174,-2681.334243,16358.551318
5021.531927,-1998.556043,-1608.800546,15840.407159
5021.532241,-2368.659014,689.485948,13693.809927
5021.532555,0.000000,3753.867940,9844.739029
5021.532869,3404.947333,7354.516781,7105.977043
5021.533183,5329.482782,9729.412825,6217.729913
5021.533497,5921.647536,9193.145976,4441.235652
5021.533811,5033.400406,6052.154434,2812.782580
5021.534126,2072.576638,2757.943793,4219.173869
5021.534440,-444.123565,-612.876398,7031.956449
5021.534754,-3034.844362,-4213.525239,10807.006753
5021.535068,-5107.421000,-8503.660028,13619.789333
5021.535382,-6143.709319,-8427.050478,15914.427753
5021.535696,-6661.853478,-7354.516781,15766.386565
5021.536011,-5329.482782,-5515.887586,15470.304188
5021.536325,-2812.782580,-1072.533697,12879.583391
5021.536639,148.041188,2068.457845,8216.285956
5021.536953,3034.844362,7354.516781,6217.729913
5021.537267,6143.709319,11184.994271,3256.906145
5021.537581,8512.368333,12104.308868,2368.659014
5021.537895,8734.430116,10495.508323,3404.947333
5021.538210,6809.894666,6588.421283,5107.421000
5021.538524,3330.926739,3447.429741,7624.121203
5021.538838,-1184.329507,-1532.190996,10140.821405
5021.539152,-4737.318029,-5209.449386,13249.686362
5021.539466,-6809.894666,-7354.516781,14656.077652
5021.539780,-7698.141797,-9116.536426,14137.933492
5021.540095,-7846.182985,-7737.564530,13841.851115
5021.540409,-6365.771101,-5056.230287,11473.192101
5021.540723,-3627.009116,-1991.848295,8586.388927
5021.541037,222.061783,1685.410096,5403.503377
5021.541351,4293.194464,5362.668486,3849.070898
5021.541665,7402.059420,7660.954980,3552.988522
5021.541979,8660.409521,7354.516781,4589.276840
5021.542294,7920.203579,6971.469032,8142.265362
5021.542608,7179.997637,3983.696590,10658.965565
5021.542922,4441.235652,0.000000,12509.480420
5021.543236,888.247130,-2604.724693,15470.304188
5021.543550,-1776.494261,-4213.525239,15618.345376
5021.543864,-3330.926739,-4826.401637,15470.304188
5021.544178,-3997.112087,-4903.011187,14434.015869
5021.544493,-3330.926739,-3217.601092,10436.903782
5021.544807,-2812.782580,-459.657299,7698.141797
5021.545121,-1776.494261,2451.505594,4367.215058
5021.545435,370.102971,3600.648841,1332.370696
5021.545749,1332.370696,2757.943793,2294.638420
5021.546063,1406.391290,1685.410096,5181.441594
5021.546378,888.247130,1838.629195,8142.265362
5021.546692,-148.041188,-459.657299,10066.800811
5021.547006,-1036.288319,-2451.505594,13027.624579
5021.547320,-1554.432478,-2681.334243,15248.242405
5021.547634,-1036.288319,-2834.553343,16136.489536
5021.547948,-1406.391290,-1072.533697,14137.933492
5021.548262,-1036.288319,842.705048,11399.171507
5021.548577,814.226536,3140.991542,8216.285956
5021.548891,2368.659014,6128.763984,5847.626942
5021.549205,4145.153275,7890.783629,3627.009116
5021.549519,4663.297435,6818.249932,2072.576638
5021.549833,3108.864956,3983.696590,4293.194464
5021.550147,814.226536,1225.752797,6661.853478
5021.550461,-1628.453072,-1608.800546,8956.491898
5021.550776,-3997.112087,-4903.011187,11251.130318
5021.551090,-5477.523971,-6205.373534,14063.912898
5021.551404,-5921.647536,-6205.373534,15174.221811
5021.551718,-5181.441594,-5132.839837,15026.180623
5021.552032,-3478.967927,-2298.286494,14063.912898
5021.552346,-1480.411884,306.438199,11177.109724
5021.552661,666.185348,4213.525239,8068.244768
5021.552975,3552.988522,8120.612279,5255.462188
5021.553289,6439.791695,9806.022374,3256.906145
5021.553603,7846.182985,8963.317327,3330.926739
5021.553917,6883.915261,7354.516781,5329.482782
5021.554231,4071.132681,4443.353888,7105.977043
5021.554545,888.247130,612.876398,8512.368333
5021.554860,-2220.617826,-2528.115143,11917.315666
5021.555174,-3923.091493,-5898.935335,14434.015869
5021.555488,-5477.523971,-5745.716235,15544.324782
5021.555802,-6291.750507,-6128.763984,15100.201217
5021.556116,-5403.503377,-4366.744339,12657.521608
5021.556430,-3478.967927,-153.219100,9548.656652
5021.556745,-888.247130,2374.896044,6513.812290
5021.557059,2072.576638,6818.249932,3701.029710
5021.557373,4663.297435,8656.879127,2294.638420
5021.557687,5847.626942,7890.783629,3034.844362
5021.558001,5625.565159,7354.516781,5625.565159
5021.558315,4293.194464,4290.134789,8364.327145
5021.558629,2146.597232,1225.752797,10881.027347
5021.558944,-666.185348,-383.047749,13545.768739
5021.559258,-2072.576638,-2757.943793,15100.201217
5021.559572,-2812.782580,-4136.915689,15988.448347
5021.559886,-3478.967927,-3600.648841,15026.180623
5021.560200,-3404.947333,-1915.238745,12435.459826
5021.560514,-2442.679609,229.828649,8068.244768
5021.560828,-666.185348,2451.505594,5255.462188
5021.561143,1184.329507,4903.011187,3701.029710
5021.561457,3256.906145,5439.278036,3256.906145
5021.561771,4885.359217,4596.572988,4293.194464
5021.562085,2812.782580,3140.991542,5847.626942
5021.562399,296.082377,536.266849,9178.553681
5021.562713,-1036.288319,-1302.362347,11769.274478
5021.563028,-2886.803174,-2604.724693,13989.892304
5021.563342,-3478.967927,-3907.087040,14878.139434
5021.563656,-3256.906145,-3677.258390,14804.118840
5021.563970,-2664.741391,-2757.943793,12953.603985
5021.564284,-1184.329507,0.000000,9992.780217
5021.564598,370.102971,2987.772442,7550.100608
5021.564912,1184.329507,5132.839837,5033.400406
5021.565227,3034.844362,5975.544884,3849.070898
5021.565541,4441.235652,4979.620737,3923.091493
5021.565855,3404.947333,2451.505594,5625.565159
5021.566169,2072.576638,-612.876398,7254.018232
5021.566483,370.102971,-2528.115143,9770.718434
5021.566797,-2294.638420,-4213.525239,13249.686362
5021.567111,-3256.906145,-4979.620737,14582.057057
5021.567426,-4071.132681,-5209.449386,15248.242405
5021.567740,-3849.070898,-4290.134789,15988.448347
5021.568054,-2516.700203,-1455.581446,13323.706956
5021.568368,-370.102971,1225.752797,8956.491898
5021.568682,1628.453072,3524.039291,5699.585753
5021.568996,4293.194464,5898.935335,4219.173869
5021.569311,6069.688724,8503.660028,3256.906145
5021.569625,6217.729913,7354.516781,3627.009116
5021.569939,4811.338623,4826.401637,5625.565159
5021.570253,2368.659014,1455.581446,8660.409521
5021.570567,74.020594,-1915.238745,11621.233289
5021.570881,-2516.700203,-4673.182538,13841.851115
5021.571195,-4293.194464,-6588.421283,14730.098246
5021.571510,-5625.565159,-6052.154434,15544.324782
5021.571824,-5033.400406,-4136.915689,15100.201217
5021.572138,-2886.803174,-1455.581446,12583.501014
5021.572452,-814.226536,1685.410096,8512.368333
5021.572766,1628.453072,4749.792088,4959.379811
5021.573080,4145.153275,7737.564530,2590.720797
5021.573395,5995.668130,9116.536426,2146.597232
5021.573709,5995.668130,7814.174080,4145.153275
5021.574023,4663.297435,5056.230287,7179.997637
5021.574337,2442.679609,2068.457845,10066.800811
5021.574651,0.000000,-459.657299,12361.439231
5021.574965,-2664.741391,-2604.724693,14211.954086
5021.575279,-3775.050304,-4366.744339,14434.015869
5021.575594,-4515.256246,-4060.306139,14582.057057
5021.575908,-4219.173869,-2451.505594,13323.706956
5021.576222,-3034.844362,536.266849,10214.842000
5021.576536,-1702.473667,2757.943793,7105.977043
5021.576850,222.061783,5286.058936,4515.256246
5021.577164,3330.926739,6818.249932,2664.741391
5021.577478,4515.256246,6205.373534,3034.844362
5021.577793,3997.112087,4596.572988,5921.647536
5021.578107,2220.617826,2604.724693,8068.244768
5021.578421,666.185348,76.609550,10362.883188
5021.578735,-1924.535449,-1685.410096,12657.521608
5021.579049,-3034.844362,-2834.553343,14063.912898
5021.579363,-3849.070898,-3294.210641,15174.221811
5021.579678,-3182.885551,-2604.724693,14878.139434
5021.579992,-1776.494261,-1225.752797,11991.336260
5021.580306,518.144159,1532.190996,8882.471304
5021.580620,1924.535449,3830.477490,5921.647536
5021.580934,4293.194464,6818.249932,4293.194464
5021.581248,5625.565159,7354.516781,3256.906145
5021.581562,5477.523971,5209.449386,4737.318029
5021.581877,3997.112087,2528.115143,6365.771101
5021.582191,1628.453072,-383.047749,8734.430116
5021.582505,-1702.473667,-2451.505594,12287.418637
5021.582819,-4145.153275,-4060.306139,14656.077652
5021.583133,-5107.421000,-6052.154434,15322.262999
5021.583447,-6439.791695,-6128.763984,15248.242405
5021.583761,-5477.523971,-4519.963438,14211.954086
5021.584076,-4219.173869,-1455.581446,10807.006753
5021.584390,-1554.432478,1915.238745,6809.894666
5021.584704,1184.329507,4366.744339,4515.256246
5021.585018,3701.029710,6894.859482,4145.153275
5021.585332,5033.400406,6894.859482,3552.988522
5021.585646,5699.585753,5132.839837,4145.153275
5021.585961,3627.009116,2374.896044,6957.935855
5021.586275,1776.494261,-1072.533697,9400.615463
5021.586589,-296.082377,-3370.820191,12731.542202
5021.586903,-1998.556043,-5209.449386,14656.077652
5021.587217,-3034.844362,-5822.325785,15322.262999
5021.587531,-3997.112087,-4749.792088,15174.221811
5021.587845,-3256.906145,-2604.724693,13101.645173
5021.588160,-1258.350101,-459.657299,9474.636058
5021.588474,1184.329507,2451.505594,6143.709319
5021.588788,2812.782580,4826.401637,3849.070898
5021.589102,4811.338623,7201.297681,3034.844362
5021.589416,4811.338623,6588.421283,3256.906145
5021.589730,3923.091493,4596.572988,5181.441594
5021.590045,2368.659014,1915.238745,7328.038826
5021.590359,0.000000,-842.705048,10066.800811
5021.590673,-2516.700203,-2528.115143,12583.501014
5021.590987,-3701.029710,-4903.011187,13767.830521
5021.591301,-4515.256246,-4979.620737,14804.118840
5021.591615,-4737.318029,-4366.744339,15322.262999
5021.591929,-2960.823768,-2451.505594,12435.459826
5021.592244,-1110.308913,842.705048,9030.512492
5021.592558,1258.350101,3217.601092,6143.709319
5021.592872,4663.297435,7048.078582,4367.215058
5021.593186,6365.771101,7124.688131,3627.009116
5021.593500,6143.709319,5822.325785,5033.400406
5021.593814,4885.359217,4213.525239,6661.853478
5021.594128,2960.823768,1225.752797,9104.533087
5021.594443,370.102971,-459.657299,12805.562797
5021.594757,-1480.411884,-2604.724693,14582.057057
5021.595071,-2294.638420,-3983.696590,14878.139434
5021.595385,-3034.844362,-4596.572988,15174.221811
5021.595699,-3034.844362,-1915.238745,13619.789333
5021.596013,-2738.761985,766.095498,9622.677246
5021.596328,-518.144159,3677.258390,6217.729913
5021.596642,1628.453072,6358.592633,4737.318029
5021.596956,3256.906145,7277.907231,3552.988522
5021.597270,3849.070898,5975.544884,2886.803174
5021.597584,1924.535449,3907.087040,3997.112087
5021.597898,370.102971,2068.457845,7254.018232
5021.598212,-1628.453072,-536.266849,10362.883188
5021.598527,-3701.029710,-3217.601092,13545.768739
5021.598841,-4959.379811,-4903.011187,14804.118840
5021.599155,-5477.523971,-4979.620737,14656.077652
5021.599469,-5477.523971,-4213.525239,13989.892304
5021.599783,-4219.173869,-766.095498,11473.192101
5021.600097,-2072.576638,1762.019645,8216.285956
5021.600411,518.144159,4136.915689,5921.647536
5021.600726,2812.782580,6358.592633,4367.215058
5021.601040,4811.338623,6894.859482,3330.926739
5021.601354,5551.544565,4903.011187,3923.091493
5021.601668,4441.235652,2987.772442,6587.832884
5021.601982,2220.617826,229.828649,9104.533087
5021.602296,0.000000,-2451.505594,11843.295072
5021.602611,-2294.638420,-4443.353888,14285.974681
5021.602925,-2886.803174,-4903.011187,15544.324782
5021.603239,-2960.823768,-4673.182538,15396.283594
5021.603553,-2812.782580,-3753.867940,14211.954086
5021.603867,-1776.494261,-1149.143247,10955.047942
5021.604181,0.000000,2374.896044,7698.141797
5021.604495,2738.761985,4596.572988,5181.441594
5021.604810,4737.318029,6818.249932,2738.761985
5021.605124,5551.544565,6741.640382,3330.926739
5021.605438,4589.276840,5209.449386,5551.544565
5021.605752,3182.885551,2681.334243,6883.915261
5021.606066,740.205942,-919.314598,8290.306550
5021.606380,-2516.700203,-3294.210641,12435.459826
5021.606694,-4071.132681,-4366.744339,14582.057057
5021.607009,-5181.441594,-4903.011187,14730.098246
5021.607323,-5551.544565,-4903.011187,15026.180623
5021.607637,-5181.441594,-3830.477490,12731.542202
5021.607951,-3330.926739,-459.657299,10732.986159
5021.608265,0.000000,2834.553343,6809.894666
5021.608579,2738.761985,6052.154434,3923.091493
5021.608894,4663.297435,7277.907231,2590.720797
5021.609208,5329.482782,6358.592633,3775.050304
5021.609522,5477.523971,6588.421283,6365.771101
5021.609836,3627.009116,2604.724693,7772.162391
5021.610150,888.247130,-536.266849,10214.842000
5021.610464,-2442.679609,-2068.457845,13767.830521
5021.610778,-3923.091493,-3524.039291,14656.077652
5021.611093,-3627.009116,-3907.087040,14656.077652
5021.611407,-4515.256246,-3447.429741,15100.201217
5021.611721,-3849.070898,-1838.629195,12509.480420
5021.612035,-1554.432478,1915.238745,8364.327145
5021.612349,666.185348,4519.963438,5699.585753
5021.612663,2738.761985,6435.202183,4145.153275
5021.612978,4737.318029,7124.688131,3701.029710
5021.613292,4663.297435,5515.887586,4219.173869
5021.613606,3256.906145,3983.696590,5995.668130
5021.613920,1184.329507,1455.581446,8660.409521
5021.614234,-1406.391290,-995.924147,11621.233289
5021.614548,-3108.864956,-2604.724693,13915.871710
5021.614862,-3849.070898,-3983.696590,13989.892304
5021.615177,-4441.235652,-4060.306139,14211.954086
5021.615491,-4071.132681,-2221.676944,13989.892304
5021.615805,-2368.659014,153.219100,11621.233289
5021.616119,296.082377,2911.162892,7105.977043
5021.616433,2886.803174,5056.230287,4737.318029
5021.616747,5033.400406,6818.249932,3478.967927
5021.617061,6587.832884,6358.592633,2516.700203
5021.617376,6069.688724,4596.572988,3627.009116
5021.617690,3923.091493,2911.162892,7846.182985
5021.618004,1480.411884,153.219100,10881.027347
5021.618318,-962.267725,-3064.381992,13175.665768
5021.618632,-2664.741391,-5362.668486,14359.995275
5021.618946,-3775.050304,-6205.373534,13915.871710
5021.619261,-4515.256246,-5132.839837,14359.995275
5021.619575,-4441.235652,-2834.553343,13397.727550
5021.619889,-2738.761985,76.609550,10140.821405
5021.620203,-444.123565,1762.019645,6439.791695
5021.620517,1480.411884,4290.134789,4367.215058
5021.620831,3330.926739,6281.983084,2886.803174
5021.621145,4589.276840,5132.839837,3701.029710
5021.621460,4219.173869,3524.039291,5995.668130
5021.621774,2516.700203,536.266849,9696.697840
5021.622088,296.082377,-2298.286494,11843.295072
5021.622402,-2368.659014,-4366.744339,14211.954086
5021.622716,-3701.029710,-4826.401637,14582.057057
5021.623030,-3552.988522,-4213.525239,14730.098246
5021.623344,-3034.844362,-3217.601092,14582.057057
5021.623659,-1332.370696,-612.876398,12361.439231
5021.623973,222.061783,2298.286494,8660.409521
5021.624287,1776.494261,4596.572988,5551.544565
5021.624601,3627.009116,6741.640382,3034.844362
5021.624915,5033.400406,6894.859482,2442.679609
5021.625229,4959.379811,4903.011187,4071.132681
5021.625544,3775.050304,3217.601092,6735.874072
5021.625858,1184.329507,612.876398,9104.533087
5021.626172,-1924.535449,-1762.019645,11547.212695
5021.626486,-4515.256246,-3600.648841,13397.727550
5021.626800,-5403.503377,-4290.134789,13767.830521
5021.627114,-5033.400406,-3830.477490,14063.912898
5021.627428,-4293.194464,-2987.772442,12731.542202
5021.627743,-2368.659014,-229.828649,9622.677246
5021.628057,0.000000,2834.553343,6217.729913
5021.628371,2368.659014,5745.716235,4367.215058
5021.628685,5107.421000,7584.345430,3108.864956
5021.628999,6587.832884,5669.106685,3849.070898
5021.629313,6365.771101,4749.792088,6587.832884
5021.629627,4811.338623,2068.457845,9030.512492
5021.629941,2368.659014,-689.485948,11547.212695
5021.630255,-814.226536,-2604.724693,15100.201217
5021.630569,-2960.823768,-4290.134789,15618.345376
5021.630884,-3701.029710,-3830.477490,15840.407159
5021.631198,-3997.112087,-2987.772442,15988.448347
5021.631512,-3404.947333,-1072.533697,13175.665768
5021.631826,-1776.494261,1685.410096,8808.450710
5021.632140,444.123565,3830.477490,5255.462188
5021.632454,2294.638420,7048.078582,3627.009116
5021.632768,3701.029710,7814.174080,3330.926739
5021.633082,4737.318029,5745.716235,3627.009116
5021.633396,3478.967927,3753.867940,5995.668130
5021.633710,1924.535449,995.924147,8142.265362
5021.634025,-740.205942,-1149.143247,10955.047942
5021.634339,-3552.988522,-2451.505594,13693.809927
5021.634653,-4589.276840,-3983.696590,13915.871710
5021.634967,-4959.379811,-3217.601092,14508.036463
5021.635281,-5181.441594,-2298.286494,13915.871710
5021.635595,-3330.926739,153.219100,10436.903782
5021.635909,-888.247130,2374.896044,5995.668130
5021.636223,1850.514855,5056.230287,4885.359217
5021.636537,3923.091493,8044.002729,3849.070898
5021.636851,4811.338623,7354.516781,3256.906145
5021.637166,4663.297435,4903.011187,4145.153275
5021.637480,2960.823768,3370.820191,6513.812290
5021.637794,666.185348,-306.438199,9178.553681
5021.638108,-2516.700203,-2221.676944,12583.501014
5021.638422,-4663.297435,-4596.572988,14582.057057
5021.638736,-5107.421000,-6435.202183,14508.036463
5021.639050,-5255.462188,-5822.325785,15100.201217
5021.639364,-4515.256246,-4136.915689,13989.892304
5021.639678,-2368.659014,-612.876398,10955.047942
5021.639992,740.205942,2451.505594,7772.162391
5021.640307,3330.926739,4366.744339,4737.318029
5021.640621,5403.503377,7048.078582,3627.009116
5021.640935,6735.874072,4979.620737,3701.029710
5021.641249,6143.709319,3447.429741,5551.544565
5021.641563,4145.153275,2068.457845,8882.471304
5021.641877,1776.494261,-1762.019645,11473.192101
5021.642191,-1036.288319,-3600.648841,13767.830521
5021.642505,-2886.803174,-5439.278036,13989.892304
5021.642819,-3627.009116,-5745.716235,13767.830521
5021.643133,-2886.803174,-3447.429741,14211.954086
5021.643448,-3330.926739,-2145.067394,12139.377449
5021.643762,-1406.391290,-536.266849,8660.409521
5021.644076,888.247130,2451.505594,5995.668130
5021.644390,2738.761985,5439.278036,3627.009116
5021.644704,5255.462188,7048.078582,2738.761985
5021.645018,6587.832884,4979.620737,3108.864956
5021.645332,4959.379811,3600.648841,6217.729913
5021.645646,3997.112087,1149.143247,8882.471304
5021.645960,1036.288319,-1225.752797,11251.130318
5021.646274,-1628.453072,-3217.601092,13249.686362
5021.646588,-3330.926739,-3294.210641,15026.180623
5021.646903,-4515.256246,-2911.162892,16950.716072
5021.647217,-3849.070898,-3830.477490,14952.160028
5021.647531,-2368.659014,-1991.848295,10955.047942
5021.647845,-1480.411884,1302.362347,8068.244768
5021.648159,74.020594,4979.620737,6291.750507
5021.648473,2664.741391,7354.516781,3923.091493
5021.648787,4367.215058,5822.325785,3256.906145
5021.649101,4219.173869,4749.792088,4737.318029
5021.649415,2368.659014,3447.429741,6365.771101
5021.649729,518.144159,0.000000,8068.244768
5021.650044,-1480.411884,-1378.971896,11103.089130
5021.650358,-3997.112087,-3140.991542,14063.912898
5021.650672,-4737.318029,-4673.182538,14804.118840
5021.650986,-5107.421000,-3140.991542,14211.954086
5021.651300,-4145.153275,-2068.457845,12731.542202
5021.651614,-2294.638420,1532.190996,10066.800811
5021.651928,0.000000,4519.963438,7550.100608
5021.652242,2886.803174,6128.763984,5107.421000
5021.652556,4737.318029,7584.345430,3256.906145
5021.652870,4737.318029,6588.421283,4663.297435
5021.653185,3997.112087,4749.792088,5773.606348
5021.653499,2590.720797,2451.505594,7476.080014
5021.653813,0.000000,-766.095498,9548.656652
5021.654127,-2960.823768,-3370.820191,12287.418637
5021.654441,-3775.050304,-4136.915689,13619.789333
5021.654755,-4663.297435,-4366.744339,14285.974681
5021.655069,-5329.482782,-2528.115143,13989.892304
5021.655383,-5107.421000,-689.485948,13101.645173
5021.655697,-2294.638420,689.485948,8882.471304
5021.656011,1184.329507,3907.087040,5551.544565
5021.656326,4293.194464,6052.154434,3478.967927
5021.656640,5847.626942,6281.983084,2738.761985
5021.656954,6439.791695,6128.763984,4515.256246
5021.657268,5181.441594,4519.963438,6883.915261
5021.657582,3256.906145,1838.629195,9400.615463
5021.657896,222.061783,-2221.676944,12509.480420
5021.658210,-2812.782580,-4060.306139,14508.036463
5021.658524,-4367.215058,-5056.230287,15174.221811
5021.658838,-5329.482782,-5056.230287,15692.365970
5021.659152,-5403.503377,-3753.867940,15026.180623
5021.659467,-3404.947333,-2068.457845,12213.398043
5021.659781,-888.247130,1072.533697,7402.059420
5021.660095,1110.308913,4826.401637,4663.297435
5021.660409,2442.679609,6818.249932,2664.741391
5021.660723,4293.194464,7124.688131,3108.864956
5021.661037,4441.235652,5056.230287,4441.235652
5021.661351,3627.009116,1838.629195,6439.791695
5021.661665,1554.432478,-689.485948,9104.533087
5021.661979,-1850.514855,-2987.772442,12139.377449
5021.662293,-3775.050304,-4136.915689,14285.974681
5021.662608,-4071.132681,-5132.839837,14878.139434
5021.662922,-4293.194464,-4903.011187,14878.139434
5021.663236,-3552.988522,-2987.772442,13101.645173
5021.663550,-1480.411884,0.000000,9326.594869
5021.663864,518.144159,2757.943793,5921.647536
5021.664178,3182.885551,6052.154434,4293.194464
5021.664492,5551.544565,6741.640382,3404.947333
5021.664806,6957.935855,4826.401637,3923.091493
5021.665120,5995.668130,3753.867940,5699.585753
5021.665434,3701.029710,1532.190996,7698.141797
5021.665749,1184.329507,-1378.971896,10881.027347
5021.666063,-962.267725,-3677.258390,13323.706956
5021.666377,-2664.741391,-5592.497135,14952.160028
5021.666691,-3997.112087,-4903.011187,16062.468941
5021.667005,-4293.194464,-3983.696590,15396.283594
5021.667319,-3701.029710,-1915.238745,11991.336260
5021.667633,-740.205942,459.657299,8882.471304
5021.667947,1480.411884,3753.867940,6883.915261
5021.668261,3256.906145,6435.202183,4737.318029
5021.668575,5329.482782,6818.249932,3256.906145
5021.668890,5625.565159,5132.839837,3627.009116
5021.669204,3849.070898,3830.477490,6069.688724
5021.669518,2220.617826,612.876398,8364.327145
5021.669832,-814.226536,-1455.581446,10955.047942
5021.670146,-2960.823768,-3064.381992,13619.789333
5021.670460,-4515.256246,-3447.429741,14804.118840
5021.670774,-5329.482782,-3294.210641,15100.201217
5021.671088,-5107.421000,-2451.505594,13693.809927
5021.671402,-2886.803174,459.657299,9474.636058
5021.671716,-740.205942,4060.306139,6809.894666
5021.672031,888.247130,6818.249932,5033.400406
5021.672345,3108.864956,8503.660028,3034.844362
5021.672659,4367.215058,7354.516781,2664.741391
5021.672973,4293.194464,5439.278036,4293.194464
5021.673287,2442.679609,3983.696590,7179.997637
5021.673601,740.205942,919.314598,10436.903782
5021.673915,-1702.473667,-2145.067394,12953.603985
5021.674229,-3182.885551,-3064.381992,14211.954086
5021.674543,-4885.359217,-4519.963438,14878.139434
5021.674857,-5551.544565,-3370.820191,14730.098246
5021.675171,-4441.235652,-1072.533697,12657.521608
5021.675486,-1998.556043,1225.752797,9918.759623
5021.675800,222.061783,3753.867940,7031.956449
5021.676114,2442.679609,5439.278036,4515.256246
5021.676428,4737.318029,5822.325785,3182.885551
5021.676742,5995.668130,5745.716235,3552.988522
5021.677056,4441.235652,4596.572988,6143.709319
5021.677370,2368.659014,1532.190996,8290.306550
5021.677684,0.000000,-995.924147,11251.130318
5021.677998,-2368.659014,-3370.820191,13397.727550
5021.678312,-3330.926739,-5286.058936,13693.809927
5021.678627,-4811.338623,-4903.011187,14211.954086
5021.678941,-5625.565159,-4596.572988,13767.830521
5021.679255,-4515.256246,-2528.115143,11325.150913
5021.679569,-1998.556043,612.876398,8882.471304
5021.679883,740.205942,3294.210641,6513.812290
5021.680197,3923.091493,5439.278036,4441.235652
5021.680511,6439.791695,5822.325785,3627.009116
5021.680825,6217.729913,4903.011187,4885.359217
5021.681139,5033.400406,3294.210641,7031.956449
5021.681453,3552.988522,536.266849,9104.533087
5021.681768,666.185348,-1915.238745,11991.336260
5021.682082,-1406.391290,-3370.820191,14359.995275
5021.682396,-2886.803174,-4290.134789,15174.221811
5021.682710,-3552.988522,-4366.744339,15100.201217
5021.683024,-3552.988522,-3294.210641,13175.665768
5021.683338,-2368.659014,-536.266849,10584.944971
5021.683652,-1036.288319,1838.629195,7179.997637
5021.683966,444.123565,4519.963438,5403.503377
5021.684280,2220.617826,5439.278036,3849.070898
5021.684594,3108.864956,4673.182538,3997.112087
5021.684909,3034.844362,3677.258390,5551.544565
5021.685223,1924.535449,1685.410096,7254.018232
5021.685537,0.000000,-1378.971896,8512.368333
5021.685851,-2812.782580,-2528.115143,11547.212695
5021.686165,-3997.112087,-3524.039291,12879.583391
5021.686479,-3478.967927,-3064.381992,14137.933492
5021.686793,-3182.885551,-1991.848295,14508.036463
5021.687107,-2368.659014,-383.047749,12435.459826
5021.687421,-1258.350101,1685.410096,9326.594869
5021.687735,1110.308913,3294.210641,6661.853478
5021.688050,3182.885551,5975.544884,4515.256246
5021.688364,4885.359217,6511.811733,3701.029710
5021.688678,5699.585753,4673.182538,3849.070898
5021.688992,4219.173869,4213.525239,6513.812290
5021.689306,2812.782580,2451.505594,8882.471304
5021.689620,148.041188,-229.828649,11473.192101
5021.689934,-2442.679609,-2451.505594,13027.624579
5021.690248,-3256.906145,-4060.306139,12657.521608
5021.690562,-4293.194464,-3064.381992,14137.933492
5021.690876,-4441.235652,-2221.676944,13693.809927
5021.691191,-3404.947333,-383.047749,11251.130318
5021.691505,-1184.329507,1378.971896,8068.244768
5021.691819,1332.370696,4136.915689,6735.874072
5021.692133,3034.844362,7201.297681,4811.338623
5021.692447,4441.235652,6511.811733,3404.947333
5021.692761,4811.338623,3753.867940,3997.112087
5021.693075,3404.947333,4290.134789,7031.956449
5021.693389,1406.391290,1762.019645,9992.780217
5021.693703,-592.164754,-1608.800546,11103.089130
5021.694017,-2590.720797,-3447.429741,12361.439231
5021.694332,-4367.215058,-4596.572988,13767.830521
5021.694646,-4885.359217,-3140.991542,14656.077652
5021.694960,-4441.235652,-2374.896044,12805.562797
5021.695274,-2368.659014,-1072.533697,9992.780217
5021.695588,148.041188,1685.410096,8734.430116
5021.695902,1036.288319,4903.011187,6661.853478
5021.696216,3404.947333,5898.935335,3923.091493
5021.696530,4737.318029,4903.011187,3330.926739
5021.696844,4293.194464,3370.820191,5699.585753
5021.697158,3404.947333,2374.896044,7772.162391
5021.697473,2146.597232,153.219100,9474.636058
5021.697787,-222.061783,-1838.629195,12583.501014
5021.698101,-1998.556043,-3447.429741,13915.871710
5021.698415,-2220.617826,-3064.381992,15322.262999
5021.698729,-2442.679609,-2987.772442,15100.201217
5021.699043,-1776.494261,-2451.505594,12139.377449
5021.699357,-666.185348,-842.705048,9030.512492
5021.699671,444.123565,1532.190996,6883.915261
5021.699985,2960.823768,5286.058936,5255.462188
5021.700299,4071.132681,5132.839837,4219.173869
5021.700614,3849.070898,3140.991542,5181.441594
5021.700928,2590.720797,1455.581446,6291.750507
5021.701242,592.164754,-306.438199,7772.162391
5021.701556,-1628.453072,-2604.724693,9548.656652
5021.701870,-3034.844362,-4136.915689,11843.295072
5021.702184,-3404.947333,-3983.696590,13989.892304
5021.702498,-3404.947333,-3830.477490,14656.077652
5021.702812,-3701.029710,-3064.381992,12805.562797
5021.703126,-2220.617826,-2145.067394,10066.800811
5021.703440,-296.082377,1225.752797,8216.285956
5021.703754,2442.679609,3983.696590,6143.709319
5021.704069,5033.400406,5362.668486,4367.215058
5021.704383,5847.626942,5515.887586,5181.441594
5021.704697,5329.482782,4366.744339,7105.977043
5021.705011,4071.132681,2911.162892,8216.285956
5021.705325,1776.494261,153.219100,9326.594869
5021.705639,-814.226536,-2145.067394,11991.336260
5021.705953,-2368.659014,-2987.772442,13545.768739
5021.706267,-3182.885551,-3217.601092,13545.768739
5021.706581,-4071.132681,-2757.943793,13989.892304
5021.706895,-4515.256246,-1302.362347,12583.501014
5021.707210,-3108.864956,1685.410096,9918.759623
5021.707524,-1628.453072,3907.087040,7031.956449
5021.707838,814.226536,5822.325785,4663.297435
5021.708152,2590.720797,5592.497135,4219.173869
5021.708466,3552.988522,5132.839837,4959.379811
5021.708780,2738.761985,4443.353888,6587.832884
5021.709094,1554.432478,2757.943793,8438.347739
5021.709408,-370.102971,306.438199,10955.047942
5021.709722,-1998.556043,-1532.190996,13471.748144
5021.710036,-2960.823768,-1991.848295,12953.603985
5021.710351,-3627.009116,-2834.553343,13027.624579
5021.710665,-4441.235652,-1762.019645,12287.418637
5021.710979,-3552.988522,536.266849,10214.842000
5021.711293,-1554.432478,2834.553343,8438.347739
5021.711607,-370.102971,4519.963438,6365.771101
5021.711921,1554.432478,5822.325785,5033.400406
5021.712235,3404.947333,5592.497135,4959.379811
5021.712549,3701.029710,4366.744339,5329.482782
5021.712863,2886.803174,2451.505594,6291.750507
5021.713177,1850.514855,306.438199,8882.471304
5021.713492,-148.041188,-612.876398,11177.109724
5021.713806,-1850.514855,-1915.238745,12731.542202
5021.714120,-2368.659014,-2681.334243,12879.583391
5021.714434,-2368.659014,-3524.039291,13915.871710
5021.714748,-2368.659014,-1685.410096,13175.665768
5021.715062,-814.226536,-306.438199,9992.780217
5021.715376,1258.350101,1378.971896,7476.080014
5021.715690,2960.823768,3447.429741,7105.977043
5021.716004,4367.215058,4519.963438,7031.956449
5021.716318,4737.318029,3907.087040,6809.894666
5021.716633,4589.276840,2068.457845,7105.977043
5021.716947,2812.782580,459.657299,8216.285956
5021.717261,1110.308913,-1378.971896,10066.800811
5021.717575,-1110.308913,-2451.505594,11917.315666
5021.717889,-1776.494261,-3140.991542,12731.542202
5021.718203,-2886.803174,-3447.429741,13101.645173
5021.718517,-4219.173869,-2911.162892,13471.748144
5021.718831,-3849.070898,-995.924147,10807.006753
5021.719145,-1776.494261,459.657299,7476.080014
5021.719459,0.000000,2451.505594,6217.729913
5021.719774,1332.370696,4290.134789,5921.647536
5021.720088,2886.803174,4060.306139,5107.421000
5021.720402,3701.029710,2451.505594,4959.379811
5021.720716,2590.720797,1608.800546,6957.935855
5021.721030,1036.288319,689.485948,9326.594869
5021.721344,-148.041188,-689.485948,11621.233289
5021.721658,-1184.329507,-1532.190996,12731.542202
5021.721972,-2146.597232,-2451.505594,13323.706956
5021.722286,-2664.741391,-2681.334243,13249.686362
5021.722600,-3108.864956,-1762.019645,12509.480420
5021.722915,-2368.659014,229.828649,10066.800811
5021.723229,-666.185348,2451.505594,7994.224174
5021.723543,222.061783,3983.696590,7328.038826
5021.723857,2368.659014,4826.401637,5181.441594
5021.724171,3775.050304,4519.963438,4367.215058
5021.724485,3182.885551,3370.820191,6069.688724
5021.724799,1628.453072,1915.238745,7772.162391
5021.725113,888.247130,0.000000,9400.615463
5021.725427,-444.123565,-1838.629195,11843.295072
5021.725742,-1924.535449,-2987.772442,13397.727550
5021.726056,-2664.741391,-2834.553343,12731.542202
5021.726370,-2960.823768,-2068.457845,12657.521608
5021.726684,-2516.700203,153.219100,12435.459826
5021.726998,-1258.350101,1915.238745,10140.821405
5021.727312,1036.288319,2911.162892,7994.224174
5021.727627,2590.720797,4519.963438,5921.647536
5021.727941,3701.029710,5362.668486,4737.318029
5021.728255,3997.112087,4903.011187,4663.297435
5021.728569,3404.947333,3677.258390,6291.750507
5021.728883,2738.761985,1608.800546,7624.121203
5021.729198,666.185348,153.219100,10955.047942
5021.729512,-1184.329507,-1225.752797,12879.583391
5021.729826,-3108.864956,-2374.896044,13175.665768
5021.730140,-2960.823768,-3217.601092,12879.583391
5021.730454,-2664.741391,-2528.115143,12509.480420
5021.730768,-1850.514855,-536.266849,11251.130318
5021.731083,148.041188,2451.505594,8808.450710
5021.731397,1036.288319,4596.572988,6513.812290
5021.731711,2220.617826,4903.011187,4811.338623
5021.732025,3775.050304,4749.792088,4959.379811
5021.732339,3997.112087,3983.696590,6735.874072
5021.732653,2812.782580,2145.067394,8142.265362
5021.732968,1776.494261,0.000000,9252.574275
5021.733282,-444.123565,-1685.410096,11547.212695
5021.733596,-2886.803174,-2298.286494,14137.933492
5021.733910,-3849.070898,-2528.115143,12805.562797
5021.734224,-4515.256246,-2374.896044,12213.398043
5021.734538,-4145.153275,-1532.190996,11843.295072
5021.734853,-2738.761985,842.705048,9548.656652
5021.735167,-1036.288319,1838.629195,6883.915261
5021.735481,444.123565,2681.334243,5477.523971
5021.735795,1480.411884,3907.087040,5033.400406
5021.736109,1998.556043,4213.525239,6513.812290
5021.736423,2294.638420,2834.553343,6439.791695
5021.736738,1924.535449,229.828649,7920.203579
5021.737052,74.020594,-1915.238745,10510.924376
5021.737366,-814.226536,-2298.286494,11695.253884
5021.737680,-1850.514855,-1915.238745,12213.398043
5021.737994,-1998.556043,-1608.800546,12583.501014
5021.738308,-1776.494261,-689.485948,13101.645173
5021.738623,-1258.350101,842.705048,11695.253884
5021.738937,-296.082377,2068.457845,7920.203579
5021.739251,1258.350101,2451.505594,6291.750507
5021.739565,2886.803174,3907.087040,5551.544565
5021.739879,4293.194464,4519.963438,5921.647536
5021.740193,4515.256246,3600.648841,6513.812290
5021.740508,3478.967927,1685.410096,7846.182985
5021.740822,2072.576638,459.657299,9326.594869
5021.741136,0.000000,-1455.581446,10362.883188
5021.741450,-1702.473667,-2911.162892,11843.295072
5021.741764,-2368.659014,-2834.553343,12065.356855
5021.742078,-2442.679609,-2451.505594,12435.459826
5021.742393,-3108.864956,-1608.800546,12583.501014
5021.742707,-2590.720797,-306.438199,11029.068536
5021.743021,-888.247130,1608.800546,9474.636058
5021.743335,444.123565,3064.381992,6809.894666
5021.743649,1998.556043,4060.306139,4959.379811
5021.743964,3034.844362,3447.429741,4441.235652
5021.744278,3108.864956,2604.724693,5699.585753
5021.744592,2664.741391,2145.067394,7846.182985
5021.744906,1184.329507,995.924147,10214.842000
5021.745220,222.061783,-766.095498,11843.295072
5021.745534,-814.226536,-1225.752797,12731.542202
5021.745849,-1110.308913,-1225.752797,13471.748144
5021.746163,-888.247130,-1072.533697,13101.645173
5021.746477,-740.205942,76.609550,12287.418637
5021.746791,-518.144159,995.924147,9548.656652
5021.747105,0.000000,2604.724693,7698.141797
5021.747419,1036.288319,4596.572988,6513.812290
5021.747734,1924.535449,4596.572988,5329.482782
5021.748048,2590.720797,4290.134789,5773.606348
5021.748362,1998.556043,2451.505594,6809.894666
5021.748676,592.164754,842.705048,8364.327145
5021.748990,-1332.370696,-1072.533697,9474.636058
5021.749304,-3627.009116,-2451.505594,11399.171507
5021.749619,-4441.235652,-2374.896044,12509.480420
5021.749933,-4515.256246,-1991.848295,12213.398043
5021.750247,-3627.009116,-1991.848295,11843.295072
5021.750561,-1998.556043,-459.657299,11103.089130
5021.750875,-592.164754,1302.362347,8142.265362
5021.751189,888.247130,2834.553343,6735.874072
5021.751504,2368.659014,4826.401637,5181.441594
5021.751818,3775.050304,4519.963438,4959.379811
5021.752132,4293.194464,3064.381992,6291.750507
5021.752446,3627.009116,1762.019645,8216.285956
5021.752760,2294.638420,76.609550,9918.759623
5021.753074,666.185348,-1685.410096,10881.027347
5021.753389,-1036.288319,-2911.162892,12583.501014
5021.753703,-1850.514855,-3064.381992,13249.686362
5021.754017,-1924.535449,-2604.724693,13249.686362
5021.754331,-1924.535449,-1455.581446,12509.480420
5021.754645,-1702.473667,459.657299,10288.862594
5021.754959,0.000000,1991.848295,8660.409521
5021.755274,1184.329507,3064.381992,6217.729913
5021.755588,3330.926739,3983.696590,4959.379811
5021.755902,4071.132681,3600.648841,5403.503377
5021.756216,3330.926739,2451.505594,6957.935855
5021.756530,2516.700203,1072.533697,8586.388927
5021.756844,1702.473667,-612.876398,10436.903782
5021.757159,-814.226536,-2145.067394,12361.439231
5021.757473,-2220.617826,-2757.943793,13323.706956
5021.757787,-2368.659014,-2911.162892,12509.480420
5021.758101,-2294.638420,-1838.629195,12435.459826
5021.758415,-2442.679609,-459.657299,11917.315666
5021.758730,-1480.411884,1378.971896,9252.574275
5021.759044,-444.123565,2911.162892,6957.935855
5021.759358,740.205942,4290.134789,5625.565159
5021.759672,2442.679609,5209.449386,4737.318029
5021.759986,2368.659014,3907.087040,5847.626942
5021.760300,2072.576638,2681.334243,6957.935855
5021.760615,518.144159,1149.143247,8882.471304
5021.760929,-1332.370696,-1532.190996,10510.924376
5021.761243,-3182.885551,-2757.943793,11695.253884
5021.761557,-3775.050304,-1915.238745,12657.521608
5021.761871,-3775.050304,-2451.505594,12139.377449
5021.762185,-3108.864956,-842.705048,11621.233289
5021.762500,-2146.597232,536.266849,11103.089130
5021.762814,-518.144159,2145.067394,9178.553681
5021.763128,1110.308913,4060.306139,7105.977043
5021.763442,2368.659014,4136.915689,5329.482782
5021.763756,4293.194464,3907.087040,5255.462188
5021.764070,4441.235652,3447.429741,7105.977043
5021.764385,3256.906145,1838.629195,8808.450710
5021.764699,2220.617826,306.438199,9770.718434
5021.765013,518.144159,-1915.238745,10881.027347
5021.765327,-1480.411884,-2374.896044,12361.439231
5021.765641,-2220.617826,-2068.457845,12879.583391
5021.765955,-2368.659014,-1838.629195,12805.562797
5021.766270,-2738.761985,-689.485948,12879.583391
5021.766584,-2220.617826,306.438199,9844.739029
5021.766898,-1110.308913,1915.238745,7402.059420
5021.767212,-518.144159,2757.943793,5995.668130
5021.767526,962.267725,3447.429741,5625.565159
5021.767840,1850.514855,3524.039291,5921.647536
5021.768155,2220.617826,1532.190996,6513.812290
5021.768469,1702.473667,383.047749,8216.285956
5021.768783,666.185348,-306.438199,10436.903782
5021.769097,-518.144159,-919.314598,11695.253884
5021.769411,-1850.514855,-1072.533697,11843.295072
5021.769725,-1480.411884,-1762.019645,12731.542202
5021.770040,-1332.370696,-612.876398,13619.789333
5021.770354,-444.123565,383.047749,11843.295072
5021.770668,518.144159,2374.896044,8882.471304
5021.770982,1258.350101,3983.696590,7476.080014
5021.771296,2664.741391,5132.839837,5921.647536
5021.771610,3108.864956,5898.935335,5181.441594
5021.771925,3330.926739,3983.696590,6883.915261
5021.772239,2516.700203,2528.115143,7772.162391
5021.772553,740.205942,383.047749,8586.388927
5021.772867,-1406.391290,-1838.629195,10140.821405
5021.773181,-2960.823768,-2068.457845,11547.212695
5021.773496,-3775.050304,-2068.457845,12435.459826
5021.773810,-3849.070898,-2221.676944,11695.253884
5021.774124,-3775.050304,-536.266849,10732.986159
5021.774438,-2960.823768,1149.143247,9474.636058
5021.774752,-1480.411884,2145.067394,7254.018232
5021.775066,74.020594,3677.258390,6735.874072
5021.775381,2294.638420,3677.258390,6069.688724
5021.775695,3552.988522,3983.696590,6809.894666
5021.776009,4367.215058,1991.848295,7328.038826
5021.776323,3552.988522,153.219100,8660.409521
5021.776637,1480.411884,-842.705048,10732.986159
5021.776951,1184.329507,-2757.943793,11917.315666
5021.777266,-296.082377,-1991.848295,12657.521608
5021.777580,-1406.391290,-2604.724693,12731.542202
5021.777894,-1924.535449,-2451.505594,12953.603985
5021.778208,-1554.432478,-383.047749,11695.253884
5021.778522,-1480.411884,0.000000,9918.759623
5021.778836,148.041188,1378.971896,8068.244768
5021.779151,814.226536,3140.991542,6217.729913
5021.779465,2368.659014,2911.162892,4663.297435
5021.779779,2664.741391,3217.601092,4737.318029
5021.780093,1702.473667,1838.629195,6809.894666
5021.780407,666.185348,229.828649,8956.491898
5021.780721,-518.144159,-306.438199,11103.089130
5021.781036,-1480.411884,-2374.896044,12435.459826
5021.781350,-2368.659014,-3140.991542,12435.459826
5021.781664,-2886.803174,-2911.162892,12583.501014
5021.781978,-2442.679609,-2604.724693,11991.336260
5021.782292,-1480.411884,229.828649,10214.842000
5021.782606,0.000000,2145.067394,9030.512492
5021.782921,666.185348,3600.648841,7698.141797
5021.783235,2294.638420,4826.401637,5625.565159
5021.783549,4219.173869,5132.839837,5033.400406
5021.783863,3552.988522,3370.820191,5625.565159
5021.784177,2442.679609,2374.896044,7772.162391
5021.784491,1480.411884,0.000000,9622.677246
5021.784806,0.000000,-689.485948,11029.068536
5021.785120,-2220.617826,-1455.581446,12657.521608
5021.785434,-3701.029710,-1302.362347,12805.562797
5021.785748,-3330.926739,-1378.971896,11473.192101
5021.786062,-2738.761985,-459.657299,11621.233289
5021.786376,-1702.473667,1072.533697,9474.636058
5021.786691,-666.185348,2451.505594,7550.100608
5021.787005,518.144159,3524.039291,6587.832884
5021.787319,2072.576638,5592.497135,5921.647536
5021.787633,3182.885551,4979.620737,5625.565159
5021.787947,3552.988522,2681.334243,6957.935855
5021.788262,2368.659014,1302.362347,7772.162391
5021.788576,740.205942,153.219100,9474.636058
5021.788890,-518.144159,-766.095498,11103.089130
5021.789204,-1776.494261,-1685.410096,12139.377449
5021.789518,-2146.597232,-1762.019645,12805.562797
5021.789832,-1702.473667,-1149.143247,13101.645173
5021.790147,-1702.473667,-76.609550,12139.377449
5021.790461,74.020594,612.876398,9770.718434
5021.790775,2072.576638,3447.429741,7105.977043
5021.791089,3701.029710,4213.525239,5995.668130
5021.791403,4663.297435,4903.011187,5551.544565
5021.791717,4515.256246,3753.867940,5773.606348
5021.792032,3330.926739,1762.019645,7772.162391
5021.792346,1702.473667,0.000000,9326.594869
5021.792660,222.061783,-1762.019645,11103.089130
5021.792974,-1776.494261,-3140.991542,12065.356855
5021.793288,-3034.844362,-3524.039291,12435.459826
5021.793602,-2886.803174,-3217.601092,12509.480420
5021.793917,-2664.741391,-2451.505594,12287.418637
5021.794231,-2368.659014,383.047749,11547.212695
5021.794545,-666.185348,1685.410096,8956.491898
5021.794859,1184.329507,3524.039291,6735.874072
5021.795173,2368.659014,3677.258390,5181.441594
5021.795487,3182.885551,3294.210641,5477.523971
5021.795802,2516.700203,1991.848295,6365.771101
5021.796116,1850.514855,0.000000,8290.306550
5021.796430,740.205942,-1225.752797,9918.759623
5021.796744,-1406.391290,-2374.896044,12213.398043
5021.797058,-3256.906145,-3064.381992,13471.748144
5021.797372,-3256.906145,-2757.943793,12435.459826
5021.797687,-3256.906145,-2451.505594,11769.274478
5021.798001,-3108.864956,-689.485948,11695.253884
5021.798315,-2368.659014,842.705048,9104.533087
5021.798629,-296.082377,2451.505594,6365.771101
5021.798943,1110.308913,4443.353888,5477.523971
5021.799257,1850.514855,5669.106685,5329.482782
5021.799572,2368.659014,4903.011187,6439.791695
5021.799886,2294.638420,2145.067394,7179.997637
5021.800200,888.247130,459.657299,8956.491898
5021.800514,-814.226536,-995.924147,11325.150913
5021.800828,-2146.597232,-2451.505594,12287.418637
5021.801142,-2590.720797,-1991.848295,12139.377449
5021.801457,-2886.803174,-1378.971896,11917.315666
5021.801771,-2886.803174,306.438199,12213.398043
5021.802085,-1628.453072,2298.286494,10066.800811
5021.802399,-814.226536,3294.210641,7254.018232
5021.802713,666.185348,4366.744339,5847.626942
5021.803028,2294.638420,5515.887586,5107.421000
5021.803342,3701.029710,5822.325785,5033.400406
5021.803656,3701.029710,3677.258390,6291.750507
5021.803970,2590.720797,1762.019645,8586.388927
5021.804284,1406.391290,919.314598,10288.862594
5021.804598,370.102971,-383.047749,12139.377449
5021.804913,-814.226536,-1149.143247,12583.501014
5021.805227,-1702.473667,-1532.190996,12213.398043
5021.805541,-1924.535449,-1149.143247,12509.480420
5021.805855,-1924.535449,1149.143247,12435.459826
5021.806169,-1850.514855,2451.505594,10436.903782
5021.806483,-518.144159,2604.724693,7328.038826
5021.806798,222.061783,3830.477490,6143.709319
5021.807112,1702.473667,4749.792088,5329.482782
5021.807426,2442.679609,4366.744339,5551.544565
5021.807740,1702.473667,2451.505594,7254.018232
5021.808054,1036.288319,0.000000,8882.471304
5021.808368,0.000000,-1225.752797,10732.986159
5021.808683,-1406.391290,-2374.896044,12657.521608
5021.808997,-2886.803174,-2987.772442,12509.480420
5021.809311,-2442.679609,-2068.457845,12731.542202
5021.809625,-1628.453072,-1225.752797,12583.501014
5021.809939,-592.164754,689.485948,11473.192101
5021.810253,370.102971,2145.067394,10140.821405
5021.810568,1480.411884,2681.334243,7772.162391
5021.810882,2294.638420,4290.134789,5847.626942
5021.811196,3330.926739,4213.525239,4885.359217
5021.811510,2960.823768,2681.334243,5699.585753
5021.811824,2220.617826,766.095498,7698.141797
5021.812138,518.144159,-689.485948,8290.306550
5021.812453,-1110.308913,-2451.505594,10732.986159
5021.812767,-2812.782580,-3447.429741,11843.295072
5021.813081,-3256.906145,-2911.162892,11917.315666
5021.813395,-2886.803174,-2451.505594,12139.377449
5021.813709,-2516.700203,-1838.629195,11399.171507
5021.814023,-1554.432478,76.609550,9992.780217
5021.814338,-148.041188,1608.800546,7328.038826
5021.814652,1702.473667,3600.648841,6069.688724
5021.814966,2886.803174,4903.011187,5699.585753
5021.815280,4737.318029,3524.039291,5551.544565
5021.815594,4367.215058,2068.457845,6439.791695
5021.815908,3256.906145,-76.609550,7624.121203
5021.816223,2368.659014,-689.485948,9474.636058
5021.816537,518.144159,-2068.457845,11621.233289
5021.816851,-962.267725,-2834.553343,13767.830521
5021.817165,-2146.597232,-3447.429741,13545.768739
5021.817479,-2442.679609,-3140.991542,13323.706956
5021.817794,-2960.823768,-1685.410096,11917.315666
5021.818108,-1998.556043,0.000000,9178.553681
5021.818422,-370.102971,1302.362347,6883.915261
5021.818736,592.164754,3140.991542,6291.750507
5021.819050,2220.617826,4213.525239,5477.523971
5021.819364,2664.741391,3600.648841,5255.462188
5021.819679,1776.494261,1072.533697,6291.750507
5021.819993,1628.453072,76.609550,8956.491898
5021.820307,1036.288319,-766.095498,11029.068536
5021.820621,-518.144159,-2911.162892,12731.542202
5021.820935,-1036.288319,-2681.334243,13841.851115
5021.821249,-1850.514855,-2451.505594,12509.480420
5021.821564,-1628.453072,-153.219100,13175.665768
5021.821878,-1110.308913,1838.629195,11695.253884
5021.822192,-518.144159,2604.724693,8882.471304
5021.822506,888.247130,3370.820191,6883.915261
5021.822820,1998.556043,4826.401637,5107.421000
5021.823134,3034.844362,5286.058936,4811.338623
5021.823449,3330.926739,3600.648841,4811.338623
5021.823763,1554.432478,1915.238745,6439.791695
5021.824077,0.000000,306.438199,8586.388927
5021.824391,-1554.432478,-842.705048,10807.006753
5021.824705,-3108.864956,-1685.410096,12805.562797
5021.825019,-3627.009116,-2451.505594,12953.603985
5021.825334,-3627.009116,-1608.800546,11991.336260
5021.825648,-3256.906145,-229.828649,12213.398043
5021.825962,-1998.556043,2068.457845,10066.800811
5021.826276,0.000000,3370.820191,7624.121203
5021.826591,1702.473667,4213.525239,6291.750507
5021.826905,2738.761985,5745.716235,4885.359217
5021.827219,3849.070898,5132.839837,4515.256246
5021.827534,4293.194464,3217.601092,5847.626942
5021.827848,2812.782580,995.924147,8586.388927
5021.828162,1628.453072,-383.047749,11029.068536
5021.828476,-222.061783,-1915.238745,12657.521608
5021.828791,-2886.803174,-2528.115143,14211.954086
5021.829105,-3330.926739,-2757.943793,13989.892304
5021.829419,-2960.823768,-1532.190996,12879.583391
5021.829733,-2590.720797,-229.828649,11843.295072
5021.830048,-1036.288319,2221.676944,9030.512492
5021.830362,-222.061783,4366.744339,6661.853478
5021.830676,1554.432478,4596.572988,5107.421000
5021.830991,2664.741391,6052.154434,3478.967927
5021.831305,2738.761985,4826.401637,4885.359217
5021.831619,2368.659014,2145.067394,7624.121203
5021.831933,1036.288319,229.828649,8586.388927
5021.832248,-740.205942,-1838.629195,10807.006753
5021.832562,-2220.617826,-2834.553343,13471.748144
5021.832876,-3552.988522,-2834.553343,12805.562797
5021.833190,-3552.988522,-2374.896044,12361.439231
5021.833505,-3256.906145,-229.828649,11991.336260
5021.833819,-3108.864956,1685.410096,10732.986159
5021.834133,-1406.391290,2374.896044,9178.553681
5021.834448,962.267725,3370.820191,5773.606348
5021.834762,2442.679609,4903.011187,5329.482782
5021.835076,3182.885551,4596.572988,5033.400406
5021.835390,3775.050304,3753.867940,5699.585753
5021.835705,3404.947333,1149.143247,7624.121203
5021.836019,2294.638420,-689.485948,9104.533087
5021.836333,148.041188,-2221.676944,11325.150913
5021.836648,-1924.535449,-2987.772442,13841.851115
5021.836962,-2146.597232,-2451.505594,13545.768739
5021.837276,-1924.535449,-2145.067394,13767.830521
5021.837590,-2072.576638,-1685.410096,13545.768739
5021.837905,-1554.432478,153.219100,11029.068536
5021.838219,-222.061783,2145.067394,7254.018232
5021.838533,1702.473667,3140.991542,4737.318029
5021.838847,2590.720797,4136.915689,4441.235652
5021.839162,3552.988522,3600.648841,5181.441594
5021.839476,3775.050304,1915.238745,6439.791695
5021.839790,2368.659014,229.828649,8512.368333
5021.840105,1480.411884,-2374.896044,11029.068536
5021.840419,-370.102971,-3753.867940,12435.459826
5021.840733,-1628.453072,-4213.525239,13471.748144
5021.841047,-1480.411884,-3370.820191,13249.686362
5021.841362,-1480.411884,-1915.238745,13027.624579
5021.841676,-1406.391290,-612.876398,11917.315666
5021.841990,0.000000,919.314598,8364.327145
5021.842304,1554.432478,2604.724693,5773.606348
5021.842619,2368.659014,4366.744339,5181.441594
5021.842933,4145.153275,4903.011187,3849.070898
5021.843247,4737.318029,3370.820191,5033.400406
5021.843562,4293.194464,995.924147,6883.915261
5021.843876,2442.679609,-612.876398,9104.533087
5021.844190,148.041188,-1991.848295,12065.356855
5021.844504,-2146.597232,-2757.943793,14137.933492
5021.844819,-2368.659014,-3064.381992,14359.995275
5021.845133,-2442.679609,-3294.210641,13027.624579
5021.845447,-2812.782580,-1455.581446,12509.480420
5021.845762,-2442.679609,1225.752797,10584.944971
5021.846076,-740.205942,3294.210641,7402.059420
5021.846390,370.102971,4596.572988,5551.544565
5021.846704,1332.370696,4673.182538,5403.503377
5021.847019,1998.556043,4979.620737,5477.523971
5021.847333,2368.659014,2911.162892,5699.585753
5021.847647,814.226536,536.266849,7105.977043
5021.847961,-148.041188,-612.876398,9622.677246
5021.848276,-2368.659014,-2681.334243,12435.459826
5021.848590,-3108.864956,-2757.943793,14211.954086
5021.848904,-3997.112087,-2757.943793,13175.665768
5021.849219,-4219.173869,-2451.505594,12731.542202
5021.849533,-2738.761985,842.705048,11991.336260
5021.849847,-1332.370696,3294.210641,9770.718434
5021.850161,444.123565,4060.306139,6661.853478
5021.850476,2146.597232,4903.011187,4737.318029
5021.850790,2812.782580,6358.592633,4515.256246
5021.851104,3997.112087,6052.154434,5107.421000
5021.851418,3923.091493,3753.867940,5921.647536
5021.851733,2590.720797,1149.143247,8142.265362
5021.852047,1036.288319,-306.438199,11103.089130
5021.852361,-666.185348,-1838.629195,12953.603985
5021.852676,-2812.782580,-1991.848295,12953.603985
5021.852990,-3775.050304,-2451.505594,12361.439231
5021.853304,-3701.029710,-766.095498,12953.603985
5021.853618,-3034.844362,919.314598,12287.418637
5021.853933,-1554.432478,2451.505594,9030.512492
5021.854247,-296.082377,3064.381992,6143.709319
5021.854561,1702.473667,4519.963438,5773.606348
5021.854875,2960.823768,5592.497135,4367.215058
5021.855190,3997.112087,3907.087040,4959.379811
5021.855504,2590.720797,1225.752797,6883.915261
5021.855818,1776.494261,0.000000,9474.636058
5021.856133,222.061783,-766.095498,12139.377449
5021.856447,-1480.411884,-2298.286494,13101.645173
5021.856761,-2516.700203,-2987.772442,13397.727550
5021.857075,-3256.906145,-2528.115143,12879.583391
5021.857390,-3034.844362,-1072.533697,12509.480420
5021.857704,-1184.329507,1225.752797,11029.068536
5021.858018,0.000000,2374.896044,8216.285956
5021.858333,962.267725,3524.039291,6661.853478
5021.858647,2812.782580,4979.620737,4737.318029
5021.858961,3404.947333,4903.011187,4219.173869
5021.859275,3182.885551,2298.286494,4737.318029
5021.859590,1850.514855,536.266849,7624.121203
5021.859904,592.164754,-612.876398,10362.883188
5021.860218,-1110.308913,-2757.943793,12139.377449
5021.860532,-2664.741391,-3830.477490,13027.624579
5021.860847,-3849.070898,-4443.353888,13027.624579
5021.861161,-3627.009116,-2451.505594,13027.624579
5021.861475,-2812.782580,-766.095498,12139.377449
5021.861790,-1480.411884,919.314598,9770.718434
5021.862104,666.185348,1838.629195,7920.203579
5021.862418,2146.597232,3600.648841,6291.750507
5021.862732,3034.844362,4673.182538,4959.379811
5021.863047,3478.967927,3830.477490,5033.400406
5021.863361,3997.112087,1608.800546,6439.791695
5021.863675,2960.823768,-153.219100,8438.347739
5021.863989,1184.329507,-1532.190996,11103.089130
5021.864304,-148.041188,-3064.381992,12435.459826
5021.864618,-1850.514855,-2834.553343,12805.562797
5021.864932,-1110.308913,-2604.724693,13323.706956
5021.865247,-1554.432478,-919.314598,13323.706956
5021.865561,-740.205942,383.047749,11843.295072
5021.865875,814.226536,1608.800546,9104.533087
5021.866189,1702.473667,2987.772442,6365.771101
5021.866504,2368.659014,4749.792088,5181.441594
5021.866818,3552.988522,5209.449386,4885.359217
5021.867132,4219.173869,3524.039291,5329.482782
5021.867446,3404.947333,1378.971896,7920.203579
5021.867761,1924.535449,-612.876398,9548.656652
5021.868075,-666.185348,-1915.238745,11547.212695
5021.868389,-2886.803174,-2757.943793,12657.521608
5021.868704,-3775.050304,-2221.676944,12287.418637
5021.869018,-3849.070898,-2221.676944,13619.789333
5021.869332,-3552.988522,-842.705048,13767.830521
5021.869646,-2738.761985,1608.800546,10807.006753
5021.869961,-1480.411884,2451.505594,7105.977043
5021.870275,-814.226536,3753.867940,4737.318029
5021.870589,666.185348,5439.278036,4737.318029
5021.870904,1924.535449,4443.353888,4737.318029
5021.871218,2294.638420,3294.210641,5403.503377
5021.871532,1628.453072,612.876398,7624.121203
5021.871846,666.185348,-995.924147,9844.739029
5021.872161,-370.102971,-1149.143247,11991.336260
5021.872475,-1628.453072,-2068.457845,13175.665768
5021.872789,-1850.514855,-995.924147,13545.768739
5021.873103,-1850.514855,-689.485948,13693.809927
5021.873418,-1110.308913,536.266849,12509.480420
5021.873732,-666.185348,2834.553343,8808.450710
5021.874046,1628.453072,3830.477490,6513.812290
5021.874361,1998.556043,5056.230287,5921.647536
5021.874675,2664.741391,5669.106685,5625.565159
5021.874989,3330.926739,3524.039291,5181.441594
5021.875303,2442.679609,1302.362347,6809.894666
5021.875618,74.020594,0.000000,8882.471304
5021.875932,-1184.329507,-1685.410096,10362.883188
5021.876246,-2516.700203,-3217.601092,10955.047942
5021.876560,-3997.112087,-4060.306139,11917.315666
5021.876875,-3478.967927,-2528.115143,12879.583391
5021.877189,-3552.988522,-1072.533697,12287.418637
5021.877503,-2738.761985,0.000000,10436.903782
5021.877818,-1628.453072,1762.019645,7920.203579
5021.878132,444.123565,3524.039291,6661.853478
5021.878446,2072.576638,4213.525239,5255.462188
5021.878760,3552.988522,4673.182538,4811.338623
5021.879075,5107.421000,2604.724693,5773.606348
5021.879389,4515.256246,1302.362347,8438.347739
5021.879703,3627.009116,383.047749,10436.903782
5021.880018,1998.556043,-1838.629195,11843.295072
5021.880332,592.164754,-2451.505594,13545.768739
5021.880646,-740.205942,-2145.067394,14434.015869
5021.880960,-962.267725,-1991.848295,13249.686362
5021.881275,-1258.350101,-766.095498,12953.603985
5021.881589,-1110.308913,306.438199,11103.089130
5021.881903,-222.061783,1915.238745,8364.327145
5021.882217,0.000000,3370.820191,6587.832884
5021.882532,1258.350101,4213.525239,5033.400406
5021.882846,2220.617826,4290.134789,4367.215058
5021.883160,1776.494261,2528.115143,5403.503377
5021.883475,888.247130,1149.143247,7402.059420
5021.883789,-888.247130,-842.705048,9474.636058
5021.884103,-2220.617826,-2451.505594,11917.315666
5021.884417,-3552.988522,-2681.334243,12953.603985
5021.884732,-3997.112087,-2604.724693,12805.562797
5021.885046,-3256.906145,-2451.505594,12139.377449
5021.885360,-2072.576638,0.000000,10584.944971
5021.885674,-518.144159,2068.457845,8216.285956
5021.885989,444.123565,3447.429741,7105.977043
5021.886303,1776.494261,4749.792088,6587.832884
5021.886617,3182.885551,4290.134789,5773.606348
5021.886932,4145.153275,2834.553343,5847.626942
5021.887246,3034.844362,1149.143247,7772.162391
5021.887560,1702.473667,229.828649,9474.636058
5021.887874,962.267725,-1302.362347,10510.924376
5021.888189,-444.123565,-2451.505594,11843.295072
5021.888503,-1850.514855,-2451.505594,12879.583391
5021.888817,-2220.617826,-1915.238745,12583.501014
5021.889131,-2146.597232,-229.828649,12361.439231
5021.889446,-1258.350101,1378.971896,10658.965565
5021.889760,370.102971,2451.505594,8956.491898
5021.890074,1258.350101,4060.306139,7476.080014
5021.890389,3108.864956,4290.134789,4811.338623
5021.890703,3997.112087,4749.792088,3997.112087
5021.891017,3256.906145,2757.943793,5773.606348
5021.891331,2220.617826,1149.143247,8068.244768
5021.891646,1702.473667,153.219100,9770.718434
5021.891960,370.102971,-1685.410096,12213.398043
5021.892274,-1924.535449,-2298.286494,13693.809927
5021.892589,-3182.885551,-2451.505594,12583.501014
5021.892903,-3034.844362,-2834.553343,11843.295072
5021.893217,-2368.659014,-766.095498,12361.439231
5021.893531,-1628.453072,1302.362347,10955.047942
5021.893846,0.000000,2145.067394,7550.100608
5021.894160,666.185348,3753.867940,6365.771101
5021.894474,2146.597232,4979.620737,5107.421000
5021.894788,2294.638420,4979.620737,4663.297435
5021.895103,3108.864956,2451.505594,6291.750507
5021.895417,2590.720797,1455.581446,8364.327145
5021.895731,1184.329507,-383.047749,10955.047942
5021.896046,-814.226536,-1915.238745,12879.583391
5021.896360,-2146.597232,-2298.286494,13175.665768
5021.896674,-1554.432478,-2374.896044,11991.336260
5021.896988,-1850.514855,-1378.971896,12583.501014
5021.897303,-2590.720797,459.657299,12065.356855
5021.897617,-1036.288319,2298.286494,8956.491898
5021.897931,0.000000,3064.381992,6735.874072
5021.898245,814.226536,4136.915689,5847.626942
5021.898560,1406.391290,4366.744339,5181.441594
5021.898874,1776.494261,3294.210641,5699.585753
5021.899188,1036.288319,1685.410096,7624.121203
5021.899503,-370.102971,-459.657299,8808.450710
5021.899817,-2072.576638,-1685.410096,10658.965565
5021.900131,-2960.823768,-2451.505594,11769.274478
5021.900445,-3849.070898,-1915.238745,11695.253884
5021.900760,-2886.803174,-1532.190996,11399.171507
5021.901074,-2590.720797,-919.314598,12509.480420
5021.901388,-1480.411884,766.095498,11103.089130
5021.901703,1406.391290,2068.457845,7846.182985
5021.902017,2738.761985,3830.477490,6587.832884
5021.902331,3552.988522,4366.744339,6957.935855
5021.902645,4219.173869,4366.744339,6513.812290
5021.902960,4515.256246,2528.115143,7254.018232
5021.903274,3849.070898,995.924147,8364.327145
5021.903588,2368.659014,153.219100,10214.842000
5021.903902,518.144159,-1302.362347,11917.315666
5021.904217,-1036.288319,-1225.752797,12213.398043
5021.904531,-1776.494261,-1455.581446,12731.542202
5021.904845,-2368.659014,-1532.190996,13249.686362
5021.905160,-2368.659014,-766.095498,12287.418637
5021.905474,-1480.411884,766.095498,8364.327145
5021.905788,-148.041188,2451.505594,6587.832884
5021.906102,-74.020594,3677.258390,6217.729913
5021.906417,888.247130,4519.963438,5699.585753
5021.906731,2072.576638,3447.429741,5625.565159
5021.907045,2220.617826,766.095498,7402.059420
5021.907359,1850.514855,153.219100,9844.739029
5021.907674,0.000000,-1149.143247,10658.965565
5021.907988,-1184.329507,-1532.190996,12139.377449
5021.908302,-1628.453072,-1455.581446,12139.377449
5021.908617,-1850.514855,-612.876398,12435.459826
5021.908931,-2368.659014,306.438199,12953.603985
5021.909245,-1406.391290,1762.019645,10584.944971
5021.909559,-444.123565,2987.772442,7179.997637
5021.909874,444.123565,3140.991542,6439.791695
5021.910188,1036.288319,4596.572988,6143.709319
5021.910502,1998.556043,4596.572988,5181.441594
5021.910816,2220.617826,3064.381992,6217.729913
5021.911131,1036.288319,1149.143247,7698.141797
5021.911445,0.000000,-306.438199,9770.718434
5021.911759,-666.185348,-1762.019645,11547.212695
5021.912074,-1332.370696,-2451.505594,11843.295072
5021.912388,-2368.659014,-1838.629195,12805.562797
5021.912702,-1850.514855,-2145.067394,11399.171507
5021.913016,-2812.782580,153.219100,11695.253884
5021.913331,-2294.638420,1225.752797,10807.006753
5021.913645,1332.370696,1991.848295,8068.244768
5021.913959,1776.494261,3524.039291,6291.750507
5021.914274,2442.679609,2987.772442,5329.482782
5021.914588,3552.988522,3064.381992,5403.503377
5021.914902,2960.823768,1608.800546,7031.956449
5021.915216,2442.679609,0.000000,9622.677246
5021.915531,1924.535449,-766.095498,10881.027347
5021.915845,-444.123565,-2221.676944,12361.439231
5021.916159,-1554.432478,-2757.943793,12657.521608
5021.916473,-1036.288319,-1072.533697,12361.439231
5021.916788,-1258.350101,-1608.800546,12657.521608
5021.917102,-888.247130,-689.485948,11547.212695
5021.917416,-296.082377,1762.019645,8290.306550
5021.917731,592.164754,2221.676944,6883.915261
5021.918045,1628.453072,4213.525239,5477.523971
5021.918359,2516.700203,3983.696590,5625.565159
5021.918673,2812.782580,2068.457845,6291.750507
5021.918988,2368.659014,1532.190996,7476.080014
5021.919302,1110.308913,-306.438199,9918.759623
5021.919616,0.000000,-1685.410096,11695.253884
5021.919930,-1628.453072,-1991.848295,13027.624579
5021.920245,-2294.638420,-2451.505594,13101.645173
5021.920559,-2368.659014,-1608.800546,11843.295072
5021.920873,-1702.473667,-995.924147,11177.109724
5021.921188,-592.164754,1302.362347,10214.842000
5021.921502,222.061783,3217.601092,7179.997637
5021.921816,962.267725,3370.820191,6513.812290
5021.922130,888.247130,4749.792088,6735.874072
5021.922445,1628.453072,3524.039291,5995.668130
5021.922759,1702.473667,1455.581446,7402.059420
5021.923073,814.226536,-459.657299,6957.935855
5021.923388,-1036.288319,-2221.676944,9548.656652
5021.923702,-2294.638420,-2221.676944,11621.233289
5021.924016,-3330.926739,-2145.067394,11843.295072
5021.924330,-3182.885551,-2068.457845,12065.356855
5021.924645,-2146.597232,-1302.362347,11843.295072
5021.924959,-1258.350101,1378.971896,11769.274478
5021.925273,222.061783,2911.162892,9622.677246
5021.925587,1924.535449,3524.039291,5995.668130
5021.925902,2886.803174,3983.696590,6069.688724
5021.926216,4145.153275,4596.572988,6587.832884
5021.926530,4441.235652,4443.353888,6439.791695
5021.926844,3404.947333,1991.848295,7254.018232
5021.927159,1776.494261,153.219100,9178.553681
5021.927473,666.185348,-766.095498,11547.212695
5021.927787,-962.267725,-2374.896044,12953.603985
5021.928101,-2220.617826,-2681.334243,12657.521608
5021.928416,-2664.741391,-2068.457845,12139.377449
5021.928730,-3627.009116,-1149.143247,11843.295072
5021.929044,-2442.679609,1302.362347,11399.171507
5021.929358,-1036.288319,2451.505594,8734.430116
5021.929672,666.185348,3217.601092,5921.647536
5021.929987,1702.473667,3907.087040,5033.400406
5021.930301,2442.679609,4136.915689,5181.441594
5021.930615,2738.761985,3140.991542,5699.585753
5021.930929,2294.638420,2145.067394,8512.368333
5021.931244,814.226536,459.657299,11325.150913
5021.931558,-370.102971,-995.924147,12287.418637
5021.931872,-1480.411884,-2298.286494,11991.336260
5021.932186,-2072.576638,-2221.676944,11843.295072
5021.932501,-2294.638420,-1685.410096,11695.253884
5021.932815,-1776.494261,995.924147,11843.295072
5021.933129,-518.144159,2451.505594,10214.842000
5021.933443,518.144159,3830.477490,7920.203579
5021.933757,814.226536,3140.991542,6365.771101
5021.934072,888.247130,3907.087040,5477.523971
5021.934386,2146.597232,3830.477490,4885.359217
5021.934700,2516.700203,2145.067394,6069.688724
5021.935014,1258.350101,689.485948,8956.491898
5021.935329,370.102971,-1378.971896,11177.109724
5021.935643,-1406.391290,-1608.800546,12361.439231
5021.935957,-2960.823768,-2068.457845,12287.418637
5021.936271,-2960.823768,-2068.457845,11843.295072
5021.936585,-2294.638420,-1455.581446,11695.253884
5021.936900,-1184.329507,-153.219100,11473.192101
5021.937214,0.000000,2145.067394,8068.244768
5021.937528,962.267725,3907.087040,6957.935855
5021.937842,2220.617826,4213.525239,5403.503377
5021.938157,2960.823768,3830.477490,5699.585753
5021.938471,3330.926739,2757.943793,5995.668130
5021.938785,2812.782580,383.047749,7698.141797
5021.939099,1850.514855,-1149.143247,9548.656652
5021.939414,296.082377,-2145.067394,11769.274478
5021.939728,-518.144159,-2757.943793,12879.583391
5021.940042,-1480.411884,-2374.896044,12583.501014
5021.940356,-1776.494261,-1915.238745,13027.624579
5021.940670,-1850.514855,-919.314598,11991.336260
5021.940985,-1036.288319,76.609550,10066.800811
5021.941299,444.123565,1608.800546,7698.141797
5021.941613,1924.535449,3447.429741,6217.729913
5021.941927,1998.556043,4519.963438,6217.729913
5021.942242,2664.741391,3370.820191,5625.565159
5021.942556,2812.782580,2221.676944,6217.729913
5021.942870,1702.473667,919.314598,8882.471304
5021.943184,1036.288319,-842.705048,10658.965565
5021.943499,-740.205942,-2451.505594,11621.233289
5021.943813,-2294.638420,-2757.943793,12509.480420
5021.944127,-2442.679609,-1378.971896,12805.562797
5021.944441,-2590.720797,-612.876398,12361.439231
5021.944755,-2146.597232,-229.828649,11473.192101
5021.945070,-1184.329507,1838.629195,9104.533087
5021.945384,-148.041188,2604.724693,6735.874072
5021.945698,1110.308913,4213.525239,5995.668130
5021.946012,1554.432478,4596.572988,4811.338623
5021.946327,1998.556043,3600.648841,5403.503377
5021.946641,1480.411884,2374.896044,7031.956449
5021.946955,296.082377,536.266849,8290.306550
5021.947269,-1036.288319,-1378.971896,10288.862594
5021.947583,-1702.473667,-2145.067394,11843.295072
5021.947898,-2146.597232,-1685.410096,12361.439231
5021.948212,-1850.514855,-842.705048,12435.459826
5021.948526,-1480.411884,-459.657299,12583.501014
5021.948840,-814.226536,536.266849,11917.315666
5021.949155,888.247130,2221.676944,9104.533087
5021.949469,1702.473667,3370.820191,6957.935855
5021.949783,2368.659014,4060.306139,6587.832884
5021.950097,2664.741391,4749.792088,5033.400406
5021.950412,3034.844362,3524.039291,5551.544565
5021.950726,2146.597232,1532.190996,7994.224174
5021.951040,814.226536,229.828649,9992.780217
5021.951354,-740.205942,-1149.143247,11843.295072
5021.951668,-2220.617826,-2145.067394,11917.315666
5021.951983,-3034.844362,-1838.629195,12213.398043
5021.952297,-3478.967927,-1915.238745,12139.377449
5021.952611,-2738.761985,-1532.190996,11399.171507
5021.952925,-1702.473667,1225.752797,10066.800811
5021.953240,-740.205942,2451.505594,7698.141797
5021.953554,370.102971,3677.258390,5773.606348
5021.953868,1776.494261,5209.449386,4737.318029
5021.954182,2960.823768,4673.182538,4959.379811
5021.954497,3552.988522,2911.162892,6291.750507
5021.954811,2368.659014,1072.533697,8438.347739
5021.955125,888.247130,-383.047749,11029.068536
5021.955439,0.000000,-995.924147,12583.501014
5021.955753,-1036.288319,-2221.676944,13619.789333
5021.956068,-1924.535449,-2145.067394,12657.521608
5021.956382,-1850.514855,-689.485948,12583.501014
5021.956696,-1924.535449,0.000000,11399.171507
5021.957010,-1776.494261,1991.848295,9548.656652
5021.957325,74.020594,2451.505594,7105.977043
5021.957639,592.164754,3830.477490,6143.709319
5021.957953,1110.308913,4749.792088,4737.318029
5021.958267,1702.473667,3217.601092,4441.235652
5021.958582,1332.370696,1532.190996,6439.791695
5021.958896,-296.082377,306.438199,9178.553681
5021.959210,-1184.329507,-1762.019645,11325.150913
5021.959524,-2368.659014,-3217.601092,11325.150913
5021.959838,-3627.009116,-2834.553343,13397.727550
5021.960153,-3849.070898,-2681.334243,13915.871710
5021.960467,-2886.803174,-1072.533697,12953.603985
5021.960781,-1998.556043,-842.705048,10732.986159
5021.961095,814.226536,229.828649,8734.430116
5021.961410,1628.453072,3600.648841,6587.832884
5021.961724,2960.823768,4443.353888,5329.482782
5021.962038,4663.297435,5439.278036,3552.988522
5021.962352,4737.318029,3983.696590,5477.523971
5021.962666,3849.070898,919.314598,8882.471304
5021.962981,2368.659014,-383.047749,9622.677246
5021.963295,1036.288319,-2145.067394,10955.047942
5021.963609,-740.205942,-2987.772442,12509.480420
5021.963923,-1480.411884,-1838.629195,13175.665768
5021.964238,-1184.329507,-2145.067394,13027.624579
5021.964552,-888.247130,-766.095498,12139.377449
5021.964866,-1036.288319,689.485948,10362.883188
5021.965180,148.041188,1991.848295,7698.141797
5021.965495,1998.556043,2834.553343,5699.585753
5021.965809,2812.782580,4213.525239,5181.441594
5021.966123,3182.885551,4290.134789,5847.626942
5021.966437,3034.844362,1915.238745,6957.935855
5021.966751,1628.453072,306.438199,8734.430116
5021.967066,0.000000,-1378.971896,10436.903782
5021.967380,-1480.411884,-2451.505594,11917.315666
5021.967694,-2664.741391,-3140.991542,12731.542202
5021.968008,-2368.659014,-2681.334243,12213.398043
5021.968323,-2072.576638,-919.314598,13101.645173
5021.968637,-2294.638420,1149.143247,13101.645173
5021.968951,-518.144159,2298.286494,8512.368333
5021.969265,1036.288319,3140.991542,6291.750507
5021.969580,1776.494261,3907.087040,5477.523971
5021.969894,2664.741391,5515.887586,5107.421000
5021.970208,3701.029710,4060.306139,5477.523971
5021.970522,3108.864956,2374.896044,7698.141797
5021.970836,1702.473667,919.314598,10140.821405
5021.971151,444.123565,-612.876398,10955.047942
5021.971465,-1332.370696,-2221.676944,11695.253884
5021.971779,-2960.823768,-1532.190996,13249.686362
5021.972093,-3182.885551,-459.657299,13545.768739
5021.972408,-2664.741391,-229.828649,12731.542202
5021.972722,-2220.617826,0.000000,10362.883188
5021.973036,-1702.473667,1762.019645,7698.141797
5021.973350,-666.185348,2681.334243,5847.626942
5021.973664,814.226536,4519.963438,4811.338623
5021.973979,1258.350101,4826.401637,4589.276840
5021.974293,1702.473667,2834.553343,6291.750507
5021.974607,962.267725,1149.143247,8068.244768
5021.974921,222.061783,-919.314598,9474.636058
5021.975236,-814.226536,-2298.286494,10658.965565
5021.975550,-1628.453072,-1838.629195,12731.542202
5021.975864,-1110.308913,-1685.410096,13841.851115
5021.976178,-592.164754,-1072.533697,13027.624579
5021.976493,74.020594,-383.047749,11843.295072
5021.976807,1036.288319,1225.752797,9844.739029
5021.977121,2294.638420,3370.820191,8512.368333
5021.977435,3108.864956,3983.696590,7105.977043
5021.977749,3627.009116,3830.477490,5477.523971
5021.978064,4219.173869,3217.601092,5699.585753
5021.978378,2812.782580,2068.457845,6957.935855
5021.978692,1406.391290,919.314598,8290.306550
5021.979006,148.041188,-1072.533697,9696.697840
5021.979321,-1184.329507,-2145.067394,12139.377449
5021.979635,-2368.659014,-2298.286494,13545.768739
5021.979949,-2664.741391,-2604.724693,12657.521608
5021.980263,-2220.617826,-1991.848295,11621.233289
5021.980578,-1554.432478,-536.266849,10955.047942
5021.980892,-888.247130,1762.019645,9770.718434
5021.981206,74.020594,3064.381992,8290.306550
5021.981520,1406.391290,3217.601092,6143.709319
5021.981834,2812.782580,3677.258390,4959.379811
5021.982149,3552.988522,3217.601092,5773.606348
5021.982463,2146.597232,2374.896044,7772.162391
5021.982777,1184.329507,536.266849,9400.615463
5021.983091,-444.123565,-1991.848295,10732.986159
5021.983406,-1924.535449,-1991.848295,13249.686362
5021.983720,-3108.864956,-1838.629195,13323.706956
5021.984034,-3182.885551,-1608.800546,12213.398043
5021.984348,-2960.823768,-306.438199,10955.047942
5021.984663,-2146.597232,1225.752797,9696.697840
5021.984977,-666.185348,2374.896044,7994.224174
5021.985291,0.000000,3370.820191,5847.626942
5021.985605,1258.350101,4749.792088,5181.441594
5021.985919,1998.556043,4903.011187,4441.235652
5021.986234,2368.659014,2604.724693,5773.606348
5021.986548,1924.535449,612.876398,7920.203579
5021.986862,1184.329507,-995.924147,9992.780217
5021.987176,0.000000,-2068.457845,12065.356855
5021.987491,-2146.597232,-2374.896044,13693.809927
5021.987805,-2146.597232,-3524.039291,13101.645173
5021.988119,-1702.473667,-1915.238745,13471.748144
5021.988433,-1332.370696,-536.266849,12805.562797
5021.988747,-592.164754,1378.971896,10436.903782
5021.989062,666.185348,1838.629195,7402.059420
5021.989376,1702.473667,3294.210641,5921.647536
5021.989690,2368.659014,4903.011187,4737.318029
5021.990004,2812.782580,2987.772442,4663.297435
5021.990319,2442.679609,2298.286494,6069.688724
5021.990633,1406.391290,536.266849,8438.347739
5021.990947,370.102971,-689.485948,11177.109724
5021.991261,-1110.308913,-2068.457845,12361.439231
5021.991576,-1776.494261,-3140.991542,12583.501014
5021.991890,-1406.391290,-2374.896044,12731.542202
5021.992204,-740.205942,-1225.752797,13249.686362
5021.992518,-962.267725,919.314598,12435.459826
5021.992832,0.000000,2451.505594,9696.697840
5021.993147,1406.391290,3447.429741,6587.832884
5021.993461,2664.741391,3600.648841,4959.379811
5021.993775,3478.967927,4443.353888,4663.297435
5021.994089,3108.864956,4519.963438,5699.585753
5021.994404,2146.597232,2911.162892,7328.038826
5021.994718,370.102971,0.000000,9178.553681
5021.995032,-1036.288319,-2451.505594,10881.027347
5021.995346,-2812.782580,-2298.286494,12805.562797
5021.995661,-3849.070898,-2451.505594,12287.418637
5021.995975,-4145.153275,-2068.457845,12287.418637
5021.996289,-3775.050304,-1302.362347,12805.562797
5021.996603,-2442.679609,1225.752797,12139.377449
5021.996917,-814.226536,1915.238745,8290.306550
5021.997232,148.041188,2374.896044,5033.400406
5021.997546,814.226536,4366.744339,4515.256246
5021.997860,2368.659014,4443.353888,4145.153275
5021.998174,2886.803174,3064.381992,5625.565159
5021.998489,2368.659014,842.705048,7698.141797
5021.998803,962.267725,-612.876398,10140.821405
5021.999117,0.000000,-689.485948,12287.418637
5021.999431,-1406.391290,-995.924147,13249.686362
5021.999745,-1554.432478,-2068.457845,13471.748144
5022.000060,-1184.329507,-1225.752797,13101.645173
5022.000374,-1036.288319,-459.657299,12065.356855
5022.000688,-148.041188,1378.971896,9030.512492
5022.001002,518.144159,3370.820191,6957.935855
5022.001317,1036.288319,3983.696590,6513.812290
5022.001631,2738.761985,4673.182538,5255.462188
5022.001945,3701.029710,3370.820191,4293.194464
5022.002259,2886.803174,1685.410096,5921.647536
5022.002574,1406.391290,306.438199,8290.306550
5022.002888,148.041188,-612.876398,10436.903782
5022.003202,-1406.391290,-2451.505594,13175.665768
5022.003516,-2738.761985,-2987.772442,14211.954086
5022.003830,-3627.009116,-2528.115143,14137.933492
5022.004145,-3552.988522,-2068.457845,13101.645173
5022.004459,-2294.638420,766.095498,11547.212695
5022.004773,-296.082377,2451.505594,8808.450710
5022.005087,1184.329507,2604.724693,6291.750507
5022.005402,2220.617826,4903.011187,5107.421000
5022.005716,2960.823768,5209.449386,3923.091493
5022.006030,3552.988522,4903.011187,5107.421000
5022.006344,2812.782580,2451.505594,7402.059420
5022.006659,1480.411884,153.219100,9474.636058
5022.006973,148.041188,-1838.629195,11547.212695
5022.007287,-1480.411884,-2834.553343,13101.645173
5022.007601,-2516.700203,-2451.505594,13249.686362
5022.007915,-2664.741391,-1532.190996,13767.830521
5022.008230,-2738.761985,-229.828649,13397.727550
5022.008544,-2220.617826,1455.581446,10288.862594
5022.008858,0.000000,1378.971896,6883.915261
5022.009172,1184.329507,3294.210641,4885.359217
5022.009487,2072.576638,4519.963438,4219.173869
5022.009801,2664.741391,5056.230287,3404.947333
5022.010115,2442.679609,3600.648841,5847.626942
5022.010429,1480.411884,919.314598,8068.244768
5022.010744,444.123565,-919.314598,10436.903782
5022.011058,-1480.411884,-2145.067394,11843.295072
5022.011372,-3701.029710,-3140.991542,13175.665768
5022.011686,-3849.070898,-2987.772442,12879.583391
5022.012000,-2960.823768,-2451.505594,13249.686362
5022.012315,-2146.597232,-459.657299,12953.603985
5022.012629,-518.144159,919.314598,9548.656652
5022.012943,1110.308913,2681.334243,6587.832884
5022.013257,2072.576638,5362.668486,5403.503377
5022.013572,3478.967927,5592.497135,4515.256246
5022.013886,4145.153275,3983.696590,4885.359217
5022.014200,3552.988522,919.314598,6217.729913
5022.014514,2664.741391,-306.438199,8734.430116
5022.014828,740.205942,-1685.410096,12139.377449
5022.015143,-1702.473667,-2987.772442,14211.954086
5022.015457,-2294.638420,-4213.525239,14063.912898
5022.015771,-2146.597232,-3370.820191,14285.974681
5022.016085,-2960.823768,-2528.115143,14211.954086
5022.016400,-1480.411884,-383.047749,11769.274478
5022.016714,-148.041188,2221.676944,8068.244768
5022.017028,962.267725,3064.381992,6069.688724
5022.017342,2738.761985,4673.182538,4737.318029
5022.017657,3923.091493,5362.668486,3627.009116
5022.017971,3256.906145,3600.648841,4515.256246
5022.018285,2960.823768,2451.505594,6883.915261
5022.018599,740.205942,0.000000,9252.574275
5022.018913,-814.226536,-2145.067394,12731.542202
5022.019228,-2886.803174,-2757.943793,13841.851115
5022.019542,-3034.844362,-3064.381992,13841.851115
5022.019856,-3404.947333,-3064.381992,13619.789333
5022.020170,-3330.926739,-766.095498,12731.542202
5022.020485,-2072.576638,2145.067394,10214.842000
5022.020799,74.020594,2451.505594,5773.606348
5022.021113,1258.350101,5056.230287,4737.318029
5022.021427,1998.556043,5515.887586,4293.194464
5022.021742,3552.988522,5286.058936,3256.906145
5022.022056,3330.926739,3600.648841,5255.462188
5022.022370,2220.617826,229.828649,8216.285956
5022.022684,814.226536,0.000000,11621.233289
5022.022998,-888.247130,-1685.410096,13841.851115
5022.023313,-2368.659014,-2911.162892,13471.748144
5022.023627,-2590.720797,-1838.629195,13545.768739
5022.023941,-2738.761985,-1838.629195,14211.954086
5022.024255,-1850.514855,842.705048,12139.377449
5022.024570,0.000000,2604.724693,8882.471304
5022.024884,1258.350101,3447.429741,6957.935855
5022.025198,2072.576638,4979.620737,4885.359217
5022.025512,3256.906145,5975.544884,3330.926739
5022.025826,3256.906145,4826.401637,3330.926739
5022.026141,2442.679609,1915.238745,5847.626942
5022.026455,888.247130,-229.828649,9178.553681
5022.026769,-1110.308913,-2145.067394,12139.377449
5022.027083,-2812.782580,-2834.553343,14211.954086
5022.027398,-3478.967927,-3447.429741,13471.748144
5022.027712,-3627.009116,-3140.991542,13027.624579
5022.028026,-2738.761985,-1149.143247,12879.583391
5022.028340,-888.247130,1762.019645,10436.903782
5022.028655,666.185348,3064.381992,7624.121203
5022.028969,2294.638420,3677.258390,5403.503377
5022.029283,3849.070898,5669.106685,3552.988522
5022.029597,4663.297435,5592.497135,3404.947333
5022.029911,4441.235652,3524.039291,5477.523971
5022.030226,3108.864956,1225.752797,8438.347739
5022.030540,1110.308913,-1608.800546,11399.171507
5022.030854,-888.247130,-2911.162892,13397.727550
5022.031168,-3108.864956,-3983.696590,14063.912898
5022.031483,-4071.132681,-4443.353888,13915.871710
5022.031797,-3923.091493,-2451.505594,14063.912898
5022.032111,-3701.029710,612.876398,13323.706956
5022.032425,-1924.535449,2068.457845,10214.842000
5022.032740,74.020594,1991.848295,5847.626942
5022.033054,0.000000,3294.210641,4589.276840
5022.033368,1850.514855,5898.935335,3404.947333
5022.033682,3108.864956,4749.792088,2960.823768
5022.033997,2368.659014,1915.238745,6291.750507
5022.034311,1480.411884,0.000000,9178.553681
5022.034625,0.000000,-995.924147,11473.192101
5022.034939,-1924.535449,-2374.896044,13693.809927
5022.035254,-2886.803174,-3600.648841,12657.521608
5022.035568,-2516.700203,-2987.772442,13471.748144
5022.035882,-2294.638420,-1378.971896,13767.830521
5022.036196,-962.267725,1149.143247,11547.212695
5022.036511,222.061783,1991.848295,7920.203579
5022.036825,1406.391290,2681.334243,5477.523971
5022.037139,2590.720797,6128.763984,3627.009116
5022.037453,4071.132681,5056.230287,3404.947333
5022.037767,3997.112087,3677.258390,4071.132681
5022.038082,2590.720797,1302.362347,7105.977043
5022.038396,1110.308913,-842.705048,10881.027347
5022.038710,-1406.391290,-2221.676944,12805.562797
5022.039024,-3108.864956,-4136.915689,14063.912898
5022.039339,-3997.112087,-4290.134789,14137.933492
5022.039653,-2590.720797,-2145.067394,13915.871710
5022.039967,-2072.576638,-536.266849,12509.480420
5022.040281,-814.226536,1915.238745,9770.718434
5022.040596,962.267725,2451.505594,6217.729913
5022.040910,1924.535449,4749.792088,5033.400406
5022.041224,3330.926739,6665.030833,4737.318029
5022.041538,4811.338623,5592.497135,4515.256246
5022.041853,4367.215058,3140.991542,6513.812290
5022.042167,3182.885551,76.609550,8438.347739
5022.042481,1406.391290,-1225.752797,10288.862594
5022.042795,-666.185348,-2068.457845,12657.521608
5022.043110,-2812.782580,-3064.381992,14137.933492
5022.043424,-3330.926739,-1455.581446,15026.180623
5022.043738,-3034.844362,-1225.752797,14063.912898
5022.044052,-2146.597232,459.657299,12213.398043
5022.044367,-1628.453072,1302.362347,7920.203579
5022.044681,222.061783,2757.943793,4441.235652
5022.044995,1480.411884,5132.839837,3627.009116
5022.045309,2368.659014,6511.811733,3627.009116
5022.045624,3034.844362,4903.011187,5403.503377
5022.045938,2590.720797,2145.067394,6587.832884
5022.046252,888.247130,-383.047749,8586.388927
5022.046566,-222.061783,-2068.457845,10807.006753
5022.046880,-1776.494261,-2681.334243,12805.562797
5022.047195,-2294.638420,-3907.087040,13915.871710
5022.047509,-2294.638420,-2911.162892,14285.974681
5022.047823,-1924.535449,-536.266849,14211.954086
5022.048137,-1480.411884,1455.581446,12287.418637
5022.048452,370.102971,2451.505594,7105.977043
5022.048766,1924.535449,3600.648841,4737.318029
5022.049080,2516.700203,5132.839837,5033.400406
5022.049394,3775.050304,5515.887586,4367.215058
5022.049709,3849.070898,4060.306139,5329.482782
5022.050023,2664.741391,76.609550,7476.080014
5022.050337,222.061783,-1302.362347,9548.656652
5022.050651,-1554.432478,-3447.429741,11621.233289
5022.050966,-3182.885551,-4443.353888,12213.398043
5022.051280,-3923.091493,-2757.943793,14211.954086
5022.051594,-3627.009116,-2757.943793,15174.221811
5022.051908,-3034.844362,-1149.143247,13693.809927
5022.052223,-2294.638420,459.657299,10955.047942
5022.052537,-740.205942,1302.362347,7328.038826
5022.052851,740.205942,3064.381992,5033.400406
5022.053165,2738.761985,4903.011187,3923.091493
5022.053480,4293.194464,5362.668486,3701.029710
5022.053794,3997.112087,3907.087040,5107.421000
5022.054108,3552.988522,919.314598,7550.100608
5022.054422,1776.494261,-306.438199,10288.862594
5022.054737,148.041188,-2374.896044,13323.706956
5022.055051,-1776.494261,-2451.505594,14434.015869
5022.055365,-2516.700203,-2911.162892,14211.954086
5022.055679,-2442.679609,-2221.676944,13989.892304
5022.055993,-2368.659014,536.266849,12361.439231
5022.056308,-1554.432478,2145.067394,8808.450710
5022.056622,74.020594,4443.353888,6143.709319
5022.056936,1332.370696,5822.325785,4441.235652
5022.057250,2368.659014,6205.373534,3775.050304
5022.057565,2368.659014,3983.696590,2960.823768
5022.057879,1776.494261,1608.800546,4737.318029
5022.058193,74.020594,76.609550,8216.285956
5022.058507,-1110.308913,-536.266849,12731.542202
5022.058822,-2738.761985,-2987.772442,14211.954086
5022.059136,-3182.885551,-4673.182538,14285.974681
5022.059450,-2812.782580,-3600.648841,14063.912898
5022.059764,-2368.659014,-1532.190996,13989.892304
5022.060079,-1332.370696,1915.238745,12139.377449
5022.060393,1036.288319,2987.772442,8216.285956
5022.060707,2886.803174,3830.477490,6217.729913
5022.061021,3701.029710,4596.572988,5255.462188
5022.061336,5107.421000,5132.839837,4885.359217
5022.061650,4589.276840,3600.648841,4589.276840
5022.061964,3182.885551,1532.190996,7031.956449
5022.062278,1332.370696,-766.095498,10732.986159
5022.062593,-888.247130,-2298.286494,13027.624579
5022.062907,-2516.700203,-3753.867940,12657.521608
5022.063221,-3182.885551,-3600.648841,12435.459826
5022.063535,-3552.988522,-1685.410096,13545.768739
5022.063849,-3034.844362,76.609550,13915.871710
5022.064164,-444.123565,1762.019645,9992.780217
5022.064478,962.267725,2451.505594,6513.812290
5022.064792,2146.597232,3830.477490,5477.523971
5022.065106,3552.988522,5592.497135,4071.132681
5022.065421,4811.338623,4903.011187,3627.009116
5022.065735,4737.318029,2604.724693,5699.585753
5022.066049,3256.906145,689.485948,8956.491898
5022.066363,888.247130,-1072.533697,11399.171507
5022.066678,-962.267725,-2834.553343,12953.603985
5022.066992,-2368.659014,-2451.505594,13841.851115
5022.067306,-2960.823768,-3217.601092,14285.974681
5022.067620,-3108.864956,-1915.238745,13915.871710
5022.067935,-2960.823768,995.924147,12287.418637
5022.068249,-1480.411884,1532.190996,8216.285956
5022.068563,-148.041188,3830.477490,4885.359217
5022.068877,592.164754,4979.620737,4219.173869
5022.069192,1776.494261,5745.716235,3404.947333
5022.069506,2516.700203,4903.011187,3849.070898
5022.069820,1702.473667,1378.971896,6439.791695
5022.070134,518.144159,76.609550,9400.615463
5022.070449,-518.144159,-1532.190996,11843.295072
5022.070763,-2294.638420,-2528.115143,13397.727550
5022.071077,-2442.679609,-2911.162892,14137.933492
5022.071391,-2664.741391,-2834.553343,15026.180623
5022.071706,-1924.535449,-1072.533697,14359.995275
5022.072020,-1480.411884,766.095498,10732.986159
5022.072334,-518.144159,1915.238745,8068.244768
5022.072648,518.144159,3753.867940,6217.729913
5022.072962,1628.453072,6818.249932,4515.256246
5022.073277,3330.926739,4826.401637,3701.029710
5022.073591,2516.700203,2681.334243,4663.297435
5022.073905,1924.535449,306.438199,6735.874072
5022.074219,444.123565,-1225.752797,9178.553681
5022.074534,-1184.329507,-1915.238745,12139.377449
5022.074848,-2072.576638,-2681.334243,14063.912898
5022.075162,-1850.514855,-3677.258390,14063.912898
5022.075476,-1702.473667,-2604.724693,13545.768739
5022.075791,-1554.432478,-842.705048,12879.583391
5022.076105,-148.041188,1149.143247,9918.759623
5022.076419,1776.494261,2298.286494,6661.853478
5022.076733,3256.906145,4136.915689,4811.338623
5022.077048,4737.318029,5286.058936,4293.194464
5022.077362,4811.338623,4366.744339,4959.379811
5022.077676,4071.132681,2068.457845,6661.853478
5022.077990,2590.720797,536.266849,8364.327145
5022.078305,814.226536,-1225.752797,11621.233289
5022.078619,-1406.391290,-2911.162892,13101.645173
5022.078933,-2886.803174,-3907.087040,13767.830521
5022.079247,-3775.050304,-2834.553343,13989.892304
5022.079562,-3997.112087,-1991.848295,13249.686362
5022.079876,-3552.988522,-229.828649,11547.212695
5022.080190,-2220.617826,919.314598,8438.347739
5022.080504,-1036.288319,2757.943793,5847.626942
5022.080819,444.123565,5209.449386,4441.235652
5022.081133,1924.535449,5056.230287,3849.070898
5022.081447,2590.720797,3600.648841,5477.523971
5022.081761,2368.659014,1608.800546,7624.121203
5022.082075,1628.453072,-306.438199,10066.800811
5022.082390,148.041188,-1991.848295,11843.295072
5022.082704,-1702.473667,-1685.410096,13101.645173
5022.083018,-1776.494261,-1991.848295,13767.830521
5022.083332,-1702.473667,-995.924147,12953.603985
5022.083647,-1554.432478,459.657299,12287.418637
5022.083961,-1036.288319,1608.800546,10362.883188
5022.084275,74.020594,3217.601092,7328.038826
5022.084589,888.247130,4443.353888,5477.523971
5022.084904,1480.411884,4903.011187,4293.194464
5022.085218,2442.679609,3907.087040,3775.050304
5022.085532,1924.535449,1915.238745,5107.421000
5022.085846,444.123565,76.609550,7772.162391
5022.086161,-740.205942,-842.705048,10436.903782
5022.086475,-2368.659014,-2451.505594,12139.377449
5022.086789,-3256.906145,-3677.258390,13249.686362
5022.087103,-3330.926739,-3064.381992,13471.748144
5022.087418,-3182.885551,-1532.190996,13619.789333
5022.087732,-3034.844362,0.000000,12213.398043
5022.088046,-444.123565,1685.410096,9474.636058
5022.088360,1924.535449,2298.286494,6883.915261
5022.088675,2886.803174,4903.011187,5921.647536
5022.088989,4071.132681,5745.716235,5033.400406
5022.089303,4589.276840,4826.401637,5847.626942
5022.089617,4663.297435,2451.505594,7328.038826
5022.089932,3330.926739,306.438199,9844.739029
5022.090246,1776.494261,-995.924147,11769.274478
5022.090560,-444.123565,-2604.724693,13101.645173
5022.090874,-1924.535449,-2681.334243,13101.645173
5022.091188,-1480.411884,-1762.019645,12879.583391
5022.091503,-1702.473667,0.000000,13101.645173
5022.091817,-2294.638420,842.705048,11843.295072
5022.092131,-370.102971,1762.019645,7698.141797
5022.092445,962.267725,3983.696590,4885.359217
5022.092760,1998.556043,5286.058936,4219.173869
5022.093074,2960.823768,5132.839837,4145.153275
5022.093388,3256.906145,3447.429741,5403.503377
5022.093702,1850.514855,1149.143247,7328.038826
5022.094017,666.185348,-459.657299,9252.574275
5022.094331,-1480.411884,-1455.581446,11473.192101
5022.094645,-3108.864956,-3140.991542,12065.356855
5022.094959,-2960.823768,-2298.286494,13101.645173
5022.095274,-2886.803174,-1608.800546,14063.912898
5022.095588,-3256.906145,-1149.143247,13989.892304
5022.095902,-1776.494261,153.219100,10807.006753
5022.096216,0.000000,766.095498,6661.853478
5022.096531,592.164754,3294.210641,5255.462188
5022.096845,814.226536,4903.011187,5181.441594
5022.097159,1628.453072,3524.039291,5403.503377
5022.097473,2516.700203,1378.971896,6513.812290
5022.097788,1702.473667,-229.828649,8438.347739
5022.098102,0.000000,-1915.238745,10658.965565
5022.098416,-1406.391290,-2451.505594,12435.459826
5022.098730,-1998.556043,-3217.601092,12953.603985
5022.099044,-1850.514855,-2374.896044,13397.727550
5022.099359,-1554.432478,-1838.629195,13545.768739
5022.099673,-222.061783,-689.485948,11621.233289
5022.099987,1036.288319,1915.238745,9400.615463
5022.100301,2220.617826,3294.210641,6661.853478
5022.100616,2812.782580,4903.011187,6143.709319
5022.100930,4367.215058,4443.353888,5477.523971
5022.101244,5329.482782,3064.381992,5625.565159
5022.101558,4589.276840,1608.800546,6661.853478
5022.101873,1776.494261,0.000000,8586.388927
5022.102187,-740.205942,-766.095498,11029.068536
5022.102501,-1702.473667,-2451.505594,11991.336260
5022.102815,-2146.597232,-2757.943793,12361.439231
5022.103130,-2812.782580,-2451.505594,12509.480420
5022.103444,-3923.091493,-1302.362347,12213.398043
5022.103758,-3552.988522,1072.533697,9992.780217
5022.104072,-1998.556043,1762.019645,7105.977043
5022.104387,-444.123565,2911.162892,5921.647536
5022.104701,666.185348,4060.306139,5255.462188
5022.105015,1924.535449,3753.867940,4737.318029
5022.105329,2146.597232,2987.772442,6143.709319
5022.105644,1184.329507,1149.143247,9252.574275
5022.105958,1406.391290,-766.095498,12213.398043
5022.106272,1036.288319,-1149.143247,13693.809927
5022.106586,-518.144159,-2145.067394,13619.789333
5022.106901,-1406.391290,-2068.457845,13027.624579
5022.107215,-2664.741391,-229.828649,12435.459826
5022.107529,-2516.700203,919.314598,11769.274478
5022.107843,-370.102971,2757.943793,8734.430116
5022.108157,592.164754,3753.867940,7105.977043
5022.108472,74.020594,4826.401637,5995.668130
5022.108786,740.205942,5515.887586,4367.215058
5022.109100,1702.473667,4136.915689,3775.050304
5022.109414,814.226536,1685.410096,6957.935855
5022.109729,-370.102971,306.438199,9844.739029
5022.110043,-1110.308913,-1378.971896,10881.027347
5022.110357,-2368.659014,-1685.410096,11991.336260
5022.110671,-2960.823768,-2221.676944,12509.480420
5022.110986,-2294.638420,-1838.629195,11843.295072
5022.111300,-1850.514855,-842.705048,11103.089130
5022.111614,-1110.308913,995.924147,10658.965565
5022.111928,518.144159,3294.210641,9622.677246
5022.112243,1258.350101,3370.820191,7402.059420
5022.112557,2590.720797,4136.915689,6365.771101
5022.112871,3849.070898,3677.258390,5551.544565
5022.113185,3478.967927,2221.676944,5773.606348
5022.113500,3404.947333,919.314598,7550.100608
5022.113814,1850.514855,0.000000,9770.718434
5022.114128,-518.144159,-1378.971896,11695.253884
5022.114442,-2146.597232,-2451.505594,12435.459826
5022.114757,-2146.597232,-2068.457845,12361.439231
5022.115071,-2294.638420,-1991.848295,12213.398043
5022.115385,-2590.720797,-1378.971896,11917.315666
5022.115699,-1184.329507,536.266849,10881.027347
5022.116014,1110.308913,1225.752797,7031.956449
5022.116328,2442.679609,3140.991542,5699.585753
5022.116642,2516.700203,4749.792088,5551.544565
5022.116956,2960.823768,3677.258390,5921.647536
5022.117270,3627.009116,2451.505594,7402.059420
5022.117585,2738.761985,0.000000,9474.636058
5022.117899,2072.576638,-1762.019645,11843.295072
5022.118213,888.247130,-2987.772442,12953.603985
5022.118527,-666.185348,-2145.067394,12953.603985
5022.118842,-1184.329507,-766.095498,12583.501014
5022.119156,-1110.308913,0.000000,13027.624579
5022.119470,-1480.411884,919.314598,11029.068536
5022.119784,-444.123565,1762.019645,7846.182985
5022.120099,296.082377,2834.553343,4885.359217
5022.120413,-296.082377,4136.915689,4589.276840
5022.120727,-222.061783,3907.087040,4515.256246
5022.121041,814.226536,2757.943793,4959.379811
5022.121356,296.082377,1149.143247,7698.141797
5022.121670,-814.226536,-1532.190996,8808.450710
5022.121984,-2442.679609,-2451.505594,11251.130318
5022.122298,-3552.988522,-3064.381992,12065.356855
5022.122613,-3775.050304,-2451.505594,12805.562797
5022.122927,-2886.803174,-2221.676944,12953.603985
5022.123241,-2072.576638,-1455.581446,12879.583391
5022.123555,-1036.288319,995.924147,11473.192101
5022.123870,222.061783,1991.848295,7476.080014
5022.124184,1258.350101,3983.696590,6365.771101
5022.124498,2960.823768,5056.230287,6291.750507
5022.124812,3404.947333,4903.011187,6217.729913
5022.125126,3552.988522,2757.943793,6439.791695
5022.125441,2368.659014,1072.533697,8142.265362
5022.125755,222.061783,0.000000,10955.047942
5022.126069,-370.102971,-1072.533697,12287.418637
5022.126383,-1332.370696,-1991.848295,12953.603985
5022.126698,-2442.679609,-1915.238745,13249.686362
5022.127012,-2664.741391,-1149.143247,12361.439231
5022.127326,-2294.638420,306.438199,11325.150913
5022.127640,-592.164754,2221.676944,8512.368333
5022.127955,740.205942,2987.772442,6513.812290
5022.128269,1702.473667,5209.449386,5329.482782
5022.128583,2368.659014,4903.011187,4737.318029
5022.128897,2886.803174,4749.792088,5551.544565
5022.129212,2368.659014,1762.019645,6735.874072
5022.129526,1110.308913,0.000000,9474.636058
5022.129840,-592.164754,-1455.581446,11769.274478
5022.130154,-1924.535449,-2221.676944,13249.686362
5022.130469,-2516.700203,-2604.724693,12361.439231
5022.130783,-2220.617826,-2451.505594,12139.377449
5022.131098,-2072.576638,-153.219100,12805.562797
5022.131412,-1036.288319,2987.772442,11843.295072
5022.131726,296.082377,3217.601092,8142.265362
5022.132041,1924.535449,3447.429741,5773.606348
5022.132355,2590.720797,4443.353888,5033.400406
5022.132669,3552.988522,5286.058936,4515.256246
5022.132984,3849.070898,4136.915689,4959.379811
5022.133298,2442.679609,689.485948,8290.306550
5022.133613,888.247130,-229.828649,10955.047942
5022.133927,0.000000,-2068.457845,12213.398043
5022.134241,-1998.556043,-2987.772442,12657.521608
5022.134556,-2664.741391,-3140.991542,12287.418637
5022.134870,-2368.659014,-2068.457845,11991.336260
5022.135185,-1850.514855,-153.219100,11695.253884
5022.135499,-888.247130,1149.143247,9844.739029
5022.135813,518.144159,2528.115143,8364.327145
5022.136128,1924.535449,3064.381992,5699.585753
5022.136442,2664.741391,3907.087040,4071.132681
5022.136756,2886.803174,3370.820191,4885.359217
5022.137071,2812.782580,1532.190996,6809.894666
5022.137385,2146.597232,-383.047749,8586.388927
5022.137700,962.267725,-2911.162892,9918.759623
5022.138014,-444.123565,-3677.258390,12583.501014
5022.138328,-2368.659014,-3064.381992,13545.768739
5022.138643,-2812.782580,-2987.772442,13471.748144
5022.138957,-1998.556043,-1762.019645,13397.727550
5022.139272,-1184.329507,-766.095498,11547.212695
5022.139586,0.000000,-153.219100,8882.471304
5022.139900,666.185348,2068.457845,6439.791695
5022.140215,1332.370696,4826.401637,5625.565159
5022.140529,2072.576638,5056.230287,5255.462188
5022.140843,3034.844362,3140.991542,5847.626942
5022.141158,2812.782580,766.095498,8142.265362
5022.141472,1480.411884,-1302.362347,9696.697840
5022.141787,222.061783,-2451.505594,10955.047942
5022.142101,-1850.514855,-2374.896044,12879.583391
5022.142415,-2738.761985,-2221.676944,13915.871710
5022.142730,-2220.617826,-919.314598,13101.645173
5022.143044,-2368.659014,-766.095498,11917.315666
5022.143359,-2664.741391,536.266849,10807.006753
5022.143673,-1702.473667,2374.896044,8068.244768
5022.143987,-222.061783,3217.601092,5847.626942
5022.144302,1184.329507,4290.134789,5255.462188
5022.144616,2516.700203,4673.182538,5255.462188
5022.144930,2072.576638,3370.820191,4737.318029
5022.145245,1110.308913,2604.724693,6143.709319
5022.145559,-962.267725,919.314598,8438.347739
5022.145874,-1110.308913,-383.047749,11251.130318
5022.146188,-1850.514855,-229.828649,13249.686362
5022.146502,-2294.638420,-842.705048,12509.480420
5022.146817,-2146.597232,-536.266849,12361.439231
5022.147131,-1480.411884,383.047749,11103.089130
5022.147446,-444.123565,1991.848295,10140.821405
5022.147760,1036.288319,3600.648841,7698.141797
5022.148074,1406.391290,5056.230287,6587.832884
5022.148389,2072.576638,4903.011187,5403.503377
5022.148703,3182.885551,4443.353888,4071.132681
5022.149017,2886.803174,3064.381992,6365.771101
5022.149332,1184.329507,229.828649,9104.533087
5022.149646,370.102971,-1225.752797,10362.883188
5022.149961,-740.205942,-1608.800546,12361.439231
5022.150275,-2368.659014,-3064.381992,13101.645173
5022.150589,-3034.844362,-2298.286494,13323.706956
5022.150904,-2812.782580,-2221.676944,12583.501014
5022.151218,-2294.638420,459.657299,11991.336260
5022.151533,-222.061783,2221.676944,10362.883188
5022.151847,2368.659014,2528.115143,7402.059420
5022.152161,3108.864956,3370.820191,5625.565159
5022.152476,4219.173869,4060.306139,5403.503377
5022.152790,4071.132681,4366.744339,5107.421000
5022.153105,3404.947333,2374.896044,7031.956449
5022.153419,2442.679609,-612.876398,9548.656652
5022.153733,592.164754,-1532.190996,12657.521608
5022.154048,-1332.370696,-2911.162892,13989.892304
5022.154362,-2886.803174,-4136.915689,11917.315666
5022.154676,-3552.988522,-2681.334243,10807.006753
5022.154991,-3330.926739,-1838.629195,11843.295072
5022.155305,-2812.782580,536.266849,11177.109724
5022.155620,-1924.535449,1532.190996,6809.894666
5022.155934,-148.041188,2374.896044,4885.359217
5022.156248,370.102971,4213.525239,4589.276840
5022.156563,2220.617826,4213.525239,5329.482782
5022.156877,2960.823768,2681.334243,5403.503377
5022.157192,2442.679609,612.876398,7772.162391
5022.157506,1554.432478,-995.924147,10510.924376
5022.157820,370.102971,-2145.067394,12361.439231
5022.158135,-1036.288319,-2298.286494,14137.933492
5022.158449,-1258.350101,-2221.676944,13619.789333
5022.158763,-666.185348,-1762.019645,12657.521608
5022.159078,-888.247130,-383.047749,12213.398043
5022.159392,0.000000,1455.581446,10362.883188
5022.159707,1924.535449,3064.381992,7105.977043
5022.160021,2294.638420,3447.429741,5403.503377
5022.160335,2442.679609,4366.744339,4959.379811
5022.160650,2368.659014,4519.963438,5699.585753
5022.160964,1628.453072,1991.848295,6513.812290
5022.161279,962.267725,-536.266849,8142.265362
5022.161593,-592.164754,-2451.505594,10658.965565
5022.161907,-1924.535449,-2604.724693,12953.603985
5022.162222,-3034.844362,-2451.505594,12879.583391
5022.162536,-2664.741391,-2451.505594,12065.356855
5022.162850,-2590.720797,-1072.533697,13323.706956
5022.163165,-2220.617826,612.876398,11843.295072
5022.163479,-370.102971,2298.286494,8142.265362
5022.163794,1554.432478,2987.772442,5033.400406
5022.164108,2442.679609,4519.963438,4737.318029
5022.164422,3849.070898,5515.887586,5329.482782
5022.164737,4145.153275,4443.353888,6291.750507
5022.165051,2738.761985,2451.505594,7624.121203
5022.165366,1702.473667,536.266849,10510.924376
5022.165680,666.185348,-995.924147,12213.398043
5022.165994,-814.226536,-2145.067394,13545.768739
5022.166309,-1702.473667,-2221.676944,13767.830521
5022.166623,-2146.597232,-766.095498,13545.768739
5022.166937,-2220.617826,1302.362347,12657.521608
5022.167252,-1184.329507,2374.896044,10436.903782
5022.167566,592.164754,3217.601092,6735.874072
5022.167881,888.247130,4213.525239,4811.338623
5022.168195,814.226536,5898.935335,4441.235652
5022.168509,2442.679609,5132.839837,4071.132681
5022.168824,1702.473667,3907.087040,6439.791695
5022.169138,148.041188,1072.533697,9178.553681
5022.169453,0.000000,-1302.362347,10140.821405
5022.169767,-2146.597232,-2221.676944,12361.439231
5022.170081,-3182.885551,-2604.724693,13693.809927
5022.170396,-3108.864956,-2374.896044,12879.583391
5022.170710,-2442.679609,-1608.800546,12139.377449
5022.171024,-2368.659014,459.657299,11621.233289
5022.171339,-444.123565,3447.429741,9474.636058
5022.171653,740.205942,3677.258390,6217.729913
5022.171968,1776.494261,3677.258390,4441.235652
5022.172282,2960.823768,4826.401637,4367.215058
5022.172596,3182.885551,3830.477490,5329.482782
5022.172911,2516.700203,842.705048,6513.812290
5022.173225,740.205942,-995.924147,8808.450710
5022.173540,-148.041188,-2451.505594,11843.295072
5022.173854,-1258.350101,-2757.943793,13619.789333
5022.174168,-2368.659014,-3600.648841,13841.851115
5022.174483,-2812.782580,-3677.258390,13397.727550
5022.174797,-2442.679609,-2911.162892,12065.356855
5022.175112,-1776.494261,-689.485948,10584.944971
5022.175426,74.020594,1225.752797,8068.244768
5022.175740,1924.535449,2528.115143,6513.812290
5022.176055,2442.679609,4213.525239,6513.812290
5022.176369,3775.050304,3983.696590,4885.359217
5022.176683,4293.194464,2451.505594,6291.750507
5022.176998,3182.885551,229.828649,8438.347739
5022.177312,2072.576638,-995.924147,9992.780217
5022.177627,1036.288319,-2298.286494,12287.418637
5022.177941,-592.164754,-2528.115143,14359.995275
5022.178255,-1702.473667,-2604.724693,13989.892304
5022.178570,-1480.411884,-2221.676944,12805.562797
5022.178884,-2146.597232,-1072.533697,11621.233289
5022.179199,-1554.432478,1608.800546,10066.800811
5022.179513,0.000000,2528.115143,6957.935855
5022.179827,740.205942,2451.505594,4959.379811
5022.180142,1110.308913,4213.525239,4959.379811
5022.180456,2294.638420,4826.401637,4367.215058
5022.180770,2220.617826,2451.505594,5403.503377
5022.181085,74.020594,0.000000,7476.080014
5022.181399,-814.226536,-766.095498,10881.027347
5022.181714,-2368.659014,-1608.800546,12805.562797
5022.182028,-3034.844362,-1838.629195,13323.706956
5022.182342,-3182.885551,-1915.238745,12657.521608
5022.182657,-2886.803174,-536.266849,12583.501014
5022.182971,-1776.494261,1915.238745,11103.089130
5022.183286,-444.123565,2911.162892,8216.285956
5022.183600,888.247130,3907.087040,6661.853478
5022.183914,1776.494261,5209.449386,5921.647536
5022.184229,2812.782580,6128.763984,4959.379811
5022.184543,3256.906145,4136.915689,4959.379811
5022.184857,2960.823768,2145.067394,7402.059420
5022.185172,1850.514855,842.705048,10288.862594
5022.185486,0.000000,0.000000,12509.480420
5022.185801,-1628.453072,-2911.162892,12287.418637
5022.186115,-2664.741391,-3600.648841,13027.624579
5022.186429,-2812.782580,-1991.848295,12583.501014
5022.186744,-2664.741391,-306.438199,11103.089130
5022.187058,-1924.535449,1302.362347,10584.944971
5022.187373,-370.102971,3217.601092,9104.533087
5022.187687,1332.370696,4596.572988,6957.935855
5022.188001,2886.803174,4749.792088,4811.338623
5022.188316,4219.173869,4213.525239,3849.070898
5022.188630,3478.967927,2987.772442,5107.421000
5022.188944,2738.761985,1685.410096,8142.265362
5022.189259,2368.659014,0.000000,10066.800811
5022.189573,1110.308913,-1072.533697,11843.295072
5022.189888,-444.123565,-2681.334243,12953.603985
5022.190202,-1554.432478,-2911.162892,12805.562797
5022.190516,-1258.350101,-229.828649,13397.727550
5022.190831,-592.164754,0.000000,11621.233289
5022.191145,-518.144159,1149.143247,9844.739029
5022.191460,74.020594,1378.971896,7179.997637
5022.191774,888.247130,3370.820191,5625.565159
5022.192088,1480.411884,4979.620737,4145.153275
5022.192403,2738.761985,3524.039291,4515.256246
5022.192717,2294.638420,1608.800546,7105.977043
5022.193031,444.123565,-306.438199,9474.636058
5022.193346,-296.082377,-1991.848295,11029.068536
5022.193660,-1702.473667,-3217.601092,12731.542202
5022.193975,-3997.112087,-4366.744339,13471.748144
5022.194289,-3552.988522,-2604.724693,13767.830521
5022.194603,-2590.720797,-536.266849,12879.583391
5022.194918,-1776.494261,0.000000,11917.315666
5022.195232,370.102971,1302.362347,8882.471304
5022.195547,666.185348,2451.505594,5921.647536
5022.195861,1554.432478,4213.525239,5329.482782
5022.196175,2738.761985,5056.230287,4737.318029
5022.196490,3256.906145,2757.943793,5403.503377
5022.196804,2664.741391,536.266849,7994.224174
5022.197118,1480.411884,-612.876398,10362.883188
5022.197433,518.144159,-1532.190996,11621.233289
5022.197747,-1628.453072,-2757.943793,12657.521608
5022.198062,-2368.659014,-2451.505594,12953.603985
5022.198376,-3034.844362,-1685.410096,13249.686362
5022.198690,-2220.617826,-689.485948,11547.212695
5022.199005,-1406.391290,1072.533697,9770.718434
5022.199319,-888.247130,2221.676944,6957.935855
5022.199634,370.102971,3524.039291,5181.441594
5022.199948,1554.432478,4903.011187,3923.091493
5022.200262,2738.761985,3753.867940,3478.967927
5022.200577,2146.597232,2604.724693,5995.668130
5022.200891,888.247130,689.485948,8882.471304
5022.201206,0.000000,-689.485948,10881.027347
5022.201520,-1110.308913,-2068.457845,12509.480420
5022.201834,-2072.576638,-3447.429741,14211.954086
5022.202149,-2516.700203,-2145.067394,14508.036463
5022.202463,-1702.473667,-1378.971896,14359.995275
5022.202777,-222.061783,1072.533697,13027.624579
5022.203092,888.247130,2528.115143,9622.677246
5022.203406,1776.494261,3294.210641,6291.750507
5022.203721,2368.659014,5362.668486,4737.318029
5022.204035,2664.741391,7277.907231,4367.215058
5022.204349,2516.700203,5822.325785,4737.318029
5022.204664,1554.432478,2528.115143,7105.977043
5022.204978,-222.061783,0.000000,9696.697840
5022.205293,-1110.308913,-1455.581446,10881.027347
5022.205607,-3404.947333,-2298.286494,12805.562797
5022.205921,-5255.462188,-2374.896044,13101.645173
5022.206236,-4885.359217,-1685.410096,12583.501014
5022.206550,-4145.153275,229.828649,11769.274478
5022.206864,-2738.761985,1915.238745,10140.821405
5022.207179,-888.247130,4060.306139,7254.018232
5022.207493,1184.329507,5362.668486,4737.318029
5022.207808,3108.864956,6052.154434,3701.029710
5022.208122,4811.338623,5592.497135,4441.235652
5022.208436,4737.318029,4136.915689,6143.709319
5022.208751,3552.988522,2374.896044,8290.306550
5022.209065,2812.782580,919.314598,9918.759623
5022.209380,814.226536,-1762.019645,11621.233289
5022.209694,-1332.370696,-2374.896044,14359.995275
5022.210008,-2368.659014,-2528.115143,13545.768739
5022.210323,-1998.556043,-2604.724693,12435.459826
5022.210637,-2220.617826,-1838.629195,11843.295072
5022.210951,-1406.391290,0.000000,9622.677246
5022.211266,-296.082377,2221.676944,7179.997637
5022.211580,592.164754,2528.115143,5255.462188
5022.211895,1628.453072,4136.915689,4219.173869
5022.212209,2812.782580,2604.724693,3849.070898
5022.212523,2294.638420,153.219100,6069.688724
5022.212838,1258.350101,-612.876398,10214.842000
5022.213152,888.247130,-2374.896044,11843.295072
5022.213467,-444.123565,-3907.087040,13693.809927
5022.213781,-1554.432478,-5209.449386,14508.036463
5022.214095,-1924.535449,-4366.744339,14137.933492
5022.214410,-962.267725,-2451.505594,13027.624579
5022.214724,-296.082377,-153.219100,11917.315666
5022.215038,1036.288319,1685.410096,9918.759623
5022.215353,2886.803174,2604.724693,7179.997637
5022.215667,3923.091493,3983.696590,4737.318029
5022.215982,4589.276840,4979.620737,4515.256246
5022.216296,4145.153275,3753.867940,4737.318029
5022.216610,2886.803174,919.314598,6217.729913
5022.216925,888.247130,-1225.752797,8734.430116
5022.217239,-666.185348,-2374.896044,12213.398043
5022.217554,-2960.823768,-2911.162892,14063.912898
5022.217868,-4515.256246,-3753.867940,12953.603985
5022.218182,-4367.215058,-2757.943793,11843.295072
5022.218497,-4219.173869,-612.876398,11843.295072
5022.218811,-2738.761985,689.485948,9696.697840
5022.219125,-1110.308913,2221.676944,6365.771101
5022.219440,0.000000,3677.258390,4737.318029
5022.219754,518.144159,5209.449386,4589.276840
5022.220069,1702.473667,5439.278036,4737.318029
5022.220383,2072.576638,2834.553343,5773.606348
5022.220697,1332.370696,536.266849,8808.450710
5022.221012,888.247130,-995.924147,10955.047942
5022.221326,-592.164754,-1378.971896,13249.686362
5022.221641,-2368.659014,-1378.971896,14952.160028
5022.221955,-2738.761985,-1838.629195,14508.036463
5022.222269,-2368.659014,-842.705048,13545.768739
5022.222584,-1480.411884,612.876398,11621.233289
5022.222898,-592.164754,3524.039291,9548.656652
5022.223213,444.123565,4596.572988,6365.771101
5022.223527,1628.453072,5362.668486,3997.112087
5022.223841,2590.720797,7277.907231,3849.070898
5022.224156,3256.906145,5898.935335,3775.050304
5022.224470,2368.659014,2834.553343,6365.771101
5022.224784,1036.288319,229.828649,9030.512492
5022.225099,-444.123565,153.219100,12213.398043
5022.225413,-1924.535449,-1532.190996,13471.748144
5022.225728,-2738.761985,-2681.334243,13027.624579
5022.226042,-2664.741391,-1915.238745,12805.562797
5022.226356,-2072.576638,459.657299,12435.459826
5022.226671,-814.226536,3600.648841,11325.150913
5022.226985,370.102971,3370.820191,7550.100608
5022.227300,2294.638420,3983.696590,5699.585753
5022.227614,2812.782580,5975.544884,5255.462188
5022.227928,3923.091493,5975.544884,3997.112087
5022.228243,4145.153275,4213.525239,4515.256246
5022.228557,2664.741391,153.219100,7846.182985
5022.228871,1406.391290,-919.314598,11103.089130
5022.229185,370.102971,-1838.629195,13249.686362
5022.229500,-1998.556043,-3753.867940,14211.954086
5022.229814,-3404.947333,-3677.258390,14285.974681
5022.230128,-4219.173869,-2757.943793,14137.933492
5022.230443,-3108.864956,-612.876398,13101.645173
5022.230757,-1332.370696,766.095498,10510.924376
5022.231071,-370.102971,1608.800546,7179.997637
5022.231385,1036.288319,2528.115143,4663.297435
5022.231700,1480.411884,4826.401637,3478.967927
5022.232014,2220.617826,4749.792088,3775.050304
5022.232328,1702.473667,2068.457845,5847.626942
5022.232643,1332.370696,-306.438199,8438.347739
5022.232957,814.226536,-1608.800546,11473.192101
5022.233271,-962.267725,-3370.820191,13545.768739
5022.233586,-2294.638420,-4673.182538,13397.727550
5022.233900,-2664.741391,-4596.572988,12139.377449
5022.234214,-2294.638420,-2451.505594,12731.542202
5022.234528,-1554.432478,536.266849,12287.418637
