#time,accel_x,accel_y,accel_z
1163.770429,666.185348,306.438199,9844.739029
1163.770755,-592.164754,612.876398,9030.512492
1163.771081,-592.164754,919.314598,8882.471304
1163.771407,296.082377,536.266849,9400.615463
1163.771733,-370.102971,0.000000,9474.636058
1163.772059,-1776.494261,383.047749,8586.388927
1163.772385,-962.267725,842.705048,8660.409521
1163.772711,-148.041188,536.266849,9252.574275
1163.773037,-370.102971,0.000000,9104.533087
1163.773363,-592.164754,383.047749,9474.636058
1163.773689,0.000000,1149.143247,8660.409521
1163.774015,962.267725,766.095498,9030.512492
1163.774341,1406.391290,229.828649,9696.697840
1163.774667,962.267725,1072.533697,9474.636058
1163.774993,0.000000,1685.410096,9030.512492
1163.775319,518.144159,919.314598,9326.594869
1163.775645,1110.308913,0.000000,9770.718434
1163.775971,-444.123565,229.828649,9474.636058
1163.776297,-444.123565,1149.143247,9252.574275
1163.776623,296.082377,1455.581446,8956.491898
1163.776949,296.082377,459.657299,9178.553681
1163.777275,-296.082377,76.609550,9696.697840
1163.777601,0.000000,1302.362347,8882.471304
1163.777928,148.041188,1991.848295,8734.430116
1163.778254,1184.329507,1225.752797,9548.656652
1163.778580,740.205942,536.266849,9252.574275
1163.778906,296.082377,1149.143247,9252.574275
1163.779232,222.061783,2145.067394,9474.636058
1163.779558,1110.308913,1225.752797,9474.636058
1163.779884,740.205942,229.828649,9844.739029
1163.780210,222.061783,919.314598,9326.594869
1163.780536,1332.370696,1915.238745,9548.656652
1163.780862,1998.556043,1762.019645,9474.636058
1163.781188,2442.679609,1685.410096,10066.800811
1163.781514,2738.761985,1915.238745,10214.842000
1163.781840,2960.823768,2911.162892,9400.615463
1163.782166,4367.215058,3140.991542,9696.697840
1163.782492,4441.235652,2451.505594,10066.800811
1163.782818,3478.967927,2604.724693,9474.636058
1163.783144,3404.947333,3753.867940,9326.594869
1163.783470,4367.215058,3907.087040,8734.430116
1163.783796,3627.009116,3447.429741,9104.533087
1163.784122,2294.638420,3140.991542,8290.306550
1163.784448,2072.576638,3753.867940,7772.162391
1163.784774,2590.720797,3677.258390,8142.265362
1163.785100,1850.514855,3370.820191,8290.306550
1163.785427,1036.288319,3447.429741,8068.244768
1163.785753,1258.350101,4519.963438,7550.100608
1163.786079,1480.411884,3907.087040,7994.224174
1163.786405,1702.473667,3524.039291,8660.409521
1163.786731,1258.350101,3524.039291,8808.450710
1163.787057,370.102971,4136.915689,8290.306550
1163.787383,1628.453072,3753.867940,8882.471304
1163.787709,2442.679609,3447.429741,9622.677246
1163.788035,1628.453072,2834.553343,9992.780217
1163.788361,1554.432478,3370.820191,9400.615463
1163.788687,2812.782580,2987.772442,10066.800811
1163.789013,3182.885551,3217.601092,10955.047942
1163.789339,3182.885551,3217.601092,11547.212695
1163.789665,3330.926739,3907.087040,11103.089130
1163.789991,3849.070898,4213.525239,10140.821405
1163.790317,5255.462188,3600.648841,10584.944971
1163.790643,4071.132681,3983.696590,10214.842000
1163.790969,3775.050304,4826.401637,9178.553681
1163.791295,3627.009116,4673.182538,8216.285956
1163.791621,3701.029710,3370.820191,8216.285956
1163.791947,1924.535449,3370.820191,7698.141797
1163.792273,222.061783,3677.258390,7105.977043
1163.792599,-370.102971,2911.162892,6883.915261
1163.792925,-1554.432478,1685.410096,6957.935855
1163.793252,-1258.350101,459.657299,7105.977043
1163.793578,-1776.494261,1072.533697,7994.224174
1163.793904,-1776.494261,1991.848295,7624.121203
1163.794230,-740.205942,1225.752797,8438.347739
1163.794556,0.000000,306.438199,9622.677246
1163.794882,-740.205942,229.828649,9696.697840
1163.795208,-1554.432478,229.828649,9844.739029
1163.795534,0.000000,-612.876398,10584.944971
1163.795860,0.000000,-1762.019645,11991.336260
1163.796186,-296.082377,-1838.629195,12361.439231
1163.796512,740.205942,-1762.019645,12139.377449
1163.796838,1184.329507,-1378.971896,12657.521608
1163.797164,1480.411884,-1072.533697,11843.295072
1163.797490,2664.741391,153.219100,10955.047942
1163.797816,3923.091493,1532.190996,8660.409521
1163.798142,5847.626942,3370.820191,8142.265362
1163.798468,7476.080014,4903.011187,7920.203579
1163.798794,7994.224174,6128.763984,7179.997637
1163.799120,6809.894666,6511.811733,6587.832884
1163.799446,6809.894666,5898.935335,6809.894666
1163.799772,6883.915261,4673.182538,8438.347739
1163.800098,4737.318029,3753.867940,9844.739029
1163.800424,1924.535449,2298.286494,10362.883188
1163.800751,814.226536,306.438199,11917.315666
1163.801077,-222.061783,-1225.752797,11843.295072
1163.801403,-740.205942,-1302.362347,11251.130318
1163.801729,74.020594,995.924147,10436.903782
1163.802055,1850.514855,3983.696590,8660.409521
1163.802381,4071.132681,6588.421283,7031.956449
1163.802707,5551.544565,7201.297681,4885.359217
1163.803033,4737.318029,8810.098227,3182.885551
1163.803359,3701.029710,9576.193725,2664.741391
1163.803685,3997.112087,9269.755526,5033.400406
1163.804011,1480.411884,7124.688131,7920.203579
1163.804337,-2590.720797,3140.991542,9030.512492
1163.804663,-3775.050304,-919.314598,10140.821405
1163.804989,-3701.029710,-2068.457845,13323.706956
1163.805315,-3330.926739,-1455.581446,15914.427753
1163.805641,-2368.659014,-229.828649,17098.757260
1163.805967,0.000000,459.657299,15470.304188
1163.806293,1776.494261,1225.752797,13841.851115
1163.806619,3997.112087,3064.381992,11325.150913
1163.806945,4589.276840,7048.078582,7994.224174
1163.807271,5403.503377,8580.269578,5107.421000
1163.807597,7624.121203,8197.221829,4219.173869
1163.807923,7254.018232,8197.221829,4145.153275
1163.808250,5847.626942,8656.879127,3627.009116
1163.808576,4293.194464,8427.050478,4071.132681
1163.808902,3627.009116,5592.497135,5773.606348
1163.809228,3034.844362,2987.772442,7402.059420
1163.809554,1554.432478,1302.362347,9548.656652
1163.809880,-1184.329507,306.438199,9770.718434
1163.810206,-2072.576638,-1072.533697,11177.109724
1163.810532,-1406.391290,-2528.115143,13693.809927
1163.810858,-814.226536,-2834.553343,14656.077652
1163.811184,-1924.535449,-1532.190996,13915.871710
1163.811510,-1924.535449,-1915.238745,13693.809927
1163.811836,-814.226536,-3064.381992,13397.727550
1163.812162,-518.144159,-2911.162892,10436.903782
1163.812488,962.267725,-1302.362347,8734.430116
1163.812814,3034.844362,1608.800546,9474.636058
1163.813140,5255.462188,3753.867940,7698.141797
1163.813466,7328.038826,4673.182538,6883.915261
1163.813792,8142.265362,4903.011187,6291.750507
1163.814118,7105.977043,5745.716235,5551.544565
1163.814444,7328.038826,6588.421283,4219.173869
1163.814770,8438.347739,5515.887586,6217.729913
1163.815096,6513.812290,4596.572988,8586.388927
1163.815422,2812.782580,3524.039291,10510.924376
1163.815748,1406.391290,2221.676944,12361.439231
1163.816075,-888.247130,-1838.629195,13545.768739
1163.816401,-4219.173869,-6281.983084,13027.624579
1163.816727,-3997.112087,-6588.421283,14137.933492
1163.817053,-2072.576638,-1762.019645,15988.448347
1163.817379,-222.061783,2145.067394,13767.830521
1163.817705,1036.288319,3370.820191,8808.450710
1163.818031,4293.194464,3370.820191,3701.029710
1163.818357,7624.121203,7584.345430,1110.308913
1163.818683,8882.471304,14096.157163,-222.061783
1163.819009,8660.409521,16547.662757,148.041188
1163.819335,8068.244768,13176.842566,2442.679609
1163.819661,5477.523971,9346.365076,5551.544565
1163.819987,1110.308913,5592.497135,8586.388927
1163.820313,-4959.379811,842.705048,10362.883188
1163.820639,-9104.533087,-4673.182538,12583.501014
1163.820965,-8586.388927,-7584.345430,18653.189738
1163.821291,-6883.915261,-7048.078582,21317.931130
1163.821617,-7698.141797,-4596.572988,20281.642811
1163.821943,-5477.523971,-3907.087040,15618.345376
1163.822269,1184.329507,-766.095498,10436.903782
1163.822595,7105.977043,7124.688131,7105.977043
1163.822921,10732.986159,14555.814462,5773.606348
1163.823247,11399.171507,16777.491406,3034.844362
1163.823574,10288.862594,12257.527968,222.061783
1163.823900,8882.471304,6665.030833,-0.000000
1163.824226,5107.421000,7431.126331,3775.050304
1163.824552,1702.473667,8427.050478,8216.285956
1163.824878,-888.247130,2604.724693,11399.171507
1163.825204,-3256.906145,-7048.078582,10807.006753
1163.825530,-5403.503377,-9346.365076,11843.295072
1163.825856,-5773.606348,-4443.353888,12361.439231
1163.826182,-3627.009116,2221.676944,11547.212695
1163.826507,0.000000,1302.362347,12435.459826
1163.826833,1480.411884,-2451.505594,12139.377449
1163.827159,370.102971,-459.657299,9844.739029
1163.827485,1184.329507,3907.087040,8364.327145
1163.827811,3478.967927,4366.744339,7476.080014
1163.828137,3997.112087,1378.971896,7624.121203
1163.828463,4811.338623,-1225.752797,7402.059420
1163.828788,6809.894666,1915.238745,9252.574275
1163.829114,6217.729913,5439.278036,10288.862594
1163.829440,4589.276840,4290.134789,8808.450710
1163.829766,5329.482782,1455.581446,9030.512492
1163.830092,4737.318029,383.047749,7698.141797
1163.830418,2368.659014,919.314598,8956.491898
1163.830744,-814.226536,995.924147,11103.089130
1163.831069,-3256.906145,0.000000,11991.336260
1163.831395,-4293.194464,-2604.724693,11843.295072
1163.831721,-3108.864956,-5669.106685,9622.677246
1163.832047,-2146.597232,-5132.839837,11399.171507
1163.832373,-2072.576638,-766.095498,12213.398043
1163.832699,-1850.514855,2604.724693,11991.336260
1163.833025,-518.144159,1838.629195,9770.718434
1163.833350,518.144159,-1532.190996,6513.812290
1163.833676,-814.226536,0.000000,5773.606348
1163.834002,222.061783,3294.210641,5551.544565
1163.834328,296.082377,3753.867940,8438.347739
1163.834654,-222.061783,2451.505594,7846.182985
1163.834980,444.123565,-1225.752797,6661.853478
1163.835306,1036.288319,-1378.971896,6957.935855
1163.835631,-148.041188,2145.067394,8882.471304
1163.835957,-2516.700203,4060.306139,10658.965565
1163.836283,-1850.514855,0.000000,10214.842000
1163.836609,-1554.432478,-4519.963438,9622.677246
1163.836935,-2294.638420,-3830.477490,11547.212695
1163.837261,-3034.844362,1072.533697,12583.501014
1163.837587,-2960.823768,1685.410096,12065.356855
1163.837913,-888.247130,-2757.943793,11399.171507
1163.838238,2220.617826,-2451.505594,11917.315666
1163.838564,4071.132681,3600.648841,10510.924376
1163.838890,2960.823768,6971.469032,7179.997637
1163.839216,1924.535449,4290.134789,4959.379811
1163.839542,1924.535449,76.609550,4737.318029
1163.839868,1332.370696,2145.067394,6439.791695
1163.840194,888.247130,5439.278036,7698.141797
1163.840519,-1554.432478,4290.134789,8364.327145
1163.840845,-2664.741391,-1991.848295,6957.935855
1163.841171,-2294.638420,-4443.353888,7846.182985
1163.841497,-1110.308913,-459.657299,10140.821405
1163.841823,-1998.556043,2987.772442,12731.542202
1163.842149,-2812.782580,612.876398,11547.212695
1163.842475,-1406.391290,-3140.991542,11399.171507
1163.842800,-1184.329507,-2604.724693,12287.418637
1163.843126,-1480.411884,1149.143247,11103.089130
1163.843452,-888.247130,2451.505594,8734.430116
1163.843778,2442.679609,229.828649,8808.450710
1163.844104,5255.462188,459.657299,9770.718434
1163.844430,5107.421000,4519.963438,8438.347739
1163.844756,4293.194464,7354.516781,7031.956449
1163.845081,4515.256246,4443.353888,6957.935855
1163.845407,3552.988522,766.095498,6661.853478
1163.845733,2442.679609,1532.190996,6661.853478
1163.846059,0.000000,4290.134789,9030.512492
1163.846385,-2368.659014,2298.286494,9918.759623
1163.846711,-3108.864956,-2757.943793,10436.903782
1163.847037,-1480.411884,-5898.935335,11473.192101
1163.847363,-1406.391290,-2145.067394,12583.501014
1163.847688,-2516.700203,2451.505594,11991.336260
1163.848014,-1480.411884,1149.143247,11325.150913
1163.848340,-1258.350101,-2911.162892,8956.491898
1163.848666,-1776.494261,-2987.772442,8216.285956
1163.848992,-2664.741391,1455.581446,8142.265362
1163.849318,-1924.535449,3370.820191,6735.874072
1163.849644,-370.102971,1149.143247,5995.668130
1163.849969,1332.370696,-2221.676944,7476.080014
1163.850295,0.000000,1302.362347,7328.038826
1163.850621,2072.576638,4826.401637,6217.729913
1163.850947,2590.720797,4136.915689,8660.409521
1163.851273,0.000000,-306.438199,9178.553681
1163.851599,-2664.741391,-3064.381992,9326.594869
1163.851925,-2368.659014,-2221.676944,11473.192101
1163.852250,-2738.761985,-1915.238745,14137.933492
1163.852576,-4589.276840,-3294.210641,13397.727550
1163.852902,-2294.638420,-4749.792088,11769.274478
1163.853228,1406.391290,-2528.115143,13175.665768
1163.853554,2664.741391,1302.362347,13249.686362
1163.853880,1554.432478,3140.991542,10214.842000
1163.854206,3701.029710,1915.238745,6439.791695
1163.854531,4663.297435,1302.362347,5181.441594
1163.854857,3404.947333,4443.353888,7476.080014
1163.855183,2220.617826,5822.325785,7476.080014
1163.855509,1406.391290,2834.553343,7476.080014
1163.855835,296.082377,-1762.019645,7772.162391
1163.856161,222.061783,-2451.505594,8882.471304
1163.856487,0.000000,766.095498,9400.615463
1163.856812,-814.226536,1302.362347,10658.965565
1163.857138,-2368.659014,-1762.019645,11843.295072
1163.857464,-1332.370696,-3677.258390,9696.697840
1163.857790,-1036.288319,-2451.505594,10140.821405
1163.858116,-2516.700203,1378.971896,10510.924376
1163.858442,-1036.288319,2145.067394,9844.739029
1163.858768,1110.308913,383.047749,9252.574275
1163.859094,2886.803174,-76.609550,8956.491898
1163.859419,2812.782580,3370.820191,8512.368333
1163.859745,2368.659014,6665.030833,7179.997637
1163.860071,3627.009116,4366.744339,7328.038826
1163.860397,3256.906145,689.485948,6587.832884
1163.860723,370.102971,536.266849,6143.709319
1163.861049,-1776.494261,3370.820191,7920.203579
1163.861375,-2516.700203,3217.601092,9030.512492
1163.861700,-3182.885551,0.000000,9844.739029
1163.862026,-3404.947333,-3677.258390,9622.677246
1163.862352,-3627.009116,-2451.505594,10658.965565
1163.862678,-2664.741391,1378.971896,11251.130318
1163.863004,-1554.432478,2757.943793,12213.398043
1163.863330,-962.267725,-1378.971896,10140.821405
1163.863656,-2738.761985,-3064.381992,9252.574275
1163.863981,-2886.803174,229.828649,10066.800811
1163.864307,-296.082377,3983.696590,10510.924376
1163.864633,296.082377,2068.457845,9178.553681
1163.864959,814.226536,-2374.896044,7772.162391
1163.865285,1850.514855,-995.924147,7994.224174
1163.865611,2590.720797,3983.696590,8808.450710
1163.865937,2368.659014,5132.839837,9696.697840
1163.866262,1406.391290,1455.581446,8956.491898
1163.866588,1184.329507,-2451.505594,7550.100608
1163.866914,666.185348,-1072.533697,10362.883188
1163.867240,-370.102971,1225.752797,11251.130318
1163.867566,-2294.638420,76.609550,10658.965565
1163.867892,-2220.617826,-4213.525239,9844.739029
1163.868218,222.061783,-5515.887586,9474.636058
1163.868544,518.144159,-383.047749,9918.759623
1163.868869,296.082377,3677.258390,10584.944971
1163.869195,1110.308913,2374.896044,9252.574275
1163.869521,1924.535449,-2374.896044,6365.771101
1163.869847,0.000000,-2145.067394,7031.956449
1163.870173,-370.102971,1762.019645,8586.388927
1163.870499,148.041188,3907.087040,8882.471304
1163.870825,1554.432478,919.314598,8586.388927
1163.871150,2590.720797,-3294.210641,8438.347739
1163.871476,1924.535449,-919.314598,10214.842000
1163.871802,1702.473667,3140.991542,10214.842000
1163.872128,2368.659014,3217.601092,11029.068536
1163.872454,1332.370696,-1915.238745,10288.862594
1163.872780,-1184.329507,-3524.039291,10214.842000
1163.873106,-1702.473667,1532.190996,10140.821405
1163.873431,-444.123565,2987.772442,10436.903782
1163.873757,-1924.535449,0.000000,9844.739029
1163.874083,-740.205942,-3600.648841,9178.553681
1163.874409,370.102971,1302.362347,10066.800811
1163.874735,2812.782580,6052.154434,9622.677246
1163.875061,2368.659014,6358.592633,8586.388927
1163.875387,1258.350101,1608.800546,7031.956449
1163.875712,-370.102971,-842.705048,6069.688724
1163.876038,-962.267725,2834.553343,6439.791695
1163.876364,-370.102971,4136.915689,9252.574275
1163.876690,-2590.720797,1608.800546,9992.780217
1163.877016,-3701.029710,-1915.238745,8734.430116
1163.877342,-2146.597232,-2451.505594,9474.636058
1163.877668,-592.164754,612.876398,11029.068536
1163.877993,-2368.659014,3907.087040,10436.903782
1163.878319,-1480.411884,1838.629195,9918.759623
1163.878645,148.041188,-1149.143247,8364.327145
1163.878971,-592.164754,-306.438199,8734.430116
1163.879297,-1924.535449,1915.238745,10288.862594
1163.879623,-1998.556043,2221.676944,9622.677246
1163.879949,-518.144159,153.219100,8068.244768
1163.880275,2220.617826,-1302.362347,9918.759623
1163.880600,2072.576638,1072.533697,9918.759623
1163.880926,222.061783,4060.306139,7624.121203
1163.881252,814.226536,1302.362347,7846.182985
1163.881578,2072.576638,-2451.505594,7624.121203
1163.881904,1776.494261,-536.266849,9770.718434
1163.882230,1554.432478,2145.067394,11399.171507
1163.882556,962.267725,3447.429741,11103.089130
1163.882881,-814.226536,-1302.362347,9030.512492
1163.883207,814.226536,-4749.792088,9474.636058
1163.883533,2072.576638,-995.924147,9992.780217
1163.883859,1184.329507,4749.792088,9770.718434
1163.884185,74.020594,3677.258390,9844.739029
1163.884511,1406.391290,-2757.943793,7698.141797
1163.884837,-1110.308913,-3294.210641,8068.244768
1163.885162,-2960.823768,-306.438199,9178.553681
1163.885488,-3182.885551,2374.896044,9252.574275
1163.885814,-1554.432478,0.000000,9474.636058
1163.886140,444.123565,-4903.011187,10066.800811
1163.886466,888.247130,-2221.676944,9844.739029
1163.886792,962.267725,3217.601092,8512.368333
1163.887118,1850.514855,4136.915689,9178.553681
1163.887443,3034.844362,766.095498,8586.388927
1163.887769,2072.576638,-612.876398,8068.244768
1163.888095,296.082377,2145.067394,9770.718434
1163.888421,-518.144159,3677.258390,10436.903782
1163.888747,-1924.535449,76.609550,10214.842000
1163.889073,-2368.659014,-4443.353888,9178.553681
1163.889399,-296.082377,-2757.943793,9992.780217
1163.889725,444.123565,1915.238745,11843.295072
1163.890050,-1110.308913,3447.429741,11843.295072
1163.890376,-740.205942,306.438199,9770.718434
1163.890702,-222.061783,-2298.286494,7476.080014
1163.891028,-814.226536,689.485948,7105.977043
1163.891354,-444.123565,4596.572988,7402.059420
1163.891680,-296.082377,3524.039291,7698.141797
1163.892006,296.082377,383.047749,8142.265362
1163.892331,1184.329507,-612.876398,7846.182985
1163.892657,888.247130,2987.772442,9326.594869
1163.892983,592.164754,4060.306139,8956.491898
1163.893309,0.000000,2298.286494,7698.141797
1163.893635,-518.144159,-1608.800546,8660.409521
1163.893961,-2072.576638,-1608.800546,9030.512492
1163.894287,-3034.844362,1532.190996,9104.533087
1163.894612,-2516.700203,2451.505594,9770.718434
1163.894938,-1258.350101,-1608.800546,9252.574275
1163.895264,296.082377,-2145.067394,9400.615463
1163.895590,1406.391290,536.266849,10807.006753
1163.895916,444.123565,4443.353888,10658.965565
1163.896242,962.267725,2987.772442,8882.471304
1163.896568,2072.576638,-2145.067394,7179.997637
1163.896893,296.082377,-1532.190996,7772.162391
1163.897219,-148.041188,2374.896044,9548.656652
1163.897545,-518.144159,4060.306139,11621.233289
1163.897871,-222.061783,-229.828649,11177.109724
1163.898197,444.123565,-4443.353888,9918.759623
1163.898523,962.267725,-2068.457845,11473.192101
1163.898849,1406.391290,3294.210641,10732.986159
1163.899174,1332.370696,4290.134789,10214.842000
1163.899500,1554.432478,-459.657299,10584.944971
1163.899826,-370.102971,-2451.505594,8512.368333
1163.900152,-2294.638420,229.828649,7624.121203
1163.900478,-1258.350101,2374.896044,9252.574275
1163.900804,-1258.350101,1302.362347,9178.553681
1163.901130,-2072.576638,-1991.848295,7402.059420
1163.901456,-222.061783,-2298.286494,7328.038826
1163.901781,0.000000,766.095498,8142.265362
1163.902107,0.000000,2987.772442,7698.141797
1163.902433,0.000000,1838.629195,8808.450710
1163.902759,74.020594,-766.095498,7624.121203
1163.903085,-370.102971,-76.609550,7994.224174
1163.903411,-666.185348,1225.752797,9474.636058
1163.903737,-888.247130,229.828649,9326.594869
1163.904062,-1776.494261,-459.657299,9474.636058
1163.904388,1480.411884,-2145.067394,10362.883188
1163.904714,2812.782580,229.828649,10732.986159
1163.905040,740.205942,2374.896044,10436.903782
1163.905366,-592.164754,1149.143247,10066.800811
1163.905692,1036.288319,76.609550,8882.471304
1163.906018,370.102971,0.000000,8956.491898
1163.906343,-1110.308913,995.924147,10436.903782
1163.906669,-1554.432478,2068.457845,9696.697840
1163.906995,-962.267725,536.266849,9030.512492
1163.907321,666.185348,-2681.334243,9252.574275
1163.907647,888.247130,-766.095498,10288.862594
1163.907973,222.061783,3677.258390,10955.047942
1163.908299,1036.288319,4060.306139,9474.636058
1163.908624,888.247130,-306.438199,7772.162391
1163.908950,-888.247130,-3370.820191,8068.244768
1163.909276,-2516.700203,-306.438199,8512.368333
1163.909602,-1702.473667,3600.648841,9178.553681
1163.909928,0.000000,1455.581446,9400.615463
1163.910254,444.123565,-2987.772442,9326.594869
1163.910580,222.061783,-2068.457845,10140.821405
1163.910906,888.247130,3294.210641,9474.636058
1163.911231,814.226536,4673.182538,8882.471304
1163.911557,2368.659014,-229.828649,8068.244768
1163.911883,2516.700203,-1762.019645,8512.368333
1163.912209,296.082377,2987.772442,10066.800811
1163.912535,0.000000,4290.134789,8956.491898
1163.912861,-1628.453072,1225.752797,9474.636058
1163.913187,-296.082377,-4443.353888,7846.182985
1163.913512,814.226536,-1685.410096,9030.512492
1163.913838,1776.494261,4290.134789,10362.883188
1163.914164,370.102971,5209.449386,10732.986159
1163.914490,-222.061783,612.876398,9844.739029
1163.914816,0.000000,-2911.162892,8364.327145
1163.915142,-1036.288319,-612.876398,8364.327145
1163.915468,-814.226536,2298.286494,9326.594869
1163.915793,-2220.617826,3294.210641,10066.800811
1163.916119,-888.247130,-842.705048,9474.636058
1163.916445,0.000000,-2451.505594,8882.471304
1163.916771,-296.082377,689.485948,8956.491898
1163.917097,-888.247130,3830.477490,8808.450710
1163.917423,74.020594,3217.601092,7550.100608
1163.917749,888.247130,-612.876398,7402.059420
1163.918074,-296.082377,-1225.752797,8882.471304
1163.918400,-2368.659014,2298.286494,9844.739029
1163.918726,-2294.638420,2757.943793,10288.862594
1163.919052,-1554.432478,-842.705048,9474.636058
1163.919378,592.164754,-3677.258390,9474.636058
1163.919704,1258.350101,-766.095498,11251.130318
1163.920030,148.041188,3370.820191,11029.068536
1163.920355,740.205942,3370.820191,10362.883188
1163.920681,2072.576638,-1991.848295,8956.491898
1163.921007,296.082377,-3447.429741,8808.450710
1163.921333,-1554.432478,383.047749,7994.224174
1163.921659,-592.164754,3907.087040,9770.718434
1163.921985,0.000000,919.314598,10658.965565
1163.922311,814.226536,-4136.915689,8512.368333
1163.922637,740.205942,-3064.381992,8808.450710
1163.922962,1258.350101,1915.238745,9326.594869
1163.923288,1110.308913,4290.134789,10140.821405
1163.923614,1850.514855,153.219100,9474.636058
1163.923940,148.041188,-3217.601092,8290.306550
1163.924266,-1776.494261,-1378.971896,8512.368333
1163.924592,-888.247130,2374.896044,9474.636058
1163.924918,-592.164754,1302.362347,10214.842000
1163.925243,-962.267725,-3140.991542,8290.306550
1163.925569,-296.082377,-3140.991542,9104.533087
1163.925895,74.020594,1685.410096,9622.677246
1163.926221,296.082377,4213.525239,9178.553681
1163.926547,518.144159,1838.629195,8142.265362
1163.926873,518.144159,-2451.505594,8364.327145
1163.927198,-740.205942,153.219100,8438.347739
1163.927524,444.123565,3600.648841,9474.636058
1163.927850,74.020594,3064.381992,10584.944971
1163.928176,-1184.329507,-1455.581446,9844.739029
1163.928502,0.000000,-2987.772442,9104.533087
1163.928827,2146.597232,1455.581446,10584.944971
1163.929153,1184.329507,4060.306139,11547.212695
1163.929479,-148.041188,3140.991542,10362.883188
1163.929805,296.082377,-995.924147,9326.594869
1163.930131,0.000000,-1225.752797,8882.471304
1163.930456,-370.102971,2298.286494,9178.553681
1163.930782,74.020594,4366.744339,9622.677246
1163.931108,592.164754,2911.162892,8512.368333
1163.931434,2368.659014,0.000000,8808.450710
1163.931759,1776.494261,1225.752797,9252.574275
1163.932085,444.123565,4060.306139,9030.512492
1163.932411,-222.061783,3447.429741,7772.162391
1163.932737,1184.329507,689.485948,8142.265362
1163.933063,222.061783,-229.828649,9548.656652
1163.933388,-2368.659014,1991.848295,9696.697840
1163.933714,-2294.638420,1991.848295,8808.450710
1163.934040,-1258.350101,-306.438199,8142.265362
1163.934366,-592.164754,-2374.896044,6735.874072
1163.934692,370.102971,842.705048,9030.512492
1163.935017,1332.370696,5286.058936,9400.615463
1163.935343,888.247130,5056.230287,9400.615463
1163.935669,74.020594,306.438199,8956.491898
1163.935995,-666.185348,-2911.162892,7179.997637
1163.936320,-3108.864956,995.924147,8512.368333
1163.936646,-1924.535449,1608.800546,9696.697840
1163.936972,-1924.535449,0.000000,11843.295072
1163.937298,-1998.556043,-3753.867940,10066.800811
1163.937624,-1554.432478,-3600.648841,10807.006753
1163.937949,-370.102971,153.219100,10214.842000
1163.938275,592.164754,2528.115143,9992.780217
1163.938601,888.247130,0.000000,9770.718434
1163.938927,444.123565,-2145.067394,8882.471304
1163.939253,-370.102971,306.438199,9178.553681
1163.939578,592.164754,1762.019645,9918.759623
1163.939904,0.000000,766.095498,10066.800811
1163.940230,-666.185348,-2451.505594,8956.491898
1163.940556,666.185348,-2834.553343,9474.636058
1163.940882,1924.535449,919.314598,11547.212695
1163.941207,518.144159,1685.410096,10807.006753
1163.941533,-592.164754,-306.438199,9104.533087
1163.941859,148.041188,-3447.429741,8142.265362
1163.942185,296.082377,-2451.505594,9326.594869
1163.942510,74.020594,2221.676944,10140.821405
1163.942836,-592.164754,2374.896044,10288.862594
1163.943162,-592.164754,-1685.410096,9030.512492
1163.943488,888.247130,-3524.039291,8438.347739
1163.943814,2442.679609,-766.095498,9030.512492
1163.944139,370.102971,4213.525239,9400.615463
1163.944465,0.000000,3907.087040,7846.182985
1163.944791,2146.597232,-459.657299,7772.162391
1163.945117,1036.288319,-2221.676944,8512.368333
1163.945443,-2590.720797,-612.876398,8586.388927
1163.945768,-3552.988522,2681.334243,8956.491898
1163.946094,-962.267725,459.657299,9252.574275
1163.946420,-444.123565,-3217.601092,9622.677246
1163.946746,0.000000,-1455.581446,10288.862594
1163.947071,518.144159,3064.381992,9474.636058
1163.947397,1332.370696,5209.449386,9104.533087
1163.947723,2294.638420,2298.286494,8734.430116
1163.948049,1184.329507,-459.657299,8438.347739
1163.948375,-370.102971,2604.724693,8586.388927
1163.948700,-296.082377,4979.620737,9992.780217
1163.949026,0.000000,2834.553343,10807.006753
1163.949352,0.000000,-612.876398,8956.491898
1163.949678,740.205942,459.657299,9030.512492
1163.950004,2590.720797,3294.210641,10066.800811
1163.950329,1776.494261,5669.106685,10436.903782
1163.950655,1480.411884,3447.429741,9918.759623
1163.950981,1480.411884,689.485948,8808.450710
1163.951307,0.000000,2068.457845,8290.306550
1163.951632,-296.082377,3217.601092,8512.368333
1163.951958,-592.164754,3447.429741,9252.574275
1163.952284,-1480.411884,1072.533697,9326.594869
1163.952610,-1258.350101,-1225.752797,8734.430116
1163.952936,0.000000,-76.609550,9400.615463
1163.953261,-1554.432478,2451.505594,9770.718434
1163.953587,-2664.741391,1762.019645,8808.450710
1163.953913,-2368.659014,-1532.190996,5773.606348
1163.954239,-2590.720797,-2451.505594,6883.915261
1163.954565,-3404.947333,76.609550,10140.821405
1163.954890,-2664.741391,2451.505594,9992.780217
1163.955216,-814.226536,0.000000,9548.656652
1163.955542,1406.391290,-4519.963438,9622.677246
1163.955868,1850.514855,-2604.724693,11621.233289
1163.956194,2368.659014,2911.162892,10881.027347
1163.956519,2886.803174,3983.696590,10807.006753
1163.956845,2664.741391,-1915.238745,9474.636058
1163.957171,1110.308913,-4596.572988,9400.615463
1163.957497,-814.226536,306.438199,10066.800811
1163.957822,148.041188,3294.210641,9326.594869
1163.958148,-222.061783,0.000000,9548.656652
1163.958474,518.144159,-5286.058936,8882.471304
1163.958800,444.123565,-2068.457845,9252.574275
1163.959126,814.226536,3524.039291,9400.615463
1163.959451,740.205942,2911.162892,8216.285956
1163.959777,1110.308913,-612.876398,9030.512492
1163.960103,148.041188,-2834.553343,8882.471304
1163.960429,-2516.700203,1149.143247,9178.553681
1163.960755,-2812.782580,1608.800546,8882.471304
1163.961080,-2220.617826,-2068.457845,10732.986159
1163.961406,-1480.411884,-3753.867940,9104.533087
1163.961732,-1036.288319,-766.095498,9400.615463
1163.962058,-370.102971,2911.162892,10510.924376
1163.962383,-222.061783,2528.115143,9400.615463
1163.962709,518.144159,0.000000,8512.368333
1163.963035,1036.288319,-1378.971896,7624.121203
1163.963361,-444.123565,2145.067394,7846.182985
1163.963687,0.000000,4979.620737,9844.739029
1163.964012,74.020594,2987.772442,12213.398043
1163.964338,-1406.391290,-2757.943793,8956.491898
1163.964664,-592.164754,-3447.429741,7476.080014
1163.964990,1406.391290,995.924147,9992.780217
1163.965316,2368.659014,5592.497135,11029.068536
1163.965641,666.185348,4673.182538,9474.636058
1163.965967,814.226536,-1455.581446,8142.265362
1163.966293,-888.247130,-1378.971896,8512.368333
1163.966619,-1850.514855,2145.067394,8068.244768
1163.966944,-1332.370696,4290.134789,8956.491898
1163.967270,-518.144159,919.314598,7846.182985
1163.967596,444.123565,-2068.457845,8956.491898
1163.967922,2146.597232,-306.438199,10510.924376
1163.968248,2072.576638,4366.744339,9474.636058
1163.968573,740.205942,5209.449386,8586.388927
1163.968899,2072.576638,536.266849,8068.244768
1163.969225,1998.556043,-383.047749,8142.265362
1163.969551,222.061783,2145.067394,8068.244768
1163.969877,-666.185348,3677.258390,8660.409521
1163.970202,-592.164754,2374.896044,8956.491898
1163.970528,740.205942,-2068.457845,8290.306550
1163.970854,1702.473667,-689.485948,10955.047942
1163.971180,1776.494261,3217.601092,11769.274478
1163.971505,666.185348,4136.915689,10955.047942
1163.971831,1332.370696,536.266849,10510.924376
1163.972157,2294.638420,-2068.457845,9178.553681
1163.972483,0.000000,1149.143247,8512.368333
1163.972809,-1850.514855,3447.429741,8882.471304
1163.973134,-814.226536,1991.848295,9252.574275
1163.973460,-1258.350101,-2068.457845,9474.636058
1163.973786,-1332.370696,-2221.676944,9992.780217
1163.974112,-296.082377,612.876398,9918.759623
1163.974438,0.000000,2987.772442,9770.718434
1163.974763,-518.144159,1149.143247,9474.636058
1163.975089,-740.205942,-1991.848295,8068.244768
1163.975415,-2146.597232,-1685.410096,7772.162391
1163.975741,-1036.288319,612.876398,9474.636058
1163.976067,-1110.308913,1225.752797,11177.109724
1163.976392,-370.102971,-842.705048,9178.553681
1163.976718,-296.082377,-2298.286494,9474.636058
1163.977044,592.164754,-689.485948,9104.533087
1163.977370,814.226536,2911.162892,9696.697840
1163.977695,-444.123565,2911.162892,8660.409521
1163.978021,148.041188,-1302.362347,6809.894666
1163.978347,-1776.494261,-2451.505594,6957.935855
1163.978673,-2368.659014,-612.876398,8586.388927
1163.978999,-2516.700203,1838.629195,10510.924376
1163.979324,-3034.844362,0.000000,10066.800811
1163.979650,-1776.494261,-3753.867940,9400.615463
1163.979976,888.247130,-3064.381992,9030.512492
1163.980302,1554.432478,612.876398,9992.780217
1163.980628,-666.185348,4596.572988,11103.089130
1163.980953,592.164754,459.657299,9178.553681
1163.981279,1480.411884,-3600.648841,7920.203579
1163.981605,-888.247130,-1455.581446,9474.636058
1163.981931,-1480.411884,2757.943793,9400.615463
1163.982256,0.000000,3753.867940,9030.512492
1163.982582,1480.411884,-1608.800546,9548.656652
1163.982908,1184.329507,-3140.991542,11621.233289
1163.983234,1110.308913,1838.629195,10658.965565
1163.983560,1998.556043,4366.744339,9252.574275
1163.983885,2294.638420,1072.533697,9992.780217
1163.984211,2368.659014,-2145.067394,9696.697840
1163.984537,-370.102971,766.095498,9992.780217
1163.984863,-592.164754,2834.553343,9030.512492
1163.985189,0.000000,766.095498,9252.574275
1163.985514,-222.061783,-2145.067394,8216.285956
1163.985840,0.000000,-689.485948,9030.512492
1163.986166,1776.494261,3753.867940,8586.388927
1163.986492,2146.597232,5132.839837,9030.512492
1163.986817,518.144159,2145.067394,8882.471304
1163.987143,444.123565,-306.438199,6883.915261
1163.987469,-296.082377,2451.505594,7846.182985
1163.987795,-296.082377,3907.087040,7994.224174
1163.988121,-518.144159,2451.505594,9548.656652
1163.988446,-962.267725,-459.657299,9400.615463
1163.988772,-370.102971,-995.924147,9104.533087
1163.989098,1406.391290,919.314598,10140.821405
1163.989424,1406.391290,2451.505594,10658.965565
1163.989750,148.041188,2911.162892,10214.842000
1163.990075,740.205942,1149.143247,8290.306550
1163.990401,0.000000,842.705048,8068.244768
1163.990727,-814.226536,766.095498,8586.388927
1163.991053,-1332.370696,2987.772442,9474.636058
1163.991379,-1258.350101,1915.238745,8364.327145
1163.991704,-444.123565,-689.485948,8734.430116
1163.992030,296.082377,-536.266849,10214.842000
1163.992356,-518.144159,1915.238745,11325.150913
1163.992682,-1628.453072,2681.334243,9548.656652
1163.993007,-1036.288319,0.000000,8438.347739
1163.993333,148.041188,-3294.210641,9326.594869
1163.993659,-1406.391290,-612.876398,10881.027347
1163.993985,-3404.947333,2451.505594,9844.739029
1163.994311,-2368.659014,0.000000,9474.636058
1163.994636,-814.226536,-3983.696590,8808.450710
1163.994962,814.226536,-2604.724693,10510.924376
1163.995288,1036.288319,2911.162892,10584.944971
1163.995614,962.267725,5286.058936,9030.512492
1163.995940,1702.473667,459.657299,8142.265362
1163.996265,2072.576638,-3753.867940,7920.203579
1163.996591,-370.102971,-229.828649,8068.244768
1163.996917,-1332.370696,3983.696590,8734.430116
1163.997243,-1258.350101,1685.410096,10658.965565
1163.997568,-962.267725,-4290.134789,9770.718434
1163.997894,-592.164754,-4673.182538,9770.718434
1163.998220,370.102971,-1378.971896,8882.471304
1163.998546,296.082377,1838.629195,9770.718434
1163.998872,-296.082377,612.876398,8216.285956
1163.999197,888.247130,-2681.334243,8586.388927
1163.999523,0.000000,-995.924147,9178.553681
1163.999849,-296.082377,2068.457845,9252.574275
1164.000175,370.102971,2451.505594,9992.780217
1164.000501,1184.329507,-1378.971896,9104.533087
1164.000826,666.185348,-3217.601092,7920.203579
1164.001152,2812.782580,459.657299,10436.903782
1164.001478,2516.700203,3830.477490,10584.944971
1164.001804,444.123565,2681.334243,9474.636058
1164.002129,740.205942,-1302.362347,7550.100608
1164.002455,148.041188,-1532.190996,7772.162391
1164.002781,-888.247130,2221.676944,9918.759623
1164.003107,-1480.411884,4290.134789,10584.944971
1164.003433,-888.247130,1072.533697,9992.780217
1164.003758,0.000000,-3064.381992,8586.388927
1164.004084,740.205942,-1532.190996,9548.656652
1164.004410,1110.308913,3524.039291,10510.924376
1164.004736,518.144159,5056.230287,9918.759623
1164.005062,1036.288319,612.876398,9030.512492
1164.005387,1628.453072,-1762.019645,8808.450710
1164.005713,-444.123565,1915.238745,9030.512492
1164.006039,-1850.514855,4903.011187,8808.450710
1164.006365,-1480.411884,2451.505594,8216.285956
1164.006691,222.061783,-1915.238745,8586.388927
1164.007016,1036.288319,-1149.143247,9400.615463
1164.007342,2072.576638,4596.572988,10955.047942
1164.007668,2146.597232,5822.325785,10362.883188
1164.007994,1332.370696,1378.971896,8882.471304
1164.008319,962.267725,-1302.362347,8142.265362
1164.008645,-1184.329507,1149.143247,8808.450710
1164.008971,-2294.638420,3983.696590,8068.244768
1164.009297,-1480.411884,1455.581446,8660.409521
1164.009623,-592.164754,-3447.429741,9474.636058
1164.009948,-1480.411884,-1915.238745,8734.430116
1164.010274,-592.164754,2451.505594,7550.100608
1164.010600,814.226536,4136.915689,9474.636058
1164.010926,518.144159,1072.533697,8734.430116
1164.011252,148.041188,-1072.533697,7846.182985
1164.011577,148.041188,229.828649,8364.327145
1164.011903,-1480.411884,2681.334243,9474.636058
1164.012229,-2072.576638,1225.752797,9918.759623
1164.012555,-1332.370696,-2298.286494,11325.150913
1164.012880,-1184.329507,-3753.867940,9918.759623
1164.013206,-148.041188,-995.924147,11029.068536
1164.013532,-296.082377,1455.581446,11621.233289
1164.013858,-740.205942,-536.266849,9252.574275
1164.014184,-1628.453072,-2681.334243,8216.285956
1164.014509,-518.144159,-2604.724693,9400.615463
1164.014835,-1776.494261,1532.190996,10732.986159
1164.015161,-1258.350101,1608.800546,9104.533087
1164.015487,-666.185348,-766.095498,9400.615463
1164.015813,888.247130,-2451.505594,7994.224174
1164.016138,2146.597232,0.000000,9474.636058
1164.016464,3108.864956,2987.772442,9770.718434
1164.016790,2442.679609,3600.648841,9696.697840
1164.017116,1702.473667,153.219100,8586.388927
1164.017441,2072.576638,-2145.067394,9030.512492
1164.017767,-222.061783,383.047749,9548.656652
1164.018093,-2146.597232,1455.581446,8660.409521
1164.018419,-2886.803174,-306.438199,9104.533087
1164.018745,-518.144159,-3524.039291,8068.244768
1164.019070,814.226536,-1608.800546,9474.636058
1164.019396,592.164754,2068.457845,10140.821405
1164.019722,-740.205942,3907.087040,9696.697840
1164.020048,888.247130,766.095498,7772.162391
1164.020374,1702.473667,-766.095498,8660.409521
1164.020699,-592.164754,1225.752797,9104.533087
1164.021025,-2072.576638,3140.991542,8364.327145
1164.021351,-1258.350101,1915.238745,8142.265362
1164.021677,-222.061783,-2451.505594,9400.615463
1164.022003,-518.144159,-2221.676944,9622.677246
1164.022328,0.000000,1608.800546,10288.862594
1164.022654,740.205942,3830.477490,10732.986159
1164.022980,1480.411884,1532.190996,10214.842000
1164.023306,1332.370696,-306.438199,8438.347739
1164.023631,888.247130,919.314598,8808.450710
1164.023957,-296.082377,4366.744339,8290.306550
1164.024283,592.164754,4060.306139,10140.821405
1164.024609,1332.370696,153.219100,9548.656652
1164.024935,518.144159,-459.657299,8882.471304
1164.025260,296.082377,2068.457845,10066.800811
1164.025586,2368.659014,3600.648841,10140.821405
1164.025912,1332.370696,2604.724693,9474.636058
1164.026238,0.000000,-153.219100,8216.285956
1164.026564,-740.205942,0.000000,7772.162391
1164.026889,-1480.411884,2451.505594,7624.121203
1164.027215,-1480.411884,2145.067394,8734.430116
1164.027541,-2072.576638,536.266849,10140.821405
1164.027867,-1258.350101,-689.485948,9252.574275
1164.028193,1036.288319,383.047749,9030.512492
1164.028519,1036.288319,2068.457845,10214.842000
1164.028845,-148.041188,2145.067394,10436.903782
1164.029170,-962.267725,1072.533697,8808.450710
1164.029496,148.041188,-766.095498,8660.409521
1164.029822,-962.267725,-1072.533697,9326.594869
1164.030148,-2294.638420,0.000000,9030.512492
1164.030474,-2368.659014,995.924147,9548.656652
1164.030800,-666.185348,-1455.581446,9622.677246
1164.031126,0.000000,-1455.581446,9770.718434
1164.031452,222.061783,153.219100,10584.944971
1164.031778,592.164754,2451.505594,9548.656652
1164.032104,1184.329507,1378.971896,7105.977043
1164.032430,1406.391290,-1149.143247,8290.306550
1164.032756,-444.123565,-612.876398,10140.821405
1164.033081,-1776.494261,1915.238745,9622.677246
1164.033407,0.000000,1455.581446,8956.491898
1164.033733,666.185348,-2604.724693,8882.471304
1164.034059,-740.205942,-2681.334243,9326.594869
1164.034385,-518.144159,1072.533697,9400.615463
1164.034711,1554.432478,3064.381992,10140.821405
1164.035037,1480.411884,306.438199,9030.512492
1164.035363,148.041188,-2681.334243,7550.100608
1164.035689,592.164754,-459.657299,8512.368333
1164.036015,444.123565,3830.477490,9326.594869
1164.036341,0.000000,3370.820191,10436.903782
1164.036666,-592.164754,-1685.410096,9696.697840
1164.036992,-148.041188,-4136.915689,8142.265362
1164.037318,74.020594,0.000000,10288.862594
1164.037644,370.102971,3370.820191,12583.501014
1164.037970,-814.226536,1991.848295,11029.068536
1164.038296,-1332.370696,-2757.943793,8734.430116
1164.038622,-1184.329507,-3983.696590,8882.471304
1164.038948,-2146.597232,383.047749,9474.636058
1164.039274,-2368.659014,3217.601092,9178.553681
1164.039600,-444.123565,153.219100,10066.800811
1164.039926,0.000000,-2298.286494,9178.553681
1164.040252,1406.391290,76.609550,8734.430116
1164.040577,2590.720797,4673.182538,9474.636058
1164.040903,3108.864956,4826.401637,9104.533087
1164.041229,592.164754,1608.800546,8068.244768
1164.041555,1702.473667,-1072.533697,7402.059420
1164.041881,888.247130,1685.410096,7550.100608
1164.042207,-444.123565,3064.381992,7846.182985
1164.042533,-2072.576638,1149.143247,9252.574275
1164.042859,-518.144159,-1225.752797,8512.368333
1164.043185,148.041188,-689.485948,9770.718434
1164.043511,518.144159,1532.190996,10140.821405
1164.043837,592.164754,3524.039291,9770.718434
1164.044162,1036.288319,1762.019645,7698.141797
1164.044488,2368.659014,-153.219100,8216.285956
1164.044814,1554.432478,1225.752797,9622.677246
1164.045140,0.000000,4136.915689,10584.944971
1164.045466,-1332.370696,2987.772442,9770.718434
1164.045792,740.205942,-1915.238745,9844.739029
1164.046118,814.226536,-2374.896044,10436.903782
1164.046444,592.164754,1915.238745,10658.965565
1164.046770,222.061783,3907.087040,10214.842000
1164.047096,444.123565,1225.752797,8660.409521
1164.047422,-888.247130,-2221.676944,8660.409521
1164.047748,-1258.350101,-536.266849,9474.636058
1164.048073,-962.267725,3294.210641,9400.615463
1164.048399,-518.144159,4213.525239,10140.821405
1164.048725,-740.205942,-1302.362347,8808.450710
1164.049051,-1406.391290,-2451.505594,7698.141797
1164.049377,0.000000,1149.143247,8290.306550
1164.049703,-296.082377,3294.210641,9326.594869
1164.050029,-888.247130,1762.019645,8882.471304
1164.050355,-1036.288319,-1838.629195,7402.059420
1164.050681,-518.144159,-1762.019645,8438.347739
1164.051007,-1924.535449,1762.019645,10140.821405
1164.051333,-1628.453072,1302.362347,8660.409521
1164.051658,-1332.370696,-842.705048,9400.615463
1164.051984,148.041188,-2221.676944,9030.512492
1164.052310,1554.432478,-306.438199,8882.471304
1164.052636,2368.659014,2451.505594,9548.656652
1164.052962,962.267725,2757.943793,11473.192101
1164.053288,-518.144159,229.828649,9474.636058
1164.053614,592.164754,-2374.896044,7550.100608
1164.053940,0.000000,-459.657299,8956.491898
1164.054266,-2738.761985,1302.362347,9622.677246
1164.054592,-3330.926739,1762.019645,8660.409521
1164.054918,-1036.288319,-2145.067394,8660.409521
1164.055244,-296.082377,-4136.915689,9548.656652
1164.055569,-222.061783,-229.828649,10140.821405
1164.055895,-222.061783,4596.572988,10362.883188
1164.056221,1110.308913,2068.457845,9400.615463
1164.056547,740.205942,-2298.286494,9474.636058
1164.056873,0.000000,-2451.505594,10214.842000
1164.057199,-888.247130,1532.190996,8808.450710
1164.057525,-962.267725,2451.505594,9252.574275
1164.057851,666.185348,-2068.457845,9918.759623
1164.058177,1998.556043,-2298.286494,9474.636058
1164.058503,1702.473667,1378.971896,10066.800811
1164.058829,1332.370696,3677.258390,9770.718434
1164.059154,888.247130,2374.896044,8512.368333
1164.059480,1110.308913,-1072.533697,7328.038826
1164.059806,296.082377,-919.314598,9252.574275
1164.060132,-1184.329507,2451.505594,9326.594869
1164.060458,-888.247130,2451.505594,9474.636058
1164.060784,74.020594,-1378.971896,9400.615463
1164.061110,518.144159,-3064.381992,8586.388927
1164.061436,888.247130,995.924147,9326.594869
1164.061762,2368.659014,4519.963438,9548.656652
1164.062088,1406.391290,3447.429741,8956.491898
1164.062414,296.082377,-153.219100,7624.121203
1164.062740,148.041188,-1225.752797,8068.244768
1164.063065,0.000000,2604.724693,9104.533087
1164.063391,-888.247130,4213.525239,9252.574275
1164.063717,-1850.514855,766.095498,9992.780217
1164.064043,-148.041188,-2757.943793,8586.388927
1164.064369,1036.288319,-766.095498,9474.636058
1164.064695,1702.473667,3370.820191,11029.068536
1164.065021,518.144159,4596.572988,10807.006753
1164.065347,-370.102971,1838.629195,8290.306550
1164.065673,518.144159,-1378.971896,7698.141797
1164.065999,-370.102971,0.000000,9622.677246
1164.066325,-2368.659014,3447.429741,9770.718434
1164.066650,-2886.803174,3140.991542,8956.491898
1164.066976,-1258.350101,-1532.190996,8956.491898
1164.067302,296.082377,-3294.210641,9696.697840
1164.067628,370.102971,1072.533697,9400.615463
1164.067954,-444.123565,5286.058936,9548.656652
1164.068280,-814.226536,2681.334243,9030.512492
1164.068606,1110.308913,-2757.943793,7772.162391
1164.068932,222.061783,-1302.362347,9770.718434
1164.069258,-2738.761985,2987.772442,9770.718434
1164.069584,-2516.700203,3140.991542,8808.450710
1164.069910,-296.082377,-1838.629195,9252.574275
1164.070236,74.020594,-5056.230287,10066.800811
1164.070561,-740.205942,-766.095498,10214.842000
1164.070887,0.000000,4443.353888,10066.800811
1164.071213,296.082377,2451.505594,10288.862594
1164.071539,1036.288319,-3370.820191,7254.018232
1164.071865,0.000000,-2298.286494,7846.182985
1164.072191,0.000000,2451.505594,8734.430116
1164.072517,296.082377,4366.744339,9252.574275
1164.072843,444.123565,-229.828649,9474.636058
1164.073169,1480.411884,-4749.792088,8882.471304
1164.073495,814.226536,-1072.533697,9844.739029
1164.073821,1480.411884,3294.210641,10510.924376
1164.074146,888.247130,2757.943793,10510.924376
1164.074472,444.123565,-2757.943793,7698.141797
1164.074798,-518.144159,-4136.915689,7179.997637
1164.075124,-888.247130,536.266849,9992.780217
1164.075450,-1110.308913,3370.820191,8660.409521
1164.075776,-1258.350101,383.047749,9326.594869
1164.076102,148.041188,-4136.915689,8512.368333
1164.076428,814.226536,0.000000,9622.677246
1164.076754,1776.494261,4903.011187,10584.944971
1164.077080,518.144159,2987.772442,10140.821405
1164.077406,-1184.329507,-1915.238745,7624.121203
1164.077732,-592.164754,-3600.648841,8956.491898
1164.078057,0.000000,459.657299,10066.800811
1164.078383,0.000000,3753.867940,10732.986159
1164.078709,-1332.370696,1149.143247,11547.212695
1164.079035,962.267725,-4596.572988,9548.656652
1164.079361,2368.659014,-1225.752797,9474.636058
1164.079687,2442.679609,3753.867940,9622.677246
1164.080013,1258.350101,5362.668486,9548.656652
1164.080339,1628.453072,2374.896044,7402.059420
1164.080665,2442.679609,-306.438199,8142.265362
1164.080991,74.020594,1225.752797,9252.574275
1164.081317,-1924.535449,2911.162892,7476.080014
1164.081643,-2072.576638,1762.019645,8216.285956
1164.081968,-296.082377,-1991.848295,9844.739029
1164.082294,-222.061783,-1685.410096,10214.842000
1164.082620,-222.061783,1149.143247,9844.739029
1164.082946,-666.185348,2528.115143,8734.430116
1164.083272,-666.185348,1991.848295,8512.368333
1164.083598,-518.144159,76.609550,7254.018232
1164.083924,666.185348,842.705048,7550.100608
1164.084250,296.082377,3217.601092,8808.450710
1164.084576,-1184.329507,3600.648841,9326.594869
1164.084902,0.000000,766.095498,9178.553681
1164.085228,444.123565,0.000000,8734.430116
1164.085553,-74.020594,612.876398,9992.780217
1164.085879,0.000000,2451.505594,10732.986159
1164.086205,0.000000,2528.115143,9918.759623
1164.086531,-592.164754,-612.876398,9474.636058
1164.086857,-1554.432478,-1915.238745,8660.409521
1164.087183,-2516.700203,459.657299,9178.553681
1164.087509,-1406.391290,1608.800546,9400.615463
1164.087835,-1554.432478,1532.190996,9548.656652
1164.088161,-1184.329507,-76.609550,9326.594869
1164.088487,1036.288319,-536.266849,8142.265362
1164.088813,1702.473667,1991.848295,8364.327145
1164.089139,222.061783,2681.334243,8808.450710
1164.089464,-1554.432478,1455.581446,9030.512492
1164.089790,-1110.308913,-1149.143247,7550.100608
1164.090116,-592.164754,-995.924147,10140.821405
1164.090442,-2368.659014,-1149.143247,10510.924376
1164.090768,-3256.906145,-1302.362347,9252.574275
1164.091094,-1332.370696,-2604.724693,9104.533087
1164.091420,1480.411884,-3140.991542,11177.109724
1164.091746,2220.617826,0.000000,10584.944971
1164.092072,2516.700203,2757.943793,9696.697840
1164.092398,1776.494261,2911.162892,8956.491898
1164.092724,2960.823768,-612.876398,7920.203579
1164.093049,1998.556043,306.438199,10140.821405
1164.093375,1036.288319,1302.362347,9474.636058
1164.093701,-444.123565,1225.752797,9474.636058
1164.094027,740.205942,-2221.676944,8734.430116
1164.094353,148.041188,-3600.648841,10807.006753
1164.094679,-1480.411884,76.609550,10955.047942
1164.095005,-1332.370696,2221.676944,10362.883188
1164.095331,-1332.370696,459.657299,8882.471304
1164.095657,-1184.329507,-3524.039291,7254.018232
1164.095983,-2664.741391,-1991.848295,7772.162391
1164.096309,-2516.700203,3217.601092,7772.162391
1164.096635,-1628.453072,4290.134789,8290.306550
1164.096960,518.144159,-306.438199,8734.430116
1164.097286,1036.288319,-1072.533697,7328.038826
1164.097612,1258.350101,2451.505594,8438.347739
1164.097938,1998.556043,5515.887586,10066.800811
1164.098264,2664.741391,3830.477490,9696.697840
1164.098590,1184.329507,229.828649,8882.471304
1164.098916,518.144159,-1225.752797,8364.327145
1164.099242,-148.041188,1991.848295,9770.718434
1164.099568,-518.144159,3600.648841,10584.944971
1164.099894,-962.267725,306.438199,11399.171507
1164.100220,814.226536,-2145.067394,9252.574275
1164.100545,1776.494261,536.266849,10140.821405
1164.100871,2516.700203,3830.477490,10584.944971
1164.101197,1406.391290,4749.792088,10362.883188
1164.101523,-74.020594,1991.848295,8438.347739
1164.101849,-222.061783,-1149.143247,8290.306550
1164.102175,-1036.288319,766.095498,10066.800811
1164.102501,-1184.329507,2145.067394,9548.656652
1164.102827,-2960.823768,612.876398,9918.759623
1164.103153,-2294.638420,-2681.334243,8512.368333
1164.103479,148.041188,-2221.676944,9622.677246
1164.103805,1702.473667,2528.115143,9178.553681
1164.104131,1332.370696,5592.497135,8142.265362
1164.104456,-148.041188,2911.162892,7254.018232
1164.104782,2146.597232,-2221.676944,6439.791695
1164.105108,0.000000,842.705048,9030.512492
1164.105434,-592.164754,3064.381992,9400.615463
1164.105760,-1998.556043,2374.896044,8512.368333
1164.106086,-444.123565,-1378.971896,8438.347739
1164.106412,518.144159,-3600.648841,9474.636058
1164.106738,0.000000,536.266849,9622.677246
1164.107064,296.082377,3524.039291,9400.615463
1164.107390,148.041188,2298.286494,10066.800811
1164.107716,1036.288319,-1915.238745,8734.430116
1164.108041,-1110.308913,-1302.362347,9252.574275
1164.108367,-2590.720797,1225.752797,9992.780217
1164.108693,-1998.556043,1762.019645,9400.615463
1164.109019,-222.061783,-842.705048,9992.780217
1164.109345,1110.308913,-3907.087040,11177.109724
1164.109671,222.061783,-383.047749,10584.944971
1164.109997,814.226536,3064.381992,10658.965565
1164.110323,1554.432478,919.314598,10584.944971
1164.110649,-444.123565,-1991.848295,9178.553681
1164.110975,-1110.308913,-1685.410096,8882.471304
1164.111301,-888.247130,766.095498,10436.903782
1164.111627,-1332.370696,995.924147,10066.800811
1164.111952,-1998.556043,-2374.896044,10584.944971
1164.112278,-888.247130,-3064.381992,9400.615463
1164.112604,1036.288319,-536.266849,7476.080014
1164.112930,2072.576638,2757.943793,7994.224174
1164.113256,2368.659014,3983.696590,8512.368333
1164.113582,592.164754,2604.724693,7698.141797
1164.113908,740.205942,536.266849,6291.750507
1164.114234,1184.329507,919.314598,7402.059420
1164.114560,-518.144159,1302.362347,9178.553681
1164.114886,-1184.329507,766.095498,9844.739029
1164.115212,-370.102971,-612.876398,9770.718434
1164.115537,1406.391290,-2911.162892,8882.471304
1164.115863,888.247130,-1302.362347,11103.089130
1164.116189,740.205942,2987.772442,10436.903782
1164.116515,1480.411884,4136.915689,9622.677246
1164.116841,2072.576638,612.876398,8808.450710
1164.117167,1036.288319,-1685.410096,9030.512492
1164.117493,-1110.308913,1378.971896,10288.862594
1164.117819,-1702.473667,3140.991542,9030.512492
1164.118145,-148.041188,842.705048,9548.656652
1164.118471,814.226536,-2374.896044,10658.965565
1164.118797,444.123565,-995.924147,10436.903782
1164.119123,0.000000,3907.087040,9030.512492
1164.119448,0.000000,3447.429741,9104.533087
1164.119774,0.000000,-229.828649,9030.512492
1164.120100,0.000000,-459.657299,8438.347739
1164.120426,-888.247130,2987.772442,8882.471304
1164.120752,-444.123565,3524.039291,9400.615463
1164.121078,74.020594,76.609550,8586.388927
1164.121404,222.061783,-1762.019645,9992.780217
1164.121730,962.267725,383.047749,9992.780217
1164.122056,1554.432478,4443.353888,9252.574275
1164.122382,2442.679609,3907.087040,10214.842000
1164.122708,1258.350101,536.266849,9178.553681
1164.123033,0.000000,766.095498,7402.059420
1164.123359,-1036.288319,1991.848295,7994.224174
1164.123685,-1924.535449,2374.896044,8808.450710
1164.124011,-2590.720797,229.828649,7920.203579
1164.124337,-2146.597232,-1915.238745,8142.265362
1164.124663,-814.226536,-383.047749,9400.615463
1164.124989,-962.267725,2298.286494,9326.594869
1164.125315,0.000000,2911.162892,9918.759623
1164.125641,-666.185348,1455.581446,10140.821405
1164.125967,-1332.370696,-995.924147,7254.018232
1164.126293,-1924.535449,-1072.533697,8216.285956
1164.126619,-2886.803174,153.219100,9474.636058
1164.126945,-3256.906145,76.609550,8882.471304
1164.127271,-3034.844362,-2068.457845,9178.553681
1164.127597,0.000000,-2145.067394,10510.924376
1164.127923,1184.329507,306.438199,11473.192101
1164.128249,1628.453072,2068.457845,10955.047942
1164.128575,1406.391290,1685.410096,10510.924376
1164.128901,2442.679609,-383.047749,8882.471304
1164.129227,2590.720797,-383.047749,9326.594869
1164.129553,1332.370696,1915.238745,9992.780217
1164.129879,148.041188,2221.676944,9400.615463
1164.130205,-592.164754,76.609550,8882.471304
1164.130531,888.247130,-2451.505594,9918.759623
1164.130857,1924.535449,-383.047749,9696.697840
1164.131183,1110.308913,2528.115143,9178.553681
1164.131509,-296.082377,1608.800546,8290.306550
1164.131835,-296.082377,-1762.019645,7476.080014
1164.132161,-888.247130,-1838.629195,8438.347739
1164.132487,-2146.597232,536.266849,9400.615463
1164.132813,-2368.659014,2757.943793,8882.471304
1164.133139,-740.205942,-689.485948,7846.182985
1164.133465,592.164754,-2757.943793,8734.430116
1164.133791,666.185348,-306.438199,9474.636058
1164.134117,444.123565,3677.258390,9474.636058
1164.134443,2146.597232,2834.553343,9918.759623
1164.134769,2886.803174,76.609550,9178.553681
1164.135095,888.247130,-459.657299,9400.615463
1164.135421,-1332.370696,153.219100,9178.553681
1164.135747,-1628.453072,1149.143247,9918.759623
1164.136073,-1036.288319,-612.876398,10732.986159
1164.136399,-370.102971,-842.705048,11473.192101
1164.136725,888.247130,306.438199,9622.677246
1164.137051,2294.638420,2451.505594,9400.615463
1164.137377,1850.514855,1685.410096,9030.512492
1164.137703,1036.288319,2374.896044,8808.450710
1164.138029,1184.329507,2604.724693,7476.080014
1164.138355,1480.411884,3064.381992,8660.409521
1164.138681,-518.144159,2528.115143,8660.409521
1164.139007,-1628.453072,1378.971896,8956.491898
1164.139333,-2368.659014,-689.485948,8216.285956
1164.139659,0.000000,-995.924147,8586.388927
1164.139985,888.247130,1838.629195,10362.883188
1164.140311,888.247130,3370.820191,10362.883188
1164.140637,0.000000,3370.820191,8808.450710
1164.140963,148.041188,459.657299,6513.812290
1164.141289,-740.205942,-229.828649,7179.997637
1164.141615,-1554.432478,2987.772442,8364.327145
1164.141941,-1628.453072,4903.011187,9400.615463
1164.142267,-1480.411884,1838.629195,9474.636058
1164.142593,-962.267725,-3140.991542,9622.677246
1164.142919,-1850.514855,-2451.505594,10066.800811
1164.143245,-1850.514855,1455.581446,8512.368333
1164.143571,-1184.329507,2221.676944,9474.636058
1164.143897,666.185348,-1532.190996,8808.450710
1164.144223,296.082377,-2374.896044,10362.883188
1164.144549,-962.267725,1378.971896,11843.295072
1164.144875,-962.267725,2451.505594,10658.965565
1164.145201,0.000000,153.219100,9474.636058
1164.145527,2590.720797,-3524.039291,9696.697840
1164.145853,1628.453072,-306.438199,11177.109724
1164.146179,888.247130,3600.648841,10214.842000
1164.146505,74.020594,2681.334243,10436.903782
1164.146831,0.000000,-3524.039291,8216.285956
1164.147157,-1998.556043,-4366.744339,7550.100608
1164.147483,-2516.700203,383.047749,8068.244768
1164.147809,-1480.411884,3370.820191,9474.636058
1164.148135,-444.123565,0.000000,9326.594869
1164.148461,0.000000,-3907.087040,8364.327145
1164.148787,666.185348,-1762.019645,7402.059420
1164.149113,2516.700203,3140.991542,7994.224174
1164.149439,4885.359217,4366.744339,10436.903782
1164.149765,4145.153275,1455.581446,10881.027347
1164.150091,1480.411884,-536.266849,9030.512492
1164.150417,666.185348,76.609550,9178.553681
1164.150743,814.226536,2068.457845,9548.656652
1164.151069,-1480.411884,76.609550,8734.430116
1164.151395,-2146.597232,-2451.505594,9400.615463
1164.151721,-148.041188,-1685.410096,10140.821405
1164.152047,370.102971,1072.533697,12361.439231
1164.152373,-888.247130,2145.067394,11399.171507
1164.152699,-1850.514855,-229.828649,8438.347739
1164.153025,-888.247130,-1762.019645,6661.853478
1164.153351,518.144159,306.438199,8734.430116
1164.153677,-666.185348,5286.058936,11177.109724
1164.154003,-1776.494261,3064.381992,8882.471304
1164.154329,-2146.597232,-1762.019645,7179.997637
1164.154655,222.061783,-3447.429741,8290.306550
1164.154981,814.226536,1455.581446,10732.986159
1164.155307,888.247130,5745.716235,9326.594869
1164.155633,814.226536,4213.525239,9548.656652
1164.155959,1184.329507,-1915.238745,8586.388927
1164.156285,0.000000,-1991.848295,7179.997637
1164.156611,-370.102971,2911.162892,7550.100608
1164.156937,-518.144159,5439.278036,8290.306550
1164.157263,518.144159,2911.162892,8660.409521
1164.157589,2812.782580,-383.047749,9844.739029
1164.157915,1406.391290,1225.752797,10066.800811
1164.158241,0.000000,4596.572988,8438.347739
1164.158567,222.061783,4136.915689,8290.306550
1164.158893,1184.329507,459.657299,8364.327145
1164.159219,-222.061783,-536.266849,8734.430116
1164.159545,-1924.535449,1149.143247,9252.574275
1164.159871,-3552.988522,1685.410096,9326.594869
1164.160197,-3256.906145,-612.876398,9326.594869
1164.160523,-2516.700203,-1762.019645,10584.944971
1164.160849,-592.164754,-459.657299,10510.924376
1164.161175,0.000000,1838.629195,9178.553681
1164.161501,518.144159,1762.019645,9622.677246
1164.161827,518.144159,-612.876398,9992.780217
1164.162153,-444.123565,-612.876398,7846.182985
1164.162479,-740.205942,919.314598,8956.491898
1164.162805,592.164754,306.438199,11251.130318
1164.163131,296.082377,-306.438199,10658.965565
1164.163457,-1036.288319,-1991.848295,9844.739029
1164.163783,888.247130,-2604.724693,10066.800811
1164.164109,1628.453072,0.000000,10436.903782
1164.164435,1480.411884,1762.019645,9030.512492
1164.164761,444.123565,1838.629195,9400.615463
1164.165087,592.164754,-1225.752797,7476.080014
1164.165413,-444.123565,-919.314598,8438.347739
1164.165739,-296.082377,229.828649,9104.533087
1164.166065,-1702.473667,1149.143247,8512.368333
1164.166391,-1850.514855,-383.047749,7920.203579
1164.166717,814.226536,-2681.334243,8734.430116
1164.167043,1036.288319,-1455.581446,9992.780217
1164.167369,296.082377,919.314598,9030.512492
1164.167695,0.000000,1378.971896,9104.533087
1164.168021,1258.350101,-919.314598,7698.141797
1164.168347,444.123565,-1532.190996,9252.574275
1164.168673,370.102971,1225.752797,11473.192101
1164.168999,-592.164754,3294.210641,10807.006753
1164.169325,-814.226536,383.047749,8142.265362
1164.169651,1480.411884,-4136.915689,7698.141797
1164.169977,888.247130,-536.266849,9326.594869
1164.170303,296.082377,4366.744339,10140.821405
1164.170629,-666.185348,4136.915689,10510.924376
1164.170955,0.000000,-1302.362347,9548.656652
1164.171281,-1554.432478,-3753.867940,8956.491898
1164.171607,-3627.009116,842.705048,8068.244768
1164.171933,-2738.761985,2451.505594,8142.265362
1164.172259,-1628.453072,459.657299,11473.192101
1164.172585,-1036.288319,-2604.724693,10732.986159
1164.172911,0.000000,-1378.971896,10288.862594
1164.173237,962.267725,2987.772442,9548.656652
1164.173563,1924.535449,4903.011187,8734.430116
1164.173889,2368.659014,2987.772442,10140.821405
1164.174215,2812.782580,0.000000,8808.450710
1164.174541,1036.288319,1838.629195,8734.430116
1164.174867,1480.411884,2681.334243,9474.636058
1164.175193,-74.020594,1838.629195,9474.636058
1164.175519,-888.247130,0.000000,7476.080014
1164.175845,1184.329507,-766.095498,9030.512492
1164.176171,1628.453072,2374.896044,9918.759623
1164.176497,2146.597232,4596.572988,8216.285956
1164.176823,814.226536,4366.744339,8216.285956
1164.177149,518.144159,1608.800546,6661.853478
1164.177475,-592.164754,1072.533697,6365.771101
1164.177801,-1110.308913,2221.676944,8956.491898
1164.178127,-1998.556043,1762.019645,9622.677246
1164.178453,-2664.741391,-229.828649,7846.182985
1164.178779,-962.267725,-1685.410096,9252.574275
1164.179105,370.102971,-536.266849,11029.068536
1164.179431,-1110.308913,2145.067394,10584.944971
1164.179757,-814.226536,1685.410096,9474.636058
1164.180083,518.144159,-2145.067394,9326.594869
1164.180409,296.082377,-1608.800546,9400.615463
1164.180735,-444.123565,2528.115143,11103.089130
1164.181061,0.000000,4443.353888,10658.965565
1164.181387,296.082377,995.924147,9178.553681
1164.181713,1110.308913,-3600.648841,8438.347739
1164.182039,2368.659014,-2374.896044,9252.574275
1164.182365,518.144159,4443.353888,10214.842000
1164.182691,370.102971,5056.230287,11399.171507
1164.183017,1036.288319,-459.657299,9326.594869
1164.183343,-444.123565,-4903.011187,7179.997637
1164.183669,-2664.741391,-3294.210641,8290.306550
1164.183995,-2442.679609,2145.067394,9178.553681
1164.184321,-518.144159,1685.410096,9622.677246
1164.184647,518.144159,-3983.696590,10584.944971
1164.184973,1332.370696,-3677.258390,10362.883188
1164.185299,740.205942,1838.629195,8956.491898
1164.185625,1702.473667,4136.915689,8364.327145
1164.185951,2590.720797,536.266849,9770.718434
1164.186277,1110.308913,-1915.238745,8216.285956
1164.186603,-222.061783,0.000000,8364.327145
1164.186929,-888.247130,1455.581446,8882.471304
1164.187255,-1332.370696,612.876398,9918.759623
1164.187581,-2220.617826,-2298.286494,9474.636058
1164.187907,-1110.308913,-3370.820191,9030.512492
1164.188233,296.082377,-689.485948,9918.759623
1164.188559,0.000000,2374.896044,10362.883188
1164.188885,-814.226536,2528.115143,9844.739029
1164.189211,518.144159,-383.047749,6513.812290
1164.189537,814.226536,-995.924147,6513.812290
1164.189863,0.000000,2834.553343,9548.656652
1164.190189,-592.164754,4826.401637,9770.718434
1164.190515,-1258.350101,2298.286494,8734.430116
1164.190841,74.020594,-2068.457845,9474.636058
1164.191167,296.082377,-2145.067394,11177.109724
1164.191493,-444.123565,2757.943793,10288.862594
1164.191819,-518.144159,4366.744339,9844.739029
1164.192145,-370.102971,-536.266849,9178.553681
1164.192471,-1406.391290,-3447.429741,8512.368333
1164.192797,-1554.432478,383.047749,10140.821405
1164.193123,-1628.453072,4443.353888,10658.965565
1164.193449,-1702.473667,3064.381992,8660.409521
1164.193775,592.164754,-1762.019645,8290.306550
1164.194101,2368.659014,-1072.533697,10732.986159
1164.194428,2368.659014,4443.353888,9252.574275
1164.194754,1554.432478,6971.469032,9622.677246
1164.195080,2812.782580,1762.019645,7846.182985
1164.195406,1702.473667,-1225.752797,7328.038826
1164.195732,-444.123565,1302.362347,8068.244768
1164.196058,-666.185348,3140.991542,8956.491898
1164.196384,-1036.288319,1838.629195,9474.636058
1164.196710,-518.144159,-2451.505594,9770.718434
1164.197036,444.123565,-1915.238745,11029.068536
1164.197362,1258.350101,2451.505594,9474.636058
1164.197688,1110.308913,3983.696590,9992.780217
1164.198014,1850.514855,76.609550,8956.491898
1164.198340,518.144159,-1838.629195,6661.853478
1164.198666,-666.185348,1072.533697,7254.018232
1164.198992,-296.082377,3677.258390,8660.409521
1164.199318,-592.164754,3217.601092,9474.636058
1164.199644,-2146.597232,-1915.238745,9178.553681
1164.199970,-1184.329507,-3447.429741,8512.368333
1164.200296,0.000000,-383.047749,9770.718434
1164.200622,-444.123565,1685.410096,10584.944971
1164.200948,-1110.308913,459.657299,10362.883188
1164.201274,0.000000,-3064.381992,8956.491898
1164.201600,-370.102971,-1532.190996,9844.739029
1164.201926,-1258.350101,1838.629195,10436.903782
1164.202252,-222.061783,2604.724693,9622.677246
1164.202578,-962.267725,-153.219100,9548.656652
1164.202904,444.123565,-3140.991542,9178.553681
1164.203230,2072.576638,-766.095498,10066.800811
1164.203556,1702.473667,3753.867940,10436.903782
1164.203882,-1184.329507,3600.648841,9696.697840
1164.204208,-444.123565,-995.924147,7402.059420
1164.204534,370.102971,-3064.381992,8438.347739
1164.204860,-1406.391290,-995.924147,9548.656652
1164.205186,-2738.761985,1685.410096,9622.677246
1164.205512,-2664.741391,995.924147,9474.636058
1164.205838,-518.144159,-3140.991542,9844.739029
1164.206164,518.144159,-2528.115143,9918.759623
1164.206490,296.082377,995.924147,8586.388927
1164.206816,222.061783,3830.477490,9252.574275
1164.207142,1628.453072,766.095498,8364.327145
1164.207468,1406.391290,-1532.190996,8734.430116
1164.207794,-222.061783,-153.219100,8512.368333
1164.208120,-1184.329507,2528.115143,8586.388927
1164.208446,-740.205942,1915.238745,8660.409521
1164.208772,518.144159,-1378.971896,8512.368333
1164.209098,1628.453072,-1378.971896,9844.739029
1164.209424,1258.350101,1762.019645,10881.027347
1164.209750,888.247130,3753.867940,9622.677246
1164.210076,1924.535449,1378.971896,9696.697840
1164.210402,962.267725,-1149.143247,8734.430116
1164.210728,-1110.308913,306.438199,9030.512492
1164.211054,-740.205942,2911.162892,9474.636058
1164.211380,-148.041188,2221.676944,10955.047942
1164.211706,-1184.329507,-1072.533697,9030.512492
1164.212032,0.000000,-1838.629195,7328.038826
1164.212358,1036.288319,1455.581446,9770.718434
1164.212684,1628.453072,4903.011187,10955.047942
1164.213010,666.185348,4673.182538,10436.903782
1164.213336,1184.329507,0.000000,8586.388927
1164.213662,370.102971,-1072.533697,8512.368333
1164.213988,444.123565,2528.115143,8808.450710
1164.214314,814.226536,4060.306139,9622.677246
1164.214640,0.000000,1685.410096,8956.491898
1164.214966,962.267725,-1685.410096,8364.327145
1164.215292,2442.679609,766.095498,9474.636058
1164.215618,1776.494261,4749.792088,9622.677246
1164.215944,-1110.308913,5132.839837,8364.327145
1164.216270,-1110.308913,229.828649,7031.956449
1164.216596,-296.082377,-2987.772442,6809.894666
1164.216922,-1628.453072,306.438199,8660.409521
1164.217248,-2442.679609,4136.915689,10658.965565
1164.217574,-3182.885551,2068.457845,10881.027347
1164.217900,-296.082377,-3983.696590,8956.491898
1164.218226,740.205942,-4213.525239,10436.903782
1164.218552,-1850.514855,1532.190996,10066.800811
1164.218878,-2294.638420,4749.792088,8290.306550
1164.219204,-222.061783,0.000000,9104.533087
1164.219530,-518.144159,-3907.087040,9104.533087
1164.219856,-2960.823768,-1915.238745,8956.491898
1164.220182,-3701.029710,2298.286494,8364.327145
1164.220508,-1702.473667,1225.752797,9104.533087
1164.220834,-592.164754,-4290.134789,9770.718434
1164.221160,74.020594,-3983.696590,11103.089130
1164.221486,222.061783,1072.533697,11473.192101
1164.221812,1332.370696,3064.381992,9474.636058
1164.222138,2442.679609,0.000000,10288.862594
1164.222464,2590.720797,-2528.115143,10066.800811
1164.222790,1406.391290,383.047749,9622.677246
1164.223116,1258.350101,3524.039291,9474.636058
1164.223442,1332.370696,766.095498,9400.615463
1164.223768,-518.144159,-3217.601092,8142.265362
1164.224094,0.000000,-1302.362347,8364.327145
1164.224420,1776.494261,2221.676944,10288.862594
1164.224746,1850.514855,3753.867940,9770.718434
1164.225072,-444.123565,153.219100,9548.656652
1164.225398,-814.226536,-2834.553343,8290.306550
1164.225724,-1628.453072,-1378.971896,7476.080014
1164.226050,-740.205942,842.705048,8660.409521
1164.226376,-1998.556043,2298.286494,11325.150913
1164.226705,-2294.638420,-919.314598,8512.368333
1164.227031,222.061783,-2911.162892,7698.141797
1164.227357,2220.617826,-995.924147,10436.903782
1164.227683,1628.453072,2911.162892,10807.006753
1164.228008,518.144159,4519.963438,9104.533087
1164.228334,1776.494261,1532.190996,7476.080014
1164.228660,1776.494261,-459.657299,7698.141797
1164.228986,-222.061783,2374.896044,8660.409521
1164.229312,-962.267725,3907.087040,9474.636058
1164.229638,-814.226536,2528.115143,9548.656652
1164.229964,-74.020594,-1532.190996,9400.615463
1164.230290,1406.391290,-1225.752797,10955.047942
1164.230616,1480.411884,2681.334243,10658.965565
1164.230942,0.000000,5209.449386,9844.739029
1164.231268,-222.061783,1991.848295,9400.615463
1164.231593,1258.350101,-1378.971896,8512.368333
1164.231919,0.000000,995.924147,7698.141797
1164.232245,-1110.308913,3753.867940,7772.162391
1164.232571,-888.247130,4290.134789,9400.615463
1164.232897,148.041188,153.219100,8660.409521
1164.233223,1110.308913,-612.876398,9548.656652
1164.233549,962.267725,2374.896044,9252.574275
1164.233875,592.164754,4903.011187,8512.368333
1164.234201,814.226536,2681.334243,7994.224174
1164.234527,814.226536,-1149.143247,8734.430116
1164.234853,-1258.350101,-459.657299,9548.656652
1164.235178,-2368.659014,2068.457845,9474.636058
1164.235504,-1998.556043,1302.362347,9474.636058
1164.235830,-1480.411884,-1915.238745,8956.491898
1164.236156,-1036.288319,-2834.553343,8438.347739
1164.236482,-296.082377,1149.143247,9844.739029
1164.236808,592.164754,3600.648841,10658.965565
1164.237134,148.041188,1838.629195,9992.780217
1164.237460,222.061783,-1838.629195,9104.533087
1164.237786,-814.226536,-1532.190996,8512.368333
1164.238112,-888.247130,1072.533697,8882.471304
1164.238438,0.000000,1455.581446,10658.965565
1164.238763,-1480.411884,-1225.752797,10732.986159
1164.239089,-1332.370696,-3677.258390,9622.677246
1164.239415,814.226536,-1838.629195,10140.821405
1164.239741,592.164754,1225.752797,10362.883188
1164.240067,-1110.308913,1532.190996,8586.388927
1164.240393,444.123565,-459.657299,6883.915261
1164.240719,814.226536,-766.095498,7179.997637
1164.241045,-592.164754,995.924147,8808.450710
1164.241371,-1776.494261,2145.067394,8438.347739
1164.241697,-1110.308913,0.000000,8808.450710
1164.242022,-296.082377,-3217.601092,8512.368333
1164.242348,814.226536,-1915.238745,9548.656652
1164.242674,666.185348,1762.019645,11547.212695
1164.243000,518.144159,2451.505594,10436.903782
1164.243326,1258.350101,-1149.143247,9474.636058
1164.243652,1628.453072,-3524.039291,9548.656652
1164.243978,0.000000,0.000000,9992.780217
1164.244304,-1406.391290,3830.477490,9548.656652
1164.244630,148.041188,1072.533697,10362.883188
1164.244956,1184.329507,-3370.820191,9474.636058
1164.245282,1258.350101,-1532.190996,9992.780217
1164.245607,1184.329507,3447.429741,11177.109724
1164.245933,1702.473667,5592.497135,9104.533087
1164.246259,1258.350101,1532.190996,8438.347739
1164.246585,888.247130,-3294.210641,8808.450710
1164.246911,-2072.576638,-306.438199,9770.718434
1164.247237,-3034.844362,4519.963438,8882.471304
1164.247563,-2146.597232,2298.286494,9252.574275
1164.247889,-1406.391290,-4060.306139,8808.450710
1164.248215,-1406.391290,-2834.553343,7402.059420
1164.248541,-592.164754,3140.991542,9030.512492
1164.248867,740.205942,5362.668486,9326.594869
1164.249192,888.247130,2987.772442,8438.347739
1164.249518,2220.617826,612.876398,7254.018232
1164.249844,1480.411884,3217.601092,7402.059420
1164.250170,1036.288319,5745.716235,7105.977043
1164.250496,1184.329507,3370.820191,8734.430116
1164.250822,814.226536,153.219100,9770.718434
1164.251148,2146.597232,153.219100,9992.780217
1164.251474,3256.906145,2911.162892,11843.295072
1164.251800,3552.988522,2834.553343,11177.109724
1164.252126,444.123565,766.095498,11103.089130
1164.252451,-740.205942,-1685.410096,8660.409521
1164.252777,-370.102971,-995.924147,9770.718434
1164.253103,-1628.453072,1532.190996,10732.986159
1164.253429,-2294.638420,2298.286494,11621.233289
1164.253755,-1554.432478,383.047749,8808.450710
1164.254081,-1406.391290,-1991.848295,6439.791695
1164.254407,-740.205942,-459.657299,7550.100608
1164.254733,518.144159,1915.238745,9104.533087
1164.255059,-1258.350101,5362.668486,9326.594869
1164.255385,-962.267725,536.266849,8734.430116
1164.255711,-518.144159,-2681.334243,8438.347739
1164.256036,-2516.700203,-1149.143247,9400.615463
1164.256362,-3330.926739,306.438199,8438.347739
1164.256688,-2886.803174,536.266849,8808.450710
1164.257014,222.061783,-3064.381992,8734.430116
1164.257340,1850.514855,-1225.752797,10807.006753
1164.257666,2220.617826,3294.210641,10362.883188
1164.257992,1776.494261,4596.572988,8882.471304
1164.258318,1036.288319,1302.362347,7846.182985
1164.258644,2072.576638,-2451.505594,8216.285956
1164.258970,-148.041188,-153.219100,9178.553681
1164.259296,-1258.350101,1608.800546,8734.430116
1164.259621,-1924.535449,995.924147,10732.986159
1164.259947,-1850.514855,-3830.477490,10362.883188
1164.260273,-2664.741391,-4903.011187,9548.656652
1164.260599,-1480.411884,-1302.362347,9252.574275
1164.260925,222.061783,1762.019645,9992.780217
1164.261251,1480.411884,1915.238745,10288.862594
1164.261577,1628.453072,536.266849,8956.491898
1164.261903,74.020594,229.828649,7772.162391
1164.262229,0.000000,2068.457845,7254.018232
1164.262555,-148.041188,2145.067394,8438.347739
1164.262881,0.000000,536.266849,9400.615463
1164.263206,0.000000,-689.485948,9622.677246
1164.263532,592.164754,0.000000,10658.965565
1164.263858,888.247130,0.000000,10140.821405
1164.264184,-888.247130,383.047749,10140.821405
1164.264510,-370.102971,-536.266849,8586.388927
1164.264836,888.247130,0.000000,9696.697840
1164.265162,-148.041188,383.047749,9770.718434
1164.265488,-1332.370696,383.047749,9770.718434
1164.265814,-1184.329507,536.266849,9474.636058
1164.266140,1110.308913,153.219100,8734.430116
1164.266465,3034.844362,1302.362347,9252.574275
1164.266791,3997.112087,2681.334243,10362.883188
1164.267117,1184.329507,4673.182538,9474.636058
1164.267443,296.082377,2451.505594,8290.306550
1164.267769,1184.329507,-842.705048,8068.244768
1164.268095,0.000000,-1455.581446,8364.327145
1164.268421,-3256.906145,1608.800546,9178.553681
1164.268747,-3256.906145,1915.238745,9326.594869
1164.269073,-1258.350101,-1149.143247,9844.739029
1164.269399,-370.102971,-3983.696590,9474.636058
1164.269725,296.082377,-766.095498,9400.615463
1164.270050,1332.370696,5515.887586,8956.491898
1164.270376,3627.009116,6511.811733,7846.182985
1164.270702,4367.215058,1225.752797,7254.018232
1164.271028,1628.453072,76.609550,8438.347739
1164.271354,-444.123565,3294.210641,8586.388927
1164.271680,296.082377,4903.011187,9400.615463
1164.272006,740.205942,153.219100,10510.924376
1164.272332,-1258.350101,-4213.525239,11103.089130
1164.272658,-1036.288319,-1762.019645,11029.068536
1164.272984,0.000000,1838.629195,10955.047942
1164.273310,-1110.308913,1149.143247,11325.150913
1164.273635,-1628.453072,-2451.505594,9844.739029
1164.273961,-1924.535449,-1072.533697,9474.636058
1164.274287,-1776.494261,2298.286494,8290.306550
1164.274613,-1332.370696,2298.286494,8808.450710
1164.274939,-2442.679609,-612.876398,8808.450710
1164.275265,-1702.473667,-1378.971896,7402.059420
1164.275591,-1332.370696,1762.019645,8734.430116
1164.275917,1332.370696,1915.238745,9104.533087
1164.276243,148.041188,1608.800546,10584.944971
1164.276569,-1110.308913,0.000000,8364.327145
1164.276894,-1184.329507,-1149.143247,8438.347739
1164.277220,-1480.411884,-383.047749,8734.430116
1164.277546,-2146.597232,-306.438199,9474.636058
1164.277872,-1924.535449,0.000000,9474.636058
1164.278198,370.102971,-919.314598,7920.203579
1164.278524,1332.370696,-76.609550,9622.677246
1164.278850,2738.761985,1762.019645,11177.109724
1164.279176,1554.432478,4749.792088,10807.006753
1164.279502,1776.494261,2298.286494,7328.038826
1164.279828,1998.556043,-2374.896044,6291.750507
1164.280154,518.144159,-1685.410096,8512.368333
1164.280479,-1184.329507,1915.238745,10140.821405
1164.280805,-2146.597232,3294.210641,10584.944971
1164.281131,-1036.288319,-2604.724693,9474.636058
1164.281457,148.041188,-5975.544884,9474.636058
1164.281783,296.082377,-1532.190996,10584.944971
1164.282109,1110.308913,4366.744339,10510.924376
1164.282435,2368.659014,4060.306139,10436.903782
1164.282761,3182.885551,-1072.533697,9918.759623
1164.283087,1332.370696,-1685.410096,9252.574275
1164.283413,-222.061783,2298.286494,7328.038826
1164.283739,0.000000,4826.401637,7402.059420
1164.284064,370.102971,459.657299,8216.285956
1164.284390,-518.144159,-2451.505594,9178.553681
1164.284716,-592.164754,0.000000,9770.718434
1164.285042,222.061783,4366.744339,10658.965565
1164.285368,-962.267725,2374.896044,9696.697840
1164.285694,-1332.370696,-2987.772442,7624.121203
1164.286020,-1480.411884,-2528.115143,8142.265362
1164.286346,-1184.329507,2145.067394,8660.409521
1164.286672,0.000000,4366.744339,9474.636058
1164.286998,1184.329507,306.438199,10214.842000
1164.287324,1480.411884,-3140.991542,9992.780217
1164.287649,2072.576638,536.266849,10288.862594
1164.287975,4071.132681,4903.011187,11251.130318
1164.288301,3404.947333,4366.744339,11399.171507
1164.288627,1554.432478,-612.876398,7031.956449
1164.288953,444.123565,-1608.800546,7254.018232
1164.289279,370.102971,2145.067394,9918.759623
1164.289605,-740.205942,4903.011187,9844.739029
1164.289931,-2960.823768,2068.457845,9030.512492
1164.290257,-1554.432478,-4519.963438,6957.935855
1164.290583,-1850.514855,-1991.848295,9400.615463
1164.290908,-740.205942,2834.553343,10214.842000
1164.291234,-962.267725,4903.011187,9770.718434
1164.291560,-2442.679609,459.657299,7550.100608
1164.291886,-2368.659014,-4136.915689,6513.812290
1164.292212,-1924.535449,-383.047749,9104.533087
1164.292538,-1554.432478,3983.696590,9918.759623
1164.292864,-2294.638420,3370.820191,10066.800811
1164.293190,-888.247130,-2604.724693,8808.450710
1164.293516,222.061783,-2298.286494,9252.574275
1164.293842,1332.370696,2604.724693,10066.800811
1164.294168,1184.329507,4673.182538,10288.862594
1164.294493,666.185348,1302.362347,8882.471304
1164.294819,2146.597232,-1838.629195,9474.636058
1164.295145,2146.597232,459.657299,11473.192101
1164.295471,518.144159,4596.572988,10140.821405
1164.295797,-592.164754,3064.381992,10214.842000
1164.296123,74.020594,-2145.067394,9400.615463
1164.296449,0.000000,-1991.848295,9400.615463
1164.296775,296.082377,995.924147,8512.368333
1164.297101,-592.164754,2681.334243,9400.615463
1164.297427,-1184.329507,766.095498,8660.409521
1164.297753,-1480.411884,-2604.724693,8216.285956
1164.298078,-1998.556043,-766.095498,7476.080014
1164.298404,-3034.844362,1608.800546,8586.388927
1164.298730,-2368.659014,1149.143247,9252.574275
1164.299056,-1332.370696,-2451.505594,8808.450710
1164.299382,-1184.329507,-2911.162892,9400.615463
1164.299708,296.082377,-689.485948,9844.739029
1164.300034,2368.659014,2451.505594,9992.780217
1164.300360,3552.988522,1608.800546,9696.697840
1164.300686,1184.329507,306.438199,9474.636058
1164.301012,1036.288319,153.219100,8438.347739
1164.301337,2220.617826,1608.800546,8438.347739
1164.301663,1628.453072,1608.800546,9474.636058
1164.301989,0.000000,536.266849,9770.718434
1164.302315,296.082377,-842.705048,8734.430116
1164.302641,1998.556043,0.000000,9252.574275
1164.302967,1850.514855,1225.752797,11029.068536
1164.303293,222.061783,2374.896044,10658.965565
1164.303619,-1480.411884,1685.410096,8734.430116
1164.303945,0.000000,-612.876398,7846.182985
1164.304271,-666.185348,-1455.581446,9770.718434
1164.304597,-2812.782580,229.828649,9104.533087
1164.304922,-3923.091493,1838.629195,8956.491898
1164.305248,-2368.659014,-459.657299,9030.512492
1164.305574,0.000000,-2221.676944,10288.862594
1164.305900,222.061783,153.219100,10436.903782
1164.306226,296.082377,3677.258390,10288.862594
1164.306552,888.247130,3907.087040,8882.471304
1164.306878,2368.659014,383.047749,8068.244768
1164.307204,1998.556043,-459.657299,8586.388927
1164.307530,-222.061783,2911.162892,8808.450710
1164.307856,-888.247130,5822.325785,9622.677246
1164.308182,74.020594,766.095498,9400.615463
1164.308507,518.144159,-3217.601092,9178.553681
1164.308833,888.247130,-1302.362347,8882.471304
1164.309159,1036.288319,4213.525239,9548.656652
1164.309485,1110.308913,6052.154434,9252.574275
1164.309811,740.205942,612.876398,7994.224174
1164.310137,-296.082377,-1072.533697,8512.368333
1164.310463,-518.144159,1225.752797,7179.997637
1164.310789,-296.082377,4290.134789,7550.100608
1164.311115,370.102971,2374.896044,9474.636058
1164.311441,0.000000,-1225.752797,10288.862594
1164.311767,-222.061783,76.609550,10066.800811
1164.312092,1110.308913,1455.581446,10140.821405
1164.312418,-666.185348,1608.800546,9992.780217
1164.312744,-1776.494261,-842.705048,7920.203579
1164.313070,-1628.453072,-919.314598,9178.553681
1164.313396,-444.123565,76.609550,10214.842000
1164.313722,-1258.350101,842.705048,10510.924376
1164.314048,-2368.659014,306.438199,10362.883188
1164.314374,-592.164754,-1608.800546,8364.327145
1164.314700,888.247130,306.438199,8586.388927
1164.315026,2812.782580,1685.410096,10807.006753
1164.315351,1184.329507,2681.334243,11325.150913
1164.315677,-370.102971,842.705048,8142.265362
1164.316003,0.000000,-1302.362347,7920.203579
1164.316329,0.000000,-459.657299,9400.615463
1164.316655,-1554.432478,1608.800546,9474.636058
1164.316981,-3034.844362,1685.410096,8808.450710
1164.317307,-1184.329507,-2757.943793,7328.038826
1164.317633,-1628.453072,-3294.210641,9326.594869
1164.317959,0.000000,-536.266849,9474.636058
1164.318285,888.247130,3907.087040,10140.821405
1164.318611,814.226536,2604.724693,7994.224174
1164.318936,444.123565,-1455.581446,9104.533087
1164.319262,74.020594,-1072.533697,9770.718434
1164.319588,0.000000,1991.848295,8216.285956
1164.319914,-1332.370696,1762.019645,8808.450710
1164.320240,-592.164754,-2451.505594,8660.409521
1164.320566,888.247130,-2451.505594,9770.718434
1164.320892,2590.720797,919.314598,10584.944971
1164.321218,1406.391290,3294.210641,10510.924376
1164.321544,1554.432478,1302.362347,9918.759623
1164.321870,2294.638420,-1455.581446,9474.636058
1164.322196,3182.885551,-536.266849,10066.800811
1164.322521,1554.432478,2374.896044,11177.109724
1164.322847,-814.226536,2298.286494,10881.027347
1164.323173,-592.164754,-1455.581446,9474.636058
1164.323499,-740.205942,-2987.772442,9326.594869
1164.323825,-370.102971,-306.438199,10140.821405
1164.324151,222.061783,2528.115143,8438.347739
1164.324477,-1332.370696,2451.505594,9104.533087
1164.324803,-1702.473667,-1608.800546,8142.265362
1164.325129,-1850.514855,-1455.581446,6883.915261
1164.325455,-2886.803174,1149.143247,7920.203579
1164.325780,-2886.803174,766.095498,9844.739029
1164.326106,-2368.659014,0.000000,9474.636058
1164.326432,814.226536,-1991.848295,8734.430116
1164.326758,2294.638420,-689.485948,10140.821405
1164.327084,4367.215058,3370.820191,9992.780217
1164.327410,4959.379811,7354.516781,10807.006753
1164.327736,5107.421000,5362.668486,9178.553681
1164.328062,3701.029710,1455.581446,6439.791695
1164.328388,2812.782580,1149.143247,7772.162391
1164.328714,1998.556043,3907.087040,9104.533087
1164.329040,-1184.329507,5439.278036,9178.553681
1164.329366,-1998.556043,842.705048,9474.636058
1164.329691,-1776.494261,-3677.258390,10510.924376
1164.330017,-2738.761985,-1685.410096,10288.862594
1164.330343,-4071.132681,1455.581446,10807.006753
1164.330669,-4441.235652,919.314598,9474.636058
1164.330995,-2368.659014,-1838.629195,8216.285956
1164.331321,-1554.432478,-1225.752797,9474.636058
1164.331647,-1850.514855,2834.553343,8808.450710
1164.331973,-2590.720797,4443.353888,7105.977043
1164.332299,-1406.391290,919.314598,6883.915261
1164.332625,370.102971,-1532.190996,8142.265362
1164.332951,666.185348,1685.410096,8956.491898
1164.333277,518.144159,4596.572988,10140.821405
1164.333603,0.000000,2681.334243,10436.903782
1164.333928,-222.061783,-2681.334243,9252.574275
1164.334254,-888.247130,-3753.867940,9696.697840
1164.334580,-1406.391290,-459.657299,10214.842000
1164.334906,-1702.473667,1838.629195,9770.718434
1164.335232,-222.061783,0.000000,10288.862594
1164.335558,1406.391290,-2911.162892,10436.903782
1164.335884,1406.391290,153.219100,9918.759623
1164.336210,2146.597232,2911.162892,8734.430116
1164.336536,2368.659014,3370.820191,9030.512492
1164.336862,2072.576638,153.219100,7846.182985
1164.337188,1406.391290,-1608.800546,7772.162391
1164.337514,0.000000,995.924147,8808.450710
1164.337840,-888.247130,1608.800546,10140.821405
1164.338166,-2072.576638,-1532.190996,10288.862594
1164.338491,-814.226536,-4903.011187,9918.759623
1164.338817,370.102971,-2911.162892,11103.089130
1164.339143,1776.494261,383.047749,11769.274478
1164.339469,1998.556043,2451.505594,11843.295072
1164.339795,1702.473667,689.485948,9104.533087
1164.340121,1406.391290,-1378.971896,6661.853478
1164.340447,740.205942,383.047749,7328.038826
1164.340773,592.164754,2987.772442,8216.285956
1164.341099,-1184.329507,3064.381992,8808.450710
1164.341425,-1258.350101,-612.876398,7994.224174
1164.341751,-1036.288319,-1838.629195,9178.553681
1164.342077,-888.247130,0.000000,9400.615463
1164.342403,-888.247130,1838.629195,9178.553681
1164.342728,-1184.329507,1072.533697,8512.368333
1164.343054,0.000000,-2298.286494,7624.121203
1164.343380,0.000000,-306.438199,10288.862594
1164.343706,-444.123565,2757.943793,10955.047942
1164.344032,-1850.514855,3447.429741,9030.512492
1164.344358,-444.123565,-919.314598,7698.141797
1164.344684,1850.514855,-2604.724693,9104.533087
1164.345010,1924.535449,2451.505594,11029.068536
1164.345336,1776.494261,6052.154434,10214.842000
1164.345662,1776.494261,3830.477490,9548.656652
1164.345988,1702.473667,-612.876398,8956.491898
1164.346314,1110.308913,0.000000,7772.162391
1164.346640,296.082377,4060.306139,9548.656652
1164.346965,-1184.329507,4519.963438,9770.718434
1164.347291,-1850.514855,-229.828649,9030.512492
1164.347617,-666.185348,-3447.429741,9622.677246
1164.347943,-1110.308913,-689.485948,10584.944971
1164.348269,-1332.370696,3447.429741,10214.842000
1164.348595,-222.061783,3907.087040,9918.759623
1164.348921,0.000000,0.000000,9400.615463
1164.349247,-222.061783,-1915.238745,7105.977043
1164.349573,-1110.308913,995.924147,6365.771101
1164.349899,-962.267725,2834.553343,7402.059420
1164.350225,-1554.432478,2145.067394,9178.553681
1164.350551,-740.205942,76.609550,9696.697840
1164.350877,666.185348,0.000000,9844.739029
1164.351202,1850.514855,995.924147,10288.862594
1164.351528,1110.308913,1915.238745,10658.965565
1164.351854,1628.453072,0.000000,8586.388927
1164.352180,814.226536,-612.876398,7698.141797
1164.352506,-148.041188,842.705048,10140.821405
1164.352832,-222.061783,2298.286494,10955.047942
1164.353158,-1036.288319,2145.067394,8660.409521
1164.353484,-1036.288319,-1608.800546,7994.224174
1164.353810,222.061783,-2298.286494,8512.368333
1164.354136,814.226536,1378.971896,9326.594869
1164.354462,518.144159,4060.306139,10362.883188
1164.354788,-518.144159,1915.238745,10955.047942
1164.355114,-1406.391290,-2528.115143,8512.368333
1164.355439,0.000000,-3140.991542,8290.306550
1164.355765,-1184.329507,-229.828649,9474.636058
1164.356091,-2516.700203,1608.800546,10436.903782
1164.356417,-1332.370696,-229.828649,10807.006753
1164.356743,1258.350101,-3753.867940,10214.842000
1164.357069,1036.288319,-2374.896044,9918.759623
1164.357395,444.123565,1532.190996,9400.615463
1164.357721,962.267725,3983.696590,9696.697840
1164.358047,2220.617826,459.657299,9326.594869
1164.358373,2220.617826,-1149.143247,9178.553681
1164.358699,370.102971,612.876398,9474.636058
1164.359025,-518.144159,3064.381992,7846.182985
1164.359351,370.102971,1608.800546,7179.997637
1164.359676,1184.329507,-1378.971896,8586.388927
1164.360002,296.082377,76.609550,9474.636058
1164.360328,0.000000,2757.943793,9400.615463
1164.360654,518.144159,2834.553343,9844.739029
1164.360980,0.000000,-1838.629195,8364.327145
1164.361306,-2146.597232,-1991.848295,7624.121203
1164.361632,-1924.535449,1302.362347,7846.182985
1164.361958,-740.205942,3294.210641,9844.739029
1164.362284,-296.082377,612.876398,9326.594869
1164.362610,-888.247130,-2221.676944,8882.471304
1164.362936,-222.061783,0.000000,9252.574275
1164.363262,1332.370696,4903.011187,10510.924376
1164.363588,1998.556043,5822.325785,11843.295072
1164.363913,1850.514855,0.000000,9474.636058
1164.364239,296.082377,-3064.381992,8216.285956
1164.364565,-296.082377,229.828649,9548.656652
1164.364891,-222.061783,4213.525239,12065.356855
1164.365217,-1258.350101,2528.115143,10510.924376
1164.365543,518.144159,-3217.601092,8290.306550
1164.365869,1998.556043,-2298.286494,9992.780217
1164.366195,2590.720797,3907.087040,9844.739029
1164.366521,1554.432478,7354.516781,8882.471304
1164.366847,2368.659014,3677.258390,7328.038826
1164.367173,1776.494261,-1302.362347,7105.977043
1164.367499,370.102971,919.314598,6957.935855
1164.367825,0.000000,3983.696590,8512.368333
1164.368151,-2368.659014,3140.991542,9178.553681
1164.368476,-3849.070898,-2451.505594,8660.409521
1164.368802,-2442.679609,-4749.792088,8808.450710
1164.369128,-592.164754,-1225.752797,10066.800811
1164.369454,-2960.823768,2528.115143,9770.718434
1164.369780,-3034.844362,1225.752797,8586.388927
1164.370106,-1332.370696,-2987.772442,7698.141797
1164.370432,-1628.453072,-2298.286494,8216.285956
1164.370758,-2442.679609,2221.676944,9622.677246
1164.371084,-1480.411884,3753.867940,8586.388927
1164.371410,-222.061783,229.828649,9252.574275
1164.371736,1036.288319,-3294.210641,10140.821405
1164.372062,1554.432478,-919.314598,11399.171507
1164.372388,814.226536,3140.991542,9992.780217
1164.372713,592.164754,1685.410096,10732.986159
1164.373039,1258.350101,-3217.601092,10066.800811
1164.373365,444.123565,-2987.772442,10584.944971
1164.373691,-592.164754,229.828649,10510.924376
1164.374017,-666.185348,1608.800546,9918.759623
1164.374343,-1554.432478,-612.876398,9474.636058
1164.374669,0.000000,-3064.381992,8216.285956
1164.374995,814.226536,-383.047749,8734.430116
1164.375321,2368.659014,2911.162892,8882.471304
1164.375647,1406.391290,3370.820191,9770.718434
1164.375973,518.144159,842.705048,9178.553681
1164.376299,-814.226536,-536.266849,7846.182985
1164.376625,-962.267725,-459.657299,7476.080014
1164.376950,-962.267725,-383.047749,9030.512492
1164.377276,-2812.782580,-766.095498,9252.574275
1164.377602,-2368.659014,-2374.896044,8290.306550
1164.377928,-296.082377,-2145.067394,9474.636058
1164.378254,1850.514855,229.828649,10732.986159
1164.378580,1110.308913,2451.505594,10658.965565
1164.378906,1998.556043,3064.381992,8364.327145
1164.379232,2146.597232,919.314598,6957.935855
1164.379558,1702.473667,1072.533697,7402.059420
1164.379884,1850.514855,2834.553343,9770.718434
1164.380210,518.144159,4213.525239,9918.759623
1164.380536,148.041188,689.485948,9474.636058
1164.380862,74.020594,-1991.848295,9178.553681
1164.381187,1998.556043,-995.924147,9844.739029
1164.381513,444.123565,3600.648841,11695.253884
1164.381839,-666.185348,4519.963438,9918.759623
1164.382165,-370.102971,-612.876398,8512.368333
1164.382491,0.000000,-3140.991542,7698.141797
1164.382817,-296.082377,1302.362347,8956.491898
1164.383143,-1702.473667,6128.763984,9474.636058
1164.383469,-148.041188,4060.306139,7698.141797
1164.383795,2146.597232,-766.095498,9474.636058
1164.384121,2220.617826,-229.828649,9474.636058
1164.384447,592.164754,3830.477490,8364.327145
1164.384773,888.247130,6665.030833,9104.533087
1164.385099,1036.288319,2221.676944,9844.739029
1164.385424,-666.185348,-1685.410096,9178.553681
1164.385750,-1184.329507,-919.314598,7105.977043
1164.386076,-1850.514855,1302.362347,9326.594869
1164.386402,-3034.844362,2374.896044,10881.027347
1164.386728,-2294.638420,229.828649,10436.903782
1164.387054,0.000000,-1455.581446,9474.636058
1164.387380,0.000000,-383.047749,8364.327145
1164.387706,-888.247130,2298.286494,7698.141797
1164.388032,444.123565,2987.772442,7994.224174
1164.388358,0.000000,1225.752797,8438.347739
1164.388684,-1628.453072,-229.828649,8586.388927
1164.389010,-1258.350101,0.000000,9104.533087
1164.389336,-1554.432478,153.219100,9474.636058
1164.389661,-2590.720797,-1072.533697,8956.491898
1164.389987,-1628.453072,-2757.943793,9178.553681
1164.390313,148.041188,-1378.971896,10436.903782
1164.390639,0.000000,1072.533697,11177.109724
1164.390965,296.082377,689.485948,10066.800811
1164.391291,296.082377,-1685.410096,7772.162391
1164.391617,74.020594,-1608.800546,8216.285956
1164.391943,592.164754,766.095498,10288.862594
1164.392269,592.164754,3600.648841,10732.986159
1164.392595,-148.041188,76.609550,9474.636058
1164.392921,518.144159,-4060.306139,8438.347739
1164.393247,1184.329507,-2528.115143,9844.739029
1164.393573,1480.411884,2451.505594,10584.944971
1164.393898,296.082377,2987.772442,9548.656652
1164.394224,-296.082377,-766.095498,8882.471304
1164.394550,-444.123565,-3370.820191,8882.471304
1164.394876,-592.164754,-842.705048,8364.327145
1164.395202,-1258.350101,2145.067394,7994.224174
1164.395528,-1184.329507,1608.800546,9104.533087
1164.395854,1998.556043,-2451.505594,10807.006753
1164.396180,3849.070898,-1991.848295,10658.965565
1164.396506,2146.597232,2145.067394,11843.295072
1164.396832,740.205942,3677.258390,10362.883188
1164.397158,814.226536,1762.019645,8438.347739
1164.397484,1332.370696,-2068.457845,9030.512492
1164.397810,-814.226536,-766.095498,8734.430116
1164.398136,-3923.091493,2987.772442,8290.306550
1164.398461,-3701.029710,1838.629195,8808.450710
1164.398787,-2368.659014,-3370.820191,7846.182985
1164.399113,-2146.597232,-2911.162892,9696.697840
1164.399439,-1184.329507,536.266849,10362.883188
1164.399765,-962.267725,3524.039291,9770.718434
1164.400091,296.082377,1991.848295,8734.430116
1164.400417,888.247130,-1378.971896,8660.409521
1164.400743,222.061783,689.485948,7328.038826
1164.401069,666.185348,3983.696590,6883.915261
1164.401395,740.205942,4213.525239,9252.574275
1164.401721,1924.535449,1455.581446,9474.636058
1164.402047,2812.782580,1149.143247,9400.615463
1164.402373,3997.112087,3140.991542,9622.677246
1164.402698,2368.659014,5362.668486,9474.636058
1164.403024,1776.494261,4213.525239,8808.450710
1164.403350,2442.679609,842.705048,8660.409521
1164.403676,2664.741391,612.876398,8882.471304
1164.404002,1776.494261,3294.210641,11695.253884
1164.404328,-296.082377,3753.867940,12583.501014
1164.404654,-1480.411884,1991.848295,8438.347739
1164.404980,-518.144159,-919.314598,7328.038826
1164.405306,518.144159,-766.095498,8882.471304
1164.405632,-1406.391290,4596.572988,10066.800811
1164.405958,-2072.576638,5286.058936,9178.553681
1164.406284,-2368.659014,-612.876398,8216.285956
1164.406610,-4589.276840,-4366.744339,6957.935855
1164.406935,-5329.482782,-1762.019645,7328.038826
1164.407261,-4367.215058,2451.505594,9622.677246
1164.407587,-3034.844362,1455.581446,9326.594869
1164.407913,-1554.432478,-4060.306139,9770.718434
1164.408239,518.144159,-3600.648841,11251.130318
1164.408565,518.144159,2604.724693,10658.965565
1164.408891,1332.370696,5209.449386,8882.471304
1164.409217,2812.782580,1149.143247,8882.471304
1164.409543,2886.803174,-2834.553343,7846.182985
1164.409869,814.226536,0.000000,8808.450710
1164.410195,518.144159,3370.820191,8586.388927
1164.410521,-222.061783,2068.457845,10288.862594
1164.410847,-444.123565,-3677.258390,9104.533087
1164.411172,1036.288319,-3907.087040,8882.471304
1164.411498,1850.514855,612.876398,9696.697840
1164.411824,-296.082377,2987.772442,10288.862594
1164.412150,666.185348,536.266849,10288.862594
1164.412476,1924.535449,-3140.991542,8808.450710
1164.412802,-1184.329507,-1762.019645,7994.224174
1164.413128,-2886.803174,612.876398,8438.347739
1164.413454,-2220.617826,383.047749,9474.636058
1164.413780,-1702.473667,-2681.334243,10066.800811
1164.414106,-1850.514855,-5209.449386,9992.780217
1164.414432,-518.144159,-1608.800546,10955.047942
1164.414758,0.000000,2298.286494,11843.295072
1164.415084,74.020594,1149.143247,9992.780217
1164.415409,-296.082377,-2221.676944,9030.512492
1164.415735,0.000000,-2145.067394,8364.327145
1164.416061,444.123565,1455.581446,9104.533087
1164.416387,370.102971,3447.429741,10658.965565
1164.416713,148.041188,1225.752797,9252.574275
1164.417039,222.061783,-2681.334243,8734.430116
1164.417365,1924.535449,-995.924147,9770.718434
1164.417691,2294.638420,4290.134789,10362.883188
1164.418017,1924.535449,5439.278036,8586.388927
1164.418343,1628.453072,536.266849,7254.018232
1164.418669,1332.370696,-1149.143247,8216.285956
1164.418995,444.123565,1838.629195,8660.409521
1164.419321,-1110.308913,5362.668486,8808.450710
1164.419646,-888.247130,2451.505594,8734.430116
1164.419972,-666.185348,-1838.629195,8216.285956
1164.420298,2294.638420,-1149.143247,8512.368333
1164.420624,2294.638420,4673.182538,10732.986159
1164.420950,-592.164754,6741.640382,10436.903782
1164.421276,0.000000,1608.800546,7772.162391
1164.421602,518.144159,-2068.457845,7846.182985
1164.421928,-518.144159,536.266849,9770.718434
1164.422254,-2664.741391,4366.744339,9474.636058
1164.422580,-2294.638420,3370.820191,9030.512492
1164.422906,-1110.308913,-2145.067394,9326.594869
1164.423232,222.061783,-2451.505594,9474.636058
1164.423558,962.267725,1915.238745,10140.821405
1164.423883,592.164754,5898.935335,10140.821405
1164.424209,2516.700203,3447.429741,9474.636058
1164.424535,2590.720797,0.000000,9400.615463
1164.424861,1110.308913,0.000000,8660.409521
1164.425187,-814.226536,3983.696590,8956.491898
1164.425513,0.000000,3140.991542,9474.636058
1164.425839,296.082377,0.000000,9326.594869
1164.426165,0.000000,-2528.115143,8660.409521
1164.426491,370.102971,-229.828649,9918.759623
1164.426817,74.020594,3600.648841,10436.903782
1164.427143,222.061783,2451.505594,9400.615463
1164.427469,-592.164754,-1302.362347,8808.450710
1164.427795,-740.205942,-1225.752797,8068.244768
1164.428121,-1406.391290,1378.971896,8068.244768
1164.428446,-1702.473667,2145.067394,9548.656652
1164.428772,-2812.782580,-1532.190996,9474.636058
1164.429098,-2812.782580,-4519.963438,8068.244768
1164.429424,0.000000,-2987.772442,8734.430116
1164.429750,0.000000,919.314598,11621.233289
1164.430076,-1406.391290,2451.505594,10658.965565
1164.430402,-518.144159,-1762.019645,7328.038826
1164.430728,-518.144159,-3677.258390,7846.182985
1164.431054,-740.205942,-766.095498,9252.574275
1164.431379,-1110.308913,3830.477490,9918.759623
1164.431705,-222.061783,1762.019645,9474.636058
1164.432031,518.144159,-4596.572988,9548.656652
1164.432357,1110.308913,-3600.648841,11251.130318
1164.432683,2368.659014,2987.772442,12213.398043
1164.433009,666.185348,4673.182538,10436.903782
1164.433335,1184.329507,-1225.752797,8068.244768
1164.433661,888.247130,-4903.011187,8734.430116
1164.433987,222.061783,-229.828649,9178.553681
1164.434312,-814.226536,5056.230287,9030.512492
1164.434638,-1184.329507,2451.505594,8216.285956
1164.434964,-1258.350101,-4366.744339,8364.327145
1164.435290,-888.247130,-3830.477490,9178.553681
1164.435616,296.082377,2068.457845,9844.739029
1164.435942,-222.061783,4673.182538,9548.656652
1164.436268,370.102971,0.000000,9178.553681
1164.436594,1998.556043,-2681.334243,10140.821405
1164.436920,1406.391290,1608.800546,9252.574275
1164.437245,-370.102971,4826.401637,8364.327145
1164.437571,-1480.411884,1072.533697,8364.327145
1164.437897,-148.041188,-2528.115143,8882.471304
1164.438223,740.205942,-306.438199,9326.594869
1164.438549,1924.535449,3907.087040,10288.862594
1164.438875,1554.432478,5132.839837,9474.636058
1164.439201,1480.411884,766.095498,7476.080014
1164.439527,1184.329507,-1072.533697,7105.977043
1164.439853,1110.308913,2221.676944,7402.059420
1164.440178,2146.597232,5592.497135,8290.306550
1164.440504,1406.391290,4519.963438,10140.821405
1164.440830,-444.123565,153.219100,9844.739029
1164.441156,-1110.308913,-612.876398,8586.388927
1164.441482,1110.308913,1225.752797,9696.697840
1164.441808,1628.453072,2911.162892,9992.780217
1164.442134,0.000000,2528.115143,8808.450710
1164.442460,-814.226536,612.876398,9178.553681
1164.442786,-1332.370696,306.438199,10214.842000
1164.443111,-2738.761985,0.000000,9252.574275
1164.443437,-4367.215058,383.047749,8734.430116
1164.443763,-4367.215058,229.828649,7994.224174
1164.444089,-2960.823768,229.828649,8956.491898
1164.444415,-1998.556043,-1302.362347,9844.739029
1164.444741,-814.226536,-1455.581446,11843.295072
1164.445067,-2960.823768,0.000000,10436.903782
1164.445393,-3330.926739,153.219100,8438.347739
1164.445719,-962.267725,-1532.190996,8956.491898
1164.446044,-1258.350101,-2221.676944,9252.574275
1164.446370,-3182.885551,-383.047749,9326.594869
1164.446696,-2886.803174,-689.485948,8512.368333
1164.447022,-2072.576638,-2681.334243,8438.347739
1164.447348,-1406.391290,-3370.820191,9104.533087
1164.447674,-814.226536,-1838.629195,10436.903782
1164.448000,-888.247130,459.657299,9548.656652
1164.448326,-740.205942,76.609550,9030.512492
1164.448652,-518.144159,-2298.286494,9992.780217
1164.448977,-1110.308913,-2987.772442,8660.409521
1164.449303,-2368.659014,-1532.190996,7624.121203
1164.449629,-2664.741391,-1991.848295,8956.491898
1164.449955,-3923.091493,-3294.210641,9770.718434
1164.450281,-4811.338623,-4903.011187,9030.512492
1164.450607,-3627.009116,-4903.011187,8586.388927
1164.450933,-1406.391290,-3677.258390,9474.636058
1164.451259,-1480.411884,-1991.848295,9844.739029
1164.451585,-296.082377,-1149.143247,10288.862594
1164.451910,370.102971,-1685.410096,10362.883188
1164.452236,740.205942,-1991.848295,10584.944971
1164.452562,-222.061783,-2298.286494,11103.089130
1164.452888,-1110.308913,-1762.019645,9770.718434
1164.453214,-2368.659014,-2298.286494,9400.615463
1164.453540,-2442.679609,-3294.210641,10732.986159
1164.453866,-1998.556043,-4213.525239,10732.986159
1164.454192,-3182.885551,-3064.381992,9844.739029
1164.454518,-3034.844362,-1838.629195,8364.327145
1164.454843,-1628.453072,153.219100,8068.244768
1164.455169,-666.185348,1838.629195,8660.409521
1164.455495,-740.205942,766.095498,8586.388927
1164.455821,-2516.700203,689.485948,8512.368333
1164.456147,-3923.091493,-1225.752797,7550.100608
1164.456473,-4219.173869,-2451.505594,7402.059420
1164.456799,-3701.029710,-1991.848295,8734.430116
1164.457125,-3330.926739,-2298.286494,9252.574275
1164.457451,-4515.256246,-1991.848295,10140.821405
1164.457776,-3478.967927,-2987.772442,9474.636058
1164.458102,-2368.659014,-1991.848295,9474.636058
1164.458428,-1110.308913,536.266849,8734.430116
1164.458754,0.000000,2757.943793,8660.409521
1164.459080,1480.411884,3524.039291,8882.471304
1164.459406,1036.288319,2221.676944,8956.491898
1164.459732,-1110.308913,1685.410096,8882.471304
1164.460058,-1554.432478,-689.485948,7920.203579
1164.460384,-2664.741391,-2145.067394,7772.162391
1164.460709,-2664.741391,-2911.162892,9992.780217
1164.461035,-4071.132681,-1991.848295,11473.192101
1164.461361,-4145.153275,-1149.143247,10955.047942
1164.461687,-2812.782580,-2451.505594,10510.924376
1164.462013,-1850.514855,-3064.381992,10362.883188
1164.462339,-1776.494261,0.000000,9474.636058
1164.462665,-740.205942,2451.505594,8734.430116
1164.462991,888.247130,2528.115143,8512.368333
1164.463317,666.185348,1225.752797,8808.450710
1164.463642,-592.164754,842.705048,7328.038826
1164.463968,-1480.411884,1225.752797,7624.121203
1164.464294,-1998.556043,0.000000,7920.203579
1164.464620,-2738.761985,-3983.696590,9030.512492
1164.464946,-3701.029710,-5592.497135,10140.821405
1164.465272,-4145.153275,-4136.915689,10807.006753
1164.465598,-3849.070898,-2068.457845,11177.109724
1164.465924,-1850.514855,-2911.162892,10436.903782
1164.466250,-814.226536,-2374.896044,9918.759623
1164.466575,-1332.370696,-1149.143247,8808.450710
1164.466901,-1332.370696,1991.848295,7476.080014
1164.467227,-1332.370696,919.314598,6661.853478
1164.467553,-1480.411884,-1225.752797,4737.318029
1164.467879,-2664.741391,-1149.143247,5033.400406
1164.468205,-3701.029710,-919.314598,6217.729913
1164.468531,-3552.988522,-2374.896044,8438.347739
1164.468857,-2886.803174,-4519.963438,11547.212695
1164.469183,-4219.173869,-7201.297681,13841.851115
1164.469509,-4737.318029,-7737.564530,14063.912898
1164.469834,-4145.153275,-8273.831378,13915.871710
1164.470160,-2516.700203,-7967.393179,14137.933492
1164.470486,-2220.617826,-6205.373534,12805.562797
1164.470812,-666.185348,-2757.943793,11029.068536
1164.471138,1258.350101,306.438199,9622.677246
1164.471464,1998.556043,1838.629195,8142.265362
1164.471790,1110.308913,2604.724693,6587.832884
1164.472116,0.000000,2451.505594,6069.688724
1164.472442,-1258.350101,2451.505594,5625.565159
1164.472767,-3478.967927,0.000000,6513.812290
1164.473093,-6883.915261,-3600.648841,7772.162391
1164.473419,-9770.718434,-6435.202183,8660.409521
1164.473745,-10140.821405,-8120.612279,10066.800811
1164.474071,-8068.244768,-9039.926876,12065.356855
1164.474397,-6291.750507,-7660.954980,13027.624579
1164.474723,-3775.050304,-5286.058936,12731.542202
1164.475049,0.000000,-1762.019645,11843.295072
1164.475375,3552.988522,842.705048,10584.944971
1164.475700,5033.400406,3140.991542,8438.347739
1164.476026,5847.626942,6281.983084,6883.915261
1164.476352,7624.121203,6971.469032,6661.853478
1164.476678,6809.894666,7048.078582,7105.977043
1164.477004,3256.906145,5515.887586,7772.162391
1164.477330,-888.247130,3753.867940,7772.162391
1164.477656,-3404.947333,1225.752797,8068.244768
1164.477982,-5477.523971,-1378.971896,8734.430116
1164.478308,-8290.306550,-3677.258390,9474.636058
1164.478633,-11769.274478,-4366.744339,8660.409521
1164.478959,-11325.150913,-4826.401637,8142.265362
1164.479285,-9992.780217,-4979.620737,8438.347739
1164.479611,-7920.203579,-3983.696590,8660.409521
1164.479937,-6365.771101,-1991.848295,8512.368333
1164.480263,-3627.009116,76.609550,8364.327145
1164.480589,666.185348,1302.362347,9696.697840
1164.480915,3404.947333,1455.581446,10955.047942
1164.481241,3775.050304,2068.457845,10881.027347
1164.481566,4589.276840,3447.429741,10066.800811
1164.481892,5699.585753,3600.648841,10362.883188
1164.482218,5847.626942,3140.991542,11399.171507
1164.482544,3552.988522,2681.334243,11251.130318
1164.482870,518.144159,1915.238745,9844.739029
1164.483196,-1628.453072,-1225.752797,9104.533087
1164.483522,-2516.700203,-3677.258390,8512.368333
1164.483848,-4367.215058,-4290.134789,8956.491898
1164.484174,-6439.791695,-4060.306139,8586.388927
1164.484499,-7254.018232,-4979.620737,7550.100608
1164.484825,-5477.523971,-6358.592633,8438.347739
1164.485151,-4219.173869,-5898.935335,9918.759623
1164.485477,-4441.235652,-3294.210641,9400.615463
1164.485803,-2072.576638,-1915.238745,10066.800811
1164.486129,518.144159,-2145.067394,11103.089130
1164.486455,1332.370696,-2068.457845,10510.924376
1164.486781,1628.453072,-306.438199,9178.553681
1164.487107,2516.700203,689.485948,7846.182985
1164.487432,1702.473667,842.705048,7476.080014
1164.487758,444.123565,153.219100,8142.265362
1164.488084,-666.185348,-1072.533697,8660.409521
1164.488410,-3182.885551,-919.314598,8216.285956
1164.488736,-5625.565159,-3064.381992,8512.368333
1164.489062,-7031.956449,-5669.106685,9548.656652
1164.489388,-7772.162391,-7431.126331,10214.842000
1164.489714,-9474.636058,-7431.126331,10510.924376
1164.490040,-9326.594869,-7737.564530,11177.109724
1164.490365,-8068.244768,-8044.002729,11029.068536
1164.490691,-6957.935855,-6894.859482,10807.006753
1164.491017,-4219.173869,-4060.306139,10510.924376
1164.491343,-1998.556043,-995.924147,10362.883188
1164.491669,-740.205942,842.705048,9622.677246
1164.491995,592.164754,1149.143247,8734.430116
1164.492321,2664.741391,1149.143247,8586.388927
1164.492647,3034.844362,2451.505594,8438.347739
1164.492973,592.164754,1838.629195,7920.203579
1164.493298,0.000000,0.000000,8734.430116
1164.493624,-296.082377,-1608.800546,10140.821405
1164.493950,-1110.308913,-1762.019645,11251.130318
1164.494276,-1258.350101,-1302.362347,10955.047942
1164.494602,-1258.350101,-1532.190996,10066.800811
1164.494928,-1480.411884,-2068.457845,9474.636058
1164.495254,-962.267725,-1455.581446,8734.430116
1164.495580,-296.082377,229.828649,9474.636058
1164.495906,-740.205942,1532.190996,8734.430116
1164.496231,-1480.411884,2068.457845,6735.874072
1164.496557,518.144159,1991.848295,5995.668130
1164.496883,2516.700203,2757.943793,7105.977043
1164.497209,1258.350101,4213.525239,6587.832884
1164.497535,0.000000,3524.039291,6365.771101
1164.497861,1184.329507,2068.457845,7698.141797
1164.498187,1628.453072,1072.533697,8660.409521
1164.498513,0.000000,2068.457845,9992.780217
1164.498839,-1110.308913,1378.971896,10066.800811
1164.499164,-1628.453072,76.609550,9844.739029
1164.499490,-962.267725,-1072.533697,11695.253884
1164.499816,-962.267725,-995.924147,12509.480420
1164.500142,-2442.679609,459.657299,11547.212695
1164.500468,-3256.906145,306.438199,10436.903782
1164.500794,-2886.803174,-229.828649,11029.068536
1164.501120,-2368.659014,0.000000,10140.821405
1164.501446,-3849.070898,1532.190996,9178.553681
1164.501772,-5181.441594,1149.143247,7994.224174
1164.502097,-5699.585753,-612.876398,7179.997637
1164.502423,-5921.647536,-2374.896044,7328.038826
1164.502749,-6587.832884,-2834.553343,7328.038826
1164.503075,-7254.018232,-1608.800546,6957.935855
1164.503401,-6661.853478,-2681.334243,7105.977043
1164.503727,-4737.318029,-5056.230287,7920.203579
1164.504053,-3478.967927,-4213.525239,8512.368333
1164.504379,-2738.761985,-3064.381992,8956.491898
1164.504705,-1628.453072,-2757.943793,8882.471304
1164.505030,444.123565,-3600.648841,9474.636058
1164.505356,1110.308913,-3447.429741,10658.965565
1164.505682,-444.123565,-1991.848295,9770.718434
1164.506008,-1480.411884,-2911.162892,8808.450710
1164.506334,-1702.473667,-5286.058936,9622.677246
1164.506660,-3330.926739,-6281.983084,9474.636058
1164.506986,-6217.729913,-6052.154434,8882.471304
1164.507312,-7105.977043,-6588.421283,9548.656652
1164.507638,-8142.265362,-8197.221829,9770.718434
1164.507963,-8808.450710,-9806.022374,9696.697840
1164.508289,-8364.327145,-9806.022374,10140.821405
1164.508615,-7328.038826,-8273.831378,9918.759623
1164.508941,-6069.688724,-8503.660028,9622.677246
1164.509267,-2590.720797,-8350.440928,11325.150913
1164.509593,-814.226536,-7124.688131,11769.274478
1164.509919,148.041188,-4443.353888,11029.068536
1164.510245,2590.720797,-3600.648841,11917.315666
1164.510571,5329.482782,-3524.039291,12361.439231
1164.510896,5625.565159,-2298.286494,12287.418637
1164.511222,5107.421000,-612.876398,11177.109724
1164.511548,5329.482782,0.000000,10807.006753
1164.511874,4737.318029,459.657299,10140.821405
1164.512200,4145.153275,383.047749,9622.677246
1164.512526,2590.720797,2068.457845,9030.512492
1164.512852,518.144159,2528.115143,7179.997637
1164.513178,0.000000,2451.505594,7179.997637
1164.513504,-1258.350101,1838.629195,6291.750507
1164.513829,-3108.864956,2145.067394,5921.647536
1164.514155,-4663.297435,2374.896044,5773.606348
1164.514481,-4737.318029,1608.800546,6883.915261
1164.514807,-5699.585753,1149.143247,7105.977043
1164.515133,-6217.729913,0.000000,7328.038826
1164.515459,-5921.647536,919.314598,7550.100608
1164.515785,-5329.482782,536.266849,8216.285956
1164.516111,-4219.173869,2068.457845,9400.615463
1164.516437,-1998.556043,3830.477490,9770.718434
1164.516762,-1332.370696,5132.839837,10140.821405
1164.517088,-444.123565,6052.154434,9548.656652
1164.517414,148.041188,7048.078582,8734.430116
1164.517740,814.226536,6894.859482,7994.224174
1164.518066,-592.164754,7277.907231,7402.059420
1164.518392,-1924.535449,6281.983084,8142.265362
1164.518718,-3923.091493,4213.525239,8512.368333
1164.519044,-6957.935855,995.924147,7920.203579
1164.519370,-8808.450710,-2757.943793,7624.121203
1164.519695,-8956.491898,-4519.963438,9178.553681
1164.520021,-8216.285956,-4826.401637,10881.027347
1164.520347,-7846.182985,-4903.011187,11695.253884
1164.520673,-5477.523971,-5132.839837,11991.336260
1164.520999,-1998.556043,-4749.792088,12139.377449
1164.521325,1554.432478,-1838.629195,11917.315666
1164.521651,3478.967927,1685.410096,11769.274478
1164.521977,4145.153275,2757.943793,9474.636058
1164.522303,4663.297435,1378.971896,7846.182985
1164.522628,4293.194464,-536.266849,7698.141797
1164.522954,814.226536,-1378.971896,7328.038826
1164.523280,-4071.132681,-2834.553343,5551.544565
1164.523606,-5403.503377,-6588.421283,6291.750507
1164.523932,-6069.688724,-8810.098227,8586.388927
1164.524258,-7772.162391,-9806.022374,10658.965565
1164.524584,-9252.574275,-10189.070123,10362.883188
1164.524910,-8364.327145,-12027.699319,8660.409521
1164.525236,-6365.771101,-13559.890315,10214.842000
1164.525561,-3997.112087,-11721.261119,11843.295072
1164.525887,-1702.473667,-6665.030833,10955.047942
1164.526213,1480.411884,-4903.011187,10584.944971
1164.526539,5033.400406,-5898.935335,11843.295072
1164.526865,6957.935855,-4826.401637,11991.336260
1164.527191,7698.141797,-536.266849,11473.192101
1164.527517,7328.038826,229.828649,12139.377449
1164.527843,5329.482782,-1608.800546,11991.336260
1164.528169,2738.761985,-3294.210641,11843.295072
1164.528495,1258.350101,-2451.505594,11029.068536
1164.528821,-1554.432478,-995.924147,10510.924376
1164.529147,-5477.523971,-1608.800546,9696.697840
1164.529473,-8364.327145,-4290.134789,8808.450710
1164.529799,-9548.656652,-4979.620737,7328.038826
1164.530125,-11251.130318,-4136.915689,6439.791695
1164.530451,-11843.295072,-2834.553343,5329.482782
1164.530776,-10658.965565,-2528.115143,4589.276840
1164.531102,-9474.636058,-1762.019645,5181.441594
1164.531428,-7846.182985,-995.924147,6069.688724
1164.531754,-5847.626942,0.000000,7846.182985
1164.532080,-3997.112087,459.657299,8956.491898
1164.532406,-1850.514855,1072.533697,10807.006753
1164.532732,2072.576638,3907.087040,12065.356855
1164.533058,5181.441594,5898.935335,11917.315666
1164.533384,5033.400406,7048.078582,10510.924376
1164.533710,4737.318029,7431.126331,8586.388927
1164.534036,4071.132681,6971.469032,7772.162391
1164.534362,4959.379811,8580.269578,7179.997637
1164.534688,2516.700203,9039.926876,7772.162391
1164.535014,-1850.514855,6588.421283,7624.121203
1164.535340,-5847.626942,1838.629195,6439.791695
1164.535666,-7772.162391,-3217.601092,7031.956449
1164.535992,-10362.883188,-6665.030833,8808.450710
1164.536317,-12583.501014,-6665.030833,10066.800811
1164.536643,-9844.739029,-5439.278036,11177.109724
1164.536969,-4959.379811,-4290.134789,12657.521608
1164.537295,-1258.350101,-1608.800546,13767.830521
1164.537621,1998.556043,689.485948,11029.068536
1164.537947,5107.421000,4826.401637,8808.450710
1164.538273,8882.471304,7584.345430,8290.306550
1164.538599,10214.842000,9576.193725,7698.141797
1164.538925,8290.306550,8350.440928,6365.771101
1164.539251,4367.215058,3907.087040,5329.482782
1164.539577,-518.144159,-919.314598,6143.709319
1164.539903,-4589.276840,-4673.182538,7328.038826
1164.540229,-6883.915261,-7431.126331,10955.047942
1164.540555,-7105.977043,-8733.488677,14137.933492
1164.540881,-8216.285956,-10648.727422,13471.748144
1164.541207,-7920.203579,-12487.356617,11843.295072
1164.541533,-4589.276840,-10955.165621,11177.109724
1164.541858,-222.061783,-5209.449386,11325.150913
1164.542184,2368.659014,1149.143247,11547.212695
1164.542510,4663.297435,2451.505594,9918.759623
1164.542836,5033.400406,459.657299,7624.121203
1164.543162,3627.009116,306.438199,5699.585753
1164.543488,2368.659014,1225.752797,5477.523971
1164.543814,1554.432478,1915.238745,7698.141797
1164.544140,-370.102971,-459.657299,9178.553681
1164.544466,-3034.844362,-4903.011187,10510.924376
1164.544792,-4663.297435,-6665.030833,11917.315666
1164.545118,-6365.771101,-6665.030833,12657.521608
1164.545444,-8290.306550,-6358.592633,11473.192101
1164.545770,-8808.450710,-7967.393179,11325.150913
1164.546096,-8808.450710,-8273.831378,10807.006753
1164.546422,-7920.203579,-6511.811733,9474.636058
1164.546748,-5773.606348,-4366.744339,7846.182985
1164.547074,-3701.029710,-2374.896044,7031.956449
1164.547399,-1776.494261,612.876398,7105.977043
1164.547725,1776.494261,2911.162892,6735.874072
1164.548051,4737.318029,6052.154434,8438.347739
1164.548377,4071.132681,6128.763984,9474.636058
1164.548703,2960.823768,4826.401637,9252.574275
1164.549029,2072.576638,2987.772442,8808.450710
1164.549355,1184.329507,1378.971896,9474.636058
1164.549681,-1480.411884,306.438199,10214.842000
1164.550007,-3701.029710,-383.047749,10658.965565
1164.550333,-4071.132681,-2987.772442,10140.821405
1164.550659,-2886.803174,-3064.381992,10510.924376
1164.550985,-1480.411884,-1378.971896,9696.697840
1164.551311,-1332.370696,2451.505594,9770.718434
1164.551637,-666.185348,4903.011187,8956.491898
1164.551963,2072.576638,3983.696590,8512.368333
1164.552289,3775.050304,2451.505594,7624.121203
1164.552615,1850.514855,3217.601092,7476.080014
1164.552941,-740.205942,7354.516781,9326.594869
1164.553266,3034.844362,5592.497135,8808.450710
1164.553592,4293.194464,3447.429741,8882.471304
1164.553918,3849.070898,1762.019645,8438.347739
1164.554244,2590.720797,4979.620737,9474.636058
1164.554570,3627.009116,7584.345430,8438.347739
1164.554896,2368.659014,4136.915689,10288.862594
1164.555222,592.164754,-1685.410096,8142.265362
1164.555548,296.082377,-1608.800546,6735.874072
1164.555874,1480.411884,3140.991542,8364.327145
1164.556200,3034.844362,4519.963438,9992.780217
1164.556526,2294.638420,3830.477490,11177.109724
1164.556852,3849.070898,1072.533697,9918.759623
1164.557178,3923.091493,1608.800546,9030.512492
1164.557504,5551.544565,5669.106685,9548.656652
1164.557830,4959.379811,6894.859482,9918.759623
1164.558156,3330.926739,4443.353888,7994.224174
1164.558482,1628.453072,1455.581446,7105.977043
1164.558807,592.164754,1149.143247,8660.409521
1164.559133,-370.102971,2451.505594,9030.512492
1164.559459,-2516.700203,1378.971896,8734.430116
1164.559785,-3182.885551,-2221.676944,10214.842000
1164.560111,-3552.988522,-2834.553343,11621.233289
1164.560437,-3997.112087,-1225.752797,11547.212695
1164.560763,-5625.565159,-1455.581446,9474.636058
1164.561089,-5995.668130,-4290.134789,6439.791695
1164.561415,-5699.585753,-5056.230287,6957.935855
1164.561741,-5033.400406,-3524.039291,10066.800811
1164.562067,-4737.318029,0.000000,11621.233289
1164.562393,-3256.906145,-842.705048,11029.068536
1164.562719,-1480.411884,-4060.306139,10140.821405
1164.563045,444.123565,-3830.477490,9474.636058
1164.563371,2368.659014,1608.800546,9326.594869
1164.563697,2072.576638,3677.258390,10362.883188
1164.564023,0.000000,383.047749,8734.430116
1164.564348,-740.205942,-3217.601092,6587.832884
1164.564674,0.000000,-3447.429741,7254.018232
1164.565000,-1036.288319,536.266849,9400.615463
1164.565326,-2738.761985,1608.800546,9104.533087
1164.565652,-1924.535449,-3370.820191,9326.594869
1164.565978,148.041188,-7048.078582,10140.821405
1164.566304,-962.267725,-4596.572988,10807.006753
1164.566630,-1850.514855,0.000000,10732.986159
1164.566956,444.123565,153.219100,9992.780217
1164.567282,888.247130,-3217.601092,10732.986159
1164.567608,-740.205942,-3753.867940,10362.883188
1164.567934,-296.082377,306.438199,10066.800811
1164.568260,1258.350101,3600.648841,10066.800811
1164.568586,1628.453072,766.095498,8660.409521
1164.568912,2442.679609,0.000000,8512.368333
1164.569238,3923.091493,2834.553343,8956.491898
1164.569564,2294.638420,5975.544884,9844.739029
1164.569889,740.205942,3753.867940,8808.450710
1164.570215,962.267725,-383.047749,8068.244768
1164.570541,888.247130,-1762.019645,8956.491898
1164.570867,-370.102971,1532.190996,9622.677246
1164.571193,-1184.329507,2757.943793,10288.862594
1164.571519,-518.144159,-383.047749,10288.862594
1164.571845,1036.288319,-1838.629195,9918.759623
1164.572171,3701.029710,1532.190996,9400.615463
1164.572497,5033.400406,7354.516781,8586.388927
1164.572823,4145.153275,9039.926876,8734.430116
1164.573149,3330.926739,6052.154434,8068.244768
1164.573475,4441.235652,4136.915689,6439.791695
1164.573801,3923.091493,5132.839837,7105.977043
1164.574127,1332.370696,7354.516781,8660.409521
1164.574453,-666.185348,6741.640382,8808.450710
1164.574779,-444.123565,2068.457845,8216.285956
1164.575105,444.123565,-1915.238745,9178.553681
1164.575430,-1628.453072,612.876398,10140.821405
1164.575756,-4441.235652,3753.867940,8956.491898
1164.576082,-5033.400406,2145.067394,8586.388927
1164.576408,-3404.947333,-1991.848295,8956.491898
1164.576734,-3849.070898,-1685.410096,9622.677246
1164.577060,-3849.070898,995.924147,8438.347739
1164.577386,-2516.700203,2987.772442,7920.203579
1164.577712,962.267725,2145.067394,8882.471304
1164.578038,3182.885551,1685.410096,10955.047942
1164.578364,2812.782580,3217.601092,11325.150913
1164.578690,1628.453072,4290.134789,10066.800811
1164.579016,1628.453072,2298.286494,8216.285956
1164.579342,1998.556043,-1378.971896,7328.038826
1164.579668,0.000000,-1225.752797,8364.327145
