#time,accel_x,accel_y,accel_z
1021.755779,370.102971,2451.505594,8068.244768
1021.756105,740.205942,1225.752797,9548.656652
1021.756431,-1332.370696,995.924147,9548.656652
1021.756757,-1850.514855,459.657299,9326.594869
1021.757082,-814.226536,0.000000,10140.821405
1021.757408,-296.082377,-459.657299,10807.006753
1021.757734,-444.123565,0.000000,10436.903782
1021.758060,-370.102971,536.266849,10140.821405
1021.758386,666.185348,0.000000,9918.759623
1021.758712,2516.700203,153.219100,10584.944971
1021.759038,2738.761985,383.047749,10732.986159
1021.759364,2368.659014,536.266849,9474.636058
1021.759690,2960.823768,76.609550,8956.491898
1021.760016,2960.823768,76.609550,9918.759623
1021.760342,1776.494261,0.000000,9770.718434
1021.760668,518.144159,-459.657299,9326.594869
1021.760994,2516.700203,-612.876398,9992.780217
1021.761320,3701.029710,-459.657299,10214.842000
1021.761646,3775.050304,842.705048,10436.903782
1021.761971,3849.070898,1302.362347,10658.965565
1021.762297,3330.926739,306.438199,9622.677246
1021.762623,3701.029710,689.485948,9548.656652
1021.762949,2960.823768,306.438199,9844.739029
1021.763275,2220.617826,1378.971896,9622.677246
1021.763601,1554.432478,1991.848295,10436.903782
1021.763927,2294.638420,842.705048,10955.047942
1021.764253,2146.597232,0.000000,10584.944971
1021.764579,1702.473667,0.000000,9992.780217
1021.764905,1702.473667,2757.943793,8660.409521
1021.765231,2590.720797,3753.867940,8142.265362
1021.765557,2738.761985,4136.915689,8142.265362
1021.765883,2886.803174,5286.058936,8142.265362
1021.766209,3404.947333,6894.859482,7624.121203
1021.766535,4219.173869,7354.516781,7328.038826
1021.766861,4589.276840,6818.249932,8068.244768
1021.767186,4145.153275,7354.516781,8364.327145
1021.767512,3701.029710,7507.735880,8660.409521
1021.767838,4737.318029,7048.078582,9104.533087
1021.768164,5033.400406,6818.249932,9622.677246
1021.768490,4219.173869,7048.078582,9474.636058
1021.768816,3775.050304,7967.393179,8808.450710
1021.769142,4589.276840,8503.660028,9104.533087
1021.769468,4515.256246,7814.174080,8660.409521
1021.769794,3330.926739,7967.393179,8068.244768
1021.770120,3478.967927,8503.660028,7772.162391
1021.770446,3256.906145,8197.221829,7550.100608
1021.770772,2812.782580,7507.735880,8216.285956
1021.771098,888.247130,5669.106685,7920.203579
1021.771424,-444.123565,5439.278036,8364.327145
1021.771750,-1036.288319,4979.620737,7994.224174
1021.772076,-1702.473667,3140.991542,8438.347739
1021.772401,-2664.741391,1915.238745,8882.471304
1021.772727,-3923.091493,2068.457845,8142.265362
1021.773053,-3182.885551,1762.019645,8512.368333
1021.773379,-2072.576638,689.485948,8882.471304
1021.773705,-1110.308913,689.485948,9474.636058
1021.774031,148.041188,1838.629195,9696.697840
1021.774357,2368.659014,2374.896044,10288.862594
1021.774683,3478.967927,1991.848295,10658.965565
1021.775009,3997.112087,612.876398,11325.150913
1021.775335,2812.782580,0.000000,11621.233289
1021.775661,2516.700203,-459.657299,11769.274478
1021.775987,2812.782580,-1915.238745,12213.398043
1021.776313,1036.288319,-3677.258390,12435.459826
1021.776639,0.000000,-4366.744339,11917.315666
1021.776965,-666.185348,-4673.182538,9992.780217
1021.777291,0.000000,-4136.915689,9400.615463
1021.777617,0.000000,-3524.039291,7994.224174
1021.777943,-148.041188,-1915.238745,6143.709319
1021.778269,296.082377,-536.266849,4885.359217
1021.778595,740.205942,0.000000,4737.318029
1021.778922,0.000000,-766.095498,5625.565159
1021.779248,-1406.391290,-1991.848295,6513.812290
1021.779574,-3478.967927,-3524.039291,8068.244768
1021.779900,-4145.153275,-5898.935335,10584.944971
1021.780227,-4737.318029,-7660.954980,12879.583391
1021.780553,-5551.544565,-8810.098227,14285.974681
1021.780879,-5181.441594,-8656.879127,14804.118840
1021.781205,-3997.112087,-8350.440928,15174.221811
1021.781532,-1628.453072,-7354.516781,14656.077652
1021.781858,740.205942,-3983.696590,13027.624579
1021.782184,3256.906145,0.000000,10436.903782
1021.782510,6291.750507,3830.477490,8216.285956
1021.782837,8734.430116,6205.373534,7105.977043
1021.783163,8438.347739,7584.345430,5773.606348
1021.783489,6809.894666,8503.660028,4811.338623
1021.783815,5255.462188,7048.078582,5477.523971
1021.784142,3775.050304,4903.011187,7920.203579
1021.784468,444.123565,3294.210641,9844.739029
1021.784794,-2442.679609,1762.019645,11103.089130
1021.785120,-3775.050304,-536.266849,11917.315666
1021.785447,-4811.338623,-1608.800546,11843.295072
1021.785773,-5329.482782,-1225.752797,12213.398043
1021.786099,-4737.318029,766.095498,10658.965565
1021.786425,-1776.494261,3370.820191,7698.141797
1021.786752,1258.350101,5669.106685,6291.750507
1021.787078,3182.885551,8503.660028,4219.173869
1021.787404,3256.906145,11797.870669,1998.556043
1021.787730,3627.009116,12870.404366,740.205942
1021.788057,3775.050304,10648.727422,2072.576638
1021.788383,1850.514855,9193.145976,3997.112087
1021.788709,-1850.514855,7201.297681,6587.832884
1021.789035,-4219.173869,3983.696590,9030.512492
1021.789362,-5551.544565,0.000000,11695.253884
1021.789688,-7105.977043,-3830.477490,14285.974681
1021.790014,-7624.121203,-4366.744339,15914.427753
1021.790340,-7624.121203,-3447.429741,15322.262999
1021.790667,-3923.091493,-3447.429741,15248.242405
1021.790993,-296.082377,-2221.676944,14508.036463
1021.791319,2220.617826,1072.533697,11621.233289
1021.791645,4885.359217,5132.839837,8512.368333
1021.791972,8216.285956,7660.954980,6735.874072
1021.792298,9696.697840,7660.954980,5625.565159
1021.792624,9178.553681,7048.078582,5403.503377
1021.792950,7550.100608,6128.763984,5477.523971
1021.793276,5033.400406,4366.744339,6883.915261
1021.793603,2294.638420,383.047749,8956.491898
1021.793929,-444.123565,-3370.820191,11103.089130
1021.794255,-4663.297435,-5898.935335,11251.130318
1021.794581,-6735.874072,-8350.440928,10732.986159
1021.794908,-6513.812290,-8580.269578,10584.944971
1021.795234,-5847.626942,-8120.612279,10140.821405
1021.795560,-4959.379811,-5362.668486,9178.553681
1021.795886,-3108.864956,-2681.334243,7698.141797
1021.796213,-370.102971,-1455.581446,6957.935855
1021.796539,296.082377,-383.047749,6365.771101
1021.796865,1406.391290,0.000000,6513.812290
1021.797191,1850.514855,0.000000,6587.832884
1021.797518,1110.308913,-1455.581446,8216.285956
1021.797844,74.020594,-3753.867940,11177.109724
1021.798170,-296.082377,-4979.620737,13545.768739
1021.798496,-1776.494261,-5669.106685,15100.201217
1021.798823,-3182.885551,-6818.249932,16062.468941
1021.799149,-2960.823768,-7890.783629,15692.365970
1021.799475,-2072.576638,-7354.516781,15026.180623
1021.799801,-666.185348,-5209.449386,13249.686362
1021.800128,962.267725,-1608.800546,10881.027347
1021.800454,2368.659014,1072.533697,8882.471304
1021.800780,3552.988522,2987.772442,6883.915261
1021.801106,4589.276840,4749.792088,5329.482782
1021.801433,4367.215058,5975.544884,5033.400406
1021.801759,2072.576638,5362.668486,5477.523971
1021.802085,1110.308913,3907.087040,6365.771101
1021.802411,0.000000,1915.238745,7476.080014
1021.802738,-1480.411884,689.485948,8956.491898
1021.803064,-4441.235652,-459.657299,8660.409521
1021.803390,-5477.523971,-1455.581446,9030.512492
1021.803716,-4441.235652,-1838.629195,8660.409521
1021.804043,-2516.700203,383.047749,7920.203579
1021.804369,-1480.411884,3217.601092,7328.038826
1021.804695,0.000000,5132.839837,6069.688724
1021.805021,1258.350101,6128.763984,4663.297435
1021.805348,2146.597232,7124.688131,5255.462188
1021.805674,2220.617826,7354.516781,6291.750507
1021.806000,444.123565,7354.516781,7254.018232
1021.806326,-148.041188,4903.011187,9696.697840
1021.806652,-444.123565,1991.848295,12361.439231
1021.806979,-1776.494261,153.219100,14359.995275
1021.807305,-3701.029710,-995.924147,15100.201217
1021.807631,-3775.050304,-1915.238745,14656.077652
1021.807957,-1998.556043,-2451.505594,14211.954086
1021.808284,518.144159,-766.095498,13767.830521
1021.808610,1480.411884,1991.848295,11103.089130
1021.808936,3256.906145,4443.353888,8142.265362
1021.809262,5255.462188,5362.668486,6661.853478
1021.809589,7179.997637,6741.640382,6291.750507
1021.809915,6587.832884,8503.660028,5255.462188
1021.810241,5329.482782,8120.612279,5403.503377
1021.810567,4737.318029,4826.401637,5921.647536
1021.810894,3552.988522,612.876398,8068.244768
1021.811220,296.082377,-306.438199,10362.883188
1021.811546,-2664.741391,-1149.143247,10584.944971
1021.811872,-3997.112087,-3217.601092,11251.130318
1021.812199,-3404.947333,-5669.106685,10881.027347
1021.812525,-3108.864956,-5209.449386,9622.677246
1021.812851,-2442.679609,-1838.629195,7254.018232
1021.813177,-592.164754,1455.581446,6143.709319
1021.813504,1776.494261,1915.238745,5329.482782
1021.813830,3182.885551,2298.286494,5329.482782
1021.814156,2368.659014,3830.477490,5329.482782
1021.814482,1850.514855,3983.696590,5551.544565
1021.814809,1258.350101,1685.410096,7772.162391
1021.815135,-444.123565,-1608.800546,10362.883188
1021.815461,-3701.029710,-4979.620737,13101.645173
1021.815787,-5551.544565,-6128.763984,14952.160028
1021.816114,-6513.812290,-8963.317327,16802.674883
1021.816440,-6365.771101,-10418.898773,17468.860231
1021.816766,-6661.853478,-9422.974625,15988.448347
1021.817092,-4811.338623,-6358.592633,14137.933492
1021.817419,-740.205942,-3753.867940,11843.295072
1021.817745,2664.741391,-536.266849,10066.800811
1021.818071,5033.400406,3217.601092,8068.244768
1021.818397,5255.462188,5898.935335,5181.441594
1021.818724,6365.771101,6665.030833,3627.009116
1021.819050,6365.771101,5515.887586,4737.318029
1021.819376,4441.235652,4443.353888,5995.668130
1021.819702,1702.473667,3677.258390,7402.059420
1021.820028,-444.123565,842.705048,8734.430116
1021.820355,-2590.720797,-2757.943793,9844.739029
1021.820681,-4959.379811,-4979.620737,10510.924376
1021.821007,-5847.626942,-4136.915689,9918.759623
1021.821333,-4811.338623,-2145.067394,9252.574275
1021.821660,-2886.803174,-383.047749,8512.368333
1021.821986,-518.144159,1378.971896,7772.162391
1021.822312,962.267725,4519.963438,6143.709319
1021.822638,2516.700203,6588.421283,5033.400406
1021.822965,3849.070898,6894.859482,4589.276840
1021.823291,3552.988522,5669.106685,6439.791695
1021.823617,1776.494261,4673.182538,7994.224174
1021.823943,666.185348,2911.162892,10362.883188
1021.824270,-518.144159,76.609550,13027.624579
1021.824596,-2738.761985,-2528.115143,15248.242405
1021.824922,-4737.318029,-4060.306139,14804.118840
1021.825248,-4219.173869,-4213.525239,14952.160028
1021.825575,-2072.576638,-3370.820191,15322.262999
1021.825901,-148.041188,-1149.143247,14137.933492
1021.826227,1480.411884,1685.410096,11325.150913
1021.826553,4145.153275,4979.620737,7994.224174
1021.826880,6957.935855,7431.126331,6069.688724
1021.827206,8512.368333,8656.879127,5181.441594
1021.827532,6809.894666,9499.584175,3923.091493
1021.827858,5403.503377,8886.707777,3775.050304
1021.828185,4589.276840,5822.325785,5329.482782
1021.828511,2442.679609,3370.820191,7254.018232
1021.828837,-962.267725,1225.752797,8438.347739
1021.829163,-3923.091493,0.000000,8882.471304
1021.829490,-4885.359217,-3294.210641,8660.409521
1021.829816,-4219.173869,-4136.915689,9400.615463
1021.830142,-3330.926739,-2068.457845,9178.553681
1021.830468,-2886.803174,1455.581446,7328.038826
1021.830795,-518.144159,3140.991542,6069.688724
1021.831121,2146.597232,2987.772442,6217.729913
1021.831447,1702.473667,4673.182538,6143.709319
1021.831773,-518.144159,5132.839837,5625.565159
1021.832100,0.000000,3370.820191,7254.018232
1021.832426,-962.267725,-459.657299,10584.944971
1021.832752,-3627.009116,-3370.820191,13767.830521
1021.833078,-5847.626942,-4673.182538,15322.262999
1021.833404,-6735.874072,-6894.859482,16654.633695
1021.833731,-6809.894666,-9269.755526,17320.819043
1021.834057,-5107.421000,-9269.755526,17690.922014
1021.834383,-3256.906145,-6052.154434,16062.468941
1021.834709,-370.102971,-2145.067394,12805.562797
1021.835036,3108.864956,0.000000,10584.944971
1021.835362,6143.709319,1608.800546,8512.368333
1021.835688,6217.729913,4979.620737,6069.688724
1021.836014,6809.894666,7507.735880,3701.029710
1021.836341,7328.038826,5975.544884,3627.009116
1021.836667,5107.421000,3753.867940,4737.318029
1021.836993,2072.576638,1838.629195,6217.729913
1021.837319,-370.102971,306.438199,7846.182985
1021.837646,-2146.597232,-2451.505594,9548.656652
1021.837972,-4737.318029,-5362.668486,10066.800811
1021.838298,-5181.441594,-5975.544884,9918.759623
1021.838624,-4145.153275,-3753.867940,8956.491898
1021.838951,-2368.659014,-1378.971896,7550.100608
1021.839277,148.041188,306.438199,6809.894666
1021.839603,1406.391290,2374.896044,5329.482782
1021.839929,1998.556043,5439.278036,4663.297435
1021.840256,3330.926739,6435.202183,4811.338623
1021.840582,3256.906145,5056.230287,6069.688724
1021.840908,814.226536,2451.505594,8068.244768
1021.841234,-1036.288319,919.314598,10584.944971
1021.841561,-2072.576638,-536.266849,13841.851115
1021.841887,-3701.029710,-3753.867940,16506.592507
1021.842213,-5329.482782,-6281.983084,17838.963202
1021.842539,-5477.523971,-6435.202183,17172.777854
1021.842866,-3849.070898,-4519.963438,15840.407159
1021.843192,-666.185348,-2298.286494,14211.954086
1021.843518,1184.329507,1302.362347,12139.377449
1021.843844,2886.803174,4060.306139,8956.491898
1021.844171,5847.626942,6971.469032,6069.688724
1021.844497,7254.018232,8733.488677,4515.256246
1021.844823,6291.750507,9422.974625,2960.823768
1021.845149,5033.400406,8886.707777,2368.659014
1021.845476,3997.112087,7890.783629,3627.009116
1021.845802,1554.432478,4903.011187,5995.668130
1021.846128,-666.185348,2068.457845,8438.347739
1021.846454,-3775.050304,-229.828649,9400.615463
1021.846780,-5181.441594,-1685.410096,9326.594869
1021.847107,-4959.379811,-2987.772442,9548.656652
1021.847433,-3627.009116,-3524.039291,9696.697840
1021.847759,-3849.070898,-689.485948,8142.265362
1021.848085,-2072.576638,2221.676944,7031.956449
1021.848412,444.123565,3524.039291,6513.812290
1021.848738,1628.453072,4749.792088,5699.585753
1021.849064,1184.329507,4596.572988,4885.359217
1021.849390,1184.329507,3830.477490,6143.709319
1021.849717,962.267725,2374.896044,9104.533087
1021.850043,-518.144159,-153.219100,11769.274478
1021.850369,-2368.659014,-2374.896044,14434.015869
1021.850695,-3330.926739,-5669.106685,15988.448347
1021.851022,-4737.318029,-7124.688131,17098.757260
1021.851348,-4515.256246,-8044.002729,17764.942608
1021.851674,-3330.926739,-7201.297681,17098.757260
1021.852000,-1480.411884,-4673.182538,14656.077652
1021.852327,1628.453072,-2604.724693,12139.377449
1021.852653,4441.235652,919.314598,9400.615463
1021.852979,5107.421000,3677.258390,6291.750507
1021.853305,6069.688724,5669.106685,4145.153275
1021.853632,6809.894666,6281.983084,3478.967927
1021.853958,6143.709319,6052.154434,3552.988522
1021.854284,4515.256246,3983.696590,4367.215058
1021.854610,1628.453072,2298.286494,5107.421000
1021.854937,-222.061783,153.219100,7254.018232
1021.855263,-2664.741391,-2911.162892,9548.656652
1021.855589,-5403.503377,-4749.792088,9770.718434
1021.855915,-6365.771101,-5286.058936,9252.574275
1021.856242,-4663.297435,-4903.011187,9474.636058
1021.856568,-2368.659014,-3064.381992,8808.450710
1021.856894,-1628.453072,153.219100,7698.141797
1021.857220,0.000000,2451.505594,6809.894666
1021.857547,1776.494261,3677.258390,6217.729913
1021.857873,2368.659014,3677.258390,7105.977043
1021.858199,1554.432478,3370.820191,8364.327145
1021.858525,222.061783,2681.334243,10066.800811
1021.858852,148.041188,229.828649,12509.480420
1021.859178,-1036.288319,-2374.896044,15174.221811
1021.859504,-3182.885551,-4290.134789,17098.757260
1021.859830,-5403.503377,-5898.935335,17098.757260
1021.860156,-4737.318029,-6205.373534,16580.613101
1021.860483,-2072.576638,-5592.497135,15840.407159
1021.860809,-296.082377,-2451.505594,13989.892304
1021.861135,1332.370696,1302.362347,10732.986159
1021.861461,3923.091493,4903.011187,7920.203579
1021.861788,6069.688724,6128.763984,5551.544565
1021.862114,6439.791695,7814.174080,4219.173869
1021.862440,5625.565159,8886.707777,2590.720797
1021.862766,4959.379811,9346.365076,2516.700203
1021.863093,4145.153275,6894.859482,3997.112087
1021.863419,1998.556043,3753.867940,6365.771101
1021.863745,-2664.741391,919.314598,7254.018232
1021.864071,-5255.462188,-766.095498,7846.182985
1021.864398,-5773.606348,-2757.943793,8142.265362
1021.864724,-4885.359217,-3983.696590,9030.512492
1021.865050,-5181.441594,-2374.896044,7920.203579
1021.865376,-2960.823768,229.828649,6661.853478
1021.865703,518.144159,3370.820191,6809.894666
1021.866029,2294.638420,4366.744339,6217.729913
1021.866355,2072.576638,5515.887586,5773.606348
1021.866681,2960.823768,6511.811733,5477.523971
1021.867008,3404.947333,4979.620737,7772.162391
1021.867334,1924.535449,2757.943793,10584.944971
1021.867660,-370.102971,229.828649,13767.830521
1021.867986,-2886.803174,-2834.553343,15544.324782
1021.868313,-4071.132681,-5439.278036,17098.757260
1021.868639,-4885.359217,-8197.221829,17912.983796
1021.868965,-4737.318029,-8044.002729,17690.922014
1021.869291,-3775.050304,-5592.497135,16062.468941
1021.869618,-222.061783,-2757.943793,13841.851115
1021.869944,3108.864956,0.000000,11399.171507
1021.870270,4811.338623,3753.867940,8438.347739
1021.870596,6809.894666,6511.811733,5329.482782
1021.870923,7994.224174,8044.002729,2738.761985
1021.871249,8068.244768,7354.516781,3182.885551
1021.871575,6291.750507,6818.249932,3775.050304
1021.871901,3034.844362,5056.230287,4515.256246
1021.872228,518.144159,1532.190996,6439.791695
1021.872554,-1480.411884,-2757.943793,8734.430116
1021.872880,-4811.338623,-4826.401637,9474.636058
1021.873206,-6957.935855,-4596.572988,9326.594869
1021.873532,-5995.668130,-4979.620737,8956.491898
1021.873859,-3775.050304,-4213.525239,8956.491898
1021.874185,-2072.576638,-1762.019645,8290.306550
1021.874511,-666.185348,1762.019645,7105.977043
1021.874837,1184.329507,4290.134789,5329.482782
1021.875164,3256.906145,4979.620737,4959.379811
1021.875490,3478.967927,4596.572988,6217.729913
1021.875816,1850.514855,4366.744339,8290.306550
1021.876142,-370.102971,2145.067394,10436.903782
1021.876469,-1110.308913,-2145.067394,13767.830521
1021.876795,-3108.864956,-5592.497135,16432.571912
1021.877121,-5995.668130,-7124.688131,17764.942608
1021.877447,-6513.812290,-7048.078582,16654.633695
1021.877774,-4293.194464,-6818.249932,16728.654289
1021.878100,-2664.741391,-5745.716235,15544.324782
1021.878426,-222.061783,-1991.848295,13249.686362
1021.878752,2220.617826,3064.381992,9474.636058
1021.879078,5773.606348,6052.154434,6587.832884
1021.879404,7328.038826,7354.516781,4885.359217
1021.879730,7105.977043,8427.050478,2886.803174
1021.880056,5329.482782,8656.879127,1776.494261
1021.880382,4293.194464,7507.735880,2146.597232
1021.880708,2516.700203,4749.792088,4811.338623
1021.881034,-888.247130,1455.581446,7476.080014
1021.881360,-4441.235652,-1378.971896,8438.347739
1021.881686,-6069.688724,-2987.772442,9104.533087
1021.882013,-5625.565159,-4213.525239,9474.636058
1021.882339,-4737.318029,-2757.943793,9622.677246
1021.882665,-3478.967927,-459.657299,8364.327145
1021.882991,-814.226536,2298.286494,7105.977043
1021.883317,2072.576638,3447.429741,7105.977043
1021.883643,2886.803174,4903.011187,6291.750507
1021.883969,2220.617826,6971.469032,5773.606348
1021.884295,2886.803174,6511.811733,6661.853478
1021.884621,2664.741391,3830.477490,9474.636058
1021.884947,666.185348,919.314598,12805.562797
1021.885273,-2368.659014,-1838.629195,14656.077652
1021.885599,-3997.112087,-4443.353888,16136.489536
1021.885925,-4663.297435,-6818.249932,16950.716072
1021.886251,-4737.318029,-8120.612279,17542.880825
1021.886577,-3404.947333,-6741.640382,16728.654289
1021.886903,-1258.350101,-2911.162892,13841.851115
1021.887229,1924.535449,306.438199,11621.233289
1021.887555,4737.318029,2681.334243,9104.533087
1021.887881,5255.462188,5592.497135,5995.668130
1021.888207,5551.544565,7737.564530,3330.926739
1021.888533,6661.853478,7354.516781,2738.761985
1021.888859,5625.565159,6052.154434,3552.988522
1021.889185,2812.782580,4213.525239,3775.050304
1021.889511,0.000000,2911.162892,5329.482782
1021.889837,-1702.473667,-306.438199,7476.080014
1021.890163,-4441.235652,-3830.477490,8956.491898
1021.890489,-5625.565159,-4979.620737,9844.739029
1021.890815,-5403.503377,-4060.306139,9400.615463
1021.891141,-4145.153275,-2451.505594,7698.141797
1021.891467,-1184.329507,-1991.848295,8068.244768
1021.891794,296.082377,1302.362347,7402.059420
1021.892120,740.205942,3600.648841,6069.688724
1021.892446,2146.597232,5286.058936,5329.482782
1021.892772,2590.720797,4290.134789,6217.729913
1021.893098,1406.391290,3600.648841,8290.306550
1021.893424,222.061783,1608.800546,10362.883188
1021.893750,-1628.453072,-153.219100,13101.645173
1021.894076,-3330.926739,-3983.696590,15840.407159
1021.894402,-5255.462188,-6971.469032,17912.983796
1021.894728,-5995.668130,-7660.954980,17690.922014
1021.895054,-4293.194464,-7277.907231,16950.716072
1021.895380,-2442.679609,-5362.668486,16432.571912
1021.895706,222.061783,-3370.820191,13915.871710
1021.896032,2072.576638,1378.971896,10362.883188
1021.896358,4737.318029,4213.525239,7476.080014
1021.896684,6365.771101,6511.811733,4885.359217
1021.897010,6143.709319,7354.516781,3552.988522
1021.897336,5477.523971,7277.907231,2738.761985
1021.897662,3997.112087,6358.592633,3849.070898
1021.897988,2516.700203,4826.401637,5847.626942
1021.898314,0.000000,1685.410096,7994.224174
1021.898640,-2294.638420,-1225.752797,9474.636058
1021.898966,-4367.215058,-3447.429741,8956.491898
1021.899292,-3997.112087,-4060.306139,9622.677246
1021.899618,-3256.906145,-2451.505594,9622.677246
1021.899944,-2294.638420,-383.047749,8142.265362
1021.900270,0.000000,2604.724693,6809.894666
1021.900596,1850.514855,3753.867940,5773.606348
1021.900922,2368.659014,5132.839837,5181.441594
1021.901249,1924.535449,6358.592633,4145.153275
1021.901575,2072.576638,5669.106685,4737.318029
1021.901901,1332.370696,3753.867940,8068.244768
1021.902227,-222.061783,1532.190996,10955.047942
1021.902553,-2812.782580,-919.314598,13397.727550
1021.902879,-4515.256246,-4060.306139,15470.304188
1021.903205,-4885.359217,-6971.469032,16950.716072
1021.903531,-5107.421000,-7354.516781,17024.736666
1021.903857,-4219.173869,-6052.154434,16580.613101
1021.904183,-2516.700203,-3524.039291,15100.201217
1021.904509,370.102971,-1149.143247,12509.480420
1021.904835,3404.947333,1762.019645,9104.533087
1021.905161,4737.318029,4826.401637,6883.915261
1021.905487,5181.441594,6741.640382,4071.132681
1021.905813,5921.647536,7890.783629,2812.782580
1021.906139,5847.626942,7201.297681,4219.173869
1021.906465,4071.132681,5439.278036,4885.359217
1021.906791,1998.556043,3677.258390,6661.853478
1021.907117,888.247130,842.705048,8438.347739
1021.907443,-1554.432478,-1685.410096,9400.615463
1021.907769,-3627.009116,-3907.087040,10140.821405
1021.908095,-4293.194464,-3830.477490,9918.759623
1021.908421,-3330.926739,-2604.724693,9252.574275
1021.908747,-1480.411884,-1225.752797,7402.059420
1021.909073,-592.164754,1149.143247,6661.853478
1021.909399,74.020594,3753.867940,5329.482782
1021.909725,1332.370696,5669.106685,5033.400406
1021.910051,2220.617826,4290.134789,5773.606348
1021.910377,962.267725,2834.553343,7105.977043
1021.910703,-814.226536,1838.629195,9326.594869
1021.911030,-1332.370696,-229.828649,11917.315666
1021.911356,-2442.679609,-3140.991542,15100.201217
1021.911682,-4589.276840,-6128.763984,17172.777854
1021.912008,-5625.565159,-7660.954980,17542.880825
1021.912334,-4441.235652,-7354.516781,17320.819043
1021.912660,-2368.659014,-6588.421283,16876.695478
1021.912986,-888.247130,-3983.696590,14508.036463
1021.913312,962.267725,-229.828649,11251.130318
1021.913638,4145.153275,2757.943793,8142.265362
1021.913964,5847.626942,4903.011187,6365.771101
1021.914290,5995.668130,6588.421283,4071.132681
1021.914616,5847.626942,7660.954980,3552.988522
1021.914942,5255.462188,6511.811733,3478.967927
1021.915268,3997.112087,4290.134789,5033.400406
1021.915594,1480.411884,2068.457845,7105.977043
1021.915920,-1702.473667,76.609550,7920.203579
1021.916246,-3923.091493,-1915.238745,8438.347739
1021.916572,-4071.132681,-3983.696590,9474.636058
1021.916898,-3552.988522,-3370.820191,9104.533087
1021.917224,-3775.050304,-1302.362347,7402.059420
1021.917550,-2442.679609,536.266849,6069.688724
1021.917876,370.102971,2681.334243,6069.688724
1021.918202,1850.514855,4519.963438,6143.709319
1021.918528,1554.432478,5975.544884,5403.503377
1021.918854,1184.329507,6511.811733,4737.318029
1021.919180,1998.556043,3600.648841,7476.080014
1021.919506,1036.288319,1455.581446,10955.047942
1021.919832,-1924.535449,-229.828649,13545.768739
1021.920158,-3997.112087,-2681.334243,15988.448347
1021.920484,-4293.194464,-5975.544884,17764.942608
1021.920811,-4145.153275,-7967.393179,18135.045579
1021.921137,-4219.173869,-6971.469032,17542.880825
1021.921463,-2590.720797,-2911.162892,15840.407159
1021.921789,962.267725,-612.876398,13101.645173
1021.922115,3478.967927,1608.800546,10510.924376
1021.922441,5625.565159,4519.963438,8068.244768
1021.922767,6217.729913,7967.393179,5403.503377
1021.923093,6957.935855,9499.584175,3330.926739
1021.923419,7179.997637,7890.783629,3552.988522
1021.923745,5625.565159,6511.811733,4219.173869
1021.924071,2516.700203,4826.401637,5625.565159
1021.924397,148.041188,2451.505594,7402.059420
1021.924723,-1776.494261,-1608.800546,9178.553681
1021.925049,-4737.318029,-4443.353888,9548.656652
1021.925375,-6069.688724,-5132.839837,8956.491898
1021.925701,-5107.421000,-3370.820191,8438.347739
1021.926027,-2812.782580,-1532.190996,7254.018232
1021.926353,-1258.350101,612.876398,7031.956449
1021.926679,-370.102971,2987.772442,5625.565159
1021.927005,1406.391290,5515.887586,4441.235652
1021.927331,2960.823768,5822.325785,4441.235652
1021.927657,2812.782580,4213.525239,6143.709319
1021.927983,1036.288319,3447.429741,8734.430116
1021.928309,-518.144159,995.924147,10288.862594
1021.928635,-1332.370696,-2221.676944,14063.912898
1021.928961,-3182.885551,-5362.668486,16580.613101
1021.929287,-5625.565159,-7890.783629,17542.880825
1021.929613,-5329.482782,-7814.174080,17172.777854
1021.929939,-3404.947333,-7048.078582,17172.777854
1021.930266,-1110.308913,-4749.792088,16210.510130
1021.930592,1480.411884,-1149.143247,13471.748144
1021.930918,3552.988522,2987.772442,9030.512492
1021.931244,5477.523971,5286.058936,5995.668130
1021.931570,7254.018232,6741.640382,4959.379811
1021.931896,5995.668130,7660.954980,3627.009116
1021.932222,4367.215058,7431.126331,3034.844362
1021.932548,3256.906145,4979.620737,4367.215058
1021.932874,1480.411884,2221.676944,6143.709319
1021.933200,-2146.597232,-229.828649,7994.224174
1021.933526,-5551.544565,-2911.162892,8956.491898
1021.933852,-6365.771101,-4519.963438,9474.636058
1021.934178,-5773.606348,-5898.935335,9844.739029
1021.934504,-4663.297435,-4136.915689,9548.656652
1021.934830,-2516.700203,-383.047749,7920.203579
1021.935156,-296.082377,3140.991542,6143.709319
1021.935482,2664.741391,4136.915689,6069.688724
1021.935808,3775.050304,5132.839837,6069.688724
1021.936134,2960.823768,6128.763984,5255.462188
1021.936460,2960.823768,5362.668486,6439.791695
1021.936786,2516.700203,2681.334243,9548.656652
1021.937112,74.020594,153.219100,12509.480420
1021.937438,-1998.556043,-3140.991542,14434.015869
1021.937764,-3997.112087,-4596.572988,16654.633695
1021.938090,-4441.235652,-7124.688131,17616.901420
1021.938416,-4663.297435,-7507.735880,17912.983796
1021.938742,-3404.947333,-5132.839837,16580.613101
1021.939068,-1110.308913,-1915.238745,13323.706956
1021.939394,2146.597232,842.705048,10288.862594
1021.939720,4589.276840,3677.258390,7254.018232
1021.940047,5329.482782,6741.640382,5477.523971
1021.940373,5181.441594,9116.536426,2738.761985
1021.940699,5625.565159,8273.831378,2516.700203
1021.941025,4367.215058,5898.935335,3256.906145
1021.941351,1702.473667,4136.915689,4737.318029
1021.941677,-518.144159,3294.210641,6365.771101
1021.942003,-2294.638420,0.000000,8808.450710
1021.942329,-4145.153275,-3217.601092,9770.718434
1021.942655,-5477.523971,-5286.058936,9844.739029
1021.942981,-4663.297435,-3677.258390,9326.594869
1021.943307,-2738.761985,-842.705048,7920.203579
1021.943633,222.061783,1302.362347,7698.141797
1021.943959,1924.535449,3370.820191,7105.977043
1021.944285,2072.576638,6128.763984,5107.421000
1021.944611,3404.947333,6741.640382,5255.462188
1021.944937,3330.926739,5056.230287,5477.523971
1021.945263,1702.473667,3907.087040,7698.141797
1021.945589,-592.164754,1685.410096,10584.944971
1021.945915,-1850.514855,-919.314598,13471.748144
1021.946241,-3552.988522,-4443.353888,16062.468941
1021.946567,-5403.503377,-7048.078582,18061.024985
1021.946893,-5551.544565,-8656.879127,18283.086767
1021.947219,-4737.318029,-7354.516781,16506.592507
1021.947545,-2664.741391,-5362.668486,16062.468941
1021.947871,0.000000,-2528.115143,14211.954086
1021.948197,1702.473667,689.485948,10584.944971
1021.948523,4293.194464,4060.306139,6957.935855
1021.948849,5995.668130,5515.887586,5181.441594
1021.949175,6069.688724,6741.640382,3330.926739
1021.949502,4959.379811,7507.735880,2886.803174
1021.949828,4293.194464,5822.325785,3849.070898
1021.950154,2442.679609,3600.648841,5773.606348
1021.950480,-148.041188,766.095498,7402.059420
1021.950806,-1924.535449,-1685.410096,9178.553681
1021.951132,-4071.132681,-3677.258390,9770.718434
1021.951458,-4589.276840,-4979.620737,9326.594869
1021.951784,-3034.844362,-4443.353888,9474.636058
1021.952110,-1776.494261,-1685.410096,8660.409521
1021.952436,-1184.329507,1302.362347,6587.832884
1021.952762,962.267725,3294.210641,6143.709319
1021.953088,2738.761985,4519.963438,5255.462188
1021.953414,2368.659014,4979.620737,4959.379811
1021.953740,2368.659014,5132.839837,5107.421000
1021.954066,1850.514855,4979.620737,7550.100608
1021.954392,-148.041188,1838.629195,10362.883188
1021.954718,-2220.617826,-1455.581446,13841.851115
1021.955044,-4071.132681,-4443.353888,16358.551318
1021.955370,-5107.421000,-6741.640382,17616.901420
1021.955696,-5921.647536,-7507.735880,17764.942608
1021.956022,-4737.318029,-6818.249932,17616.901420
1021.956348,-3330.926739,-4673.182538,15914.427753
1021.956674,0.000000,-1532.190996,13175.665768
1021.957000,2590.720797,1608.800546,9992.780217
1021.957326,4441.235652,4903.011187,7105.977043
1021.957652,5033.400406,7431.126331,4367.215058
1021.957978,6143.709319,8963.317327,3256.906145
1021.958304,6217.729913,8733.488677,3701.029710
1021.958630,4737.318029,6894.859482,4959.379811
1021.958956,2146.597232,4826.401637,5255.462188
1021.959283,296.082377,2221.676944,7179.997637
1021.959609,-1036.288319,-1302.362347,8512.368333
1021.959935,-3849.070898,-2987.772442,10288.862594
1021.960261,-5107.421000,-3600.648841,10288.862594
1021.960587,-4071.132681,-2834.553343,9326.594869
1021.960913,-1776.494261,-1915.238745,8068.244768
1021.961239,296.082377,536.266849,7476.080014
1021.961565,296.082377,3983.696590,5403.503377
1021.961891,2294.638420,6128.763984,4959.379811
1021.962217,2960.823768,5669.106685,5625.565159
1021.962543,1628.453072,4213.525239,6291.750507
1021.962869,222.061783,3524.039291,8216.285956
1021.963195,-296.082377,1762.019645,10881.027347
1021.963521,-1258.350101,-1225.752797,13693.809927
1021.963847,-3627.009116,-4979.620737,16506.592507
1021.964173,-5551.544565,-7431.126331,17690.922014
1021.964499,-5477.523971,-8044.002729,17024.736666
1021.964825,-3849.070898,-7507.735880,16728.654289
1021.965151,-1850.514855,-5209.449386,15174.221811
1021.965477,0.000000,-766.095498,12731.542202
1021.965803,3182.885551,2145.067394,8512.368333
1021.966129,5773.606348,4749.792088,6439.791695
1021.966455,6217.729913,6588.421283,4515.256246
1021.966781,5773.606348,7737.564530,2738.761985
1021.967107,5995.668130,7890.783629,2812.782580
1021.967433,5403.503377,6281.983084,4071.132681
1021.967759,3034.844362,3600.648841,6809.894666
1021.968085,-740.205942,536.266849,7328.038826
1021.968411,-3256.906145,-1838.629195,8438.347739
1021.968738,-4219.173869,-4213.525239,9326.594869
1021.969064,-4959.379811,-5209.449386,10066.800811
1021.969390,-4959.379811,-3753.867940,9252.574275
1021.969716,-3330.926739,-1608.800546,7402.059420
1021.970042,-592.164754,229.828649,8216.285956
1021.970368,888.247130,2221.676944,6143.709319
1021.970694,1332.370696,4596.572988,5699.585753
1021.971020,1924.535449,5822.325785,5625.565159
1021.971346,2368.659014,4673.182538,7328.038826
1021.971672,1480.411884,2221.676944,10140.821405
1021.971998,-666.185348,-536.266849,11991.336260
1021.972324,-2886.803174,-2068.457845,14804.118840
1021.972650,-4145.153275,-5132.839837,16802.674883
1021.972976,-4367.215058,-8197.221829,18283.086767
1021.973302,-4885.359217,-8503.660028,18135.045579
1021.973628,-4737.318029,-5822.325785,16506.592507
1021.973954,-1924.535449,-3294.210641,13693.809927
1021.974280,1850.514855,-229.828649,11325.150913
1021.974606,4663.297435,2834.553343,8364.327145
1021.974932,5329.482782,7201.297681,6069.688724
1021.975258,6439.791695,9039.926876,2886.803174
1021.975584,7402.059420,8120.612279,2442.679609
1021.975910,5995.668130,7048.078582,3256.906145
1021.976236,3330.926739,6052.154434,4145.153275
1021.976562,1628.453072,3983.696590,5847.626942
1021.976888,0.000000,0.000000,8068.244768
1021.977214,-3034.844362,-3600.648841,9400.615463
1021.977540,-5403.503377,-4443.353888,9030.512492
1021.977866,-5255.462188,-3907.087040,8586.388927
1021.978192,-3404.947333,-2374.896044,8882.471304
1021.978519,-1332.370696,-459.657299,7772.162391
1021.978845,370.102971,2451.505594,6957.935855
1021.979171,1184.329507,5132.839837,4959.379811
1021.979497,3034.844362,6511.811733,4515.256246
1021.979819,3330.926739,5898.935335,5477.523971
1021.980145,1776.494261,4749.792088,7476.080014
1021.980471,-888.247130,3294.210641,9992.780217
1021.980797,-1406.391290,0.000000,12953.603985
1021.981123,-2146.597232,-4060.306139,15988.448347
1021.981450,-5403.503377,-7048.078582,17690.922014
1021.981776,-6809.894666,-7201.297681,17542.880825
1021.982102,-4737.318029,-6971.469032,17468.860231
1021.982428,-1702.473667,-6052.154434,16728.654289
1021.982754,518.144159,-2987.772442,14878.139434
1021.983080,2368.659014,2451.505594,10584.944971
1021.983406,5625.565159,5898.935335,7179.997637
1021.983732,7624.121203,7660.954980,5329.482782
1021.984058,7328.038826,7431.126331,3849.070898
1021.984384,5551.544565,7967.393179,3182.885551
1021.984711,4589.276840,7354.516781,3552.988522
1021.985037,3404.947333,4060.306139,5625.565159
1021.985363,-444.123565,383.047749,7402.059420
1021.985689,-3923.091493,-1838.629195,8142.265362
1021.986015,-5847.626942,-3447.429741,7772.162391
1021.986341,-6143.709319,-4673.182538,8956.491898
1021.986667,-5847.626942,-5286.058936,9696.697840
1021.986993,-4515.256246,-2528.115143,8364.327145
1021.987319,-2220.617826,919.314598,6661.853478
1021.987646,962.267725,2834.553343,6291.750507
1021.987972,2590.720797,3677.258390,5921.647536
1021.988298,2072.576638,5209.449386,4885.359217
1021.988624,1850.514855,5132.839837,5329.482782
1021.988950,1998.556043,3753.867940,8438.347739
1021.989276,-222.061783,229.828649,11029.068536
1021.989602,-2664.741391,-2298.286494,13767.830521
1021.989928,-4515.256246,-4826.401637,16284.530724
1021.990254,-4811.338623,-7431.126331,17987.004391
1021.990580,-4071.132681,-9193.145976,18653.189738
1021.990907,-3330.926739,-8120.612279,17542.880825
1021.991233,-1998.556043,-4366.744339,15026.180623
1021.991559,1776.494261,-459.657299,12657.521608
1021.991885,5255.462188,2145.067394,9770.718434
1021.992211,6439.791695,5286.058936,6883.915261
1021.992537,6143.709319,7967.393179,3923.091493
1021.992863,7254.018232,8886.707777,2590.720797
1021.993189,6587.832884,7354.516781,3552.988522
1021.993515,3627.009116,5515.887586,4441.235652
1021.993841,666.185348,3064.381992,5551.544565
1021.994168,-1554.432478,459.657299,7476.080014
1021.994494,-3701.029710,-2834.553343,9178.553681
1021.994820,-5551.544565,-4903.011187,10066.800811
1021.995146,-5995.668130,-3753.867940,9548.656652
1021.995472,-4441.235652,-2374.896044,8142.265362
1021.995798,-1406.391290,-689.485948,7846.182985
1021.996124,148.041188,1302.362347,7105.977043
1021.996450,666.185348,4749.792088,5551.544565
1021.996776,1628.453072,7048.078582,4737.318029
1021.997102,2812.782580,6128.763984,5403.503377
1021.997429,2368.659014,4366.744339,7550.100608
1021.997755,-296.082377,2834.553343,9622.677246
1021.998081,-1480.411884,1225.752797,12065.356855
1021.998407,-1924.535449,-1915.238745,14952.160028
1021.998733,-3701.029710,-5132.839837,18135.045579
1021.999059,-4737.318029,-6665.030833,18875.251521
1021.999385,-3923.091493,-6281.983084,17024.736666
1021.999711,-1184.329507,-4749.792088,16506.592507
1022.000037,1184.329507,-2604.724693,14730.098246
1022.000364,2368.659014,1302.362347,11325.150913
1022.000690,3849.070898,4903.011187,7402.059420
1022.001016,5921.647536,6052.154434,5255.462188
1022.001342,5625.565159,7048.078582,3478.967927
1022.001668,4145.153275,7277.907231,2738.761985
1022.001994,2812.782580,6665.030833,2664.741391
1022.002320,1480.411884,4443.353888,4515.256246
1022.002646,-592.164754,1149.143247,6365.771101
1022.002972,-2442.679609,-1455.581446,8734.430116
1022.003298,-4885.359217,-2911.162892,8882.471304
1022.003625,-5329.482782,-4060.306139,9030.512492
1022.003951,-3997.112087,-4213.525239,9178.553681
1022.004277,-2664.741391,-2374.896044,8956.491898
1022.004603,-962.267725,383.047749,6957.935855
1022.004929,1258.350101,2528.115143,6069.688724
1022.005255,3256.906145,3983.696590,5699.585753
1022.005581,2886.803174,5132.839837,5995.668130
1022.005907,2516.700203,5056.230287,5847.626942
1022.006233,2072.576638,3370.820191,8216.285956
1022.006559,518.144159,689.485948,11769.274478
1022.006886,-1184.329507,-1608.800546,14285.974681
1022.007212,-2738.761985,-3753.867940,16136.489536
1022.007538,-3849.070898,-5975.544884,18357.107362
1022.007864,-4293.194464,-7814.174080,18357.107362
1022.008190,-3552.988522,-7507.735880,17838.963202
1022.008516,-2590.720797,-5439.278036,15544.324782
1022.008842,-444.123565,-2068.457845,13249.686362
1022.009168,2590.720797,383.047749,10584.944971
1022.009494,4737.318029,3830.477490,7772.162391
1022.009820,5107.421000,5592.497135,4737.318029
1022.010147,4885.359217,7201.297681,3182.885551
1022.010473,4663.297435,7124.688131,3404.947333
1022.010799,3478.967927,5439.278036,4219.173869
1022.011125,1258.350101,3983.696590,5699.585753
1022.011451,148.041188,1302.362347,7254.018232
1022.011777,-1258.350101,-1532.190996,8364.327145
1022.012103,-3923.091493,-3217.601092,9252.574275
1022.012429,-5107.421000,-4596.572988,9326.594869
1022.012755,-4367.215058,-2681.334243,8734.430116
1022.013081,-1776.494261,-1149.143247,7772.162391
1022.013408,0.000000,1072.533697,6809.894666
1022.013734,740.205942,3907.087040,5477.523971
1022.014060,2664.741391,5515.887586,5477.523971
1022.014386,2812.782580,6052.154434,4885.359217
1022.014712,1998.556043,5132.839837,6069.688724
1022.015038,592.164754,3907.087040,8882.471304
1022.015364,-888.247130,2068.457845,11177.109724
1022.015690,-1924.535449,-1225.752797,13693.809927
1022.016016,-3552.988522,-4136.915689,16506.592507
1022.016343,-6365.771101,-7124.688131,17098.757260
1022.016669,-5699.585753,-6281.983084,16580.613101
1022.016995,-3701.029710,-6128.763984,16358.551318
1022.017321,-1850.514855,-4826.401637,14952.160028
1022.017647,-814.226536,-1072.533697,12065.356855
1022.017973,1554.432478,2451.505594,8882.471304
1022.018299,4589.276840,4903.011187,6587.832884
1022.018625,5551.544565,7201.297681,4811.338623
1022.018951,5625.565159,7431.126331,3627.009116
1022.019277,4811.338623,7967.393179,3256.906145
1022.019604,4885.359217,6205.373534,4663.297435
1022.019930,3478.967927,3600.648841,6809.894666
1022.020256,740.205942,1225.752797,8364.327145
1022.020582,-2294.638420,-1149.143247,8734.430116
1022.020908,-2960.823768,-3447.429741,10140.821405
1022.021234,-3108.864956,-4443.353888,9918.759623
1022.021560,-3330.926739,-3983.696590,9622.677246
1022.021886,-1998.556043,-919.314598,7920.203579
1022.022212,370.102971,1685.410096,7179.997637
1022.022538,2294.638420,3140.991542,6809.894666
1022.022865,3034.844362,5056.230287,6217.729913
1022.023191,1924.535449,4979.620737,5551.544565
1022.023517,2220.617826,4903.011187,6143.709319
1022.023843,1554.432478,2681.334243,9104.533087
1022.024169,-222.061783,0.000000,12213.398043
1022.024495,-3108.864956,-2374.896044,14285.974681
1022.024821,-5181.441594,-5286.058936,15914.427753
1022.025147,-5625.565159,-8273.831378,16876.695478
1022.025473,-5107.421000,-9882.631924,17468.860231
1022.025799,-4663.297435,-7277.907231,15396.283594
1022.026126,-2368.659014,-3907.087040,14137.933492
1022.026452,1184.329507,-536.266849,11917.315666
1022.026778,3627.009116,1991.848295,8956.491898
1022.027104,4885.359217,4903.011187,6291.750507
1022.027430,6143.709319,7201.297681,3256.906145
1022.027756,7105.977043,7354.516781,2812.782580
1022.028082,6217.729913,7431.126331,4145.153275
1022.028408,3775.050304,5515.887586,5699.585753
1022.028734,370.102971,3370.820191,6365.771101
1022.029061,-962.267725,0.000000,8216.285956
1022.029387,-3552.988522,-3524.039291,9400.615463
1022.029713,-5921.647536,-4673.182538,9252.574275
1022.030039,-5773.606348,-3830.477490,8512.368333
1022.030365,-3404.947333,-2298.286494,8586.388927
1022.030691,-1850.514855,-766.095498,8068.244768
1022.031017,-592.164754,2528.115143,6809.894666
1022.031343,814.226536,5286.058936,5107.421000
1022.031669,2590.720797,6894.859482,4959.379811
1022.031995,3997.112087,5515.887586,6587.832884
1022.032322,1776.494261,4749.792088,7402.059420
1022.032648,-1332.370696,2834.553343,9326.594869
1022.032974,-1554.432478,0.000000,12509.480420
1022.033300,-2368.659014,-3907.087040,15322.262999
1022.033626,-4959.379811,-6205.373534,17542.880825
1022.033952,-6143.709319,-6818.249932,17542.880825
1022.034278,-4441.235652,-7124.688131,17098.757260
1022.034604,-2590.720797,-6052.154434,16136.489536
1022.034930,148.041188,-3294.210641,13915.871710
1022.035256,2442.679609,1991.848295,10658.965565
1022.035583,5107.421000,5439.278036,7179.997637
1022.035909,7476.080014,6741.640382,5995.668130
1022.036235,7920.203579,7507.735880,4885.359217
1022.036561,6143.709319,8350.440928,3330.926739
1022.036887,4589.276840,7277.907231,3849.070898
1022.037213,4293.194464,4213.525239,5625.565159
1022.037539,1332.370696,919.314598,7476.080014
1022.037865,-1998.556043,-995.924147,8586.388927
1022.038191,-4367.215058,-2681.334243,9178.553681
1022.038517,-4959.379811,-4673.182538,9104.533087
1022.038844,-4219.173869,-4749.792088,9030.512492
1022.039170,-3182.885551,-2145.067394,8068.244768
1022.039496,-1554.432478,1302.362347,5995.668130
1022.039822,1554.432478,3524.039291,5699.585753
1022.040148,3108.864956,4673.182538,5847.626942
1022.040474,2220.617826,5898.935335,5181.441594
1022.040800,740.205942,5592.497135,4959.379811
1022.041126,888.247130,3294.210641,7328.038826
1022.041452,-740.205942,229.828649,10732.986159
1022.041779,-3775.050304,-2221.676944,13767.830521
1022.042105,-4737.318029,-4596.572988,15618.345376
1022.042431,-5403.503377,-6588.421283,17468.860231
1022.042757,-5625.565159,-8350.440928,17912.983796
1022.043083,-4367.215058,-7737.564530,17690.922014
1022.043409,-2516.700203,-4443.353888,15470.304188
1022.043735,888.247130,-1149.143247,12509.480420
1022.044061,4811.338623,1455.581446,10288.862594
1022.044387,5921.647536,4596.572988,7846.182985
1022.044713,5403.503377,7814.174080,5181.441594
1022.045040,6143.709319,8120.612279,3478.967927
1022.045366,5995.668130,6281.983084,4219.173869
1022.045692,3404.947333,4136.915689,5033.400406
1022.046018,666.185348,3140.991542,6217.729913
1022.046344,-1776.494261,1302.362347,7328.038826
1022.046670,-4071.132681,-2757.943793,9178.553681
1022.046996,-6069.688724,-5362.668486,10140.821405
1022.047322,-6735.874072,-5439.278036,8956.491898
1022.047648,-5847.626942,-3140.991542,7328.038826
1022.047974,-2664.741391,-1072.533697,7179.997637
1022.048301,0.000000,1532.190996,6957.935855
1022.048627,666.185348,4213.525239,5921.647536
1022.048953,1850.514855,6358.592633,4811.338623
1022.049279,3627.009116,5209.449386,5773.606348
1022.049605,2664.741391,4136.915689,6439.791695
1022.049931,740.205942,2528.115143,8956.491898
1022.050257,-444.123565,1072.533697,11843.295072
1022.050583,-1480.411884,-1378.971896,14063.912898
1022.050909,-3256.906145,-5592.497135,15544.324782
1022.051235,-3849.070898,-6818.249932,17098.757260
1022.051562,-3997.112087,-6511.811733,16728.654289
1022.051888,-2072.576638,-4366.744339,16284.530724
1022.052214,814.226536,-3217.601092,15174.221811
1022.052540,2368.659014,-536.266849,12287.418637
1022.052866,4145.153275,2911.162892,8882.471304
1022.053192,6143.709319,5669.106685,6291.750507
1022.053518,6661.853478,7124.688131,4441.235652
1022.053844,6365.771101,8044.002729,3404.947333
1022.054170,5255.462188,7354.516781,3775.050304
1022.054496,3182.885551,5362.668486,4219.173869
1022.054823,962.267725,3217.601092,5847.626942
1022.055149,-1110.308913,459.657299,7550.100608
1022.055475,-3552.988522,-1072.533697,8882.471304
1022.055801,-5403.503377,-3064.381992,8882.471304
1022.056127,-5329.482782,-4290.134789,9252.574275
1022.056453,-4737.318029,-3370.820191,9104.533087
1022.056779,-3775.050304,-689.485948,7994.224174
1022.057105,-1184.329507,2145.067394,7328.038826
1022.057431,1332.370696,3907.087040,6661.853478
1022.057758,2220.617826,5592.497135,5403.503377
1022.058084,2072.576638,6052.154434,5699.585753
1022.058410,1406.391290,4979.620737,6809.894666
1022.058736,0.000000,3140.991542,9400.615463
1022.059062,-888.247130,766.095498,12361.439231
1022.059388,-2442.679609,-1762.019645,14730.098246
1022.059714,-3627.009116,-4290.134789,16358.551318
1022.060040,-4293.194464,-6435.202183,17098.757260
1022.060366,-4145.153275,-7201.297681,17024.736666
1022.060692,-3256.906145,-6128.763984,16728.654289
1022.061019,-1258.350101,-3140.991542,14508.036463
1022.061345,2146.597232,-383.047749,11843.295072
1022.061671,3997.112087,2068.457845,8586.388927
1022.061997,4959.379811,4903.011187,5921.647536
1022.062323,5847.626942,7277.907231,3478.967927
1022.062649,6809.894666,8120.612279,3108.864956
1022.062975,5403.503377,6588.421283,3627.009116
1022.063301,2516.700203,4749.792088,4737.318029
1022.063627,370.102971,2604.724693,5995.668130
1022.063953,-1480.411884,-612.876398,7179.997637
1022.064280,-4219.173869,-4136.915689,8956.491898
1022.064606,-5625.565159,-6128.763984,9548.656652
1022.064932,-5847.626942,-4903.011187,9178.553681
1022.065258,-3923.091493,-3983.696590,8882.471304
1022.065584,-1480.411884,-1762.019645,8438.347739
1022.065910,-296.082377,1455.581446,7254.018232
1022.066236,1702.473667,3753.867940,5773.606348
1022.066562,3478.967927,4903.011187,5773.606348
1022.066888,3997.112087,5209.449386,6069.688724
1022.067214,3034.844362,4826.401637,8364.327145
1022.067541,1776.494261,2911.162892,9844.739029
1022.067867,666.185348,459.657299,12731.542202
1022.068193,-1110.308913,-2681.334243,15470.304188
1022.068519,-3108.864956,-5592.497135,17394.839637
1022.068845,-4959.379811,-6665.030833,17468.860231
1022.069171,-4219.173869,-7814.174080,17542.880825
1022.069497,-2590.720797,-6588.421283,16802.674883
1022.069823,-1702.473667,-3524.039291,14211.954086
1022.070149,370.102971,612.876398,10807.006753
1022.070476,3404.947333,3753.867940,7920.203579
1022.070802,4737.318029,6281.983084,5773.606348
1022.071128,4737.318029,7354.516781,3997.112087
1022.071454,4737.318029,8656.879127,2664.741391
1022.071780,3997.112087,7660.954980,2960.823768
1022.072106,2812.782580,4903.011187,4515.256246
1022.072432,518.144159,2757.943793,7476.080014
1022.072758,-2738.761985,229.828649,8142.265362
1022.073084,-4737.318029,-2757.943793,8882.471304
1022.073410,-4663.297435,-4979.620737,9474.636058
1022.073737,-3923.091493,-5362.668486,9622.677246
1022.074063,-3849.070898,-919.314598,8290.306550
1022.074389,-1406.391290,842.705048,7031.956449
1022.074715,1554.432478,2451.505594,7031.956449
1022.075041,2442.679609,4443.353888,6069.688724
1022.075367,2516.700203,6665.030833,5477.523971
1022.075693,2960.823768,6971.469032,5107.421000
1022.076019,3034.844362,4443.353888,7550.100608
1022.076345,1554.432478,1685.410096,10881.027347
1022.076671,-1554.432478,-612.876398,12731.542202
1022.076998,-3627.009116,-2528.115143,14434.015869
1022.077324,-4071.132681,-6511.811733,17098.757260
1022.077650,-4293.194464,-8503.660028,17394.839637
1022.077976,-4737.318029,-7354.516781,16802.674883
1022.078302,-3330.926739,-4596.572988,15100.201217
1022.078628,74.020594,-1991.848295,12805.562797
1022.078954,2590.720797,153.219100,10288.862594
1022.079280,4589.276840,4060.306139,8438.347739
1022.079606,5329.482782,7201.297681,5181.441594
1022.079932,6513.812290,7890.783629,3552.988522
1022.080259,6365.771101,6665.030833,4071.132681
1022.080585,4145.153275,5362.668486,4885.359217
1022.080911,1258.350101,5439.278036,5255.462188
1022.081237,0.000000,1838.629195,7402.059420
1022.081563,-1998.556043,-2374.896044,9178.553681
1022.081889,-5033.400406,-4903.011187,9474.636058
1022.082215,-5921.647536,-4749.792088,8734.430116
1022.082541,-4589.276840,-3140.991542,8734.430116
1022.082867,-2590.720797,-2298.286494,8586.388927
1022.083194,-296.082377,229.828649,7624.121203
1022.083520,1480.411884,4136.915689,6439.791695
1022.083846,2516.700203,6052.154434,4885.359217
1022.084172,3775.050304,5898.935335,5699.585753
1022.084498,3627.009116,4749.792088,7254.018232
1022.084824,1480.411884,3677.258390,8956.491898
1022.085150,-740.205942,1685.410096,10955.047942
1022.085476,-1332.370696,-1762.019645,14285.974681
1022.085802,-3997.112087,-5592.497135,16358.551318
1022.086128,-6143.709319,-7124.688131,16950.716072
1022.086455,-5995.668130,-7584.345430,16432.571912
1022.086781,-4441.235652,-6511.811733,16580.613101
1022.087107,-2368.659014,-4749.792088,15026.180623
1022.087433,0.000000,-919.314598,11917.315666
1022.087759,2294.638420,2604.724693,8364.327145
1022.088085,4811.338623,5515.887586,5921.647536
1022.088411,6513.812290,6741.640382,4663.297435
1022.088737,6365.771101,8044.002729,3256.906145
1022.089063,4737.318029,8044.002729,2960.823768
1022.089389,4293.194464,5822.325785,4441.235652
1022.089715,2442.679609,2757.943793,6291.750507
1022.090041,-1036.288319,689.485948,7920.203579
1022.090367,-3775.050304,-1685.410096,7920.203579
1022.090693,-4663.297435,-3830.477490,8882.471304
1022.091019,-3923.091493,-4749.792088,9696.697840
1022.091345,-3404.947333,-3447.429741,9622.677246
1022.091671,-2146.597232,0.000000,7772.162391
1022.091997,74.020594,2528.115143,6069.688724
1022.092323,3182.885551,3600.648841,6365.771101
1022.092649,3034.844362,5362.668486,5921.647536
1022.092975,1998.556043,6205.373534,5329.482782
1022.093301,2294.638420,5132.839837,6883.915261
1022.093628,1036.288319,2298.286494,9770.718434
1022.093954,-1480.411884,-306.438199,12287.418637
1022.094280,-3775.050304,-1915.238745,14285.974681
1022.094606,-4441.235652,-5132.839837,16580.613101
1022.094932,-4811.338623,-7737.564530,18357.107362
1022.095258,-4737.318029,-7507.735880,18061.024985
1022.095584,-3330.926739,-5209.449386,16728.654289
1022.095910,-740.205942,-2528.115143,13545.768739
1022.096236,2368.659014,76.609550,11473.192101
1022.096562,4737.318029,2987.772442,8660.409521
1022.096888,5107.421000,6358.592633,5921.647536
1022.097214,6069.688724,8427.050478,3552.988522
1022.097540,7031.956449,7354.516781,3330.926739
1022.097866,4737.318029,5822.325785,4071.132681
1022.098192,2146.597232,4596.572988,4885.359217
1022.098518,0.000000,2681.334243,6661.853478
1022.098844,-1702.473667,-306.438199,7476.080014
1022.099170,-4367.215058,-3907.087040,8512.368333
1022.099496,-5477.523971,-4519.963438,8956.491898
1022.099822,-5033.400406,-3294.210641,8216.285956
1022.100148,-3627.009116,-2068.457845,7624.121203
1022.100474,-1332.370696,-689.485948,7550.100608
1022.100800,0.000000,1915.238745,7254.018232
1022.101126,592.164754,4136.915689,4959.379811
1022.101453,2146.597232,5515.887586,5255.462188
1022.101779,2368.659014,4136.915689,6439.791695
1022.102105,222.061783,2374.896044,7179.997637
1022.102431,-1184.329507,1455.581446,10214.842000
1022.102757,-1850.514855,-383.047749,13397.727550
1022.103083,-3034.844362,-3830.477490,15692.365970
1022.103409,-4367.215058,-6281.983084,17172.777854
1022.103735,-4071.132681,-6971.469032,17246.798449
1022.104061,-2960.823768,-5745.716235,16580.613101
1022.104387,-666.185348,-4673.182538,15988.448347
1022.104713,1258.350101,-2145.067394,13989.892304
1022.105039,2368.659014,1225.752797,10584.944971
1022.105365,4811.338623,4060.306139,7476.080014
1022.105691,5773.606348,6205.373534,5699.585753
1022.106017,5921.647536,6511.811733,3849.070898
1022.106343,4737.318029,7201.297681,3108.864956
1022.106669,3404.947333,5822.325785,4441.235652
1022.106995,1776.494261,3294.210641,6069.688724
1022.107321,-518.144159,689.485948,7624.121203
1022.107647,-2812.782580,-1302.362347,8660.409521
1022.107973,-4071.132681,-2451.505594,8956.491898
1022.108299,-3404.947333,-4213.525239,9178.553681
1022.108625,-2960.823768,-2528.115143,9252.574275
1022.108951,-1850.514855,-1072.533697,8142.265362
1022.109277,-222.061783,1685.410096,7031.956449
1022.109604,1702.473667,3753.867940,6217.729913
1022.109930,2368.659014,4903.011187,5995.668130
1022.110256,1924.535449,6052.154434,5403.503377
1022.110582,1998.556043,5056.230287,6587.832884
1022.110908,962.267725,3064.381992,8882.471304
1022.111234,-962.267725,-306.438199,11103.089130
1022.111560,-2738.761985,-1532.190996,13693.809927
1022.111886,-4071.132681,-3753.867940,15692.365970
1022.112212,-4367.215058,-5898.935335,16654.633695
1022.112538,-4219.173869,-6971.469032,17394.839637
1022.112864,-3330.926739,-5669.106685,16062.468941
1022.113190,-1850.514855,-3140.991542,13693.809927
1022.113516,1110.308913,-1072.533697,11325.150913
1022.113842,3627.009116,2145.067394,9474.636058
1022.114168,4589.276840,5056.230287,6809.894666
1022.114494,5107.421000,7507.735880,4589.276840
1022.114820,5773.606348,8120.612279,3701.029710
1022.115146,4959.379811,7048.078582,3997.112087
1022.115472,3108.864956,6052.154434,4515.256246
1022.115798,1332.370696,3294.210641,6143.709319
1022.116124,0.000000,995.924147,7476.080014
1022.116450,-2368.659014,-1838.629195,8660.409521
1022.116776,-4737.318029,-3064.381992,9400.615463
1022.117102,-5107.421000,-3140.991542,8586.388927
1022.117429,-3701.029710,-2451.505594,8660.409521
1022.117755,-2368.659014,-1225.752797,7846.182985
1022.118081,-1258.350101,1302.362347,7254.018232
1022.118407,-148.041188,3830.477490,6143.709319
1022.118733,1184.329507,4903.011187,5699.585753
1022.119059,1702.473667,4136.915689,6439.791695
1022.119385,888.247130,3524.039291,7846.182985
1022.119711,0.000000,2451.505594,9696.697840
1022.120037,-222.061783,689.485948,11991.336260
1022.120363,-888.247130,-1915.238745,14582.057057
1022.120689,-2886.803174,-5209.449386,16950.716072
1022.121015,-4367.215058,-6588.421283,17246.798449
1022.121341,-3552.988522,-6818.249932,17172.777854
1022.121667,-1406.391290,-6281.983084,16728.654289
1022.121993,-370.102971,-4213.525239,14508.036463
1022.122319,1702.473667,-153.219100,11399.171507
1022.122645,4071.132681,3294.210641,8512.368333
1022.122971,5255.462188,4903.011187,6587.832884
1022.123297,5773.606348,6128.763984,4737.318029
1022.123623,5477.523971,7277.907231,3701.029710
1022.123949,4663.297435,6971.469032,3404.947333
1022.124275,3404.947333,4443.353888,4441.235652
1022.124601,962.267725,2528.115143,6661.853478
1022.124927,-2516.700203,-536.266849,7328.038826
1022.125253,-5107.421000,-2911.162892,7328.038826
1022.125580,-4737.318029,-4749.792088,8512.368333
1022.125906,-4663.297435,-4596.572988,9252.574275
1022.126232,-4219.173869,-2221.676944,8142.265362
1022.126558,-2072.576638,-306.438199,7031.956449
1022.126884,222.061783,1762.019645,6735.874072
1022.127210,1628.453072,3600.648841,6069.688724
1022.127536,1628.453072,5592.497135,6217.729913
1022.127862,2220.617826,5669.106685,6291.750507
1022.128188,1850.514855,3983.696590,8438.347739
1022.128514,814.226536,1378.971896,11029.068536
1022.128840,-888.247130,-842.705048,13693.809927
1022.129166,-3849.070898,-2834.553343,15396.283594
1022.129492,-3552.988522,-5362.668486,16728.654289
1022.129818,-3404.947333,-7354.516781,17764.942608
1022.130144,-3849.070898,-6205.373534,16580.613101
1022.130470,-2812.782580,-3753.867940,15026.180623
1022.130796,-296.082377,-1838.629195,12435.459826
1022.131122,2664.741391,1072.533697,10658.965565
1022.131448,4071.132681,4749.792088,7994.224174
1022.131774,4959.379811,7201.297681,5329.482782
1022.132100,6217.729913,7967.393179,3701.029710
1022.132426,6439.791695,7277.907231,4145.153275
1022.132752,4589.276840,5898.935335,4811.338623
1022.133078,1702.473667,4903.011187,5107.421000
1022.133404,-296.082377,2834.553343,6513.812290
1022.133731,-1554.432478,-1378.971896,8882.471304
1022.134057,-4737.318029,-3524.039291,9030.512492
1022.134383,-5847.626942,-4060.306139,8586.388927
1022.134709,-4737.318029,-3447.429741,8364.327145
1022.135035,-2664.741391,-2145.067394,8068.244768
1022.135361,-444.123565,0.000000,7994.224174
1022.135687,518.144159,3524.039291,7031.956449
1022.136013,888.247130,5439.278036,5329.482782
1022.136339,3034.844362,5132.839837,6143.709319
1022.136665,3404.947333,3753.867940,7550.100608
1022.136991,888.247130,3447.429741,8808.450710
1022.137317,-370.102971,1608.800546,10584.944971
1022.137643,0.000000,-1608.800546,13915.871710
1022.137969,-1850.514855,-4673.182538,16210.510130
1022.138295,-4145.153275,-6052.154434,16506.592507
1022.138621,-3701.029710,-6358.592633,16358.551318
1022.138947,-1924.535449,-6052.154434,15840.407159
1022.139273,-370.102971,-4826.401637,14730.098246
1022.139599,1332.370696,-1149.143247,12435.459826
1022.139925,3404.947333,3294.210641,8956.491898
1022.140251,6069.688724,5439.278036,7105.977043
1022.140577,7031.956449,6588.421283,5477.523971
1022.140903,5403.503377,6818.249932,3552.988522
1022.141229,3701.029710,6971.469032,3330.926739
1022.141556,2590.720797,4903.011187,4663.297435
1022.141882,814.226536,1991.848295,6291.750507
1022.142208,-2738.761985,0.000000,7624.121203
1022.142534,-5477.523971,-2145.067394,7994.224174
1022.142860,-6587.832884,-3677.258390,8438.347739
1022.143186,-6513.812290,-5286.058936,9104.533087
1022.143512,-5181.441594,-3907.087040,9548.656652
1022.143838,-3404.947333,-689.485948,8068.244768
1022.144164,-814.226536,2451.505594,6957.935855
1022.144490,2220.617826,3677.258390,7179.997637
1022.144816,2812.782580,4596.572988,7031.956449
1022.145142,2368.659014,5209.449386,6365.771101
1022.145468,2294.638420,4903.011187,7105.977043
1022.145794,1998.556043,2374.896044,10140.821405
1022.146120,0.000000,76.609550,12805.562797
1022.146446,-2146.597232,-1991.848295,14804.118840
1022.146772,-3849.070898,-3983.696590,16358.551318
1022.147098,-4589.276840,-6818.249932,16358.551318
1022.147424,-2960.823768,-7124.688131,16136.489536
1022.147750,-2146.597232,-4519.963438,15914.427753
1022.148076,-518.144159,-1685.410096,13323.706956
1022.148402,1776.494261,1072.533697,10955.047942
1022.148728,4737.318029,2145.067394,8956.491898
1022.149054,4589.276840,4443.353888,6291.750507
1022.149380,4515.256246,7890.783629,3404.947333
1022.149707,6143.709319,7354.516781,3627.009116
1022.150033,4515.256246,5898.935335,4515.256246
1022.150359,2294.638420,2987.772442,4737.318029
1022.150685,0.000000,1762.019645,5921.647536
1022.151011,-1998.556043,0.000000,7105.977043
1022.151337,-3627.009116,-2298.286494,8512.368333
1022.151663,-3997.112087,-3447.429741,9474.636058
1022.151989,-3849.070898,-4596.572988,9178.553681
1022.152315,-2960.823768,-1762.019645,7624.121203
1022.152641,-222.061783,-229.828649,7624.121203
1022.152967,592.164754,1915.238745,7179.997637
1022.153293,1332.370696,4519.963438,6587.832884
1022.153619,2664.741391,5745.716235,7105.977043
1022.153945,2886.803174,4519.963438,7254.018232
1022.154271,1406.391290,3217.601092,8438.347739
1022.154597,222.061783,1302.362347,10362.883188
1022.154923,-666.185348,76.609550,12435.459826
1022.155249,-1628.453072,-1838.629195,15026.180623
1022.155575,-3330.926739,-4826.401637,17098.757260
1022.155901,-4367.215058,-6052.154434,17172.777854
1022.156227,-3775.050304,-5975.544884,15840.407159
1022.156553,-1924.535449,-4213.525239,15470.304188
1022.156879,-222.061783,-2834.553343,13471.748144
1022.157205,1110.308913,536.266849,10955.047942
1022.157531,3108.864956,3524.039291,8882.471304
1022.157858,4441.235652,4979.620737,6587.832884
1022.158184,4071.132681,5745.716235,3997.112087
1022.158510,4219.173869,6281.983084,3182.885551
1022.158836,3627.009116,5822.325785,3849.070898
1022.159162,1406.391290,5056.230287,4441.235652
1022.159488,-148.041188,2298.286494,6661.853478
1022.159814,-2368.659014,-842.705048,7920.203579
1022.160140,-4367.215058,-2451.505594,7920.203579
1022.160466,-4293.194464,-3370.820191,8068.244768
1022.160792,-3478.967927,-3907.087040,8956.491898
1022.161118,-2812.782580,-2068.457845,8438.347739
1022.161444,-1258.350101,306.438199,7920.203579
1022.161770,1480.411884,2221.676944,7328.038826
1022.162096,1776.494261,3600.648841,6735.874072
1022.162422,1554.432478,4596.572988,6217.729913
1022.162748,1924.535449,4673.182538,6439.791695
1022.163074,1258.350101,3370.820191,8586.388927
1022.163400,-296.082377,689.485948,11103.089130
1022.163726,-1110.308913,-1608.800546,13027.624579
1022.164052,-2220.617826,-2374.896044,14804.118840
1022.164378,-3627.009116,-4826.401637,16062.468941
1022.164704,-3701.029710,-6511.811733,16506.592507
1022.165030,-3923.091493,-6128.763984,16062.468941
1022.165356,-2664.741391,-4673.182538,14952.160028
1022.165683,444.123565,-2298.286494,13027.624579
1022.166009,2960.823768,689.485948,10658.965565
1022.166335,3997.112087,3600.648841,7328.038826
1022.166661,5699.585753,6511.811733,5773.606348
1022.166987,6587.832884,7201.297681,4515.256246
1022.167313,6513.812290,7201.297681,4663.297435
1022.167639,5033.400406,6358.592633,4663.297435
1022.167965,3182.885551,4903.011187,5033.400406
1022.168291,1184.329507,2374.896044,6365.771101
1022.168617,-592.164754,0.000000,8364.327145
1022.168943,-3330.926739,-2604.724693,9400.615463
1022.169269,-5181.441594,-3830.477490,8956.491898
1022.169595,-4737.318029,-3217.601092,9104.533087
1022.169921,-2960.823768,-1838.629195,9030.512492
1022.170247,-1924.535449,153.219100,8068.244768
1022.170573,-1332.370696,2451.505594,6587.832884
1022.170899,148.041188,3983.696590,5921.647536
1022.171225,666.185348,4443.353888,6217.729913
1022.171551,1036.288319,4366.744339,7254.018232
1022.171877,222.061783,3600.648841,9400.615463
1022.172203,-740.205942,1608.800546,10288.862594
1022.172529,-1036.288319,-1225.752797,13249.686362
1022.172855,-2072.576638,-3753.867940,15248.242405
1022.173181,-3775.050304,-4290.134789,16580.613101
1022.173507,-4219.173869,-5362.668486,16062.468941
1022.173834,-2294.638420,-6205.373534,16506.592507
1022.174160,-1258.350101,-4826.401637,14656.077652
1022.174486,296.082377,-1072.533697,11769.274478
1022.174812,2812.782580,2451.505594,8882.471304
1022.175138,4885.359217,4903.011187,6661.853478
1022.175464,5107.421000,6205.373534,4441.235652
1022.175790,5329.482782,6894.859482,3701.029710
1022.176116,4589.276840,7507.735880,3256.906145
1022.176442,3182.885551,5669.106685,3478.967927
1022.176768,2072.576638,2528.115143,5403.503377
1022.177094,-1110.308913,306.438199,7179.997637
1022.177420,-4589.276840,-1378.971896,8586.388927
1022.177746,-5329.482782,-3983.696590,9178.553681
1022.178072,-4811.338623,-5975.544884,9622.677246
1022.178398,-5033.400406,-4826.401637,9474.636058
1022.178724,-3701.029710,-1838.629195,8364.327145
1022.179050,-444.123565,1378.971896,8216.285956
1022.179376,1702.473667,2451.505594,7920.203579
1022.179702,2294.638420,3753.867940,7402.059420
1022.180028,1998.556043,4903.011187,6291.750507
1022.180354,2294.638420,4366.744339,7179.997637
1022.180680,2442.679609,2451.505594,9844.739029
1022.181006,962.267725,536.266849,12805.562797
1022.181332,-1480.411884,-1302.362347,14582.057057
1022.181659,-2812.782580,-3907.087040,15914.427753
1022.181985,-2886.803174,-6052.154434,16580.613101
1022.182311,-3478.967927,-7277.907231,16210.510130
1022.182637,-3108.864956,-5209.449386,15248.242405
1022.182963,-1110.308913,-2834.553343,13323.706956
1022.183289,1998.556043,-76.609550,11769.274478
1022.183615,3923.091493,2757.943793,9474.636058
1022.183941,4663.297435,5669.106685,6069.688724
1022.184267,5403.503377,7967.393179,3404.947333
1022.184593,6513.812290,7967.393179,2738.761985
1022.184919,5329.482782,6281.983084,3701.029710
1022.185245,2664.741391,5362.668486,4663.297435
1022.185571,296.082377,3600.648841,5847.626942
1022.185897,-1184.329507,153.219100,7920.203579
1022.186223,-4293.194464,-2757.943793,8438.347739
1022.186549,-6217.729913,-4596.572988,8364.327145
1022.186875,-5995.668130,-3677.258390,8734.430116
1022.187201,-4515.256246,-2757.943793,8586.388927
1022.187527,-2812.782580,-536.266849,8216.285956
1022.187853,-1480.411884,1302.362347,7550.100608
1022.188179,-296.082377,3677.258390,6143.709319
1022.188505,1036.288319,5286.058936,5551.544565
1022.188832,2294.638420,4749.792088,6957.935855
1022.189158,1332.370696,3983.696590,9030.512492
1022.189484,-444.123565,2374.896044,9844.739029
1022.189810,-148.041188,-229.828649,12287.418637
1022.190136,-888.247130,-2834.553343,15618.345376
1022.190462,-3330.926739,-4673.182538,16506.592507
1022.190788,-3997.112087,-5898.935335,16284.530724
1022.191114,-2368.659014,-5822.325785,15766.386565
1022.191440,-444.123565,-4596.572988,15174.221811
1022.191766,1332.370696,-1378.971896,13397.727550
1022.192092,3404.947333,2757.943793,10436.903782
1022.192418,5403.503377,5209.449386,7179.997637
1022.192744,6809.894666,6052.154434,6069.688724
1022.193070,6439.791695,6818.249932,4885.359217
1022.193396,4441.235652,7584.345430,3552.988522
1022.193722,2812.782580,5975.544884,3775.050304
1022.194048,2590.720797,2451.505594,5773.606348
1022.194374,-740.205942,153.219100,7476.080014
1022.194700,-4219.173869,-1608.800546,8586.388927
1022.195026,-5477.523971,-3370.820191,9030.512492
1022.195352,-4885.359217,-5286.058936,9326.594869
1022.195678,-3849.070898,-4443.353888,9326.594869
1022.196005,-1702.473667,-919.314598,9178.553681
1022.196331,-74.020594,2757.943793,6735.874072
1022.196657,2368.659014,3907.087040,6513.812290
1022.196983,3552.988522,4366.744339,6513.812290
1022.197309,2220.617826,5439.278036,6069.688724
1022.197635,1554.432478,5286.058936,5847.626942
1022.197961,2590.720797,2987.772442,9178.553681
1022.198287,592.164754,383.047749,12065.356855
1022.198613,-2516.700203,-1991.848295,13249.686362
1022.198939,-3849.070898,-3983.696590,15248.242405
1022.199265,-4367.215058,-6128.763984,16580.613101
1022.199591,-4219.173869,-7201.297681,16950.716072
1022.199917,-3478.967927,-5975.544884,16210.510130
1022.200243,-1554.432478,-2451.505594,14063.912898
1022.200569,1332.370696,383.047749,11473.192101
1022.200895,3849.070898,2451.505594,9400.615463
1022.201221,4737.318029,4903.011187,6809.894666
1022.201547,4145.153275,7354.516781,4219.173869
1022.201873,4663.297435,7584.345430,3256.906145
1022.202199,4293.194464,6052.154434,4293.194464
1022.202525,1406.391290,4213.525239,4737.318029
1022.202851,-1036.288319,2451.505594,6217.729913
1022.203178,-2368.659014,-612.876398,7550.100608
1022.203504,-3701.029710,-3140.991542,9104.533087
1022.203830,-5625.565159,-4519.963438,9474.636058
1022.204156,-5107.421000,-3600.648841,9548.656652
1022.204482,-3330.926739,-1915.238745,8734.430116
1022.204808,-1110.308913,-842.705048,7846.182985
1022.205134,1258.350101,1532.190996,7920.203579
1022.205460,1776.494261,4673.182538,6735.874072
1022.205786,1924.535449,5975.544884,5847.626942
1022.206112,3034.844362,4136.915689,6957.935855
1022.206438,1776.494261,2528.115143,8364.327145
1022.206764,-444.123565,1532.190996,9918.759623
1022.207090,-1110.308913,-229.828649,12583.501014
1022.207416,-1776.494261,-2911.162892,14952.160028
1022.207742,-2812.782580,-5592.497135,17320.819043
1022.208068,-3404.947333,-7201.297681,18209.066173
1022.208394,-3627.009116,-6358.592633,15988.448347
1022.208720,-1702.473667,-5209.449386,14656.077652
1022.209046,1036.288319,-3140.991542,13545.768739
1022.209372,2516.700203,919.314598,10881.027347
1022.209698,4145.153275,4673.182538,7402.059420
1022.210025,6587.832884,5745.716235,6217.729913
1022.210351,6069.688724,5745.716235,4219.173869
1022.210677,4811.338623,6511.811733,2960.823768
1022.211003,3552.988522,6128.763984,3256.906145
1022.211329,2368.659014,4596.572988,5033.400406
1022.211655,370.102971,1608.800546,6957.935855
1022.211981,-1184.329507,-842.705048,8734.430116
1022.212307,-3182.885551,-2451.505594,8808.450710
1022.212633,-4219.173869,-2911.162892,7846.182985
1022.212959,-3701.029710,-2987.772442,8364.327145
1022.213285,-2368.659014,-1378.971896,8142.265362
1022.213611,-1480.411884,1685.410096,7550.100608
1022.213937,0.000000,3524.039291,6735.874072
1022.214263,888.247130,4213.525239,5921.647536
1022.214589,814.226536,4136.915689,6217.729913
1022.214915,296.082377,4290.134789,6735.874072
1022.215241,-370.102971,3677.258390,8586.388927
1022.215567,-1628.453072,766.095498,11769.274478
1022.215893,-2812.782580,-1838.629195,14137.933492
1022.216219,-3775.050304,-3830.477490,15988.448347
1022.216545,-4145.153275,-5132.839837,16654.633695
1022.216871,-3701.029710,-5669.106685,16284.530724
1022.217198,-2294.638420,-5515.887586,16432.571912
1022.217524,-740.205942,-3524.039291,14804.118840
1022.217850,740.205942,-766.095498,12361.439231
1022.218176,3701.029710,2374.896044,9844.739029
1022.218502,4737.318029,4596.572988,7328.038826
1022.218828,4663.297435,7201.297681,4885.359217
1022.219154,5107.421000,7354.516781,3775.050304
1022.219480,4293.194464,6741.640382,4219.173869
1022.219806,3108.864956,5286.058936,4959.379811
1022.220132,1184.329507,2987.772442,5773.606348
1022.220458,0.000000,842.705048,7031.956449
1022.220784,-1998.556043,-1915.238745,8216.285956
1022.221110,-3923.091493,-3294.210641,9252.574275
1022.221436,-4441.235652,-3677.258390,9474.636058
1022.221762,-3627.009116,-2681.334243,7994.224174
1022.222088,-1554.432478,-1225.752797,7402.059420
1022.222414,0.000000,536.266849,7179.997637
1022.222740,370.102971,3064.381992,5921.647536
1022.223066,962.267725,4826.401637,5773.606348
1022.223392,2146.597232,4060.306139,6661.853478
1022.223718,1554.432478,2834.553343,7698.141797
1022.224044,74.020594,1455.581446,9400.615463
1022.224371,-518.144159,459.657299,11917.315666
1022.224697,-962.267725,-2145.067394,14434.015869
1022.225023,-2294.638420,-4903.011187,16654.633695
1022.225349,-3997.112087,-6281.983084,17616.901420
1022.225675,-3849.070898,-6052.154434,16506.592507
1022.226001,-1628.453072,-5592.497135,15470.304188
1022.226327,740.205942,-3677.258390,14359.995275
1022.226653,1406.391290,0.000000,11251.130318
1022.226979,3182.885551,3830.477490,8438.347739
1022.227305,5773.606348,5515.887586,6661.853478
1022.227631,5477.523971,6358.592633,5107.421000
1022.227957,4145.153275,6971.469032,3849.070898
1022.228283,3775.050304,6588.421283,3552.988522
1022.228609,2960.823768,5056.230287,4885.359217
1022.228935,888.247130,2451.505594,6661.853478
1022.229261,-1850.514855,-383.047749,8586.388927
1022.229587,-4737.318029,-1838.629195,8808.450710
1022.229913,-5329.482782,-3370.820191,8660.409521
1022.230239,-4219.173869,-4443.353888,9104.533087
1022.230565,-3330.926739,-2681.334243,8882.471304
1022.230891,-2812.782580,689.485948,6809.894666
1022.231218,-222.061783,2834.553343,6513.812290
1022.231544,1628.453072,3677.258390,6365.771101
1022.231870,1406.391290,4596.572988,6143.709319
1022.232196,888.247130,5209.449386,6365.771101
1022.232522,1110.308913,4519.963438,7698.141797
1022.232848,518.144159,2298.286494,10288.862594
1022.233174,-814.226536,-1072.533697,13249.686362
1022.233500,-2442.679609,-3294.210641,14359.995275
1022.233826,-4145.153275,-4749.792088,15840.407159
1022.234152,-3775.050304,-6588.421283,16654.633695
1022.234478,-3478.967927,-7124.688131,16802.674883
1022.234804,-3108.864956,-5056.230287,15026.180623
1022.235130,-666.185348,-2145.067394,12657.521608
1022.235456,2664.741391,612.876398,10288.862594
1022.235782,5107.421000,3064.381992,8142.265362
1022.236108,4959.379811,5898.935335,6217.729913
1022.236434,5551.544565,7660.954980,4219.173869
1022.236760,6143.709319,7277.907231,3627.009116
1022.237086,5033.400406,5515.887586,4885.359217
1022.237412,1998.556043,3447.429741,5477.523971
1022.237738,0.000000,1915.238745,6735.874072
1022.238064,-1110.308913,-995.924147,7994.224174
1022.238391,-2960.823768,-3677.258390,9844.739029
1022.238717,-4811.338623,-4673.182538,9104.533087
1022.239043,-4737.318029,-3447.429741,7920.203579
1022.239369,-2664.741391,-2221.676944,7179.997637
1022.239695,-592.164754,459.657299,7846.182985
1022.240021,1184.329507,3064.381992,7846.182985
1022.240347,1924.535449,5362.668486,6291.750507
1022.240673,1924.535449,5209.449386,5773.606348
1022.240999,2960.823768,3294.210641,7179.997637
1022.241325,962.267725,2528.115143,9252.574275
1022.241651,-1036.288319,1915.238745,11325.150913
1022.241977,-1554.432478,-766.095498,14285.974681
1022.242303,-2220.617826,-5286.058936,16210.510130
1022.242629,-4515.256246,-6818.249932,17394.839637
1022.242955,-5403.503377,-6435.202183,16062.468941
1022.243281,-4367.215058,-5515.887586,15396.283594
1022.243607,-2294.638420,-4826.401637,14211.954086
1022.243933,0.000000,-2604.724693,13027.624579
1022.244259,1628.453072,1532.190996,9548.656652
1022.244585,3997.112087,5822.325785,6587.832884
1022.244911,6217.729913,6588.421283,5551.544565
1022.245237,6439.791695,6358.592633,4885.359217
1022.245564,4441.235652,7124.688131,4071.132681
1022.245890,2812.782580,6205.373534,4663.297435
1022.246216,1480.411884,3217.601092,5625.565159
1022.246542,148.041188,459.657299,6957.935855
1022.246868,-3182.885551,-842.705048,7772.162391
1022.247194,-5107.421000,-2604.724693,7772.162391
1022.247520,-4737.318029,-3524.039291,7920.203579
1022.247846,-3034.844362,-3677.258390,8142.265362
1022.248172,-2368.659014,-1532.190996,7846.182985
1022.248498,-1184.329507,2374.896044,5847.626942
1022.248824,1628.453072,4749.792088,5699.585753
1022.249150,3330.926739,4979.620737,6587.832884
1022.249476,2368.659014,4903.011187,6587.832884
1022.249802,592.164754,4443.353888,6587.832884
1022.250128,1110.308913,2681.334243,9030.512492
1022.250454,444.123565,0.000000,12435.459826
1022.250780,-1702.473667,-2221.676944,15174.221811
1022.251106,-3997.112087,-4443.353888,16062.468941
1022.251432,-4219.173869,-6205.373534,16802.674883
1022.251758,-3775.050304,-7201.297681,17246.798449
1022.252084,-2368.659014,-5669.106685,16876.695478
1022.252411,-518.144159,-2757.943793,14285.974681
1022.252737,1924.535449,459.657299,11843.295072
1022.253063,5107.421000,3140.991542,9622.677246
1022.253389,6365.771101,5132.839837,7328.038826
1022.253715,5625.565159,7354.516781,4737.318029
1022.254041,5181.441594,8197.221829,3034.844362
1022.254367,5181.441594,6281.983084,3997.112087
1022.254693,2368.659014,4366.744339,5329.482782
1022.255019,-148.041188,2528.115143,6513.812290
1022.255345,-2072.576638,0.000000,7698.141797
1022.255671,-3552.988522,-2604.724693,8142.265362
1022.255997,-4959.379811,-4290.134789,8882.471304
1022.256323,-4293.194464,-3524.039291,8882.471304
1022.256649,-3256.906145,-995.924147,7624.121203
1022.256975,-1332.370696,766.095498,7179.997637
1022.257301,962.267725,2068.457845,7402.059420
1022.257627,1332.370696,3830.477490,6069.688724
1022.257953,1258.350101,6052.154434,4737.318029
1022.258279,2220.617826,5209.449386,5773.606348
1022.258605,1110.308913,4136.915689,7476.080014
1022.258931,-1406.391290,1225.752797,9400.615463
1022.259257,-2960.823768,-383.047749,11917.315666
1022.259584,-3849.070898,-3217.601092,14285.974681
1022.259910,-5329.482782,-5975.544884,16062.468941
1022.260236,-5921.647536,-6741.640382,16950.716072
1022.260562,-4811.338623,-6588.421283,16802.674883
1022.260888,-2368.659014,-5132.839837,15914.427753
1022.261214,0.000000,-3447.429741,13989.892304
1022.261540,1776.494261,0.000000,11547.212695
1022.261866,3627.009116,3524.039291,8438.347739
1022.262192,5699.585753,5975.544884,6661.853478
1022.262518,7105.977043,6741.640382,5699.585753
1022.262844,6217.729913,6894.859482,4589.276840
1022.263170,5107.421000,6894.859482,3923.091493
1022.263496,3849.070898,4903.011187,4737.318029
1022.263822,1554.432478,2451.505594,6587.832884
1022.264148,-814.226536,0.000000,8364.327145
1022.264474,-3256.906145,-1685.410096,9326.594869
1022.264800,-4219.173869,-3140.991542,8808.450710
1022.265126,-3849.070898,-4596.572988,8660.409521
1022.265452,-3034.844362,-2834.553343,8438.347739
1022.265778,-1702.473667,-536.266849,7254.018232
1022.266104,-370.102971,2451.505594,7105.977043
1022.266430,1702.473667,3064.381992,7031.956449
1022.266757,1702.473667,3600.648841,7031.956449
1022.267083,1110.308913,4366.744339,6439.791695
1022.267409,1110.308913,3907.087040,7624.121203
1022.267735,518.144159,1225.752797,9844.739029
1022.268061,-740.205942,-842.705048,12509.480420
1022.268387,-1776.494261,-2451.505594,15322.262999
1022.268713,-3256.906145,-4136.915689,16654.633695
1022.269039,-3701.029710,-6128.763984,16580.613101
1022.269365,-2886.803174,-7048.078582,16358.551318
1022.269691,-1554.432478,-4903.011187,15914.427753
1022.270017,74.020594,-1378.971896,13249.686362
1022.270343,2368.659014,1072.533697,10658.965565
1022.270669,4441.235652,2987.772442,8956.491898
1022.270995,4367.215058,4903.011187,6069.688724
1022.271321,4737.318029,6971.469032,3997.112087
1022.271647,4737.318029,7354.516781,3701.029710
1022.271973,3034.844362,5898.935335,3552.988522
1022.272299,1406.391290,4366.744339,4811.338623
1022.272625,0.000000,2604.724693,6439.791695
1022.272951,-2146.597232,459.657299,7105.977043
1022.273277,-4589.276840,-1915.238745,7846.182985
1022.273604,-5181.441594,-3677.258390,8068.244768
1022.273930,-4737.318029,-3064.381992,7772.162391
1022.274256,-3108.864956,-1532.190996,7550.100608
1022.274582,-1258.350101,153.219100,7328.038826
1022.274908,-518.144159,2911.162892,6439.791695
1022.275234,370.102971,3677.258390,5625.565159
1022.275560,1406.391290,4443.353888,6439.791695
1022.275886,1332.370696,4213.525239,7328.038826
1022.276212,592.164754,3140.991542,9252.574275
1022.276538,0.000000,1072.533697,11325.150913
1022.276864,-666.185348,-1225.752797,13249.686362
1022.277190,-1554.432478,-3064.381992,16062.468941
1022.277516,-3034.844362,-4519.963438,17542.880825
1022.277842,-3849.070898,-6128.763984,17098.757260
1022.278168,-2516.700203,-6588.421283,16580.613101
1022.278494,-518.144159,-4519.963438,15766.386565
1022.278820,888.247130,-766.095498,13249.686362
1022.279146,2664.741391,1532.190996,9844.739029
1022.279472,4737.318029,3907.087040,7772.162391
1022.279798,6217.729913,4979.620737,6291.750507
1022.280124,5773.606348,6741.640382,4589.276840
1022.280450,4959.379811,7890.783629,4219.173869
1022.280777,4219.173869,5975.544884,4515.256246
1022.281103,3330.926739,2451.505594,5329.482782
1022.281429,444.123565,1378.971896,7328.038826
1022.281755,-2960.823768,0.000000,8142.265362
1022.282081,-4737.318029,-2451.505594,8068.244768
1022.282407,-4515.256246,-4826.401637,8364.327145
1022.282733,-4219.173869,-4290.134789,8142.265362
1022.283059,-3775.050304,-1302.362347,6883.915261
1022.283385,-2146.597232,1225.752797,6291.750507
1022.283711,0.000000,2987.772442,6069.688724
1022.284037,1110.308913,4136.915689,5847.626942
1022.284363,814.226536,4749.792088,5551.544565
1022.284689,1110.308913,4903.011187,6291.750507
1022.285015,740.205942,3370.820191,8512.368333
1022.285341,222.061783,383.047749,11621.233289
1022.285666,-1554.432478,-1532.190996,13619.789333
1022.285992,-3997.112087,-3294.210641,16062.468941
1022.286318,-3849.070898,-6128.763984,17542.880825
1022.286644,-3330.926739,-7737.564530,17394.839637
1022.286970,-3404.947333,-6971.469032,16802.674883
1022.287296,-2294.638420,-4290.134789,15026.180623
1022.287622,962.267725,-842.705048,12953.603985
1022.287948,4515.256246,1685.410096,10584.944971
1022.288274,5181.441594,4136.915689,8216.285956
1022.288600,5255.462188,6588.421283,4589.276840
1022.288926,5847.626942,7584.345430,3182.885551
1022.289252,5699.585753,7201.297681,4071.132681
1022.289578,3627.009116,5286.058936,5107.421000
1022.289904,666.185348,3370.820191,5625.565159
1022.290230,-888.247130,612.876398,6957.935855
1022.290556,-2886.803174,-2757.943793,8586.388927
1022.290882,-4737.318029,-4519.963438,9326.594869
1022.291208,-5625.565159,-4443.353888,8142.265362
1022.291534,-3627.009116,-3524.039291,8142.265362
1022.291860,-1406.391290,-1532.190996,8068.244768
1022.292186,74.020594,1685.410096,7550.100608
1022.292512,1332.370696,3830.477490,6069.688724
1022.292838,2442.679609,5439.278036,5699.585753
1022.293164,3404.947333,4749.792088,6069.688724
1022.293490,2738.761985,3753.867940,8364.327145
1022.293816,296.082377,2911.162892,10066.800811
1022.294142,-1110.308913,383.047749,11917.315666
1022.294468,-1924.535449,-3294.210641,14582.057057
1022.294794,-3627.009116,-5898.935335,16802.674883
1022.295120,-5403.503377,-6665.030833,16876.695478
1022.295445,-4737.318029,-6818.249932,16210.510130
1022.295771,-2664.741391,-5362.668486,15766.386565
1022.296097,0.000000,-3294.210641,14211.954086
1022.296423,1406.391290,995.924147,11621.233289
1022.296749,3404.947333,4673.182538,7846.182985
1022.297075,5551.544565,6435.202183,5551.544565
1022.297401,6439.791695,6971.469032,4663.297435
1022.297727,4959.379811,7584.345430,3701.029710
1022.298053,3034.844362,7431.126331,3552.988522
1022.298379,2442.679609,4596.572988,5107.421000
1022.298705,666.185348,1455.581446,7031.956449
1022.299031,-2294.638420,-612.876398,7846.182985
1022.299357,-4737.318029,-1149.143247,8068.244768
1022.299683,-4515.256246,-3600.648841,8512.368333
1022.300009,-2960.823768,-4443.353888,8808.450710
1022.300335,-2368.659014,-1685.410096,8438.347739
1022.300661,-1332.370696,1608.800546,6883.915261
1022.300987,814.226536,4060.306139,6365.771101
1022.301313,2590.720797,4596.572988,6809.894666
1022.301639,2590.720797,5362.668486,6735.874072
1022.301965,1332.370696,5209.449386,6661.853478
1022.302291,444.123565,2987.772442,8512.368333
1022.302617,-222.061783,0.000000,11325.150913
1022.302943,-1628.453072,-2451.505594,13767.830521
1022.303269,-3775.050304,-3983.696590,15988.448347
1022.303595,-4737.318029,-5515.887586,16950.716072
1022.303921,-4293.194464,-7124.688131,16580.613101
1022.304247,-2886.803174,-6894.859482,16358.551318
1022.304573,-1036.288319,-4903.011187,15692.365970
1022.304899,1480.411884,-1072.533697,12361.439231
1022.305224,4293.194464,2528.115143,9696.697840
1022.305550,6735.874072,4519.963438,8438.347739
1022.305876,6069.688724,6741.640382,5773.606348
1022.306202,5403.503377,7277.907231,3330.926739
1022.306528,5921.647536,6511.811733,4293.194464
1022.306854,4219.173869,3907.087040,4663.297435
1022.307180,1184.329507,2757.943793,5255.462188
1022.307506,-1258.350101,766.095498,7105.977043
1022.307832,-3256.906145,-1762.019645,8142.265362
1022.308158,-4737.318029,-4443.353888,8882.471304
1022.308484,-5033.400406,-4749.792088,8808.450710
1022.308810,-4515.256246,-3140.991542,7624.121203
1022.309136,-2146.597232,-306.438199,6587.832884
1022.309462,666.185348,1455.581446,7476.080014
1022.309788,1628.453072,3217.601092,7031.956449
1022.310114,1332.370696,4903.011187,5773.606348
1022.310440,1480.411884,5132.839837,5625.565159
1022.310766,1702.473667,3907.087040,7105.977043
1022.311092,370.102971,2145.067394,10436.903782
1022.311418,-1406.391290,229.828649,11547.212695
1022.311744,-2294.638420,-2068.457845,13841.851115
1022.312070,-3775.050304,-4903.011187,16580.613101
1022.312396,-4663.297435,-6052.154434,17690.922014
1022.312722,-4515.256246,-6358.592633,17024.736666
1022.313048,-2886.803174,-5209.449386,16062.468941
1022.313374,-666.185348,-2987.772442,14804.118840
1022.313700,2294.638420,0.000000,12583.501014
1022.314026,4219.173869,3830.477490,9178.553681
1022.314352,5107.421000,5975.544884,6883.915261
1022.314677,6217.729913,6358.592633,5181.441594
1022.315003,5551.544565,6971.469032,4367.215058
1022.315329,3775.050304,7277.907231,3997.112087
1022.315655,2072.576638,5822.325785,4441.235652
1022.315981,222.061783,2604.724693,5255.462188
1022.316307,-1258.350101,-689.485948,7179.997637
1022.316633,-3701.029710,-2221.676944,8808.450710
1022.316959,-5033.400406,-2528.115143,8808.450710
1022.317285,-4367.215058,-3370.820191,8438.347739
1022.317611,-2664.741391,-3217.601092,8216.285956
1022.317937,-2072.576638,-689.485948,7031.956449
1022.318263,-1110.308913,3064.381992,6217.729913
1022.318589,1110.308913,4749.792088,5255.462188
1022.318915,2072.576638,4366.744339,5921.647536
1022.319241,740.205942,4136.915689,5995.668130
1022.319567,0.000000,3907.087040,6883.915261
1022.319893,296.082377,1915.238745,8882.471304
1022.320219,-296.082377,-536.266849,11843.295072
1022.320545,-1998.556043,-2604.724693,14582.057057
1022.320871,-3034.844362,-3677.258390,16876.695478
1022.321197,-3404.947333,-4596.572988,17246.798449
1022.321523,-2368.659014,-5898.935335,16802.674883
1022.321849,-1554.432478,-6205.373534,16062.468941
1022.322175,-296.082377,-2604.724693,14211.954086
1022.322501,2442.679609,2298.286494,11399.171507
1022.322827,4885.359217,2987.772442,9770.718434
1022.323153,4811.338623,4443.353888,8068.244768
1022.323479,3923.091493,5209.449386,5181.441594
1022.323805,3627.009116,6741.640382,4219.173869
1022.324131,2812.782580,5898.935335,4367.215058
1022.324456,1036.288319,3447.429741,5699.585753
1022.324782,-444.123565,1378.971896,7179.997637
1022.325108,-1554.432478,0.000000,7994.224174
1022.325434,-3330.926739,-1225.752797,7920.203579
1022.325760,-3849.070898,-3447.429741,8290.306550
1022.326086,-3701.029710,-3294.210641,7698.141797
1022.326412,-1702.473667,-383.047749,7179.997637
1022.326738,888.247130,1455.581446,6661.853478
1022.327064,2146.597232,3140.991542,6439.791695
1022.327390,1850.514855,4443.353888,5181.441594
1022.327716,2590.720797,5898.935335,4811.338623
1022.328042,2664.741391,4903.011187,6513.812290
1022.328368,1850.514855,2834.553343,8364.327145
1022.328694,0.000000,766.095498,10510.924376
1022.329020,-1184.329507,-766.095498,13101.645173
1022.329346,-2368.659014,-3064.381992,15174.221811
1022.329672,-4367.215058,-5669.106685,17024.736666
1022.329998,-6365.771101,-7890.783629,16950.716072
1022.330324,-5699.585753,-7737.564530,16136.489536
1022.330650,-3182.885551,-5898.935335,15396.283594
1022.330976,-888.247130,-2987.772442,13841.851115
1022.331302,444.123565,-229.828649,10807.006753
1022.331628,2590.720797,2451.505594,8142.265362
1022.331954,4145.153275,4903.011187,6439.791695
1022.332280,5255.462188,6665.030833,5403.503377
1022.332606,4737.318029,6818.249932,4811.338623
1022.332932,3923.091493,5822.325785,5033.400406
1022.333258,3552.988522,3830.477490,6069.688724
1022.333584,2220.617826,2068.457845,7698.141797
1022.333910,-740.205942,76.609550,8956.491898
1022.334235,-3182.885551,-1532.190996,8512.368333
1022.334561,-2368.659014,-2987.772442,9104.533087
1022.334887,-1406.391290,-3064.381992,8364.327145
1022.335213,-1850.514855,-76.609550,7550.100608
1022.335539,-1110.308913,2681.334243,6291.750507
1022.335865,666.185348,3753.867940,5551.544565
1022.336191,1628.453072,4136.915689,5403.503377
1022.336517,666.185348,4903.011187,5477.523971
1022.336843,-740.205942,4903.011187,6365.771101
1022.337169,-370.102971,3140.991542,7772.162391
1022.337495,-1258.350101,459.657299,11177.109724
1022.337821,-2812.782580,-2221.676944,13915.871710
1022.338147,-5181.441594,-3830.477490,15322.262999
1022.338473,-5033.400406,-5439.278036,17024.736666
1022.338799,-3478.967927,-6971.469032,17468.860231
1022.339125,-3108.864956,-6052.154434,16802.674883
1022.339451,-1332.370696,-4366.744339,14730.098246
1022.339777,2072.576638,-689.485948,12953.603985
1022.340103,4959.379811,2451.505594,10732.986159
1022.340429,6513.812290,4826.401637,8660.409521
1022.340755,6735.874072,6971.469032,6661.853478
1022.341081,7031.956449,7890.783629,4293.194464
1022.341407,6587.832884,7201.297681,4959.379811
1022.341733,5255.462188,5592.497135,5255.462188
1022.342059,1850.514855,3677.258390,5699.585753
1022.342385,-1036.288319,1608.800546,7105.977043
1022.342711,-2590.720797,-1838.629195,8438.347739
1022.343037,-4663.297435,-3907.087040,8290.306550
1022.343363,-5847.626942,-4290.134789,7476.080014
1022.343688,-5699.585753,-2911.162892,6587.832884
1022.344014,-3404.947333,-766.095498,6513.812290
1022.344340,-1036.288319,1532.190996,6587.832884
1022.344666,0.000000,3447.429741,6143.709319
1022.344992,0.000000,4673.182538,5181.441594
1022.345318,518.144159,4443.353888,5551.544565
1022.345644,1850.514855,3677.258390,7402.059420
1022.345970,0.000000,1991.848295,9474.636058
1022.346296,-1702.473667,-306.438199,11621.233289
1022.346622,-2368.659014,-2987.772442,14137.933492
1022.346948,-2516.700203,-4979.620737,17024.736666
1022.347274,-3478.967927,-6128.763984,17764.942608
1022.347600,-4071.132681,-6665.030833,16580.613101
1022.347926,-1850.514855,-5515.887586,16136.489536
1022.348252,1554.432478,-3217.601092,14730.098246
1022.348578,3404.947333,229.828649,12435.459826
1022.348904,4737.318029,3830.477490,9474.636058
1022.349230,6217.729913,5822.325785,7328.038826
1022.349556,6957.935855,6511.811733,5699.585753
1022.349882,5699.585753,6588.421283,5329.482782
1022.350208,3108.864956,5592.497135,4959.379811
1022.350534,888.247130,3983.696590,5477.523971
1022.350860,0.000000,1072.533697,7402.059420
1022.351186,-2886.803174,-1838.629195,8734.430116
1022.351512,-6217.729913,-3524.039291,8290.306550
1022.351838,-7105.977043,-4673.182538,8216.285956
1022.352164,-5551.544565,-4673.182538,8290.306550
1022.352490,-3404.947333,-2604.724693,8068.244768
1022.352816,-1702.473667,459.657299,6365.771101
1022.353142,962.267725,3830.477490,5477.523971
1022.353467,3108.864956,5515.887586,4293.194464
1022.353793,4811.338623,6205.373534,5403.503377
1022.354119,3627.009116,6435.202183,5625.565159
1022.354445,2294.638420,5362.668486,6365.771101
1022.354771,2516.700203,2374.896044,8882.471304
1022.355097,1406.391290,-306.438199,12583.501014
1022.355423,-1924.535449,-2145.067394,14359.995275
1022.355749,-3997.112087,-3753.867940,15470.304188
1022.356075,-4145.153275,-6205.373534,16580.613101
1022.356401,-3478.967927,-7201.297681,16802.674883
1022.356727,-2664.741391,-4903.011187,16580.613101
1022.357053,-1110.308913,-1608.800546,13841.851115
1022.357379,1554.432478,1378.971896,10955.047942
1022.357705,4367.215058,2528.115143,9030.512492
1022.358031,4293.194464,4979.620737,7772.162391
1022.358357,3256.906145,7048.078582,5107.421000
1022.358683,3627.009116,7048.078582,4515.256246
1022.359009,2960.823768,4673.182538,5847.626942
1022.359335,1110.308913,2604.724693,6513.812290
1022.359661,-1554.432478,1762.019645,7624.121203
1022.359987,-2516.700203,-612.876398,8882.471304
1022.360313,-3997.112087,-3447.429741,9178.553681
1022.360639,-4145.153275,-4979.620737,9770.718434
1022.360965,-3627.009116,-2834.553343,9104.533087
1022.361291,-1702.473667,383.047749,7550.100608
1022.361617,1110.308913,2145.067394,7476.080014
1022.361943,2738.761985,3064.381992,6957.935855
1022.362269,2516.700203,5439.278036,5403.503377
1022.362595,2442.679609,6741.640382,4663.297435
1022.362921,2960.823768,5132.839837,5329.482782
1022.363246,1480.411884,2987.772442,7328.038826
1022.363572,-962.267725,1455.581446,9474.636058
1022.363898,-2590.720797,-536.266849,11547.212695
1022.364224,-3552.988522,-3217.601092,13545.768739
1022.364550,-4515.256246,-6665.030833,15914.427753
1022.364876,-4959.379811,-7048.078582,16654.633695
1022.365202,-3775.050304,-5822.325785,15470.304188
1022.365528,-1702.473667,-3830.477490,14730.098246
1022.365854,1480.411884,-1991.848295,13693.809927
1022.366180,3330.926739,919.314598,11251.130318
1022.366506,4737.318029,4213.525239,8216.285956
1022.366832,5625.565159,5975.544884,6365.771101
1022.367158,6217.729913,5745.716235,5403.503377
1022.367484,4441.235652,5822.325785,5699.585753
1022.367810,2442.679609,4903.011187,5773.606348
1022.368136,1036.288319,2681.334243,6365.771101
1022.368462,-444.123565,229.828649,7772.162391
1022.368788,-3404.947333,-1915.238745,8438.347739
1022.369114,-4811.338623,-2757.943793,8956.491898
1022.369440,-4737.318029,-3217.601092,8438.347739
1022.369766,-3330.926739,-2681.334243,8364.327145
1022.370092,-1850.514855,-1072.533697,8068.244768
1022.370418,-592.164754,1915.238745,6439.791695
1022.370744,1258.350101,4366.744339,5699.585753
1022.371070,2442.679609,4979.620737,5921.647536
1022.371396,1998.556043,4826.401637,5847.626942
1022.371722,888.247130,3370.820191,6365.771101
1022.372048,444.123565,2451.505594,8512.368333
1022.372374,-962.267725,689.485948,11325.150913
1022.372699,-2368.659014,-2068.457845,14211.954086
1022.373025,-3775.050304,-4366.744339,15988.448347
1022.373351,-4367.215058,-6588.421283,15914.427753
1022.373677,-4071.132681,-7124.688131,15840.407159
1022.374003,-2960.823768,-5362.668486,16432.571912
1022.374329,-1110.308913,-2911.162892,14804.118840
1022.374655,1406.391290,0.000000,12435.459826
1022.374981,3923.091493,1838.629195,9770.718434
1022.375307,4885.359217,4136.915689,7476.080014
1022.375633,5033.400406,6052.154434,4885.359217
1022.375959,4959.379811,6435.202183,4441.235652
1022.376285,3478.967927,5439.278036,4885.359217
1022.376611,2442.679609,3983.696590,5477.523971
1022.376937,1110.308913,2681.334243,7105.977043
1022.377263,-666.185348,766.095498,8068.244768
1022.377589,-2886.803174,-1762.019645,8142.265362
1022.377915,-3849.070898,-2911.162892,8364.327145
1022.378241,-3627.009116,-3753.867940,8882.471304
1022.378567,-3108.864956,-1685.410096,7550.100608
1022.378893,-1628.453072,612.876398,6957.935855
1022.379219,444.123565,2451.505594,6883.915261
1022.379545,1110.308913,3907.087040,6069.688724
1022.379871,1110.308913,5056.230287,4737.318029
1022.380197,1998.556043,4673.182538,4885.359217
1022.380523,814.226536,3677.258390,7031.956449
1022.380849,-1036.288319,2987.772442,9252.574275
1022.381175,-1406.391290,1072.533697,11695.253884
1022.381501,-2146.597232,-1915.238745,13619.789333
1022.381827,-3701.029710,-4826.401637,15692.365970
1022.382153,-4737.318029,-6128.763984,16506.592507
1022.382478,-3627.009116,-5975.544884,16284.530724
1022.382804,-1850.514855,-4443.353888,15988.448347
1022.383130,222.061783,-3753.867940,15100.201217
1022.383456,1998.556043,0.000000,12361.439231
1022.383782,3849.070898,3677.258390,8660.409521
1022.384108,5773.606348,5592.497135,7105.977043
1022.384434,6439.791695,6052.154434,5625.565159
1022.384760,5625.565159,7277.907231,4885.359217
1022.385086,4441.235652,6894.859482,4737.318029
1022.385412,2664.741391,4903.011187,5699.585753
1022.385738,888.247130,1838.629195,7105.977043
1022.386064,-1480.411884,-1378.971896,8586.388927
1022.386390,-4367.215058,-3140.991542,8808.450710
1022.386716,-5255.462188,-4519.963438,8808.450710
1022.387041,-4071.132681,-4519.963438,8956.491898
1022.387367,-3627.009116,-2834.553343,8364.327145
1022.387693,-2442.679609,0.000000,6661.853478
1022.388019,-740.205942,2068.457845,6439.791695
1022.388345,962.267725,3370.820191,5995.668130
1022.388671,1702.473667,4136.915689,5625.565159
1022.388997,1332.370696,4519.963438,5773.606348
1022.389323,518.144159,3370.820191,7031.956449
1022.389649,518.144159,1685.410096,9104.533087
1022.389975,-444.123565,-536.266849,11991.336260
1022.390301,-2590.720797,-2757.943793,14285.974681
1022.390627,-4441.235652,-4903.011187,15766.386565
1022.390952,-3627.009116,-6971.469032,16136.489536
1022.391278,-2590.720797,-6894.859482,16950.716072
1022.391604,-1628.453072,-3907.087040,15100.201217
1022.391930,814.226536,-1378.971896,12879.583391
1022.392256,3552.988522,2068.457845,10214.842000
1022.392582,5699.585753,3907.087040,8956.491898
1022.392908,5551.544565,6588.421283,6883.915261
1022.393234,5551.544565,7890.783629,4589.276840
1022.393560,5625.565159,7201.297681,4663.297435
1022.393886,4589.276840,5132.839837,5403.503377
1022.394212,1776.494261,3753.867940,6291.750507
1022.394538,-888.247130,1838.629195,7698.141797
1022.394863,-2886.803174,-1302.362347,9326.594869
1022.395189,-4737.318029,-4596.572988,9992.780217
1022.395515,-5773.606348,-5209.449386,9474.636058
1022.395841,-5477.523971,-3294.210641,8586.388927
1022.396167,-3034.844362,-459.657299,7846.182985
1022.396493,-518.144159,919.314598,7254.018232
1022.396819,444.123565,2834.553343,6883.915261
1022.397145,1110.308913,5439.278036,5921.647536
1022.397471,1850.514855,6205.373534,4737.318029
1022.397797,2738.761985,4826.401637,5921.647536
1022.398123,1628.453072,2757.943793,8364.327145
1022.398449,-370.102971,1991.848295,9844.739029
1022.398774,-1776.494261,-306.438199,12287.418637
1022.399100,-2368.659014,-3983.696590,14804.118840
1022.399426,-3627.009116,-6511.811733,16580.613101
1022.399752,-4737.318029,-6665.030833,15618.345376
1022.400078,-3701.029710,-4903.011187,15396.283594
1022.400404,-518.144159,-3830.477490,14582.057057
1022.400730,1924.535449,-995.924147,12805.562797
1022.401056,3404.947333,2451.505594,9992.780217
1022.401382,4885.359217,5515.887586,7179.997637
1022.401708,5921.647536,7048.078582,5181.441594
1022.402034,6217.729913,6281.983084,4959.379811
1022.402360,4071.132681,6128.763984,5107.421000
1022.402685,1702.473667,5209.449386,5255.462188
1022.403011,666.185348,2911.162892,7254.018232
1022.403337,-1184.329507,-919.314598,9326.594869
1022.403663,-4885.359217,-2911.162892,9400.615463
1022.403989,-6143.709319,-4290.134789,8734.430116
1022.404315,-5181.441594,-5056.230287,8438.347739
1022.404641,-3923.091493,-3294.210641,9474.636058
1022.404967,-2368.659014,306.438199,8956.491898
1022.405293,-148.041188,3983.696590,6809.894666
1022.405619,2146.597232,4673.182538,4367.215058
1022.405945,3701.029710,4673.182538,4441.235652
1022.406270,2960.823768,6052.154434,5403.503377
1022.406596,1924.535449,7201.297681,6735.874072
1022.406922,1776.494261,4213.525239,8882.471304
1022.407248,962.267725,-995.924147,11621.233289
1022.407574,-1850.514855,-2757.943793,13915.871710
1022.407900,-3997.112087,-3524.039291,15100.201217
1022.408226,-4071.132681,-5362.668486,15692.365970
1022.408552,-2960.823768,-7354.516781,16802.674883
1022.408878,-2368.659014,-7048.078582,16654.633695
1022.409204,-592.164754,-2451.505594,14285.974681
1022.409530,2294.638420,2298.286494,10955.047942
1022.409856,5107.421000,3370.820191,9104.533087
1022.410181,6143.709319,4903.011187,7772.162391
1022.410507,5255.462188,6435.202183,4959.379811
1022.410833,4737.318029,7890.783629,3775.050304
1022.411159,4071.132681,5439.278036,5329.482782
1022.411485,1406.391290,2374.896044,6439.791695
1022.411811,-1628.453072,689.485948,7254.018232
1022.412137,-3775.050304,-689.485948,8068.244768
1022.412463,-5107.421000,-3600.648841,8882.471304
1022.412789,-5255.462188,-6818.249932,9326.594869
1022.413115,-4737.318029,-4366.744339,9252.574275
1022.413441,-3923.091493,-306.438199,7254.018232
1022.413767,-296.082377,1302.362347,5921.647536
1022.414092,3108.864956,2528.115143,6661.853478
1022.414418,3404.947333,5362.668486,6217.729913
1022.414744,2368.659014,8197.221829,4959.379811
1022.415070,3552.988522,5975.544884,5181.441594
1022.415396,3034.844362,3294.210641,7550.100608
1022.415722,74.020594,229.828649,9844.739029
1022.416048,-2072.576638,0.000000,12435.459826
1022.416374,-3330.926739,-2374.896044,15248.242405
1022.416700,-4737.318029,-6511.811733,17320.819043
1022.417026,-4959.379811,-9346.365076,17912.983796
1022.417352,-4441.235652,-7124.688131,16432.571912
1022.417678,-2220.617826,-3217.601092,14878.139434
1022.418003,518.144159,-1225.752797,13619.789333
1022.418329,2812.782580,1149.143247,11695.253884
1022.418655,3775.050304,4136.915689,8216.285956
1022.418981,4589.276840,6588.421283,5699.585753
1022.419307,4885.359217,6741.640382,4737.318029
1022.419633,3478.967927,5286.058936,4515.256246
1022.419959,2516.700203,4519.963438,5255.462188
1022.420285,1110.308913,3447.429741,6513.812290
1022.420611,-518.144159,995.924147,8290.306550
1022.420937,-2516.700203,-2604.724693,9474.636058
1022.421263,-4145.153275,-3600.648841,9474.636058
1022.421588,-4293.194464,-3294.210641,8512.368333
1022.421914,-1998.556043,-2604.724693,8364.327145
1022.422240,222.061783,-459.657299,8142.265362
1022.422566,592.164754,2451.505594,6513.812290
1022.422892,1850.514855,4979.620737,5181.441594
1022.423218,3182.885551,5898.935335,4811.338623
1022.423544,2886.803174,5132.839837,5329.482782
1022.423870,1258.350101,4290.134789,5773.606348
1022.424196,-370.102971,3447.429741,7550.100608
1022.424522,-1702.473667,995.924147,10510.924376
1022.424848,-3182.885551,-2757.943793,13619.789333
1022.425174,-5181.441594,-4979.620737,15692.365970
1022.425499,-6069.688724,-6435.202183,16506.592507
1022.425825,-5033.400406,-6971.469032,16136.489536
1022.426151,-3330.926739,-5975.544884,16654.633695
1022.426477,-1332.370696,-3907.087040,15100.201217
1022.426803,666.185348,536.266849,12065.356855
1022.427129,4145.153275,3294.210641,9030.512492
1022.427455,6513.812290,5056.230287,7846.182985
1022.427781,5921.647536,7354.516781,6069.688724
1022.428107,5403.503377,8273.831378,4071.132681
1022.428433,5477.523971,6511.811733,4441.235652
1022.428759,4367.215058,4596.572988,5847.626942
1022.429085,2220.617826,2604.724693,7698.141797
1022.429410,0.000000,1378.971896,9178.553681
1022.429736,-2368.659014,-995.924147,9178.553681
1022.430062,-3330.926739,-4060.306139,9696.697840
1022.430388,-4145.153275,-4979.620737,9400.615463
1022.430714,-3627.009116,-2068.457845,7846.182985
1022.431040,-2738.761985,919.314598,6883.915261
1022.431366,-370.102971,2145.067394,7179.997637
1022.431692,592.164754,2834.553343,6069.688724
1022.432018,0.000000,4443.353888,4885.359217
1022.432344,0.000000,4749.792088,4589.276840
1022.432670,-370.102971,3217.601092,6143.709319
1022.432996,-962.267725,1072.533697,8808.450710
1022.433321,-2072.576638,-229.828649,11991.336260
1022.433647,-3552.988522,-2528.115143,13471.748144
1022.433973,-2886.803174,-5745.716235,15692.365970
1022.434299,-3478.967927,-7354.516781,16950.716072
1022.434625,-3034.844362,-6741.640382,16506.592507
1022.434951,-1406.391290,-4366.744339,15470.304188
1022.435277,1850.514855,-2298.286494,14063.912898
1022.435603,3849.070898,536.266849,12065.356855
1022.435929,4441.235652,3830.477490,8956.491898
1022.436255,5403.503377,5745.716235,6143.709319
1022.436581,5921.647536,6818.249932,5181.441594
1022.436906,5181.441594,5975.544884,4663.297435
1022.437232,3478.967927,5132.839837,5181.441594
1022.437558,1554.432478,4290.134789,5477.523971
1022.437884,444.123565,1762.019645,7105.977043
1022.438210,-1776.494261,-1302.362347,9178.553681
1022.438536,-4737.318029,-2987.772442,9030.512492
1022.438862,-6513.812290,-4749.792088,9104.533087
1022.439188,-4811.338623,-4443.353888,8882.471304
1022.439514,-3182.885551,-2834.553343,8956.491898
1022.439840,-1702.473667,-383.047749,7698.141797
1022.440166,-444.123565,2451.505594,6883.915261
1022.440492,1628.453072,4366.744339,5995.668130
1022.440817,2516.700203,4366.744339,6439.791695
1022.441143,1850.514855,4903.011187,6365.771101
1022.441469,1406.391290,4903.011187,7476.080014
1022.441795,1480.411884,2834.553343,9474.636058
1022.442121,888.247130,0.000000,12657.521608
1022.442447,-1554.432478,-2068.457845,14804.118840
1022.442773,-4367.215058,-3753.867940,15692.365970
1022.443099,-3997.112087,-5592.497135,15840.407159
1022.443425,-2590.720797,-6435.202183,15840.407159
1022.443751,-1184.329507,-4673.182538,15322.262999
1022.444077,0.000000,-995.924147,12583.501014
1022.444403,2516.700203,2298.286494,9918.759623
1022.444728,5033.400406,4290.134789,7550.100608
1022.445054,5773.606348,6052.154434,5847.626942
1022.445380,4663.297435,8120.612279,4145.153275
1022.445706,4737.318029,8350.440928,3923.091493
1022.446032,4293.194464,6205.373534,4737.318029
1022.446358,2368.659014,3294.210641,6513.812290
1022.446684,-296.082377,1915.238745,7476.080014
1022.447010,-3330.926739,-306.438199,8142.265362
1022.447336,-4663.297435,-3600.648841,9474.636058
1022.447662,-5033.400406,-5362.668486,9992.780217
1022.447988,-5403.503377,-4136.915689,9030.512492
1022.448314,-3701.029710,-1838.629195,7402.059420
1022.448639,-1332.370696,383.047749,7105.977043
1022.448965,1110.308913,2528.115143,6661.853478
1022.449291,1406.391290,4903.011187,6143.709319
1022.449617,1480.411884,5898.935335,5255.462188
1022.449943,2294.638420,4903.011187,5699.585753
1022.450269,2294.638420,2681.334243,8438.347739
1022.450595,0.000000,842.705048,10881.027347
1022.450921,-2146.597232,-536.266849,12879.583391
1022.451247,-2886.803174,-4136.915689,15100.201217
1022.451573,-2886.803174,-6894.859482,17542.880825
1022.451899,-4219.173869,-7201.297681,16728.654289
1022.452224,-3478.967927,-6205.373534,16136.489536
1022.452550,-1036.288319,-4213.525239,14508.036463
1022.452876,1998.556043,-2298.286494,13101.645173
1022.453202,3404.947333,1455.581446,10955.047942
1022.453528,4885.359217,5592.497135,8290.306550
1022.453854,5403.503377,7277.907231,5107.421000
1022.454180,5995.668130,5898.935335,4515.256246
1022.454506,4737.318029,5669.106685,5033.400406
1022.454832,2146.597232,5132.839837,5181.441594
1022.455158,296.082377,3217.601092,6069.688724
1022.455484,-1036.288319,-995.924147,7994.224174
1022.455810,-3552.988522,-4213.525239,9252.574275
1022.456135,-5995.668130,-4443.353888,8586.388927
1022.456461,-5847.626942,-3907.087040,8068.244768
1022.456787,-3627.009116,-3217.601092,8068.244768
1022.457113,-1554.432478,-1685.410096,7698.141797
1022.457439,0.000000,2221.676944,7402.059420
1022.457765,1480.411884,5286.058936,5921.647536
1022.458091,2368.659014,6128.763984,5551.544565
1022.458417,3775.050304,4903.011187,5477.523971
1022.458743,2442.679609,4213.525239,6217.729913
1022.459069,296.082377,4213.525239,7994.224174
1022.459395,-296.082377,1455.581446,11103.089130
1022.459721,-1332.370696,-2145.067394,14211.954086
1022.460046,-3997.112087,-4673.182538,15914.427753
1022.460372,-5107.421000,-5669.106685,16580.613101
1022.460698,-4737.318029,-6128.763984,15396.283594
1022.461024,-2590.720797,-5515.887586,15544.324782
1022.461350,-518.144159,-2604.724693,14952.160028
1022.461676,1332.370696,1149.143247,12065.356855
1022.462002,3923.091493,4519.963438,9252.574275
1022.462328,6069.688724,5439.278036,7328.038826
1022.462654,5921.647536,6818.249932,5699.585753
1022.462980,4589.276840,7507.735880,4071.132681
1022.463306,4441.235652,6281.983084,4441.235652
1022.463632,3256.906145,4596.572988,5921.647536
1022.463957,444.123565,1991.848295,7476.080014
1022.464283,-2516.700203,-383.047749,7846.182985
1022.464609,-3923.091493,-2528.115143,8068.244768
1022.464935,-4515.256246,-4136.915689,9104.533087
1022.465261,-4515.256246,-4673.182538,9474.636058
1022.465587,-3182.885551,-2374.896044,8364.327145
1022.465913,-1258.350101,1072.533697,7031.956449
1022.466239,1406.391290,3064.381992,7179.997637
1022.466565,3034.844362,4213.525239,6587.832884
1022.466891,2294.638420,5592.497135,5255.462188
1022.467217,2220.617826,6128.763984,5403.503377
1022.467542,2516.700203,4136.915689,7031.956449
1022.467868,740.205942,1149.143247,9548.656652
1022.468194,-1776.494261,-1072.533697,11399.171507
1022.468520,-3330.926739,-2911.162892,13693.809927
1022.468846,-3849.070898,-5286.058936,15544.324782
1022.469172,-3997.112087,-7737.564530,16654.633695
1022.469498,-3330.926739,-6818.249932,17024.736666
1022.469824,-2368.659014,-4596.572988,15100.201217
1022.470150,1110.308913,-1915.238745,13249.686362
1022.470476,4293.194464,0.000000,11695.253884
1022.470802,5255.462188,3447.429741,9474.636058
1022.471128,4811.338623,6128.763984,6587.832884
1022.471453,5477.523971,6741.640382,4515.256246
1022.471779,5625.565159,5056.230287,5033.400406
1022.472105,3330.926739,4366.744339,5625.565159
1022.472431,1036.288319,3907.087040,5773.606348
1022.472757,-814.226536,1532.190996,7179.997637
1022.473083,-2886.803174,-2374.896044,8660.409521
1022.473409,-5329.482782,-4673.182538,9474.636058
1022.473735,-6291.750507,-4826.401637,9104.533087
1022.474061,-5477.523971,-3600.648841,8216.285956
1022.474387,-3256.906145,-2451.505594,7772.162391
1022.474713,-2146.597232,-229.828649,7846.182985
1022.475039,0.000000,2834.553343,6809.894666
1022.475364,740.205942,5132.839837,5921.647536
1022.475690,2442.679609,4366.744339,5773.606348
1022.476016,1554.432478,3830.477490,6957.935855
1022.476342,0.000000,3600.648841,7698.141797
1022.476668,-370.102971,2221.676944,9400.615463
1022.476994,-1184.329507,-1302.362347,12361.439231
1022.477320,-2960.823768,-4136.915689,14878.139434
1022.477646,-3997.112087,-4979.620737,16654.633695
1022.477972,-3404.947333,-4749.792088,15766.386565
1022.478298,-2590.720797,-5439.278036,15692.365970
1022.478624,-962.267725,-5286.058936,15914.427753
1022.478950,1184.329507,-1225.752797,13027.624579
1022.479275,2812.782580,3370.820191,10436.903782
1022.479601,5403.503377,4903.011187,8660.409521
1022.479927,5773.606348,5592.497135,6661.853478
1022.480253,5107.421000,6818.249932,4515.256246
1022.480579,4663.297435,7507.735880,4367.215058
1022.480905,3627.009116,5975.544884,5329.482782
1022.481231,1184.329507,3370.820191,5773.606348
1022.481557,-1184.329507,689.485948,7254.018232
1022.481883,-1702.473667,-459.657299,7698.141797
1022.482209,-3997.112087,-2221.676944,8438.347739
1022.482535,-4219.173869,-3677.258390,9104.533087
1022.482861,-3478.967927,-3217.601092,8586.388927
1022.483186,-1998.556043,-612.876398,7031.956449
1022.483512,296.082377,2298.286494,6735.874072
1022.483838,1998.556043,4826.401637,6439.791695
1022.484164,2664.741391,6128.763984,5921.647536
1022.484490,2294.638420,5975.544884,4811.338623
1022.484816,1776.494261,4443.353888,5921.647536
1022.485142,814.226536,2451.505594,8068.244768
1022.485468,-370.102971,842.705048,10362.883188
1022.485794,-1924.535449,-383.047749,12953.603985
1022.486120,-3256.906145,-3370.820191,15840.407159
1022.486446,-3997.112087,-5898.935335,17542.880825
1022.486772,-3997.112087,-7124.688131,17764.942608
1022.487098,-4293.194464,-5822.325785,16580.613101
1022.487424,-2294.638420,-4903.011187,14063.912898
1022.487750,1036.288319,-2681.334243,12139.377449
1022.488075,2812.782580,1838.629195,11103.089130
1022.488401,3034.844362,5669.106685,8882.471304
1022.488727,4441.235652,6435.202183,6069.688724
1022.489053,4737.318029,5056.230287,4441.235652
1022.489379,3923.091493,4519.963438,4663.297435
1022.489705,2220.617826,5439.278036,5847.626942
1022.490031,1554.432478,4826.401637,6809.894666
1022.490357,444.123565,689.485948,7994.224174
1022.490683,-2072.576638,-2987.772442,8586.388927
1022.491009,-4737.318029,-3370.820191,8586.388927
1022.491335,-5107.421000,-2451.505594,7698.141797
1022.491661,-2960.823768,-1455.581446,7550.100608
1022.491987,-1332.370696,-1072.533697,7328.038826
1022.492313,-666.185348,1608.800546,5921.647536
1022.492639,888.247130,5056.230287,5181.441594
1022.492965,1628.453072,6205.373534,4885.359217
1022.493291,1184.329507,4903.011187,4589.276840
1022.493617,74.020594,3370.820191,5773.606348
1022.493943,0.000000,2911.162892,8660.409521
1022.494269,-370.102971,1915.238745,10881.027347
1022.494594,-1110.308913,-1455.581446,13619.789333
1022.494920,-3108.864956,-4673.182538,15988.448347
1022.495246,-4441.235652,-6205.373534,16654.633695
1022.495572,-3034.844362,-5592.497135,16802.674883
1022.495898,-814.226536,-4903.011187,17468.860231
1022.496224,370.102971,-3447.429741,15692.365970
1022.496550,2294.638420,-229.828649,12435.459826
1022.496876,5033.400406,3370.820191,9992.780217
1022.497202,7031.956449,5822.325785,8068.244768
1022.497528,6069.688724,6281.983084,6217.729913
1022.497854,5255.462188,6894.859482,4885.359217
1022.498180,4737.318029,7277.907231,5181.441594
1022.498506,3775.050304,4826.401637,6587.832884
1022.498832,962.267725,1991.848295,7624.121203
1022.499158,-2664.741391,-919.314598,7402.059420
1022.499484,-4589.276840,-3140.991542,7846.182985
1022.499810,-4441.235652,-4749.792088,8882.471304
1022.500136,-4589.276840,-4213.525239,8438.347739
1022.500462,-4663.297435,-2604.724693,6957.935855
1022.500787,-2368.659014,76.609550,6069.688724
1022.501113,74.020594,2604.724693,6143.709319
1022.501439,1110.308913,4060.306139,5921.647536
1022.501765,962.267725,4979.620737,5625.565159
1022.502091,962.267725,4903.011187,5255.462188
1022.502417,1184.329507,3294.210641,6809.894666
1022.502743,444.123565,1225.752797,9918.759623
1022.503069,-1776.494261,-612.876398,12435.459826
1022.503395,-3478.967927,-3064.381992,14137.933492
1022.503721,-3552.988522,-6205.373534,16580.613101
1022.504047,-3627.009116,-7584.345430,17542.880825
1022.504373,-4145.153275,-5975.544884,16580.613101
1022.504699,-2442.679609,-4366.744339,14656.077652
1022.505025,888.247130,-1685.410096,12509.480420
1022.505351,3701.029710,306.438199,11769.274478
1022.505677,4737.318029,4213.525239,9474.636058
1022.506003,4959.379811,7124.688131,6735.874072
1022.506329,5847.626942,7201.297681,4663.297435
1022.506655,5699.585753,5975.544884,4811.338623
1022.506981,3108.864956,5439.278036,5625.565159
1022.507306,74.020594,4290.134789,5995.668130
1022.507632,-666.185348,1532.190996,7624.121203
1022.507958,-2368.659014,-2528.115143,9104.533087
1022.508284,-5033.400406,-4673.182538,9252.574275
1022.508610,-6365.771101,-4290.134789,7846.182985
1022.508936,-4737.318029,-3140.991542,7105.977043
1022.509262,-2368.659014,-1225.752797,7772.162391
1022.509588,0.000000,1532.190996,7550.100608
1022.509914,1184.329507,4519.963438,6291.750507
1022.510240,1776.494261,6358.592633,4959.379811
1022.510566,3034.844362,5056.230287,5255.462188
1022.510892,2812.782580,4060.306139,6069.688724
1022.511218,222.061783,4136.915689,7402.059420
1022.511544,-370.102971,1991.848295,10658.965565
1022.511870,-370.102971,-919.314598,13989.892304
1022.512196,-2072.576638,-4443.353888,15692.365970
1022.512522,-4219.173869,-6741.640382,15618.345376
1022.512848,-4441.235652,-6665.030833,15322.262999
1022.513174,-2146.597232,-4673.182538,15692.365970
1022.513499,592.164754,-2681.334243,15544.324782
1022.513825,2072.576638,689.485948,12805.562797
1022.514151,3034.844362,3140.991542,8808.450710
1022.514477,5699.585753,4903.011187,6883.915261
1022.514803,6957.935855,6665.030833,6291.750507
1022.515129,4737.318029,7507.735880,5255.462188
1022.515455,2812.782580,6435.202183,4811.338623
1022.515781,2220.617826,3677.258390,6069.688724
1022.516107,0.000000,995.924147,7402.059420
1022.516433,-4441.235652,-1685.410096,7624.121203
1022.516759,-6217.729913,-2757.943793,8364.327145
1022.517085,-6809.894666,-5286.058936,8586.388927
1022.517411,-5551.544565,-5975.544884,9252.574275
1022.517737,-4071.132681,-3370.820191,9252.574275
1022.518063,-2516.700203,766.095498,7476.080014
1022.518389,74.020594,3447.429741,6069.688724
1022.518715,3923.091493,4060.306139,6291.750507
1022.519041,4145.153275,5286.058936,6069.688724
1022.519367,2516.700203,6511.811733,5699.585753
1022.519692,2886.803174,5362.668486,7105.977043
1022.520018,2368.659014,1915.238745,9696.697840
1022.520344,-296.082377,-995.924147,12139.377449
1022.520670,-2368.659014,-3677.258390,14063.912898
1022.520996,-3404.947333,-4213.525239,15618.345376
1022.521322,-3478.967927,-6818.249932,16802.674883
1022.521648,-3404.947333,-7737.564530,17098.757260
1022.521974,-2812.782580,-5056.230287,15766.386565
1022.522300,-666.185348,-1762.019645,12361.439231
1022.522626,2738.761985,612.876398,10658.965565
1022.522952,5033.400406,3064.381992,9548.656652
1022.523278,4663.297435,6588.421283,6587.832884
1022.523604,5033.400406,7967.393179,5107.421000
1022.523930,5477.523971,7048.078582,4737.318029
1022.524256,4071.132681,4749.792088,5181.441594
1022.524582,1184.329507,3524.039291,5699.585753
1022.524908,-222.061783,2145.067394,7031.956449
1022.525234,-1998.556043,-842.705048,8808.450710
1022.525560,-3627.009116,-3217.601092,9400.615463
1022.525886,-4145.153275,-4213.525239,9326.594869
1022.526211,-3775.050304,-2528.115143,8290.306550
1022.526537,-1776.494261,-383.047749,7402.059420
1022.526863,962.267725,1455.581446,7772.162391
1022.527189,1924.535449,4060.306139,6809.894666
1022.527515,2442.679609,5439.278036,5551.544565
1022.527841,2812.782580,6128.763984,4737.318029
1022.528167,2220.617826,4290.134789,5329.482782
1022.528493,444.123565,2987.772442,8068.244768
1022.528819,-1554.432478,1762.019645,9992.780217
1022.529145,-2738.761985,-1225.752797,12213.398043
1022.529471,-3775.050304,-4519.963438,15100.201217
1022.529797,-4663.297435,-7124.688131,17098.757260
1022.530123,-5847.626942,-6588.421283,16506.592507
1022.530449,-4293.194464,-5975.544884,15100.201217
1022.530775,-1332.370696,-5286.058936,15322.262999
1022.531101,740.205942,-2298.286494,14137.933492
1022.531427,2294.638420,2451.505594,10955.047942
1022.531753,4589.276840,5209.449386,8364.327145
1022.532079,6439.791695,5286.058936,6883.915261
1022.532404,6513.812290,5745.716235,5773.606348
1022.532730,4515.256246,6665.030833,4885.359217
1022.533056,2886.803174,5898.935335,5033.400406
1022.533382,1554.432478,2911.162892,6735.874072
1022.533708,-370.102971,-689.485948,8290.306550
1022.534034,-2960.823768,-2374.896044,9104.533087
1022.534360,-4737.318029,-2681.334243,8660.409521
1022.534686,-4737.318029,-4826.401637,8290.306550
1022.535012,-3701.029710,-4519.963438,8660.409521
1022.535338,-2960.823768,-1838.629195,7476.080014
1022.535664,-1480.411884,2145.067394,6291.750507
1022.535990,1110.308913,3524.039291,5625.565159
1022.536316,1850.514855,3677.258390,5477.523971
1022.536642,1332.370696,3983.696590,4737.318029
1022.536968,962.267725,4290.134789,5255.462188
1022.537294,592.164754,3447.429741,7846.182985
1022.537620,-666.185348,766.095498,10584.944971
1022.537946,-1480.411884,-1838.629195,13471.748144
1022.538272,-2664.741391,-3753.867940,15100.201217
1022.538598,-3182.885551,-5439.278036,16062.468941
1022.538923,-2738.761985,-5822.325785,16358.551318
1022.539249,-1406.391290,-5132.839837,16358.551318
1022.539575,0.000000,-2528.115143,14730.098246
1022.539901,2146.597232,76.609550,12287.418637
1022.540227,4293.194464,2451.505594,10214.842000
1022.540553,4885.359217,4519.963438,8068.244768
1022.540879,4737.318029,6741.640382,5773.606348
1022.541205,5107.421000,7354.516781,4219.173869
1022.541531,4145.153275,6205.373534,5107.421000
1022.541857,2220.617826,4519.963438,6069.688724
1022.542183,-518.144159,2911.162892,7105.977043
1022.542509,-1702.473667,306.438199,7846.182985
1022.542835,-3256.906145,-2528.115143,8882.471304
1022.543161,-4737.318029,-4213.525239,9326.594869
1022.543487,-5181.441594,-3217.601092,8512.368333
1022.543813,-3404.947333,-1915.238745,8438.347739
1022.544139,-1184.329507,-153.219100,7624.121203
1022.544465,370.102971,1991.848295,7254.018232
1022.544791,1258.350101,4673.182538,5625.565159
1022.545116,2146.597232,6358.592633,5033.400406
1022.545442,2220.617826,5209.449386,5699.585753
1022.545768,1258.350101,3524.039291,6809.894666
1022.546094,-222.061783,2374.896044,8586.388927
1022.546420,-1628.453072,612.876398,10881.027347
1022.546746,-2368.659014,-2221.676944,13693.809927
1022.547072,-3404.947333,-5132.839837,15840.407159
1022.547398,-4663.297435,-6588.421283,16358.551318
1022.547724,-4219.173869,-6128.763984,15766.386565
1022.548050,-2072.576638,-4979.620737,15322.262999
1022.548376,370.102971,-3140.991542,13545.768739
1022.548702,2072.576638,689.485948,11547.212695
1022.549028,3849.070898,2987.772442,8512.368333
1022.549354,5773.606348,5286.058936,7179.997637
1022.549680,6217.729913,6435.202183,6143.709319
1022.550006,5551.544565,6588.421283,5107.421000
1022.550332,4293.194464,5822.325785,5107.421000
1022.550658,2886.803174,3907.087040,6069.688724
1022.550984,1702.473667,1149.143247,8142.265362
1022.551310,-1702.473667,-1225.752797,8808.450710
1022.551635,-4515.256246,-3140.991542,9326.594869
1022.551961,-5107.421000,-4903.011187,9252.574275
1022.552287,-4441.235652,-5056.230287,8956.491898
1022.552613,-3923.091493,-2451.505594,8364.327145
1022.552939,-2960.823768,76.609550,7105.977043
1022.553265,222.061783,2604.724693,6365.771101
1022.553591,2294.638420,3447.429741,6217.729913
1022.553917,2368.659014,4673.182538,5699.585753
1022.554243,1628.453072,5515.887586,5625.565159
1022.554569,2368.659014,4826.401637,7105.977043
1022.554895,2368.659014,1685.410096,10066.800811
1022.555221,74.020594,-229.828649,12509.480420
1022.555547,-2664.741391,-2145.067394,13915.871710
1022.555873,-3108.864956,-3907.087040,15322.262999
