#time,accel_x,accel_y,accel_z
2360.765808,-740.205942,0.000000,9178.553681
2360.766130,-518.144159,0.000000,9696.697840
2360.766452,-296.082377,229.828649,9400.615463
2360.766774,-296.082377,0.000000,8808.450710
2360.767096,-444.123565,383.047749,8808.450710
2360.767418,-740.205942,995.924147,9104.533087
2360.767741,740.205942,536.266849,9252.574275
2360.768063,1110.308913,1149.143247,8808.450710
2360.768385,0.000000,766.095498,8290.306550
2360.768707,74.020594,459.657299,9548.656652
2360.769029,370.102971,919.314598,9326.594869
2360.769351,222.061783,612.876398,9252.574275
2360.769673,0.000000,306.438199,9252.574275
2360.769995,-1258.350101,536.266849,9178.553681
2360.770318,-296.082377,153.219100,10732.986159
2360.770640,74.020594,383.047749,9696.697840
2360.770962,-1110.308913,383.047749,9400.615463
2360.771284,-1184.329507,76.609550,9474.636058
2360.771606,-296.082377,1302.362347,10288.862594
2360.771928,444.123565,1072.533697,9548.656652
2360.772250,74.020594,919.314598,9178.553681
2360.772573,-370.102971,1302.362347,8438.347739
2360.772895,-296.082377,1225.752797,9400.615463
2360.773217,0.000000,919.314598,8956.491898
2360.773539,-296.082377,919.314598,8956.491898
2360.773861,-888.247130,612.876398,8660.409521
2360.774183,-888.247130,919.314598,9030.512492
2360.774505,-518.144159,1149.143247,9326.594869
2360.774827,-296.082377,1532.190996,8734.430116
2360.775150,-1480.411884,919.314598,8660.409521
2360.775472,-1628.453072,1378.971896,9104.533087
2360.775794,222.061783,2068.457845,9770.718434
2360.776116,296.082377,2221.676944,9252.574275
2360.776438,-444.123565,1762.019645,9844.739029
2360.776760,-1036.288319,2451.505594,10584.944971
2360.777082,-1184.329507,2681.334243,10288.862594
2360.777404,-962.267725,2374.896044,9918.759623
2360.777727,-2368.659014,1838.629195,9622.677246
2360.778049,-3923.091493,2298.286494,9992.780217
2360.778371,-3330.926739,2068.457845,9992.780217
2360.778693,-3478.967927,2451.505594,9622.677246
2360.779015,-4663.297435,2834.553343,9474.636058
2360.779337,-5625.565159,2987.772442,9770.718434
2360.779659,-5699.585753,3370.820191,8660.409521
2360.779981,-3627.009116,3524.039291,8364.327145
2360.780304,-4663.297435,3983.696590,8216.285956
2360.780626,-5847.626942,4136.915689,7846.182985
2360.780948,-5107.421000,3907.087040,7994.224174
2360.781270,-4367.215058,3677.258390,7179.997637
2360.781592,-3923.091493,3600.648841,7254.018232
2360.781914,-4811.338623,3140.991542,7254.018232
2360.782236,-5033.400406,3447.429741,7402.059420
2360.782558,-3775.050304,3294.210641,7698.141797
2360.782881,-3627.009116,2911.162892,8808.450710
2360.783203,-4515.256246,2757.943793,9400.615463
2360.783525,-4811.338623,2911.162892,9770.718434
2360.783847,-3552.988522,2987.772442,9992.780217
2360.784169,-2146.597232,3064.381992,10436.903782
2360.784491,-2960.823768,3677.258390,9992.780217
2360.784813,-2516.700203,3600.648841,10140.821405
2360.785136,-1184.329507,4290.134789,9844.739029
2360.785458,444.123565,3907.087040,9104.533087
2360.785780,1110.308913,3983.696590,9030.512492
2360.786102,222.061783,3907.087040,8142.265362
2360.786424,666.185348,3064.381992,7920.203579
2360.786746,1184.329507,2145.067394,8142.265362
2360.787068,74.020594,2528.115143,9178.553681
2360.787390,-1998.556043,766.095498,10436.903782
2360.787713,-3552.988522,459.657299,10436.903782
2360.788035,-2368.659014,459.657299,11325.150913
2360.788357,-2812.782580,-306.438199,10955.047942
2360.788679,-3627.009116,383.047749,10362.883188
2360.789001,-2220.617826,1685.410096,10066.800811
2360.789323,-518.144159,2757.943793,8660.409521
2360.789645,444.123565,2987.772442,8956.491898
2360.789967,592.164754,3064.381992,8734.430116
2360.790290,666.185348,3830.477490,7994.224174
2360.790612,2294.638420,3907.087040,6957.935855
2360.790934,2664.741391,3447.429741,6291.750507
2360.791256,1776.494261,2987.772442,7328.038826
2360.791578,0.000000,2068.457845,8512.368333
2360.791900,-1332.370696,612.876398,9400.615463
2360.792222,-2072.576638,0.000000,11103.089130
2360.792544,-4959.379811,-1225.752797,12361.439231
2360.792867,-6809.894666,-842.705048,13101.645173
2360.793189,-5995.668130,76.609550,12139.377449
2360.793511,-4737.318029,689.485948,11029.068536
2360.793833,-4737.318029,1838.629195,9696.697840
2360.794155,-4515.256246,2221.676944,9030.512492
2360.794477,-2812.782580,3447.429741,7254.018232
2360.794799,-370.102971,4596.572988,5847.626942
2360.795122,814.226536,4596.572988,4737.318029
2360.795444,-370.102971,4213.525239,5551.544565
2360.795766,-592.164754,3524.039291,7105.977043
2360.796088,-1406.391290,2145.067394,8512.368333
2360.796410,-3330.926739,1455.581446,10214.842000
2360.796732,-6587.832884,-459.657299,12731.542202
2360.797054,-7994.224174,-536.266849,13545.768739
2360.797376,-8068.244768,-919.314598,13545.768739
2360.797699,-7772.162391,383.047749,13397.727550
2360.798021,-7476.080014,689.485948,12583.501014
2360.798343,-5995.668130,2834.553343,10214.842000
2360.798665,-2960.823768,3907.087040,7179.997637
2360.798987,-1036.288319,5056.230287,5847.626942
2360.799309,-444.123565,6741.640382,5477.523971
2360.799631,-444.123565,6971.469032,5625.565159
2360.799953,1480.411884,6588.421283,4737.318029
2360.800276,2220.617826,6128.763984,6143.709319
2360.800598,-518.144159,5209.449386,8068.244768
2360.800920,-2886.803174,3294.210641,9696.697840
2360.801242,-2812.782580,1762.019645,11769.274478
2360.801564,-2812.782580,2068.457845,12583.501014
2360.801886,-4293.194464,1302.362347,12805.562797
2360.802208,-5551.544565,1072.533697,12509.480420
2360.802530,-5625.565159,2374.896044,10807.006753
2360.802853,-3404.947333,2451.505594,8956.491898
2360.803175,-2368.659014,4903.011187,8882.471304
2360.803497,-3182.885551,4903.011187,6365.771101
2360.803819,-1332.370696,5822.325785,4811.338623
2360.804141,2590.720797,6894.859482,5699.585753
2360.804463,2664.741391,6665.030833,6513.812290
2360.804785,222.061783,5132.839837,8216.285956
2360.805107,74.020594,4213.525239,9548.656652
2360.805430,518.144159,3294.210641,11177.109724
2360.805752,0.000000,2068.457845,11843.295072
2360.806074,-1998.556043,1685.410096,12879.583391
2360.806396,-2516.700203,1225.752797,11843.295072
2360.806718,-2146.597232,536.266849,11103.089130
2360.807040,-2368.659014,842.705048,11251.130318
2360.807362,-3478.967927,1455.581446,9326.594869
2360.807685,-3108.864956,1915.238745,7550.100608
2360.808007,-2294.638420,2911.162892,6291.750507
2360.808329,-1036.288319,3140.991542,7105.977043
2360.808651,0.000000,3294.210641,6143.709319
2360.808973,-592.164754,3524.039291,6143.709319
2360.809295,-222.061783,2757.943793,6735.874072
2360.809617,-296.082377,2987.772442,9548.656652
2360.809939,-518.144159,2068.457845,11103.089130
2360.810262,-1480.411884,919.314598,11695.253884
2360.810584,-2886.803174,153.219100,10658.965565
2360.810906,-1702.473667,-383.047749,10658.965565
2360.811228,-2294.638420,-153.219100,11695.253884
2360.811550,-4071.132681,-459.657299,10436.903782
2360.811872,-4959.379811,-919.314598,10362.883188
2360.812194,-4663.297435,0.000000,10288.862594
2360.812516,-3256.906145,459.657299,9696.697840
2360.812839,-3404.947333,536.266849,8438.347739
2360.813161,-3923.091493,919.314598,8734.430116
2360.813483,-3627.009116,1838.629195,9326.594869
2360.813805,-2664.741391,1302.362347,7994.224174
2360.814127,-3108.864956,1532.190996,9104.533087
2360.814449,-4367.215058,2451.505594,9696.697840
2360.814771,-3404.947333,1302.362347,8290.306550
2360.815093,-2368.659014,1762.019645,8068.244768
2360.815416,-2590.720797,2145.067394,10362.883188
2360.815738,-3404.947333,919.314598,9178.553681
2360.816060,-3182.885551,919.314598,8734.430116
2360.816382,-2294.638420,1762.019645,8882.471304
2360.816704,-3256.906145,1838.629195,8808.450710
2360.817026,-3404.947333,1455.581446,8956.491898
2360.817348,-3627.009116,2068.457845,10955.047942
2360.817671,-1702.473667,2757.943793,9696.697840
2360.817993,-1924.535449,1838.629195,9474.636058
2360.818315,-1258.350101,2757.943793,9326.594869
2360.818637,-1184.329507,2911.162892,9400.615463
2360.818959,-1258.350101,3370.820191,8882.471304
2360.819281,-148.041188,3677.258390,9252.574275
2360.819603,740.205942,4290.134789,9030.512492
2360.819925,-296.082377,4136.915689,8734.430116
2360.820248,0.000000,3370.820191,7772.162391
2360.820570,1036.288319,3677.258390,8882.471304
2360.820892,-666.185348,3370.820191,8216.285956
2360.821214,-1850.514855,2681.334243,9178.553681
2360.821536,-1480.411884,2451.505594,9178.553681
2360.821858,-222.061783,2068.457845,7550.100608
2360.822180,-518.144159,1991.848295,7994.224174
2360.822502,-1110.308913,1838.629195,9474.636058
2360.822825,-1628.453072,2451.505594,10584.944971
2360.823147,518.144159,2604.724693,9548.656652
2360.823469,888.247130,2221.676944,8734.430116
2360.823791,-444.123565,3064.381992,8068.244768
2360.824111,-296.082377,3064.381992,8438.347739
2360.824433,2368.659014,3677.258390,9548.656652
2360.824755,3849.070898,3447.429741,9030.512492
2360.825077,2516.700203,2374.896044,9178.553681
2360.825398,1184.329507,2528.115143,9918.759623
2360.825720,518.144159,2221.676944,9992.780217
2360.826042,1036.288319,459.657299,9104.533087
2360.826364,-888.247130,536.266849,9622.677246
2360.826686,-2590.720797,229.828649,9622.677246
2360.827008,-2664.741391,-536.266849,9548.656652
2360.827330,-1406.391290,-1149.143247,9178.553681
2360.827652,-3108.864956,-995.924147,9548.656652
2360.827973,-3701.029710,-689.485948,9918.759623
2360.828295,-2220.617826,-766.095498,8660.409521
2360.828617,296.082377,-612.876398,8068.244768
2360.828939,518.144159,-766.095498,7920.203579
2360.829261,-518.144159,-459.657299,8364.327145
2360.829583,-296.082377,-536.266849,9030.512492
2360.829905,1184.329507,-1072.533697,8364.327145
2360.830227,666.185348,-1532.190996,8956.491898
2360.830548,-666.185348,-2298.286494,10140.821405
2360.830870,-1184.329507,-2451.505594,9696.697840
2360.831192,0.000000,-2528.115143,8734.430116
2360.831514,1036.288319,-1915.238745,11029.068536
2360.831836,-444.123565,-1685.410096,11177.109724
2360.832158,-1554.432478,-2987.772442,10436.903782
2360.832480,370.102971,-2374.896044,9918.759623
2360.832802,2220.617826,-1302.362347,10658.965565
2360.833123,1776.494261,-842.705048,10436.903782
2360.833445,-296.082377,-919.314598,10288.862594
2360.833767,1184.329507,-1149.143247,8290.306550
2360.834089,2294.638420,0.000000,8586.388927
2360.834411,1332.370696,0.000000,8734.430116
2360.834733,-296.082377,-766.095498,9474.636058
2360.835055,-666.185348,-842.705048,8290.306550
2360.835377,-148.041188,-995.924147,7550.100608
2360.835698,-222.061783,-536.266849,8734.430116
2360.836020,-2294.638420,-689.485948,9178.553681
2360.836342,-2442.679609,-919.314598,9400.615463
2360.836664,-962.267725,-76.609550,9622.677246
2360.836986,-518.144159,229.828649,9770.718434
2360.837308,-1184.329507,0.000000,9474.636058
2360.837630,0.000000,1455.581446,9474.636058
2360.837952,1480.411884,2374.896044,9400.615463
2360.838273,1036.288319,1915.238745,8438.347739
2360.838595,0.000000,1455.581446,9400.615463
2360.838917,-666.185348,2068.457845,8068.244768
2360.839239,370.102971,2604.724693,8364.327145
2360.839561,1184.329507,2451.505594,9252.574275
2360.839883,-1110.308913,1302.362347,9548.656652
2360.840205,-1776.494261,1072.533697,9770.718434
2360.840527,-1332.370696,1991.848295,8882.471304
2360.840848,-148.041188,2451.505594,8660.409521
2360.841170,-222.061783,1915.238745,9030.512492
2360.841492,-1554.432478,2221.676944,8142.265362
2360.841814,222.061783,2451.505594,8068.244768
2360.842136,888.247130,2374.896044,7920.203579
2360.842458,666.185348,2451.505594,8808.450710
2360.842780,296.082377,2221.676944,9770.718434
2360.843102,0.000000,2528.115143,9104.533087
2360.843423,962.267725,2604.724693,8586.388927
2360.843745,1036.288319,2145.067394,8808.450710
2360.844067,74.020594,2451.505594,9474.636058
2360.844389,-444.123565,1915.238745,9400.615463
2360.844711,222.061783,1838.629195,10658.965565
2360.845033,518.144159,1608.800546,10436.903782
2360.845355,-1184.329507,536.266849,10362.883188
2360.845677,-2146.597232,842.705048,10214.842000
2360.845998,-1850.514855,459.657299,9918.759623
2360.846320,-1406.391290,0.000000,9400.615463
2360.846642,-1258.350101,0.000000,9104.533087
2360.846964,-3034.844362,-153.219100,9474.636058
2360.847286,-1776.494261,306.438199,10436.903782
2360.847608,-296.082377,-459.657299,9178.553681
2360.847930,0.000000,-459.657299,7402.059420
2360.848252,-962.267725,-536.266849,8290.306550
2360.848573,0.000000,842.705048,8438.347739
2360.848895,1850.514855,459.657299,9326.594869
2360.849217,1776.494261,229.828649,8364.327145
2360.849539,0.000000,-1225.752797,7698.141797
2360.849861,444.123565,0.000000,8290.306550
2360.850183,888.247130,-306.438199,8808.450710
2360.850505,1998.556043,-1072.533697,10066.800811
2360.850827,2220.617826,-1149.143247,10140.821405
2360.851148,1184.329507,-842.705048,9622.677246
2360.851470,1776.494261,-995.924147,9252.574275
2360.851792,2146.597232,-1608.800546,9252.574275
2360.852114,814.226536,-995.924147,10510.924376
2360.852436,-444.123565,-1225.752797,10066.800811
2360.852758,888.247130,-1762.019645,10881.027347
2360.853080,1554.432478,-995.924147,10214.842000
2360.853402,148.041188,-2145.067394,10362.883188
2360.853723,-814.226536,-1225.752797,11473.192101
2360.854045,-888.247130,-1225.752797,11029.068536
2360.854367,-518.144159,-2298.286494,9474.636058
2360.854689,-1184.329507,-1838.629195,9844.739029
2360.855011,-1924.535449,-1532.190996,9326.594869
2360.855333,-2220.617826,-1608.800546,8512.368333
2360.855655,222.061783,-383.047749,8290.306550
2360.855977,0.000000,-153.219100,8882.471304
2360.856298,0.000000,0.000000,9474.636058
2360.856620,-518.144159,842.705048,9326.594869
2360.856942,666.185348,536.266849,7846.182985
2360.857264,1850.514855,1455.581446,8364.327145
2360.857586,-296.082377,1378.971896,8364.327145
2360.857908,-296.082377,919.314598,8956.491898
2360.858230,888.247130,1762.019645,9474.636058
2360.858552,740.205942,1302.362347,7994.224174
2360.858873,-296.082377,1532.190996,9326.594869
2360.859195,-1850.514855,1072.533697,9622.677246
2360.859517,-1628.453072,1225.752797,9918.759623
2360.859839,-370.102971,1072.533697,9622.677246
2360.860161,-1406.391290,1455.581446,9622.677246
2360.860483,-1850.514855,1378.971896,8734.430116
2360.860805,-1406.391290,1838.629195,8734.430116
2360.861127,296.082377,2068.457845,8734.430116
2360.861448,444.123565,1608.800546,7624.121203
2360.861770,-1776.494261,1915.238745,9030.512492
2360.862092,-222.061783,1915.238745,9770.718434
2360.862414,-444.123565,1225.752797,9622.677246
2360.862736,-1184.329507,995.924147,9326.594869
2360.863058,-1628.453072,1149.143247,9918.759623
2360.863380,-2516.700203,1991.848295,9252.574275
2360.863702,-222.061783,1455.581446,9400.615463
2360.864023,666.185348,919.314598,8734.430116
2360.864345,-518.144159,2298.286494,8808.450710
2360.864667,-1110.308913,2221.676944,9326.594869
2360.864989,148.041188,2221.676944,9474.636058
2360.865311,1850.514855,2451.505594,9844.739029
2360.865633,666.185348,2298.286494,9696.697840
2360.865955,-444.123565,2298.286494,9992.780217
2360.866277,296.082377,1685.410096,8512.368333
2360.866598,1850.514855,2451.505594,8364.327145
2360.866920,1184.329507,2145.067394,8660.409521
2360.867242,-666.185348,1685.410096,9548.656652
2360.867564,-370.102971,1149.143247,8882.471304
2360.867886,1110.308913,1378.971896,8068.244768
2360.868208,0.000000,842.705048,9178.553681
2360.868530,-740.205942,766.095498,8660.409521
2360.868852,-666.185348,689.485948,9104.533087
2360.869173,592.164754,842.705048,8808.450710
2360.869495,0.000000,0.000000,8734.430116
2360.869817,-1184.329507,-383.047749,8808.450710
2360.870139,-148.041188,-306.438199,8882.471304
2360.870461,74.020594,-459.657299,8216.285956
2360.870783,222.061783,-766.095498,8586.388927
2360.871105,-370.102971,-1378.971896,9622.677246
2360.871427,-296.082377,-1685.410096,8882.471304
2360.871748,518.144159,-1225.752797,10140.821405
2360.872070,592.164754,-1608.800546,10288.862594
2360.872392,296.082377,-2068.457845,10140.821405
2360.872714,148.041188,-1149.143247,9918.759623
2360.873036,1924.535449,-689.485948,9770.718434
2360.873358,3182.885551,-536.266849,10807.006753
2360.873680,2664.741391,-536.266849,10510.924376
2360.874002,1184.329507,-1302.362347,10214.842000
2360.874323,1998.556043,-689.485948,10584.944971
2360.874645,1776.494261,-919.314598,10584.944971
2360.874967,592.164754,-1072.533697,10436.903782
2360.875289,-666.185348,-1302.362347,9548.656652
2360.875611,-2146.597232,-1378.971896,9030.512492
2360.875933,-1850.514855,-1225.752797,8956.491898
2360.876255,-2738.761985,-1608.800546,9104.533087
2360.876577,-2738.761985,-842.705048,8586.388927
2360.876898,-3478.967927,-1072.533697,7772.162391
2360.877220,-1776.494261,-459.657299,8956.491898
2360.877542,-2368.659014,-612.876398,8586.388927
2360.877864,-2664.741391,-306.438199,8068.244768
2360.878186,-1850.514855,536.266849,9400.615463
2360.878508,-1480.411884,0.000000,7476.080014
2360.878830,-1924.535449,229.828649,8808.450710
2360.879152,-1036.288319,995.924147,10140.821405
2360.879473,-2738.761985,842.705048,10140.821405
2360.879795,0.000000,1302.362347,8882.471304
2360.880117,1110.308913,1378.971896,8364.327145
2360.880439,1924.535449,2834.553343,9548.656652
2360.880761,814.226536,2068.457845,9918.759623
2360.881083,-518.144159,2145.067394,10584.944971
2360.881405,3182.885551,2451.505594,8660.409521
2360.881727,222.061783,2528.115143,9178.553681
2360.882048,1258.350101,3447.429741,9326.594869
2360.882370,0.000000,2298.286494,9474.636058
2360.882692,1332.370696,3370.820191,8364.327145
2360.883014,296.082377,2451.505594,9252.574275
2360.883336,-1702.473667,2221.676944,8364.327145
2360.883658,-1924.535449,1225.752797,8364.327145
2360.883980,-1110.308913,2528.115143,7624.121203
2360.884302,-962.267725,2374.896044,8438.347739
2360.884623,-1702.473667,2374.896044,9770.718434
2360.884945,-2886.803174,2221.676944,9104.533087
2360.885267,-1258.350101,2528.115143,8882.471304
2360.885589,0.000000,2757.943793,8068.244768
2360.885911,-1184.329507,1838.629195,8438.347739
2360.886233,-666.185348,2528.115143,10881.027347
2360.886555,888.247130,2834.553343,9178.553681
2360.886877,2220.617826,2221.676944,8882.471304
2360.887198,1924.535449,1455.581446,8364.327145
2360.887520,0.000000,1762.019645,9548.656652
2360.887842,1480.411884,1838.629195,9844.739029
2360.888164,1924.535449,1532.190996,10214.842000
2360.888486,1406.391290,842.705048,10140.821405
2360.888808,0.000000,-229.828649,9326.594869
2360.889130,148.041188,1072.533697,8808.450710
2360.889452,2812.782580,-229.828649,9400.615463
2360.889773,2072.576638,-306.438199,8290.306550
2360.890095,0.000000,-1225.752797,9770.718434
2360.890417,-444.123565,-689.485948,10288.862594
2360.890739,-296.082377,-1225.752797,9104.533087
2360.891061,888.247130,-2221.676944,8734.430116
2360.891383,-370.102971,-2757.943793,9696.697840
2360.891705,-1036.288319,-1685.410096,9992.780217
2360.892027,-148.041188,-1608.800546,9252.574275
2360.892348,1628.453072,-2374.896044,10214.842000
2360.892670,-222.061783,-1455.581446,10807.006753
2360.892992,-1332.370696,-1838.629195,9326.594869
2360.893314,0.000000,-1915.238745,9622.677246
2360.893636,1258.350101,-1762.019645,10807.006753
2360.893958,0.000000,-1762.019645,10436.903782
2360.894280,-1628.453072,-1378.971896,10732.986159
2360.894602,-962.267725,-1915.238745,9252.574275
2360.894923,-666.185348,-2987.772442,8216.285956
2360.895245,-1406.391290,-2145.067394,9622.677246
2360.895567,-1924.535449,-1838.629195,10140.821405
2360.895889,-1258.350101,-1302.362347,9400.615463
2360.896211,-296.082377,-1378.971896,7920.203579
2360.896533,-1554.432478,-919.314598,8734.430116
2360.896855,-2368.659014,-383.047749,8882.471304
2360.897177,-1332.370696,-842.705048,8586.388927
2360.897498,444.123565,76.609550,8660.409521
2360.897820,814.226536,689.485948,8808.450710
2360.898142,-740.205942,459.657299,9326.594869
2360.898464,-1406.391290,842.705048,10658.965565
2360.898786,296.082377,1532.190996,9400.615463
2360.899108,0.000000,919.314598,9178.553681
2360.899430,0.000000,995.924147,9326.594869
2360.899752,-1850.514855,383.047749,9474.636058
2360.900073,0.000000,1225.752797,9178.553681
2360.900395,0.000000,1685.410096,10066.800811
2360.900717,-1554.432478,1685.410096,9326.594869
2360.901039,-1628.453072,919.314598,9918.759623
2360.901361,-1110.308913,2145.067394,9030.512492
2360.901683,962.267725,2604.724693,8882.471304
2360.902005,74.020594,2528.115143,8956.491898
2360.902327,-740.205942,2451.505594,8512.368333
2360.902648,370.102971,2834.553343,9104.533087
2360.902970,1406.391290,2911.162892,8142.265362
2360.903292,518.144159,2451.505594,7846.182985
2360.903614,74.020594,2834.553343,9252.574275
2360.903936,444.123565,3294.210641,8882.471304
2360.904258,1776.494261,2757.943793,8068.244768
2360.904580,1998.556043,2298.286494,8068.244768
2360.904902,444.123565,3064.381992,9844.739029
2360.905223,296.082377,2757.943793,9400.615463
2360.905545,2072.576638,2374.896044,10288.862594
2360.905867,2590.720797,2834.553343,8512.368333
2360.906189,370.102971,1838.629195,8808.450710
2360.906511,-962.267725,2451.505594,10066.800811
2360.906833,-518.144159,1685.410096,9844.739029
2360.907155,740.205942,612.876398,9030.512492
2360.907476,0.000000,842.705048,9252.574275
2360.907798,-2368.659014,689.485948,10362.883188
2360.908120,-2960.823768,229.828649,10510.924376
2360.908442,-1258.350101,0.000000,9622.677246
2360.908764,-962.267725,-842.705048,8068.244768
2360.909086,-2072.576638,306.438199,8586.388927
2360.909408,-1406.391290,153.219100,8364.327145
2360.909730,666.185348,-229.828649,9474.636058
2360.910051,444.123565,-229.828649,8956.491898
2360.910373,-296.082377,-383.047749,9030.512492
2360.910695,814.226536,-919.314598,9178.553681
2360.911017,518.144159,-766.095498,8364.327145
2360.911339,1850.514855,-459.657299,9918.759623
2360.911661,1332.370696,-842.705048,10288.862594
2360.911983,666.185348,-766.095498,10584.944971
2360.912305,1184.329507,-842.705048,9918.759623
2360.912626,1628.453072,-1685.410096,9474.636058
2360.912948,814.226536,-1608.800546,9622.677246
2360.913270,-1036.288319,-1302.362347,9696.697840
2360.913592,0.000000,-919.314598,10510.924376
2360.913914,222.061783,-1608.800546,9622.677246
2360.914236,-1258.350101,-2451.505594,9696.697840
2360.914558,-3034.844362,-2528.115143,9622.677246
2360.914880,-2442.679609,-2221.676944,9992.780217
2360.915201,-1406.391290,-2681.334243,9252.574275
2360.915523,-1850.514855,-2145.067394,9030.512492
2360.915845,-2664.741391,-2068.457845,9326.594869
2360.916167,-2664.741391,-1762.019645,8956.491898
2360.916489,-666.185348,-842.705048,8808.450710
2360.916811,222.061783,-229.828649,9030.512492
2360.917133,222.061783,383.047749,8882.471304
2360.917455,0.000000,612.876398,8512.368333
2360.917776,2072.576638,1302.362347,8586.388927
2360.918098,1332.370696,995.924147,9992.780217
2360.918420,814.226536,1149.143247,9252.574275
2360.918742,0.000000,766.095498,10288.862594
2360.919064,1332.370696,1532.190996,9696.697840
2360.919386,666.185348,995.924147,9400.615463
2360.919708,296.082377,1455.581446,9326.594869
2360.920030,-1924.535449,1225.752797,9844.739029
2360.920351,-1480.411884,842.705048,8808.450710
2360.920673,-1110.308913,536.266849,9622.677246
2360.920995,-1776.494261,1302.362347,8882.471304
2360.921317,-2664.741391,1608.800546,9104.533087
2360.921639,-592.164754,2451.505594,8586.388927
2360.921961,1332.370696,2145.067394,8290.306550
2360.922283,740.205942,1608.800546,7698.141797
2360.922605,-296.082377,2757.943793,8216.285956
2360.922926,222.061783,2298.286494,8364.327145
2360.923248,1480.411884,2834.553343,9104.533087
2360.923570,1628.453072,2757.943793,9474.636058
2360.923892,-222.061783,1991.848295,9326.594869
2360.924214,-666.185348,1685.410096,9622.677246
2360.924536,962.267725,2145.067394,9474.636058
2360.924858,1332.370696,2451.505594,9474.636058
2360.925180,222.061783,2451.505594,9474.636058
2360.925503,-518.144159,2528.115143,9400.615463
2360.925825,888.247130,2911.162892,9474.636058
2360.926147,1850.514855,2451.505594,8290.306550
2360.926469,0.000000,1608.800546,9178.553681
2360.926791,-1480.411884,1915.238745,9844.739029
2360.927113,-1036.288319,1455.581446,10066.800811
2360.927435,-888.247130,459.657299,9474.636058
2360.927757,-1850.514855,0.000000,9696.697840
2360.928079,-2442.679609,919.314598,9696.697840
2360.928401,-1628.453072,919.314598,9104.533087
2360.928723,-296.082377,383.047749,8586.388927
2360.929045,-1036.288319,0.000000,9030.512492
2360.929367,-1776.494261,766.095498,9474.636058
2360.929689,-592.164754,919.314598,9252.574275
2360.930011,1480.411884,76.609550,8068.244768
2360.930333,0.000000,153.219100,8882.471304
2360.930655,-1110.308913,0.000000,9622.677246
2360.930977,148.041188,-689.485948,9474.636058
2360.931299,740.205942,-842.705048,8142.265362
2360.931621,592.164754,-536.266849,7846.182985
2360.931943,-296.082377,-1072.533697,9252.574275
2360.932266,-1036.288319,-1225.752797,9474.636058
2360.932588,-222.061783,-1915.238745,10214.842000
2360.932910,740.205942,-1608.800546,9400.615463
2360.933232,148.041188,-919.314598,9474.636058
2360.933554,-518.144159,-1149.143247,9918.759623
2360.933876,740.205942,-1378.971896,9622.677246
2360.934198,1628.453072,-1302.362347,9844.739029
2360.934520,1184.329507,-459.657299,9622.677246
2360.934842,-444.123565,-766.095498,10658.965565
2360.935164,148.041188,-1532.190996,10362.883188
2360.935486,1110.308913,-1532.190996,9844.739029
2360.935808,1110.308913,-919.314598,8660.409521
2360.936130,-740.205942,-1302.362347,9030.512492
2360.936452,-1110.308913,-1608.800546,9400.615463
2360.936774,-814.226536,-1532.190996,9770.718434
2360.937096,-222.061783,-1378.971896,9918.759623
2360.937418,-1924.535449,-1378.971896,9844.739029
2360.937740,-1480.411884,-612.876398,10955.047942
2360.938062,888.247130,383.047749,9992.780217
2360.938384,1184.329507,76.609550,8882.471304
2360.938706,0.000000,0.000000,7624.121203
2360.939029,-740.205942,1225.752797,8512.368333
2360.939351,148.041188,1608.800546,9474.636058
2360.939673,962.267725,383.047749,8956.491898
2360.939995,666.185348,229.828649,9548.656652
2360.940317,-814.226536,306.438199,8512.368333
2360.940639,-1110.308913,919.314598,7994.224174
2360.940961,-740.205942,1225.752797,9474.636058
2360.941283,-888.247130,842.705048,8586.388927
2360.941605,-1332.370696,766.095498,9622.677246
2360.941927,0.000000,2145.067394,8734.430116
2360.942249,1332.370696,1915.238745,8956.491898
2360.942571,1184.329507,2987.772442,9622.677246
2360.942893,296.082377,3064.381992,9770.718434
2360.943215,296.082377,2451.505594,9252.574275
2360.943537,-74.020594,2145.067394,8290.306550
2360.943859,0.000000,2145.067394,8438.347739
2360.944181,-296.082377,2145.067394,9400.615463
2360.944503,-814.226536,2298.286494,9178.553681
2360.944825,-444.123565,1915.238745,8068.244768
2360.945147,-148.041188,1991.848295,7920.203579
2360.945469,-2072.576638,2221.676944,9770.718434
2360.945792,-2294.638420,919.314598,9844.739029
2360.946114,-1036.288319,995.924147,9622.677246
2360.946436,-666.185348,2068.457845,9326.594869
2360.946758,-2220.617826,1302.362347,9326.594869
2360.947080,-1406.391290,2145.067394,9918.759623
2360.947402,0.000000,2451.505594,10140.821405
2360.947724,592.164754,1991.848295,8364.327145
2360.948046,74.020594,2451.505594,8808.450710
2360.948368,-592.164754,2298.286494,8586.388927
2360.948690,0.000000,1838.629195,9400.615463
2360.949012,1110.308913,1685.410096,8438.347739
2360.949334,814.226536,1608.800546,8586.388927
2360.949656,-888.247130,842.705048,9474.636058
2360.949978,-962.267725,766.095498,9622.677246
2360.950300,740.205942,459.657299,9252.574275
2360.950622,518.144159,0.000000,7402.059420
2360.950944,-962.267725,153.219100,8882.471304
2360.951266,-962.267725,0.000000,9400.615463
2360.951588,-592.164754,-612.876398,9252.574275
2360.951910,-444.123565,-1072.533697,8438.347739
2360.952232,0.000000,-1225.752797,9252.574275
2360.952555,-962.267725,-689.485948,9178.553681
2360.952877,-222.061783,-1149.143247,9326.594869
2360.953199,1776.494261,-1762.019645,10140.821405
2360.953521,-222.061783,-1608.800546,9770.718434
2360.953843,-370.102971,-1685.410096,9696.697840
2360.954165,1036.288319,-536.266849,10510.924376
2360.954487,2738.761985,-1149.143247,10066.800811
2360.954809,1850.514855,-1915.238745,10066.800811
2360.955131,148.041188,-2298.286494,9548.656652
2360.955453,962.267725,-1762.019645,11473.192101
2360.955775,1110.308913,-1608.800546,10807.006753
2360.956097,444.123565,-2451.505594,9770.718434
2360.956419,-666.185348,-2528.115143,9770.718434
2360.956741,-740.205942,-766.095498,10362.883188
2360.957063,296.082377,-1685.410096,9252.574275
2360.957385,888.247130,-1685.410096,8956.491898
2360.957707,-592.164754,-1072.533697,8586.388927
2360.958029,-740.205942,-153.219100,9030.512492
2360.958351,888.247130,0.000000,8586.388927
2360.958673,814.226536,-153.219100,8438.347739
2360.958995,518.144159,306.438199,9770.718434
2360.959318,-888.247130,-229.828649,9400.615463
2360.959640,-962.267725,-612.876398,8586.388927
2360.959962,-592.164754,-995.924147,8068.244768
2360.960284,-1480.411884,0.000000,9400.615463
2360.960606,-2294.638420,0.000000,9474.636058
2360.960928,-1554.432478,-383.047749,9400.615463
2360.961250,-1036.288319,76.609550,8512.368333
2360.961572,-1554.432478,459.657299,9104.533087
2360.961894,-1110.308913,995.924147,8956.491898
2360.962216,222.061783,1915.238745,9474.636058
2360.962538,1924.535449,1991.848295,9548.656652
2360.962860,666.185348,2221.676944,9770.718434
2360.963182,-666.185348,1838.629195,9400.615463
2360.963504,814.226536,2145.067394,9548.656652
2360.963826,1924.535449,2604.724693,9178.553681
2360.964148,1036.288319,2221.676944,8660.409521
2360.964470,-444.123565,2298.286494,9474.636058
2360.964792,-962.267725,1378.971896,8734.430116
2360.965114,-370.102971,1838.629195,8734.430116
2360.965436,-222.061783,2068.457845,9992.780217
2360.965759,-1110.308913,2528.115143,9844.739029
2360.966081,-222.061783,3140.991542,9178.553681
2360.966403,1258.350101,3447.429741,7550.100608
2360.966725,666.185348,3830.477490,8364.327145
2360.967047,-814.226536,3524.039291,8512.368333
2360.967369,-740.205942,2757.943793,8290.306550
2360.967691,-888.247130,2604.724693,9178.553681
2360.968013,-740.205942,3370.820191,8734.430116
2360.968335,-1924.535449,1762.019645,9992.780217
2360.968657,-2516.700203,1838.629195,9030.512492
2360.968979,-2664.741391,842.705048,8068.244768
2360.969301,-1406.391290,919.314598,8438.347739
2360.969623,-2368.659014,995.924147,9326.594869
2360.969945,-1702.473667,1072.533697,9992.780217
2360.970267,-370.102971,919.314598,8512.368333
2360.970589,2368.659014,1838.629195,8882.471304
2360.970911,1776.494261,1455.581446,8068.244768
2360.971233,888.247130,842.705048,8882.471304
2360.971555,2220.617826,766.095498,10140.821405
2360.971877,3256.906145,842.705048,9548.656652
2360.972199,2590.720797,383.047749,9622.677246
2360.972522,740.205942,-229.828649,8364.327145
2360.972844,666.185348,-306.438199,8586.388927
2360.973166,1480.411884,-229.828649,9474.636058
2360.973488,1628.453072,-1225.752797,10214.842000
2360.973810,222.061783,-2068.457845,10658.965565
2360.974132,-1406.391290,-2145.067394,10214.842000
2360.974454,-370.102971,-2221.676944,10362.883188
2360.974776,148.041188,-2298.286494,9474.636058
2360.975098,-814.226536,-2298.286494,10807.006753
2360.975420,-1628.453072,-2681.334243,9770.718434
2360.975742,-1110.308913,-2604.724693,10955.047942
2360.976064,-222.061783,-2757.943793,10732.986159
2360.976386,-1184.329507,-2145.067394,10214.842000
2360.976708,-1332.370696,-2145.067394,9474.636058
2360.977030,-814.226536,-2145.067394,8512.368333
2360.977352,0.000000,-1762.019645,8660.409521
2360.977674,74.020594,-1915.238745,10140.821405
2360.977996,-1480.411884,-1762.019645,9474.636058
2360.978318,0.000000,-766.095498,8808.450710
2360.978640,1258.350101,-612.876398,8290.306550
2360.978962,592.164754,-536.266849,8586.388927
2360.979285,-222.061783,-229.828649,9474.636058
2360.979607,296.082377,153.219100,9104.533087
2360.979929,814.226536,0.000000,8734.430116
2360.980251,1110.308913,383.047749,9252.574275
2360.980573,0.000000,0.000000,8956.491898
2360.980895,-1406.391290,0.000000,8512.368333
2360.981217,-1036.288319,536.266849,8660.409521
2360.981539,518.144159,459.657299,9104.533087
2360.981861,-1258.350101,612.876398,9474.636058
2360.982183,-1850.514855,995.924147,8956.491898
2360.982505,-370.102971,689.485948,9474.636058
2360.982827,592.164754,1838.629195,9844.739029
2360.983149,296.082377,1225.752797,10362.883188
2360.983471,-962.267725,1685.410096,10066.800811
2360.983793,-666.185348,1915.238745,9696.697840
2360.984115,518.144159,1838.629195,8660.409521
2360.984437,-296.082377,2145.067394,8734.430116
2360.984759,-1110.308913,1762.019645,9474.636058
2360.985081,-1184.329507,2374.896044,9622.677246
2360.985403,0.000000,2298.286494,8956.491898
2360.985725,0.000000,2068.457845,8586.388927
2360.986048,-2072.576638,2528.115143,9474.636058
2360.986370,-740.205942,3140.991542,9178.553681
2360.986692,1258.350101,3830.477490,7254.018232
2360.987014,1924.535449,4136.915689,7994.224174
2360.987336,0.000000,3447.429741,8512.368333
2360.987658,0.000000,3677.258390,9474.636058
2360.987980,1628.453072,3907.087040,8882.471304
2360.988302,1258.350101,2757.943793,7772.162391
2360.988624,-370.102971,2298.286494,8364.327145
2360.988946,-2590.720797,2834.553343,9622.677246
2360.989268,-1036.288319,2528.115143,8364.327145
2360.989590,666.185348,1915.238745,8512.368333
2360.989912,-1184.329507,1685.410096,9104.533087
2360.990234,-1628.453072,1149.143247,8808.450710
2360.990556,-888.247130,995.924147,8586.388927
2360.990878,666.185348,459.657299,8438.347739
2360.991200,370.102971,919.314598,9992.780217
2360.991522,-1036.288319,1149.143247,9548.656652
2360.991844,222.061783,-536.266849,10214.842000
2360.992166,444.123565,-459.657299,9400.615463
2360.992488,1036.288319,-1532.190996,8734.430116
2360.992811,0.000000,-689.485948,10288.862594
2360.993133,-296.082377,-995.924147,10140.821405
2360.993455,296.082377,-1685.410096,10732.986159
2360.993777,592.164754,-2298.286494,9696.697840
2360.994099,-592.164754,-1685.410096,9918.759623
2360.994421,-1480.411884,-1762.019645,10732.986159
2360.994743,0.000000,-2068.457845,10288.862594
2360.995065,1184.329507,-2068.457845,10288.862594
2360.995387,148.041188,-1685.410096,10362.883188
2360.995709,-1702.473667,-1991.848295,10955.047942
2360.996031,-296.082377,-1378.971896,10214.842000
2360.996353,666.185348,-1838.629195,8512.368333
2360.996675,370.102971,-1225.752797,8734.430116
2360.996997,-2146.597232,-995.924147,9104.533087
2360.997319,-1258.350101,-1685.410096,8142.265362
2360.997641,0.000000,-1302.362347,8734.430116
2360.997963,-1036.288319,-1455.581446,8364.327145
2360.998285,-2072.576638,-1991.848295,9104.533087
2360.998607,-2072.576638,-995.924147,9548.656652
2360.998929,518.144159,-459.657299,8808.450710
2360.999251,518.144159,0.000000,8586.388927
2360.999574,-666.185348,-995.924147,7402.059420
2360.999896,-518.144159,-153.219100,8808.450710
2361.000218,296.082377,0.000000,8438.347739
2361.000540,370.102971,-536.266849,9474.636058
2361.000862,1036.288319,-306.438199,10955.047942
2361.001184,-370.102971,383.047749,10732.986159
2361.001506,0.000000,153.219100,10436.903782
2361.001828,444.123565,0.000000,10510.924376
2361.002150,-296.082377,383.047749,10066.800811
2361.002472,0.000000,1225.752797,10066.800811
2361.002794,1332.370696,1762.019645,9622.677246
2361.003116,2146.597232,1991.848295,9400.615463
2361.003438,814.226536,2604.724693,10140.821405
2361.003760,-296.082377,2604.724693,9400.615463
2361.004082,-370.102971,2221.676944,9474.636058
2361.004404,444.123565,2451.505594,8364.327145
2361.004726,-518.144159,2604.724693,8364.327145
2361.005048,-1554.432478,2451.505594,8364.327145
2361.005370,-2220.617826,1915.238745,6809.894666
2361.005692,-666.185348,2451.505594,7328.038826
2361.006015,-370.102971,3140.991542,8512.368333
2361.006337,-1406.391290,2987.772442,8438.347739
2361.006659,-962.267725,2757.943793,8364.327145
2361.006981,1406.391290,3447.429741,8216.285956
2361.007303,962.267725,3447.429741,8438.347739
2361.007625,-592.164754,3140.991542,9030.512492
2361.007947,-962.267725,2681.334243,9030.512492
2361.008269,592.164754,2604.724693,9548.656652
2361.008591,0.000000,2604.724693,9400.615463
2361.008913,-296.082377,2528.115143,10288.862594
2361.009235,-1258.350101,1915.238745,9252.574275
2361.009557,-222.061783,1455.581446,8438.347739
2361.009879,74.020594,1685.410096,9474.636058
2361.010201,-2072.576638,995.924147,9178.553681
2361.010523,-2072.576638,536.266849,9252.574275
2361.010845,-814.226536,383.047749,8808.450710
2361.011167,592.164754,612.876398,9474.636058
2361.011489,-1480.411884,229.828649,8882.471304
2361.011811,-1998.556043,-383.047749,9252.574275
2361.012133,74.020594,-153.219100,9548.656652
2361.012455,1850.514855,-459.657299,9252.574275
2361.012778,296.082377,-383.047749,9400.615463
2361.013100,74.020594,-536.266849,9696.697840
2361.013422,518.144159,-1149.143247,8808.450710
2361.013744,2072.576638,-842.705048,9326.594869
2361.014066,2368.659014,-536.266849,10288.862594
2361.014388,222.061783,-1455.581446,9474.636058
2361.014710,0.000000,-1608.800546,9844.739029
2361.015032,888.247130,-1378.971896,9622.677246
2361.015354,592.164754,-766.095498,9252.574275
2361.015676,-296.082377,-1455.581446,9696.697840
2361.015998,-1702.473667,-2068.457845,10066.800811
2361.016320,-1406.391290,-1838.629195,10881.027347
2361.016642,-814.226536,-2451.505594,9548.656652
2361.016964,-1776.494261,-2451.505594,9474.636058
2361.017286,-2516.700203,-2451.505594,9104.533087
2361.017608,-3182.885551,-2068.457845,9844.739029
2361.017930,-1850.514855,-2298.286494,10288.862594
2361.018252,-1332.370696,-2145.067394,8808.450710
2361.018574,-1480.411884,-1455.581446,9252.574275
2361.018896,0.000000,76.609550,9400.615463
2361.019218,1184.329507,0.000000,8882.471304
2361.019541,1332.370696,0.000000,8586.388927
2361.019863,592.164754,306.438199,8882.471304
2361.020185,1110.308913,919.314598,9400.615463
2361.020507,1406.391290,229.828649,9030.512492
2361.020829,962.267725,383.047749,8808.450710
2361.021151,0.000000,306.438199,9696.697840
2361.021473,-1628.453072,383.047749,9030.512492
2361.021795,-1332.370696,459.657299,8586.388927
2361.022117,148.041188,-153.219100,8808.450710
2361.022439,-666.185348,766.095498,8068.244768
2361.022761,-1332.370696,919.314598,9474.636058
2361.023083,-666.185348,1838.629195,9622.677246
2361.023405,1480.411884,1991.848295,9474.636058
2361.023727,962.267725,2145.067394,9104.533087
2361.024049,-444.123565,2911.162892,9178.553681
2361.024371,0.000000,2681.334243,9178.553681
2361.024693,1924.535449,2451.505594,7920.203579
2361.025014,1110.308913,2374.896044,8660.409521
2361.025336,0.000000,3140.991542,10510.924376
2361.025658,-592.164754,2298.286494,9918.759623
2361.025980,1036.288319,1838.629195,9030.512492
2361.026302,814.226536,2221.676944,8882.471304
2361.026624,-1406.391290,2528.115143,9770.718434
2361.026946,-962.267725,2451.505594,8734.430116
2361.027268,370.102971,2451.505594,8364.327145
2361.027590,-222.061783,2834.553343,9030.512492
2361.027911,-1702.473667,2298.286494,8586.388927
2361.028233,-2294.638420,2145.067394,9844.739029
2361.028555,296.082377,2987.772442,8142.265362
2361.028877,0.000000,2068.457845,8808.450710
2361.029199,-1036.288319,2604.724693,8882.471304
2361.029521,-2220.617826,1455.581446,8956.491898
2361.029843,-666.185348,2221.676944,7550.100608
2361.030165,296.082377,1762.019645,8438.347739
2361.030486,-814.226536,1762.019645,8808.450710
2361.030808,-1628.453072,1455.581446,9252.574275
2361.031130,296.082377,1072.533697,9252.574275
2361.031452,2220.617826,995.924147,8808.450710
2361.031774,1776.494261,842.705048,10436.903782
2361.032096,74.020594,383.047749,10584.944971
2361.032418,740.205942,0.000000,10436.903782
2361.032740,1776.494261,-153.219100,9474.636058
2361.033062,1480.411884,-612.876398,8808.450710
2361.033383,370.102971,-306.438199,10362.883188
2361.033705,-814.226536,-536.266849,10140.821405
2361.034027,0.000000,-1072.533697,9104.533087
2361.034349,-370.102971,-2298.286494,9326.594869
2361.034671,-2368.659014,-2145.067394,9474.636058
2361.034993,-2664.741391,-1685.410096,9696.697840
2361.035315,-1184.329507,-1762.019645,8956.491898
2361.035637,-370.102971,-2374.896044,8290.306550
2361.035958,-2146.597232,-2221.676944,9178.553681
2361.036280,-2368.659014,-1991.848295,9770.718434
2361.036602,-1184.329507,-1915.238745,9918.759623
2361.036924,-370.102971,-2451.505594,9622.677246
2361.037246,-814.226536,-1838.629195,11029.068536
2361.037568,-2146.597232,-1455.581446,10140.821405
2361.037890,-592.164754,-1378.971896,9104.533087
2361.038212,2220.617826,-1608.800546,9622.677246
2361.038533,1332.370696,-689.485948,9918.759623
2361.038855,-1036.288319,-612.876398,10584.944971
2361.039177,1554.432478,-459.657299,10140.821405
2361.039499,3182.885551,0.000000,9696.697840
2361.039821,3478.967927,536.266849,10066.800811
2361.040143,1110.308913,76.609550,9474.636058
2361.040465,518.144159,153.219100,9252.574275
2361.040787,962.267725,-229.828649,8660.409521
2361.041109,0.000000,536.266849,8438.347739
2361.041430,-1776.494261,0.000000,9104.533087
2361.041752,-2886.803174,-229.828649,8068.244768
2361.042074,-2442.679609,-536.266849,7550.100608
2361.042396,-1184.329507,-306.438199,7698.141797
2361.042718,-3478.967927,-229.828649,8586.388927
2361.043040,-2146.597232,0.000000,8512.368333
2361.043362,-296.082377,766.095498,9252.574275
2361.043684,888.247130,1838.629195,9474.636058
2361.044005,444.123565,1455.581446,9474.636058
2361.044327,444.123565,2145.067394,10140.821405
2361.044649,1850.514855,3370.820191,10288.862594
2361.044971,3330.926739,2528.115143,9178.553681
2361.045293,1554.432478,2757.943793,9918.759623
2361.045615,1998.556043,2834.553343,9474.636058
2361.045937,1702.473667,3447.429741,9400.615463
2361.046259,2738.761985,3600.648841,9178.553681
2361.046581,1406.391290,2604.724693,9400.615463
2361.046902,-148.041188,2604.724693,9770.718434
2361.047224,-666.185348,2451.505594,8734.430116
2361.047546,0.000000,2145.067394,8512.368333
2361.047868,-1110.308913,2068.457845,8660.409521
2361.048190,-2738.761985,2221.676944,8586.388927
2361.048512,-3182.885551,1532.190996,8586.388927
2361.048834,-2294.638420,1685.410096,7846.182985
2361.049156,-2220.617826,1532.190996,7105.977043
2361.049477,-1628.453072,1685.410096,8660.409521
2361.049799,-3478.967927,1378.971896,8068.244768
2361.050121,-2220.617826,1608.800546,9548.656652
2361.050443,-740.205942,689.485948,9178.553681
2361.050765,-1258.350101,1149.143247,8882.471304
2361.051087,-592.164754,1532.190996,9770.718434
2361.051409,1258.350101,1378.971896,9178.553681
2361.051731,2072.576638,2374.896044,9548.656652
2361.052052,1776.494261,459.657299,9252.574275
2361.052374,666.185348,766.095498,10658.965565
2361.052696,1776.494261,229.828649,10584.944971
2361.053018,2072.576638,-229.828649,9548.656652
2361.053340,1184.329507,306.438199,10288.862594
2361.053662,-296.082377,0.000000,9696.697840
2361.053984,-296.082377,-536.266849,8586.388927
2361.054306,1036.288319,-1072.533697,7179.997637
2361.054628,592.164754,-842.705048,7994.224174
2361.054949,-1480.411884,-1225.752797,8660.409521
2361.055271,-2220.617826,-1915.238745,9918.759623
2361.055593,148.041188,-2374.896044,9400.615463
2361.055915,74.020594,-1532.190996,10288.862594
2361.056237,-1332.370696,-1608.800546,9992.780217
2361.056559,-2220.617826,-2221.676944,10510.924376
2361.056881,-962.267725,-1072.533697,10140.821405
2361.057203,666.185348,-1915.238745,8734.430116
2361.057524,-888.247130,-1838.629195,9992.780217
2361.057846,-1554.432478,-1762.019645,9770.718434
2361.058168,-592.164754,-1532.190996,9622.677246
2361.058490,740.205942,-1532.190996,9548.656652
2361.058812,0.000000,-1455.581446,9918.759623
2361.059134,-1924.535449,-919.314598,10140.821405
2361.059456,-296.082377,-612.876398,9252.574275
2361.059778,962.267725,-842.705048,9252.574275
2361.060100,370.102971,-766.095498,8068.244768
2361.060421,-518.144159,383.047749,9030.512492
2361.060743,296.082377,1072.533697,9770.718434
2361.061065,1702.473667,689.485948,8290.306550
2361.061387,740.205942,153.219100,7624.121203
2361.061709,0.000000,0.000000,8290.306550
2361.062031,-1776.494261,536.266849,8438.347739
2361.062353,370.102971,229.828649,8438.347739
2361.062675,592.164754,306.438199,9178.553681
2361.062996,-1332.370696,995.924147,9844.739029
2361.063318,-2220.617826,1072.533697,9326.594869
2361.063640,74.020594,459.657299,8364.327145
2361.063962,888.247130,1378.971896,9622.677246
2361.064284,-370.102971,383.047749,10658.965565
2361.064606,-2146.597232,536.266849,10436.903782
2361.064928,-740.205942,1302.362347,10214.842000
2361.065250,-592.164754,1072.533697,8586.388927
2361.065571,-740.205942,1302.362347,9474.636058
2361.065893,-2294.638420,2068.457845,9548.656652
2361.066215,-2220.617826,1378.971896,9030.512492
2361.066537,0.000000,2221.676944,8808.450710
2361.066859,-444.123565,2068.457845,9400.615463
2361.067181,-1110.308913,2221.676944,9844.739029
2361.067503,0.000000,2911.162892,8586.388927
2361.067825,1776.494261,2604.724693,8142.265362
2361.068147,1628.453072,3447.429741,8956.491898
2361.068468,370.102971,3370.820191,8290.306550
2361.068790,666.185348,2528.115143,9400.615463
2361.069112,1628.453072,2834.553343,7254.018232
2361.069434,518.144159,2145.067394,8660.409521
2361.069756,-592.164754,2451.505594,10214.842000
2361.070078,-1554.432478,1915.238745,9104.533087
2361.070400,0.000000,1838.629195,8882.471304
2361.070722,740.205942,1915.238745,8438.347739
2361.071043,-1702.473667,1991.848295,8586.388927
2361.071365,-1924.535449,1532.190996,9178.553681
2361.071687,-592.164754,1149.143247,9178.553681
2361.072009,518.144159,766.095498,8956.491898
2361.072331,-740.205942,459.657299,9326.594869
2361.072653,-1776.494261,459.657299,9992.780217
2361.072975,-740.205942,0.000000,9474.636058
2361.073297,0.000000,-919.314598,8956.491898
2361.073619,-296.082377,153.219100,9400.615463
2361.073940,-518.144159,-306.438199,9770.718434
2361.074262,-222.061783,-995.924147,9104.533087
2361.074584,1776.494261,-459.657299,8956.491898
2361.074906,1406.391290,-689.485948,9252.574275
2361.075228,814.226536,-536.266849,9770.718434
2361.075550,888.247130,-1149.143247,10510.924376
2361.075872,2294.638420,-689.485948,10140.821405
2361.076194,1184.329507,-1455.581446,10584.944971
2361.076515,0.000000,-1915.238745,9548.656652
2361.076837,444.123565,-1685.410096,10436.903782
2361.077159,1332.370696,-1225.752797,9400.615463
2361.077481,962.267725,-1991.848295,9326.594869
2361.077803,222.061783,-1608.800546,9918.759623
2361.078125,-1480.411884,-1915.238745,9474.636058
2361.078447,-1332.370696,-1608.800546,9622.677246
2361.078769,0.000000,-1838.629195,10362.883188
2361.079090,-2220.617826,-1915.238745,9918.759623
2361.079412,-2368.659014,-2298.286494,9548.656652
2361.079734,-1702.473667,-1149.143247,9992.780217
2361.080056,444.123565,-1302.362347,8882.471304
2361.080378,148.041188,-1149.143247,9696.697840
2361.080700,-1480.411884,-1532.190996,9474.636058
2361.081022,-296.082377,-919.314598,10658.965565
2361.081344,814.226536,-612.876398,9622.677246
2361.081666,962.267725,-536.266849,9104.533087
2361.081987,814.226536,-919.314598,9178.553681
2361.082309,-666.185348,689.485948,9400.615463
2361.082631,444.123565,689.485948,8956.491898
2361.082953,1184.329507,306.438199,8068.244768
2361.083275,296.082377,1225.752797,8734.430116
2361.083597,148.041188,1532.190996,8660.409521
2361.083919,740.205942,1915.238745,9178.553681
2361.084241,2072.576638,1762.019645,9252.574275
2361.084562,0.000000,842.705048,8512.368333
2361.084884,0.000000,1991.848295,9918.759623
2361.085206,-222.061783,1991.848295,9104.533087
2361.085528,0.000000,995.924147,9400.615463
2361.085850,-1036.288319,1149.143247,9992.780217
2361.086172,-2664.741391,1225.752797,9770.718434
2361.086494,-1998.556043,1149.143247,9622.677246
2361.086816,-370.102971,1991.848295,9844.739029
2361.087138,-814.226536,1915.238745,9918.759623
2361.087459,-1258.350101,2298.286494,9474.636058
2361.087781,-370.102971,3140.991542,9252.574275
2361.088103,1110.308913,2757.943793,8660.409521
2361.088425,814.226536,2911.162892,8142.265362
2361.088747,-666.185348,2911.162892,8956.491898
2361.089069,-444.123565,3064.381992,8808.450710
2361.089391,1258.350101,2681.334243,8438.347739
2361.089713,888.247130,2451.505594,8660.409521
2361.090034,-222.061783,2374.896044,9548.656652
2361.090356,-1480.411884,2221.676944,9030.512492
2361.090678,-518.144159,1532.190996,7031.956449
2361.091000,296.082377,1072.533697,7328.038826
2361.091322,-666.185348,2298.286494,8660.409521
2361.091644,-518.144159,1991.848295,8364.327145
2361.091966,518.144159,1991.848295,9918.759623
2361.092288,1110.308913,1991.848295,10066.800811
2361.092609,0.000000,995.924147,9622.677246
2361.092931,-296.082377,612.876398,9770.718434
2361.093253,888.247130,919.314598,9326.594869
2361.093575,1776.494261,766.095498,9622.677246
2361.093897,1406.391290,459.657299,10807.006753
2361.094219,0.000000,-612.876398,9474.636058
2361.094541,-296.082377,-1378.971896,9178.553681
2361.094863,888.247130,-612.876398,9770.718434
2361.095185,-666.185348,-1455.581446,10955.047942
2361.095506,-2146.597232,-1991.848295,11029.068536
2361.095828,-1480.411884,-2298.286494,9548.656652
2361.096150,148.041188,-1378.971896,9178.553681
2361.096472,-296.082377,-1302.362347,9400.615463
2361.096794,-2738.761985,-2681.334243,8956.491898
2361.097116,-1184.329507,-2451.505594,9474.636058
2361.097438,-740.205942,-1685.410096,9104.533087
2361.097760,-148.041188,-1455.581446,9992.780217
2361.098081,-666.185348,-1378.971896,9770.718434
2361.098403,-2590.720797,-2145.067394,8956.491898
2361.098725,-444.123565,-1838.629195,8364.327145
2361.099047,74.020594,-1302.362347,9104.533087
2361.099369,0.000000,-536.266849,11325.150913
2361.099691,0.000000,-612.876398,10214.842000
2361.100013,1702.473667,-612.876398,9622.677246
2361.100335,2146.597232,-459.657299,9622.677246
2361.100657,666.185348,-306.438199,9474.636058
2361.100978,-370.102971,0.000000,9844.739029
2361.101300,444.123565,-229.828649,10140.821405
2361.101622,666.185348,0.000000,9474.636058
2361.101944,-444.123565,-459.657299,9474.636058
2361.102266,-1850.514855,-76.609550,8438.347739
2361.102588,-1924.535449,0.000000,8216.285956
2361.102910,-962.267725,459.657299,7994.224174
2361.103232,-518.144159,0.000000,7772.162391
2361.103553,-2220.617826,689.485948,8512.368333
2361.103875,-1924.535449,995.924147,7920.203579
2361.104197,-296.082377,1378.971896,8364.327145
2361.104519,148.041188,1608.800546,8882.471304
2361.104841,-370.102971,1455.581446,9696.697840
2361.105163,0.000000,1455.581446,9622.677246
2361.105485,888.247130,2528.115143,9844.739029
2361.105807,1924.535449,2757.943793,9770.718434
2361.106128,814.226536,2221.676944,10732.986159
2361.106450,148.041188,2374.896044,10362.883188
2361.106772,1480.411884,2681.334243,9622.677246
2361.107094,2590.720797,2528.115143,9474.636058
2361.107416,1184.329507,2834.553343,10214.842000
2361.107738,592.164754,3370.820191,9622.677246
2361.108060,666.185348,2911.162892,9696.697840
2361.108382,1406.391290,3370.820191,8660.409521
2361.108704,222.061783,2145.067394,8734.430116
2361.109025,-962.267725,2681.334243,8808.450710
2361.109347,-370.102971,3140.991542,9400.615463
2361.109669,-296.082377,3064.381992,7920.203579
2361.109991,-1184.329507,1455.581446,7698.141797
2361.110313,-1628.453072,1608.800546,7105.977043
2361.110635,-2072.576638,1762.019645,7476.080014
2361.110957,-1554.432478,1608.800546,9030.512492
2361.111279,-2146.597232,842.705048,8956.491898
2361.111600,-2294.638420,1225.752797,9104.533087
2361.111922,-2146.597232,766.095498,7772.162391
2361.112244,-518.144159,612.876398,9844.739029
2361.112566,740.205942,1072.533697,9030.512492
2361.112888,444.123565,842.705048,10288.862594
2361.113210,0.000000,306.438199,9992.780217
2361.113532,888.247130,76.609550,9474.636058
2361.113854,1406.391290,0.000000,9844.739029
2361.114176,1258.350101,0.000000,10436.903782
2361.114497,-444.123565,-766.095498,10658.965565
2361.114819,-296.082377,-1149.143247,9696.697840
2361.115141,222.061783,-689.485948,9474.636058
2361.115463,-740.205942,-1378.971896,9918.759623
2361.115785,-1406.391290,-1838.629195,9844.739029
2361.116107,-888.247130,-1762.019645,9178.553681
2361.116429,370.102971,-1685.410096,10362.883188
2361.116751,-518.144159,-1915.238745,9030.512492
2361.117072,-962.267725,-1991.848295,9326.594869
2361.117394,0.000000,-1455.581446,10658.965565
2361.117716,-370.102971,-1915.238745,8956.491898
2361.118038,-962.267725,-2068.457845,9548.656652
2361.118360,-1628.453072,-2145.067394,9326.594869
2361.118682,-1480.411884,-1915.238745,9696.697840
2361.119004,0.000000,-1378.971896,9104.533087
2361.119326,0.000000,-1378.971896,8808.450710
2361.119647,-888.247130,-766.095498,9400.615463
2361.119969,-814.226536,-919.314598,9326.594869
2361.120291,1110.308913,-689.485948,9474.636058
2361.120613,2516.700203,0.000000,9844.739029
2361.120935,222.061783,536.266849,10362.883188
2361.121257,-666.185348,0.000000,9696.697840
2361.121579,814.226536,-383.047749,8882.471304
2361.121901,1480.411884,-229.828649,8364.327145
2361.122223,0.000000,1072.533697,9474.636058
2361.122544,-518.144159,612.876398,9696.697840
2361.122866,-666.185348,229.828649,9178.553681
2361.123188,0.000000,229.828649,7846.182985
2361.123510,370.102971,1072.533697,8808.450710
2361.123832,-888.247130,1685.410096,8438.347739
2361.124154,222.061783,1915.238745,7624.121203
2361.124476,2442.679609,1685.410096,9252.574275
2361.124798,2146.597232,3447.429741,8808.450710
2361.125120,-296.082377,2528.115143,9474.636058
2361.125441,222.061783,2298.286494,9104.533087
2361.125763,962.267725,2298.286494,8956.491898
2361.126085,518.144159,2911.162892,8512.368333
2361.126407,-296.082377,2987.772442,9104.533087
2361.126729,-888.247130,1532.190996,9474.636058
2361.127051,-370.102971,2221.676944,9400.615463
2361.127373,74.020594,1685.410096,9696.697840
2361.127695,-1628.453072,1762.019645,9918.759623
2361.128017,-1554.432478,2298.286494,10436.903782
2361.128338,222.061783,2757.943793,10362.883188
2361.128660,1702.473667,3294.210641,9474.636058
2361.128982,666.185348,2298.286494,8586.388927
2361.129304,-740.205942,2451.505594,8068.244768
2361.129626,-740.205942,2451.505594,9104.533087
2361.129948,296.082377,2068.457845,9400.615463
2361.130270,296.082377,1838.629195,8660.409521
2361.130592,-1554.432478,1225.752797,9030.512492
2361.130914,-1924.535449,1762.019645,9474.636058
2361.131236,-592.164754,689.485948,8438.347739
2361.131557,-74.020594,0.000000,7772.162391
2361.131879,-1628.453072,229.828649,7328.038826
2361.132201,-2294.638420,995.924147,9622.677246
2361.132523,0.000000,536.266849,9474.636058
2361.132845,444.123565,153.219100,9474.636058
2361.133167,-74.020594,229.828649,9252.574275
2361.133489,148.041188,612.876398,9030.512492
2361.133811,962.267725,842.705048,9844.739029
2361.134133,1776.494261,0.000000,9400.615463
2361.134454,518.144159,-383.047749,9918.759623
2361.134776,-962.267725,-459.657299,9252.574275
2361.135098,-592.164754,-536.266849,9400.615463
2361.135420,-148.041188,-1532.190996,9252.574275
2361.135742,-444.123565,-2451.505594,9400.615463
2361.136064,-888.247130,-1838.629195,10214.842000
2361.136386,-814.226536,-383.047749,10362.883188
2361.136708,-148.041188,-1915.238745,10436.903782
2361.137030,-444.123565,-2451.505594,9474.636058
2361.137352,-2072.576638,-2451.505594,9696.697840
2361.137673,-962.267725,-1608.800546,9622.677246
2361.137995,-592.164754,-1608.800546,8956.491898
2361.138317,296.082377,-1762.019645,8734.430116
2361.138639,0.000000,-1378.971896,9326.594869
2361.138961,-1480.411884,-1532.190996,8660.409521
2361.139283,-148.041188,-1302.362347,8290.306550
2361.139605,518.144159,-919.314598,9178.553681
2361.139927,296.082377,-383.047749,10436.903782
2361.140249,-814.226536,-459.657299,8586.388927
2361.140570,0.000000,-612.876398,9400.615463
2361.140892,1184.329507,383.047749,9992.780217
2361.141214,-518.144159,-536.266849,9844.739029
2361.141536,-592.164754,-383.047749,9770.718434
2361.141858,370.102971,229.828649,9770.718434
2361.142180,888.247130,0.000000,9178.553681
2361.142502,592.164754,0.000000,10140.821405
2361.142824,-1258.350101,383.047749,9992.780217
2361.143146,-518.144159,383.047749,9474.636058
2361.143468,1258.350101,0.000000,7402.059420
2361.143789,-370.102971,995.924147,8586.388927
2361.144111,-740.205942,1838.629195,10066.800811
2361.144433,-296.082377,2068.457845,9400.615463
2361.144755,1924.535449,2298.286494,8512.368333
2361.145077,1406.391290,1225.752797,6957.935855
2361.145399,0.000000,2298.286494,8586.388927
2361.145721,-296.082377,2298.286494,10436.903782
2361.146043,370.102971,2145.067394,9252.574275
2361.146365,1184.329507,1608.800546,8956.491898
2361.146686,-370.102971,1532.190996,9548.656652
2361.147008,-3182.885551,1532.190996,10436.903782
2361.147330,-222.061783,1685.410096,9622.677246
2361.147652,74.020594,1225.752797,10066.800811
2361.147974,0.000000,2987.772442,9770.718434
2361.148296,-1258.350101,2987.772442,9844.739029
2361.148618,666.185348,3294.210641,8734.430116
2361.148940,1998.556043,2757.943793,8290.306550
2361.149262,814.226536,3370.820191,8068.244768
2361.149584,-814.226536,3600.648841,9548.656652
2361.149905,148.041188,2757.943793,9030.512492
2361.150227,1110.308913,2528.115143,7920.203579
2361.150549,296.082377,1838.629195,9178.553681
2361.150871,-2960.823768,2451.505594,9474.636058
2361.151193,-1998.556043,1225.752797,7994.224174
2361.151515,0.000000,995.924147,6661.853478
2361.151837,-296.082377,1378.971896,7772.162391
2361.152159,-2368.659014,1302.362347,9770.718434
2361.152481,-1850.514855,919.314598,8660.409521
2361.152802,296.082377,306.438199,9400.615463
2361.153124,1184.329507,766.095498,8438.347739
2361.153446,-962.267725,-229.828649,9770.718434
2361.153768,-518.144159,306.438199,10214.842000
2361.154090,1036.288319,153.219100,10362.883188
2361.154412,1850.514855,153.219100,9770.718434
2361.154734,962.267725,-842.705048,9770.718434
2361.155056,-888.247130,-919.314598,9622.677246
2361.155378,0.000000,-1455.581446,9030.512492
2361.155699,666.185348,-1915.238745,9844.739029
2361.156021,-296.082377,-1378.971896,10955.047942
2361.156343,-1036.288319,-1685.410096,10658.965565
2361.156665,-1184.329507,-1762.019645,9696.697840
2361.156987,592.164754,-1915.238745,9696.697840
2361.157309,74.020594,-1685.410096,8660.409521
2361.157631,-444.123565,-1378.971896,8882.471304
2361.157953,222.061783,-1072.533697,10140.821405
2361.158275,592.164754,-1532.190996,9400.615463
2361.158597,222.061783,-2145.067394,9252.574275
2361.158918,-740.205942,-1915.238745,9104.533087
2361.159240,-1110.308913,-919.314598,8882.471304
2361.159562,444.123565,-612.876398,9696.697840
2361.159884,296.082377,-1378.971896,9400.615463
2361.160206,-444.123565,-1072.533697,9696.697840
2361.160528,-1628.453072,-1149.143247,9178.553681
2361.160850,740.205942,-766.095498,8808.450710
2361.161172,1480.411884,-612.876398,9474.636058
2361.161494,-222.061783,-1072.533697,9178.553681
2361.161815,-1628.453072,-1302.362347,11399.171507
2361.162137,-814.226536,-536.266849,9400.615463
2361.162459,148.041188,-612.876398,9400.615463
2361.162781,-1184.329507,-612.876398,9992.780217
2361.163103,-2368.659014,0.000000,10436.903782
2361.163425,-1184.329507,229.828649,9548.656652
2361.163747,1110.308913,842.705048,7772.162391
2361.164069,518.144159,1838.629195,8142.265362
2361.164391,-222.061783,2374.896044,8660.409521
2361.164713,740.205942,2298.286494,8068.244768
2361.165034,3108.864956,2451.505594,8068.244768
2361.165356,1702.473667,2528.115143,8438.347739
2361.165678,444.123565,2528.115143,9770.718434
2361.166000,592.164754,2757.943793,10288.862594
2361.166322,814.226536,2834.553343,8216.285956
2361.166644,148.041188,2221.676944,8808.450710
2361.166966,-1554.432478,1838.629195,10214.842000
2361.167288,-1850.514855,2451.505594,10362.883188
2361.167610,0.000000,2221.676944,9400.615463
2361.167931,74.020594,1915.238745,9622.677246
2361.168253,-1332.370696,2451.505594,9400.615463
2361.168575,-2516.700203,2911.162892,9474.636058
2361.168897,-518.144159,2757.943793,10140.821405
2361.169219,1036.288319,2911.162892,9474.636058
2361.169541,-592.164754,2681.334243,9178.553681
2361.169863,-2072.576638,3140.991542,8956.491898
2361.170185,-1406.391290,3064.381992,8660.409521
2361.170507,370.102971,2221.676944,7476.080014
2361.170829,0.000000,2451.505594,7550.100608
2361.171150,-1924.535449,2757.943793,9104.533087
2361.171472,-1776.494261,2298.286494,9548.656652
2361.171794,74.020594,1302.362347,7254.018232
2361.172116,296.082377,1149.143247,7698.141797
2361.172438,-814.226536,1455.581446,9252.574275
2361.172760,-1628.453072,842.705048,9326.594869
2361.173082,666.185348,842.705048,9400.615463
2361.173404,1776.494261,0.000000,8808.450710
2361.173726,-222.061783,0.000000,8660.409521
2361.174047,-444.123565,229.828649,10362.883188
2361.174369,370.102971,383.047749,9474.636058
2361.174691,1628.453072,-689.485948,9252.574275
2361.175013,962.267725,-306.438199,10436.903782
2361.175335,-1110.308913,-842.705048,9326.594869
2361.175657,-444.123565,-1455.581446,9030.512492
2361.175979,222.061783,-1685.410096,9326.594869
2361.176301,-814.226536,-2068.457845,10436.903782
2361.176623,-2368.659014,-2604.724693,10658.965565
2361.176945,-1702.473667,-2221.676944,9622.677246
2361.177266,814.226536,-1991.848295,9770.718434
2361.177588,-518.144159,-2374.896044,9548.656652
2361.177910,-1332.370696,-2374.896044,9918.759623
2361.178232,-962.267725,-2834.553343,9548.656652
2361.178554,1110.308913,-1838.629195,9178.553681
2361.178876,888.247130,-1991.848295,9770.718434
2361.179198,-148.041188,-1991.848295,10584.944971
2361.179520,74.020594,-1378.971896,10288.862594
2361.179842,1702.473667,-842.705048,8290.306550
2361.180163,2072.576638,-842.705048,9252.574275
2361.180485,740.205942,-383.047749,9992.780217
2361.180807,0.000000,-612.876398,9178.553681
2361.181129,1480.411884,0.000000,9252.574275
2361.181451,1184.329507,153.219100,8734.430116
2361.181773,-666.185348,-306.438199,8956.491898
2361.182095,-222.061783,0.000000,9474.636058
2361.182417,-518.144159,-306.438199,8364.327145
2361.182739,-666.185348,459.657299,9252.574275
2361.183060,-2072.576638,76.609550,9474.636058
2361.183382,-3034.844362,-306.438199,9474.636058
2361.183704,-1036.288319,153.219100,7920.203579
2361.184026,-814.226536,459.657299,8438.347739
2361.184348,-814.226536,1608.800546,10066.800811
2361.184670,-2146.597232,919.314598,9030.512492
2361.184992,0.000000,1378.971896,8808.450710
2361.185314,1776.494261,2374.896044,9178.553681
2361.185636,444.123565,2221.676944,9696.697840
2361.185958,-296.082377,2298.286494,9918.759623
2361.186279,666.185348,2681.334243,10214.842000
2361.186601,1776.494261,2681.334243,8586.388927
2361.186923,1998.556043,2528.115143,8142.265362
2361.187245,592.164754,3217.601092,8660.409521
2361.187567,0.000000,2911.162892,8882.471304
2361.187889,296.082377,2451.505594,9178.553681
2361.188211,666.185348,2298.286494,9252.574275
2361.188533,-1184.329507,2834.553343,9992.780217
2361.188855,-1998.556043,2528.115143,9104.533087
2361.189176,-370.102971,3217.601092,9770.718434
2361.189498,222.061783,3064.381992,8808.450710
2361.189820,-962.267725,2528.115143,8438.347739
2361.190142,-1258.350101,2757.943793,9400.615463
2361.190464,-740.205942,2528.115143,9030.512492
2361.190786,-666.185348,2451.505594,9030.512492
2361.191108,-370.102971,1302.362347,8660.409521
2361.191430,-2368.659014,2068.457845,8438.347739
2361.191752,-740.205942,1915.238745,9548.656652
2361.192074,-962.267725,1608.800546,8364.327145
2361.192395,-370.102971,842.705048,8660.409521
2361.192717,-1480.411884,306.438199,8364.327145
2361.193039,-592.164754,536.266849,8660.409521
2361.193361,1258.350101,689.485948,9400.615463
2361.193683,1110.308913,919.314598,9326.594869
2361.194005,592.164754,-229.828649,9252.574275
2361.194327,666.185348,-383.047749,9474.636058
2361.194649,1110.308913,-383.047749,9104.533087
2361.194971,1998.556043,-689.485948,9548.656652
2361.195292,592.164754,-1302.362347,9844.739029
2361.195614,-444.123565,-1532.190996,10214.842000
2361.195936,296.082377,-1991.848295,9326.594869
2361.196258,1628.453072,-1915.238745,9104.533087
2361.196580,1332.370696,-1225.752797,10436.903782
2361.196902,222.061783,-2145.067394,10288.862594
2361.197224,962.267725,-1915.238745,10436.903782
2361.197546,2442.679609,-1838.629195,9992.780217
2361.197868,888.247130,-2451.505594,10066.800811
2361.198190,-518.144159,-2604.724693,10436.903782
2361.198511,-444.123565,-2987.772442,10436.903782
2361.198833,-222.061783,-2681.334243,10214.842000
2361.199155,-1184.329507,-2834.553343,10214.842000
2361.199477,-2516.700203,-2911.162892,9770.718434
2361.199799,-2220.617826,-2451.505594,9104.533087
2361.200121,-962.267725,-1991.848295,8512.368333
2361.200443,-592.164754,-1915.238745,8586.388927
2361.200765,-1480.411884,-1762.019645,8808.450710
2361.201087,-962.267725,-995.924147,8216.285956
2361.201408,1924.535449,153.219100,9400.615463
2361.201730,296.082377,76.609550,9252.574275
2361.202052,-740.205942,-612.876398,9400.615463
2361.202374,-518.144159,-612.876398,9252.574275
2361.202696,814.226536,229.828649,9474.636058
2361.203018,814.226536,536.266849,9474.636058
2361.203340,148.041188,76.609550,10881.027347
2361.203662,-1110.308913,306.438199,10066.800811
2361.203984,-814.226536,1072.533697,8808.450710
2361.204306,370.102971,842.705048,8956.491898
2361.204627,74.020594,1149.143247,9178.553681
2361.204949,-814.226536,1991.848295,9400.615463
2361.205271,0.000000,3447.429741,9918.759623
2361.205593,2072.576638,2528.115143,8734.430116
2361.205915,222.061783,2221.676944,8364.327145
2361.206237,-592.164754,2451.505594,9104.533087
2361.206559,-666.185348,2757.943793,8956.491898
2361.206881,148.041188,2681.334243,8734.430116
2361.207203,148.041188,2145.067394,8512.368333
2361.207524,-1480.411884,2451.505594,8660.409521
2361.207846,-1702.473667,3677.258390,9400.615463
2361.208168,-1332.370696,3370.820191,9178.553681
2361.208490,-1036.288319,2451.505594,8956.491898
2361.208812,-2590.720797,2681.334243,8882.471304
2361.209134,-2220.617826,3447.429741,8586.388927
2361.209456,0.000000,3217.601092,8364.327145
2361.209778,74.020594,3294.210641,8068.244768
2361.210100,-1406.391290,3217.601092,9474.636058
2361.210422,-1776.494261,2987.772442,9844.739029
2361.210743,0.000000,2757.943793,8882.471304
2361.211065,1184.329507,2451.505594,9030.512492
2361.211387,296.082377,2681.334243,8808.450710
2361.211709,-1036.288319,2604.724693,10658.965565
2361.212031,-1036.288319,1302.362347,8586.388927
2361.212353,148.041188,459.657299,7402.059420
2361.212675,0.000000,1302.362347,8216.285956
2361.212997,-444.123565,1072.533697,9474.636058
2361.213319,-148.041188,1072.533697,9030.512492
2361.213640,2368.659014,0.000000,8216.285956
2361.213962,1258.350101,0.000000,8512.368333
2361.214284,0.000000,-229.828649,9326.594869
2361.214606,370.102971,-612.876398,10214.842000
2361.214928,1628.453072,-1072.533697,9326.594869
2361.215250,1554.432478,-1532.190996,9252.574275
2361.215572,518.144159,-1608.800546,9696.697840
2361.215894,-740.205942,-1685.410096,10658.965565
2361.216216,666.185348,-2604.724693,9474.636058
2361.216537,1480.411884,-2757.943793,9992.780217
2361.216859,-370.102971,-2221.676944,10658.965565
2361.217181,-1332.370696,-2221.676944,10510.924376
2361.217503,740.205942,-1991.848295,10807.006753
2361.217825,1702.473667,-2834.553343,9918.759623
2361.218147,-592.164754,-3064.381992,9474.636058
2361.218469,-1924.535449,-2374.896044,10436.903782
2361.218791,0.000000,-1991.848295,10214.842000
2361.219113,1036.288319,-2757.943793,9622.677246
2361.219435,-444.123565,-2528.115143,9992.780217
2361.219756,-2738.761985,-2145.067394,9770.718434
2361.220078,-2590.720797,-2451.505594,8586.388927
2361.220400,-296.082377,-2374.896044,8808.450710
2361.220722,-444.123565,-1762.019645,9178.553681
2361.221044,-1480.411884,-1302.362347,8512.368333
2361.221366,-1554.432478,-383.047749,9400.615463
2361.221688,592.164754,-306.438199,8660.409521
2361.222010,0.000000,-995.924147,8438.347739
2361.222332,-444.123565,612.876398,9030.512492
2361.222653,-740.205942,0.000000,9178.553681
2361.222975,-296.082377,383.047749,9400.615463
2361.223297,0.000000,-229.828649,9252.574275
2361.223619,-740.205942,229.828649,9474.636058
2361.223941,-1406.391290,1838.629195,9696.697840
2361.224263,-962.267725,1149.143247,8882.471304
2361.224585,-740.205942,1072.533697,9696.697840
2361.224907,-814.226536,1915.238745,10288.862594
2361.225229,-1850.514855,2145.067394,9622.677246
2361.225551,0.000000,2911.162892,9474.636058
2361.225872,1702.473667,2757.943793,9178.553681
2361.226194,444.123565,2987.772442,9104.533087
2361.226516,0.000000,3524.039291,8660.409521
2361.226838,740.205942,2911.162892,8512.368333
2361.227160,1406.391290,3294.210641,8364.327145
2361.227482,962.267725,3677.258390,9104.533087
2361.227804,-592.164754,3064.381992,9104.533087
2361.228126,-740.205942,2834.553343,8956.491898
2361.228448,148.041188,2757.943793,8290.306550
2361.228770,-370.102971,3294.210641,9400.615463
2361.229092,-888.247130,3907.087040,9178.553681
2361.229414,-1332.370696,2911.162892,9474.636058
2361.229736,1110.308913,3524.039291,8290.306550
2361.230058,1628.453072,3217.601092,8142.265362
2361.230380,0.000000,3677.258390,8882.471304
2361.230702,-444.123565,2528.115143,8882.471304
2361.231025,222.061783,2298.286494,9770.718434
2361.231347,1036.288319,2911.162892,9474.636058
2361.231669,-148.041188,1532.190996,9252.574275
2361.231991,-814.226536,1378.971896,8956.491898
2361.232313,-222.061783,842.705048,8956.491898
2361.232635,0.000000,1072.533697,9474.636058
2361.232957,0.000000,383.047749,9400.615463
2361.233279,-962.267725,0.000000,9326.594869
2361.233601,444.123565,0.000000,8586.388927
2361.233923,2442.679609,459.657299,9770.718434
2361.234245,1406.391290,0.000000,10140.821405
2361.234567,222.061783,-766.095498,10584.944971
2361.234889,1110.308913,-919.314598,9992.780217
2361.235211,1702.473667,-766.095498,9104.533087
2361.235533,1110.308913,-1455.581446,8438.347739
2361.235855,296.082377,-3140.991542,9252.574275
2361.236177,-592.164754,-2451.505594,9474.636058
2361.236499,-296.082377,-2068.457845,9918.759623
2361.236821,0.000000,-2834.553343,10658.965565
2361.237143,-1554.432478,-3064.381992,9992.780217
2361.237465,-2812.782580,-3294.210641,9474.636058
2361.237787,-1110.308913,-2757.943793,10436.903782
2361.238109,-1184.329507,-2604.724693,9918.759623
2361.238431,-1702.473667,-3600.648841,9696.697840
2361.238753,-1702.473667,-2528.115143,9696.697840
2361.239075,-1776.494261,-2374.896044,9474.636058
2361.239397,-296.082377,-1608.800546,10288.862594
2361.239719,-962.267725,-1991.848295,10288.862594
2361.240041,-1036.288319,-1455.581446,9770.718434
2361.240363,74.020594,-1532.190996,9844.739029
2361.240685,888.247130,-383.047749,9696.697840
2361.241007,222.061783,-1149.143247,9252.574275
2361.241329,-888.247130,-766.095498,9696.697840
2361.241651,0.000000,536.266849,9770.718434
2361.241973,1110.308913,0.000000,8956.491898
2361.242295,814.226536,-229.828649,8364.327145
2361.242617,-740.205942,383.047749,8290.306550
2361.242939,-592.164754,766.095498,8216.285956
2361.243261,0.000000,766.095498,8364.327145
2361.243583,-814.226536,153.219100,7994.224174
2361.243905,-1702.473667,383.047749,8956.491898
2361.244227,-2442.679609,1608.800546,9252.574275
2361.244549,-2220.617826,842.705048,9178.553681
2361.244871,0.000000,1149.143247,8216.285956
2361.245193,-370.102971,2298.286494,9252.574275
2361.245515,74.020594,3064.381992,9622.677246
2361.245837,1924.535449,3524.039291,9252.574275
2361.246159,3775.050304,3294.210641,9252.574275
2361.246481,2960.823768,3677.258390,9474.636058
2361.246803,1332.370696,4519.963438,9992.780217
2361.247125,2220.617826,3600.648841,9400.615463
2361.247447,2442.679609,2451.505594,9474.636058
2361.247769,2072.576638,3447.429741,8364.327145
2361.248091,444.123565,3217.601092,10658.965565
2361.248413,-888.247130,2451.505594,9252.574275
2361.248735,0.000000,1991.848295,8512.368333
2361.249057,-740.205942,1915.238745,8734.430116
2361.249379,-2960.823768,1532.190996,8512.368333
2361.249701,-3108.864956,2298.286494,9474.636058
2361.250023,74.020594,2604.724693,8734.430116
2361.250345,-592.164754,2681.334243,8660.409521
2361.250667,-2516.700203,1838.629195,8290.306550
2361.250989,-1850.514855,2068.457845,9252.574275
2361.251311,0.000000,2604.724693,8364.327145
2361.251633,1110.308913,2451.505594,8364.327145
2361.251955,0.000000,1838.629195,9104.533087
2361.252277,-1628.453072,1149.143247,9030.512492
2361.252599,222.061783,1532.190996,8586.388927
2361.252921,888.247130,1149.143247,8438.347739
2361.253243,74.020594,689.485948,9844.739029
2361.253565,-1258.350101,-306.438199,10510.924376
2361.253887,-1258.350101,153.219100,9696.697840
2361.254209,888.247130,-536.266849,9400.615463
2361.254531,-222.061783,-842.705048,8586.388927
2361.254853,-1184.329507,-306.438199,9770.718434
2361.255175,-518.144159,-766.095498,9474.636058
2361.255497,592.164754,-1532.190996,7920.203579
2361.255819,740.205942,-1608.800546,8512.368333
2361.256141,-296.082377,-1532.190996,9252.574275
2361.256464,518.144159,-1378.971896,9474.636058
2361.256786,444.123565,-2221.676944,9400.615463
2361.257108,222.061783,-1991.848295,10362.883188
2361.257430,-740.205942,-2221.676944,10658.965565
2361.257752,-1184.329507,-2298.286494,10732.986159
2361.258074,1628.453072,-2068.457845,9622.677246
2361.258396,1554.432478,-2528.115143,9992.780217
2361.258718,592.164754,-1991.848295,11399.171507
2361.259040,-1036.288319,-2451.505594,11473.192101
2361.259362,0.000000,-1915.238745,11621.233289
2361.259684,296.082377,-1838.629195,10807.006753
2361.260006,-666.185348,-1991.848295,9696.697840
2361.260328,-2220.617826,-1991.848295,10140.821405
2361.260650,-1554.432478,-1608.800546,8882.471304
2361.260972,296.082377,-766.095498,9178.553681
2361.261294,-222.061783,-536.266849,8586.388927
2361.261616,-2368.659014,-1302.362347,8438.347739
2361.261938,-1850.514855,-383.047749,8068.244768
2361.262260,444.123565,306.438199,8438.347739
2361.262582,444.123565,612.876398,8586.388927
2361.262904,-518.144159,459.657299,8956.491898
2361.263226,-814.226536,536.266849,8364.327145
2361.263548,222.061783,919.314598,7772.162391
2361.263870,518.144159,1378.971896,7624.121203
2361.264192,148.041188,1225.752797,9696.697840
2361.264514,0.000000,1762.019645,9992.780217
2361.264836,814.226536,2298.286494,9104.533087
2361.265158,2368.659014,2145.067394,8734.430116
2361.265480,444.123565,1838.629195,8660.409521
2361.265802,-518.144159,2987.772442,9918.759623
2361.266124,1924.535449,3064.381992,9474.636058
2361.266446,1480.411884,1915.238745,9844.739029
2361.266768,0.000000,2604.724693,9992.780217
2361.267090,-1406.391290,2528.115143,10436.903782
2361.267412,-296.082377,2911.162892,9992.780217
2361.267734,148.041188,2451.505594,9252.574275
2361.268056,-962.267725,1915.238745,8290.306550
2361.268378,-2220.617826,2374.896044,9400.615463
2361.268700,-1702.473667,2451.505594,8290.306550
2361.269022,-296.082377,2298.286494,8216.285956
2361.269344,-592.164754,2298.286494,9178.553681
2361.269666,-2220.617826,2528.115143,8734.430116
2361.269988,-2220.617826,2451.505594,9178.553681
2361.270310,0.000000,2451.505594,8512.368333
2361.270632,0.000000,2528.115143,8512.368333
2361.270954,0.000000,3140.991542,8290.306550
2361.271276,0.000000,2604.724693,8956.491898
2361.271598,740.205942,2451.505594,9178.553681
2361.271920,370.102971,1762.019645,9178.553681
2361.272242,74.020594,1762.019645,10362.883188
2361.272564,-148.041188,1302.362347,9178.553681
2361.272886,666.185348,1225.752797,8142.265362
2361.273208,666.185348,689.485948,9696.697840
2361.273530,0.000000,842.705048,10288.862594
2361.273852,-1480.411884,-383.047749,10436.903782
2361.274174,0.000000,0.000000,9252.574275
2361.274496,814.226536,-612.876398,8068.244768
2361.274818,518.144159,-153.219100,9252.574275
2361.275140,-814.226536,-766.095498,9548.656652
2361.275462,296.082377,-995.924147,8956.491898
2361.275784,1110.308913,-1302.362347,9474.636058
2361.276106,444.123565,-2145.067394,7994.224174
2361.276428,-740.205942,-1915.238745,9992.780217
2361.276750,-1554.432478,-2221.676944,8660.409521
2361.277072,0.000000,-2681.334243,8660.409521
2361.277394,1258.350101,-1762.019645,8734.430116
2361.277716,-962.267725,-2451.505594,10140.821405
2361.278038,-740.205942,-2298.286494,9918.759623
2361.278360,1776.494261,-2451.505594,9696.697840
2361.278682,2368.659014,-2068.457845,9548.656652
2361.279004,1258.350101,-2145.067394,10955.047942
2361.279326,148.041188,-1302.362347,11473.192101
2361.279648,1406.391290,-1149.143247,11103.089130
2361.279970,2738.761985,-2068.457845,9030.512492
2361.280292,740.205942,-2298.286494,9696.697840
2361.280614,0.000000,-1225.752797,11029.068536
2361.280936,-518.144159,-1072.533697,10436.903782
2361.281258,296.082377,-1991.848295,9992.780217
2361.281580,-1554.432478,-1838.629195,10288.862594
2361.281903,-2738.761985,-842.705048,9474.636058
2361.282225,-1998.556043,-995.924147,8956.491898
2361.282547,74.020594,-383.047749,7772.162391
2361.282869,-1480.411884,-612.876398,7772.162391
2361.283191,-2886.803174,612.876398,8808.450710
2361.283513,-2442.679609,1149.143247,9474.636058
2361.283835,-518.144159,919.314598,7105.977043
2361.284157,-814.226536,536.266849,6217.729913
2361.284479,-1480.411884,1762.019645,8364.327145
2361.284801,-2664.741391,2145.067394,8216.285956
2361.285123,-666.185348,1762.019645,8068.244768
2361.285445,1110.308913,995.924147,8512.368333
2361.285767,-740.205942,2068.457845,9770.718434
2361.286089,-2220.617826,2451.505594,10214.842000
2361.286411,0.000000,2374.896044,10510.924376
2361.286733,1850.514855,1762.019645,9696.697840
2361.287055,1184.329507,2911.162892,9474.636058
2361.287377,0.000000,3447.429741,11103.089130
2361.287699,222.061783,3370.820191,11029.068536
2361.288021,1406.391290,2604.724693,9252.574275
2361.288343,296.082377,2681.334243,8512.368333
2361.288665,-740.205942,3447.429741,9770.718434
2361.288987,-1258.350101,3753.867940,9548.656652
2361.289309,370.102971,2757.943793,8142.265362
2361.289631,148.041188,2451.505594,6957.935855
2361.289953,-1554.432478,3064.381992,7994.224174
2361.290275,-2368.659014,2987.772442,8808.450710
2361.290597,-370.102971,2451.505594,8364.327145
2361.290919,0.000000,2221.676944,8438.347739
2361.291241,-1258.350101,2604.724693,8586.388927
2361.291563,-1110.308913,1302.362347,8586.388927
2361.291885,-148.041188,2298.286494,8364.327145
2361.292207,592.164754,1225.752797,8364.327145
2361.292529,-296.082377,2068.457845,9400.615463
2361.292851,-666.185348,1991.848295,8882.471304
2361.293173,444.123565,1915.238745,8660.409521
2361.293495,2294.638420,1685.410096,8512.368333
2361.293817,2368.659014,1455.581446,9252.574275
2361.294139,1184.329507,1762.019645,10140.821405
2361.294461,1776.494261,1378.971896,9844.739029
2361.294783,3478.967927,689.485948,9178.553681
2361.295105,2886.803174,-536.266849,8808.450710
2361.295427,888.247130,-383.047749,10362.883188
2361.295749,-370.102971,-766.095498,11843.295072
2361.296071,370.102971,-1072.533697,10066.800811
2361.296393,0.000000,-2451.505594,8882.471304
2361.296715,-814.226536,-2451.505594,9474.636058
2361.297037,-2146.597232,-2681.334243,10066.800811
2361.297359,-1850.514855,-3064.381992,9030.512492
2361.297681,-1554.432478,-3907.087040,9474.636058
2361.298003,-2072.576638,-3447.429741,9178.553681
2361.298325,-3182.885551,-3217.601092,9992.780217
2361.298647,518.144159,-2374.896044,9400.615463
2361.298969,-74.020594,-2451.505594,9474.636058
2361.299291,296.082377,-2145.067394,10066.800811
2361.299613,-1184.329507,-1608.800546,10807.006753
2361.299935,1628.453072,-1225.752797,9548.656652
2361.300257,2442.679609,-1915.238745,8734.430116
2361.300579,1554.432478,-1455.581446,9252.574275
2361.300901,-888.247130,-1378.971896,10658.965565
2361.301223,-666.185348,-1915.238745,9992.780217
2361.301545,148.041188,-536.266849,10881.027347
2361.301867,-148.041188,-1378.971896,9844.739029
2361.302189,-2368.659014,-1532.190996,9696.697840
2361.302511,-2368.659014,-1149.143247,8512.368333
2361.302833,-1480.411884,-1149.143247,8438.347739
2361.303155,-1554.432478,-306.438199,9178.553681
2361.303477,-3923.091493,-306.438199,9252.574275
2361.303799,-3108.864956,-612.876398,8586.388927
2361.304121,-1924.535449,0.000000,7254.018232
2361.304443,-1776.494261,0.000000,6883.915261
2361.304765,-1554.432478,766.095498,8364.327145
2361.305087,-1628.453072,1455.581446,8734.430116
2361.305409,444.123565,1532.190996,8956.491898
2361.305731,2072.576638,1838.629195,8956.491898
2361.306053,0.000000,2221.676944,9622.677246
2361.306375,666.185348,3370.820191,10584.944971
2361.306697,2812.782580,3524.039291,10807.006753
2361.307019,3997.112087,3600.648841,10732.986159
2361.307342,3182.885551,3217.601092,9844.739029
2361.307664,1406.391290,3983.696590,10436.903782
2361.307986,2886.803174,4519.963438,10510.924376
2361.308308,2220.617826,3524.039291,9474.636058
2361.308630,1258.350101,3294.210641,8882.471304
2361.308952,-666.185348,3140.991542,9474.636058
2361.309274,-1110.308913,4136.915689,8364.327145
2361.309596,740.205942,3677.258390,7772.162391
2361.309918,-444.123565,3294.210641,7105.977043
2361.310240,-2886.803174,2604.724693,7402.059420
2361.310562,-3404.947333,3753.867940,7254.018232
2361.310884,0.000000,2834.553343,7550.100608
2361.311206,-518.144159,2987.772442,8734.430116
2361.311528,-1998.556043,2068.457845,8586.388927
2361.311850,-2146.597232,1838.629195,8956.491898
2361.312172,-962.267725,1991.848295,8364.327145
2361.312494,222.061783,1302.362347,8808.450710
2361.312816,0.000000,1532.190996,9770.718434
2361.313138,814.226536,1149.143247,9030.512492
2361.313460,1332.370696,689.485948,10214.842000
2361.313782,1702.473667,229.828649,10214.842000
2361.314104,740.205942,0.000000,9770.718434
2361.314426,666.185348,1072.533697,10436.903782
2361.314748,1924.535449,612.876398,9844.739029
2361.315070,3923.091493,-766.095498,9178.553681
2361.315392,1776.494261,0.000000,10362.883188
2361.315714,0.000000,-1302.362347,11325.150913
2361.316036,0.000000,-383.047749,9844.739029
2361.316358,1480.411884,-1838.629195,8734.430116
2361.316680,-222.061783,-2451.505594,8586.388927
2361.317002,-1406.391290,-2298.286494,9326.594869
2361.317324,-1628.453072,-2834.553343,9400.615463
2361.317646,-740.205942,-2757.943793,8956.491898
2361.317968,-666.185348,-3370.820191,9400.615463
2361.318290,-2738.761985,-3217.601092,9400.615463
2361.318612,-2368.659014,-3140.991542,9326.594869
2361.318934,74.020594,-3447.429741,8882.471304
2361.319256,666.185348,-2528.115143,9770.718434
2361.319578,-444.123565,-2068.457845,10214.842000
2361.319900,-1480.411884,-2604.724693,9918.759623
2361.320222,444.123565,-2604.724693,8882.471304
2361.320544,740.205942,-2451.505594,8438.347739
2361.320866,-740.205942,-1685.410096,10584.944971
2361.321188,-2146.597232,-1838.629195,10881.027347
2361.321510,-1776.494261,-2374.896044,10066.800811
2361.321832,0.000000,-1915.238745,9770.718434
2361.322154,-666.185348,-612.876398,9104.533087
2361.322476,-1184.329507,-536.266849,9104.533087
2361.322798,-518.144159,153.219100,10214.842000
2361.323120,962.267725,-459.657299,9622.677246
2361.323442,-592.164754,-766.095498,10436.903782
2361.323764,-1332.370696,153.219100,9474.636058
2361.324086,518.144159,153.219100,9918.759623
2361.324408,1998.556043,1455.581446,7920.203579
2361.324730,1702.473667,1072.533697,8512.368333
2361.325052,0.000000,2451.505594,8660.409521
2361.325374,0.000000,2451.505594,7698.141797
2361.325696,1406.391290,2834.553343,7698.141797
2361.326018,2516.700203,2834.553343,7920.203579
2361.326340,518.144159,2987.772442,9474.636058
2361.326662,-518.144159,3753.867940,9992.780217
2361.326984,666.185348,3447.429741,9104.533087
2361.327306,1258.350101,2757.943793,8438.347739
2361.327628,-962.267725,2757.943793,9030.512492
2361.327950,-2812.782580,2834.553343,9474.636058
2361.328272,-2368.659014,2757.943793,9474.636058
2361.328594,-1184.329507,2451.505594,9252.574275
2361.328916,-1628.453072,2681.334243,9474.636058
2361.329238,-3330.926739,3524.039291,9770.718434
2361.329560,-1998.556043,2987.772442,8364.327145
2361.329882,-518.144159,3370.820191,8438.347739
2361.330204,-222.061783,3524.039291,8438.347739
2361.330526,-518.144159,4060.306139,9474.636058
2361.330848,0.000000,4673.182538,8808.450710
2361.331170,1850.514855,4443.353888,8882.471304
2361.331493,814.226536,3600.648841,8142.265362
2361.331815,148.041188,3064.381992,8956.491898
2361.332137,0.000000,2834.553343,9104.533087
2361.332459,814.226536,2221.676944,8882.471304
2361.332781,296.082377,1302.362347,8660.409521
2361.333103,-740.205942,536.266849,9030.512492
2361.333425,-1554.432478,229.828649,8734.430116
2361.333747,-444.123565,306.438199,8290.306550
2361.334069,740.205942,0.000000,8660.409521
2361.334391,-1110.308913,0.000000,8438.347739
2361.334713,-1036.288319,-689.485948,8734.430116
2361.335035,-592.164754,-306.438199,10436.903782
2361.335357,1554.432478,0.000000,9252.574275
2361.335679,444.123565,-1225.752797,9918.759623
2361.336001,-740.205942,-1532.190996,9918.759623
2361.336323,74.020594,-1838.629195,9178.553681
2361.336645,1554.432478,-1991.848295,8808.450710
2361.336967,370.102971,-2834.553343,9992.780217
2361.337289,444.123565,-2604.724693,10881.027347
2361.337611,0.000000,-3064.381992,10584.944971
2361.337933,74.020594,-2911.162892,11547.212695
2361.338255,-74.020594,-3677.258390,10510.924376
2361.338577,-444.123565,-3217.601092,9992.780217
2361.338899,444.123565,-1915.238745,10066.800811
2361.339221,2220.617826,-2221.676944,9696.697840
2361.339543,1406.391290,-2221.676944,9474.636058
2361.339865,-222.061783,-2528.115143,9770.718434
2361.340187,-666.185348,-2145.067394,9548.656652
2361.340509,0.000000,-1302.362347,9918.759623
2361.340831,-740.205942,-1532.190996,9474.636058
2361.341153,-1702.473667,-1915.238745,9474.636058
2361.341475,-1628.453072,-1378.971896,9252.574275
2361.341797,-1480.411884,-919.314598,8586.388927
2361.342119,-1332.370696,-1302.362347,8364.327145
2361.342441,-1480.411884,-1455.581446,8290.306550
2361.342763,-2294.638420,-689.485948,9326.594869
2361.343085,-370.102971,0.000000,9252.574275
2361.343407,740.205942,-153.219100,9622.677246
2361.343729,370.102971,153.219100,9992.780217
2361.344051,-1406.391290,766.095498,10288.862594
2361.344373,-296.082377,1302.362347,9696.697840
2361.344695,666.185348,842.705048,7772.162391
2361.345017,814.226536,1915.238745,8068.244768
2361.345339,888.247130,2757.943793,9770.718434
2361.345661,-148.041188,2681.334243,9474.636058
2361.345983,74.020594,2221.676944,8808.450710
2361.346305,1110.308913,1915.238745,7254.018232
2361.346627,-518.144159,2528.115143,8364.327145
2361.346949,-592.164754,3830.477490,9696.697840
2361.347271,0.000000,3064.381992,9474.636058
2361.347593,222.061783,3830.477490,8142.265362
2361.347915,-1776.494261,2528.115143,8586.388927
2361.348237,-1628.453072,4060.306139,8586.388927
2361.348559,74.020594,3600.648841,9178.553681
2361.348881,814.226536,3753.867940,9252.574275
2361.349203,0.000000,3370.820191,9992.780217
2361.349525,-1332.370696,3447.429741,10140.821405
2361.349847,-1110.308913,2911.162892,8438.347739
2361.350169,1258.350101,2374.896044,8438.347739
2361.350491,0.000000,2757.943793,8956.491898
2361.350813,-1110.308913,2681.334243,10732.986159
2361.351135,-370.102971,3140.991542,10584.944971
2361.351457,1480.411884,2987.772442,9030.512492
2361.351779,814.226536,2681.334243,8586.388927
2361.352101,-1332.370696,2451.505594,7402.059420
2361.352424,-518.144159,1991.848295,8956.491898
2361.352746,-222.061783,2145.067394,8290.306550
2361.353068,666.185348,1455.581446,8734.430116
2361.353390,-370.102971,306.438199,8364.327145
2361.353712,-1924.535449,76.609550,9104.533087
2361.354034,-1110.308913,383.047749,9622.677246
2361.354356,74.020594,-459.657299,9178.553681
2361.354678,0.000000,-689.485948,9548.656652
2361.355000,1258.350101,1072.533697,9696.697840
2361.355322,2590.720797,689.485948,9104.533087
2361.355644,2812.782580,-229.828649,8068.244768
2361.355966,1480.411884,-1685.410096,8068.244768
2361.356288,222.061783,-1302.362347,10066.800811
2361.356610,592.164754,-1378.971896,11325.150913
2361.356932,518.144159,-3370.820191,10510.924376
2361.357254,-1110.308913,-3677.258390,10436.903782
2361.357576,-2442.679609,-3600.648841,10140.821405
2361.357898,-2886.803174,-3294.210641,10510.924376
2361.358220,-1702.473667,-3983.696590,9474.636058
2361.358542,-1480.411884,-4673.182538,8438.347739
2361.358864,-2442.679609,-3140.991542,10140.821405
2361.359186,-1924.535449,-2298.286494,9696.697840
2361.359508,296.082377,-2681.334243,9770.718434
2361.359830,1924.535449,-1685.410096,10140.821405
2361.360152,148.041188,-1762.019645,8882.471304
2361.360474,296.082377,-919.314598,10214.842000
2361.360796,1998.556043,-919.314598,9104.533087
2361.361118,2516.700203,-1225.752797,8882.471304
2361.361440,370.102971,-1378.971896,10066.800811
2361.361762,-1998.556043,-995.924147,9918.759623
2361.362084,-1628.453072,-1149.143247,10881.027347
2361.362406,0.000000,-1302.362347,10066.800811
2361.362728,-666.185348,-1608.800546,8660.409521
2361.363050,-1480.411884,-306.438199,8216.285956
2361.363372,-1332.370696,1225.752797,11103.089130
2361.363694,74.020594,995.924147,10214.842000
2361.364016,-814.226536,0.000000,8438.347739
2361.364338,-1702.473667,1608.800546,7179.997637
2361.364660,-814.226536,1149.143247,7254.018232
2361.364982,-296.082377,1608.800546,7031.956449
2361.365304,0.000000,1762.019645,8364.327145
2361.365626,-666.185348,2068.457845,9844.739029
2361.365948,-962.267725,1685.410096,8290.306550
2361.366270,592.164754,2757.943793,7624.121203
2361.366592,1776.494261,2145.067394,8734.430116
2361.366914,444.123565,3524.039291,10436.903782
2361.367236,962.267725,3600.648841,10732.986159
2361.367558,2960.823768,3600.648841,9548.656652
2361.367880,3997.112087,3983.696590,9844.739029
2361.368202,1924.535449,3830.477490,9918.759623
2361.368524,1332.370696,3983.696590,10732.986159
2361.368846,2146.597232,3983.696590,9252.574275
2361.369168,2812.782580,3907.087040,8956.491898
2361.369490,1406.391290,4213.525239,11029.068536
2361.369812,-814.226536,3217.601092,9548.656652
2361.370134,-1480.411884,2451.505594,8512.368333
2361.370456,-1850.514855,2528.115143,8882.471304
2361.370778,-3775.050304,2145.067394,8290.306550
2361.371100,-4737.318029,2451.505594,9474.636058
2361.371422,-2812.782580,1762.019645,7994.224174
2361.371744,-1850.514855,1991.848295,7328.038826
2361.372066,-2738.761985,1838.629195,7550.100608
2361.372388,-3627.009116,1455.581446,7994.224174
2361.372710,-1480.411884,1762.019645,9400.615463
2361.373032,296.082377,1225.752797,8068.244768
2361.373355,296.082377,1685.410096,7772.162391
2361.373677,814.226536,1072.533697,8734.430116
2361.373999,888.247130,1608.800546,8216.285956
2361.374321,3330.926739,1072.533697,8142.265362
2361.374643,3478.967927,153.219100,8808.450710
2361.374965,1406.391290,383.047749,10881.027347
2361.375287,740.205942,0.000000,10807.006753
2361.375609,1998.556043,-536.266849,10436.903782
2361.375931,3108.864956,-1455.581446,10214.842000
2361.376253,0.000000,-1838.629195,10510.924376
2361.376575,-2072.576638,-2068.457845,11177.109724
2361.376897,-1184.329507,-2068.457845,10732.986159
2361.377219,-1036.288319,-3294.210641,9474.636058
2361.377541,-1480.411884,-3140.991542,10288.862594
2361.377863,-3478.967927,-3907.087040,9474.636058
2361.378185,-2442.679609,-3753.867940,9252.574275
2361.378507,-592.164754,-2911.162892,10362.883188
2361.378829,-740.205942,-3140.991542,9400.615463
2361.379151,-1702.473667,-3064.381992,9770.718434
2361.379473,-740.205942,-2298.286494,8882.471304
2361.379795,592.164754,-2451.505594,9696.697840
2361.380117,1184.329507,-1915.238745,10140.821405
2361.380439,-444.123565,-1838.629195,10214.842000
2361.380761,740.205942,-1915.238745,10066.800811
2361.381083,1332.370696,-1838.629195,9252.574275
2361.381405,740.205942,-1608.800546,8882.471304
2361.381727,0.000000,-919.314598,10214.842000
2361.382049,-1406.391290,-459.657299,9178.553681
2361.382371,1110.308913,459.657299,8660.409521
2361.382693,1258.350101,0.000000,8660.409521
2361.383015,-1036.288319,612.876398,8956.491898
2361.383337,-1332.370696,1149.143247,8956.491898
2361.383659,-592.164754,1378.971896,8586.388927
2361.383981,1036.288319,1991.848295,9030.512492
2361.384303,-518.144159,995.924147,8068.244768
2361.384625,-1702.473667,1455.581446,9326.594869
2361.384947,-666.185348,2068.457845,8808.450710
2361.385269,74.020594,229.828649,7698.141797
2361.385591,-1036.288319,842.705048,8586.388927
2361.385913,-2146.597232,1915.238745,9474.636058
2361.386235,-1702.473667,1455.581446,9992.780217
2361.386557,-592.164754,1608.800546,9844.739029
2361.386879,-1850.514855,1149.143247,9104.533087
2361.387201,-1850.514855,2451.505594,9252.574275
2361.387523,-1998.556043,2451.505594,9326.594869
2361.387845,888.247130,2604.724693,8808.450710
2361.388167,1110.308913,2834.553343,9030.512492
2361.388489,518.144159,3064.381992,7772.162391
2361.388811,444.123565,3907.087040,10362.883188
2361.389133,1258.350101,3907.087040,9178.553681
2361.389455,1480.411884,2528.115143,9844.739029
2361.389777,148.041188,3217.601092,9474.636058
2361.390099,-962.267725,3140.991542,8290.306550
2361.390421,444.123565,3294.210641,9548.656652
2361.390743,444.123565,2528.115143,8734.430116
2361.391065,-222.061783,2298.286494,9770.718434
2361.391387,-1924.535449,2145.067394,9104.533087
2361.391709,-1406.391290,1685.410096,8808.450710
2361.392031,1036.288319,1532.190996,9400.615463
2361.392353,-888.247130,2221.676944,10362.883188
2361.392675,-1924.535449,919.314598,9844.739029
2361.392997,-444.123565,1378.971896,9474.636058
2361.393319,74.020594,995.924147,7994.224174
2361.393641,0.000000,612.876398,7846.182985
2361.393963,-518.144159,459.657299,8364.327145
2361.394286,-962.267725,1149.143247,9178.553681
2361.394608,0.000000,229.828649,7920.203579
2361.394930,74.020594,-612.876398,7994.224174
2361.395252,-666.185348,-306.438199,10732.986159
2361.395574,-1036.288319,-766.095498,10881.027347
2361.395896,814.226536,-612.876398,11251.130318
2361.396218,1406.391290,-536.266849,10658.965565
2361.396540,592.164754,-1149.143247,7698.141797
2361.396862,1332.370696,306.438199,9696.697840
2361.397184,1776.494261,153.219100,8734.430116
2361.397506,2368.659014,-1762.019645,8734.430116
2361.397828,1776.494261,-1225.752797,10436.903782
2361.398150,-370.102971,-1378.971896,11103.089130
2361.398472,-296.082377,-2298.286494,10140.821405
2361.398794,-370.102971,-2221.676944,9770.718434
2361.399116,-1110.308913,-2451.505594,9030.512492
2361.399438,-2664.741391,-2221.676944,9326.594869
2361.399760,-962.267725,-1762.019645,9178.553681
2361.400082,370.102971,-1455.581446,8808.450710
2361.400404,962.267725,-1455.581446,8438.347739
2361.400726,-1258.350101,-1302.362347,8956.491898
2361.401048,-814.226536,-1072.533697,9696.697840
2361.401370,74.020594,-766.095498,8586.388927
2361.401692,592.164754,-1225.752797,8586.388927
2361.402014,-518.144159,-995.924147,8660.409521
2361.402336,-1406.391290,-766.095498,8882.471304
2361.402658,-1406.391290,-536.266849,9992.780217
2361.402980,-222.061783,-1225.752797,9622.677246
2361.403302,-962.267725,-1378.971896,9178.553681
2361.403624,-222.061783,0.000000,10066.800811
2361.403946,888.247130,306.438199,11177.109724
2361.404268,2072.576638,995.924147,10436.903782
2361.404590,592.164754,306.438199,10362.883188
2361.404912,-296.082377,995.924147,9326.594869
2361.405234,0.000000,919.314598,9474.636058
2361.405556,740.205942,1149.143247,8734.430116
2361.405878,-740.205942,995.924147,9104.533087
2361.406200,-1628.453072,1378.971896,10288.862594
2361.406522,-1924.535449,1455.581446,8290.306550
2361.406844,-814.226536,1149.143247,7105.977043
2361.407166,-1480.411884,995.924147,7772.162391
2361.407488,-2146.597232,1838.629195,8660.409521
2361.407810,-1332.370696,2145.067394,8290.306550
2361.408132,888.247130,2451.505594,8364.327145
2361.408454,888.247130,1915.238745,8808.450710
2361.408776,-666.185348,2145.067394,8956.491898
2361.409098,0.000000,3064.381992,10732.986159
2361.409420,1332.370696,3140.991542,9474.636058
2361.409742,2146.597232,2911.162892,8882.471304
2361.410064,2368.659014,3907.087040,9548.656652
2361.410386,666.185348,4366.744339,9030.512492
2361.410708,2960.823768,3524.039291,9622.677246
2361.411030,2590.720797,2987.772442,8734.430116
2361.411352,1480.411884,3370.820191,9178.553681
2361.411674,74.020594,3217.601092,10436.903782
2361.411996,-592.164754,2757.943793,10214.842000
2361.412318,-296.082377,1762.019645,9992.780217
2361.412640,-1702.473667,1225.752797,8290.306550
2361.412962,-3256.906145,1838.629195,8808.450710
2361.413284,-3034.844362,1149.143247,8956.491898
2361.413606,-2294.638420,-306.438199,7254.018232
2361.413928,-2590.720797,229.828649,7920.203579
2361.414250,-3627.009116,229.828649,8364.327145
2361.414572,-3182.885551,459.657299,8808.450710
2361.414894,0.000000,-306.438199,7105.977043
2361.415217,814.226536,0.000000,7920.203579
2361.415539,-296.082377,1302.362347,8512.368333
2361.415861,888.247130,536.266849,9326.594869
2361.416183,3627.009116,612.876398,9178.553681
2361.416505,4959.379811,153.219100,8808.450710
2361.416827,2738.761985,-383.047749,10214.842000
2361.417149,2294.638420,-612.876398,12435.459826
2361.417471,2960.823768,-1225.752797,11695.253884
2361.417793,3034.844362,-1455.581446,11399.171507
2361.418115,1998.556043,-1838.629195,11917.315666
2361.418437,-740.205942,-2451.505594,11251.130318
2361.418759,-666.185348,-2757.943793,10362.883188
2361.419081,-296.082377,-2987.772442,9770.718434
2361.419403,-1110.308913,-2987.772442,9918.759623
2361.419725,-2886.803174,-2374.896044,10362.883188
2361.420047,-3627.009116,-2068.457845,9326.594869
2361.420369,-888.247130,-2451.505594,8882.471304
2361.420691,-518.144159,-2528.115143,7254.018232
2361.421013,-2072.576638,-2068.457845,8068.244768
2361.421335,-1628.453072,-1685.410096,10140.821405
2361.421657,-888.247130,-1991.848295,8438.347739
2361.421979,-888.247130,-2221.676944,8290.306550
2361.422301,-888.247130,-1302.362347,9030.512492
2361.422623,-2220.617826,-536.266849,9992.780217
2361.422945,-962.267725,-1072.533697,9474.636058
2361.423267,518.144159,-1302.362347,9030.512492
2361.423589,-740.205942,-306.438199,9252.574275
2361.423911,-666.185348,0.000000,9104.533087
2361.424233,-740.205942,842.705048,9696.697840
2361.424555,1480.411884,1378.971896,9474.636058
2361.424877,444.123565,536.266849,9400.615463
2361.425199,-1036.288319,1455.581446,9918.759623
2361.425521,-148.041188,2145.067394,10732.986159
2361.425843,444.123565,1991.848295,9252.574275
2361.426165,0.000000,2145.067394,8882.471304
2361.426487,-1480.411884,2068.457845,8216.285956
2361.426809,-2220.617826,2451.505594,8364.327145
2361.427131,-666.185348,2145.067394,8068.244768
2361.427453,-444.123565,2221.676944,8068.244768
2361.427775,-1036.288319,1991.848295,9104.533087
2361.428097,-1480.411884,2374.896044,9992.780217
2361.428419,148.041188,2911.162892,9400.615463
2361.428741,666.185348,2374.896044,8660.409521
2361.429063,148.041188,2681.334243,9178.553681
2361.429385,1184.329507,3370.820191,9918.759623
2361.429707,1110.308913,4060.306139,8068.244768
2361.430029,2146.597232,3140.991542,7698.141797
2361.430351,1258.350101,2604.724693,8956.491898
2361.430673,-370.102971,3140.991542,9548.656652
2361.430995,592.164754,2987.772442,9474.636058
2361.431317,518.144159,1838.629195,8734.430116
2361.431639,-148.041188,2681.334243,10066.800811
2361.431961,-1554.432478,1455.581446,9474.636058
2361.432283,-1332.370696,2298.286494,9918.759623
2361.432605,148.041188,1838.629195,9474.636058
2361.432927,-666.185348,1455.581446,8438.347739
2361.433249,-1480.411884,1149.143247,10584.944971
2361.433571,-296.082377,1532.190996,9622.677246
2361.433893,1036.288319,1532.190996,9474.636058
2361.434215,1332.370696,2145.067394,9326.594869
2361.434537,-444.123565,612.876398,8364.327145
2361.434859,222.061783,383.047749,7846.182985
2361.435181,1554.432478,1532.190996,8438.347739
2361.435503,1184.329507,0.000000,8290.306550
2361.435825,148.041188,-1072.533697,9696.697840
2361.436147,-1184.329507,-919.314598,9770.718434
2361.436469,1184.329507,-1685.410096,9104.533087
2361.436791,518.144159,-1838.629195,8364.327145
2361.437113,-518.144159,-1762.019645,9770.718434
2361.437435,-296.082377,-1455.581446,9918.759623
2361.437757,1036.288319,-1685.410096,8882.471304
2361.438079,814.226536,-2145.067394,9252.574275
2361.438401,-222.061783,-2221.676944,9252.574275
2361.438723,-814.226536,-1685.410096,10140.821405
2361.439045,-296.082377,-766.095498,10214.842000
2361.439367,592.164754,-2834.553343,10362.883188
2361.439689,-1332.370696,-2374.896044,9548.656652
2361.440011,-2442.679609,-2451.505594,9326.594869
2361.440333,-1554.432478,-2298.286494,9770.718434
2361.440655,-518.144159,-2374.896044,10955.047942
2361.440977,-888.247130,-3600.648841,10955.047942
2361.441299,-2516.700203,-2834.553343,12287.418637
2361.441621,-2294.638420,-2068.457845,11547.212695
2361.441943,-1850.514855,-2528.115143,10658.965565
2361.442265,-962.267725,-1455.581446,9622.677246
2361.442587,-1258.350101,-919.314598,9252.574275
2361.442909,-592.164754,153.219100,7994.224174
2361.443231,1110.308913,842.705048,7550.100608
2361.443553,1998.556043,1532.190996,6735.874072
2361.443875,962.267725,2374.896044,7772.162391
2361.444197,370.102971,2298.286494,8660.409521
2361.444519,1554.432478,2374.896044,8956.491898
2361.444841,2590.720797,2528.115143,8216.285956
2361.445163,1036.288319,2451.505594,8660.409521
2361.445485,0.000000,2834.553343,9474.636058
2361.445807,-444.123565,1685.410096,8216.285956
2361.446129,-592.164754,1378.971896,7105.977043
2361.446451,-1406.391290,1455.581446,9474.636058
2361.446773,-2738.761985,2068.457845,10288.862594
2361.447095,-1406.391290,1685.410096,10732.986159
2361.447417,-1036.288319,1302.362347,8512.368333
2361.447739,-1924.535449,1838.629195,7624.121203
2361.448061,-2146.597232,2528.115143,9770.718434
2361.448383,-1332.370696,2987.772442,8808.450710
2361.448705,1184.329507,2604.724693,8290.306550
2361.449027,1554.432478,2604.724693,7402.059420
2361.449349,0.000000,3677.258390,9474.636058
2361.449671,-444.123565,2145.067394,10214.842000
2361.449993,888.247130,2221.676944,8216.285956
2361.450315,1406.391290,1302.362347,9178.553681
2361.450637,296.082377,2451.505594,9474.636058
2361.450959,-1332.370696,1915.238745,10362.883188
2361.451281,518.144159,1762.019645,9030.512492
2361.451603,1628.453072,1762.019645,9178.553681
2361.451925,1110.308913,2528.115143,8512.368333
2361.452247,0.000000,2451.505594,9400.615463
2361.452569,2146.597232,2987.772442,9622.677246
2361.452891,3256.906145,2374.896044,9400.615463
2361.453213,888.247130,1455.581446,8290.306550
2361.453535,-592.164754,1991.848295,9252.574275
2361.453857,-148.041188,1608.800546,8438.347739
2361.454179,518.144159,766.095498,7772.162391
2361.454501,-740.205942,459.657299,7772.162391
2361.454823,-2516.700203,-689.485948,8660.409521
2361.455145,-2738.761985,-995.924147,9030.512492
2361.455467,-296.082377,-1302.362347,8364.327145
2361.455789,-888.247130,-1838.629195,10658.965565
2361.456111,-1924.535449,-1762.019645,10584.944971
2361.456433,-1702.473667,-2221.676944,10140.821405
2361.456755,1850.514855,-1838.629195,9696.697840
2361.457077,1850.514855,-1915.238745,9548.656652
2361.457399,-444.123565,-1378.971896,10214.842000
2361.457721,666.185348,-1685.410096,10362.883188
2361.458043,1554.432478,-1991.848295,9326.594869
2361.458365,1110.308913,-1455.581446,10436.903782
2361.458687,-370.102971,-1915.238745,11695.253884
2361.459009,-2368.659014,-1685.410096,9770.718434
2361.459331,-814.226536,-1838.629195,9104.533087
2361.459653,444.123565,-2528.115143,8364.327145
2361.459975,0.000000,-1991.848295,8216.285956
2361.460297,-1332.370696,-1225.752797,9918.759623
2361.460619,-518.144159,-612.876398,10807.006753
2361.460941,370.102971,-1685.410096,9696.697840
2361.461263,-666.185348,-1455.581446,8734.430116
2361.461585,-740.205942,-306.438199,10066.800811
2361.461907,370.102971,612.876398,9622.677246
2361.462229,444.123565,0.000000,9548.656652
2361.462551,0.000000,-919.314598,8068.244768
2361.462873,-1702.473667,-766.095498,7846.182985
2361.463195,-2146.597232,0.000000,9252.574275
2361.463517,-1554.432478,0.000000,8586.388927
2361.463839,-1184.329507,-459.657299,9178.553681
2361.464161,-1998.556043,0.000000,8660.409521
2361.464483,-3108.864956,0.000000,8882.471304
2361.464805,-740.205942,306.438199,9030.512492
2361.465127,-592.164754,1072.533697,8956.491898
2361.465449,-1998.556043,536.266849,9178.553681
2361.465771,-2146.597232,919.314598,9844.739029
2361.466093,-1406.391290,1608.800546,9622.677246
2361.466415,444.123565,1532.190996,9252.574275
2361.466737,148.041188,1149.143247,9622.677246
2361.467059,-1406.391290,1838.629195,9918.759623
2361.467381,0.000000,2068.457845,8956.491898
2361.467703,2220.617826,2604.724693,8364.327145
2361.468025,2590.720797,4136.915689,10510.924376
2361.468347,1184.329507,3677.258390,9918.759623
2361.468669,2294.638420,4136.915689,8882.471304
2361.468991,4515.256246,4290.134789,8364.327145
2361.469313,3923.091493,4136.915689,7105.977043
2361.469635,1850.514855,4596.572988,9474.636058
2361.469957,1702.473667,4136.915689,10066.800811
2361.470279,1110.308913,3677.258390,8734.430116
2361.470601,444.123565,3447.429741,8512.368333
2361.470923,-814.226536,2145.067394,7476.080014
2361.471245,-2220.617826,2298.286494,7920.203579
2361.471567,-296.082377,2451.505594,8068.244768
2361.471889,-1628.453072,2374.896044,9326.594869
2361.472211,-2960.823768,1762.019645,8660.409521
2361.472533,-3404.947333,1225.752797,7550.100608
2361.472855,-1776.494261,2068.457845,7920.203579
2361.473177,-370.102971,2298.286494,9474.636058
2361.473499,-1628.453072,1225.752797,8956.491898
2361.473821,-1110.308913,1149.143247,11177.109724
2361.474143,148.041188,1762.019645,9770.718434
2361.474465,222.061783,766.095498,9844.739029
2361.474787,-666.185348,0.000000,9030.512492
2361.475109,-2442.679609,-919.314598,9326.594869
2361.475431,-1480.411884,0.000000,10140.821405
2361.475753,74.020594,-383.047749,9252.574275
2361.476075,296.082377,-1378.971896,8956.491898
2361.476397,-1332.370696,-1685.410096,8586.388927
2361.476719,-1258.350101,-306.438199,9400.615463
2361.477041,962.267725,-919.314598,9548.656652
2361.477363,888.247130,-1762.019645,8364.327145
2361.477685,666.185348,-1225.752797,8808.450710
2361.478007,1628.453072,-612.876398,9326.594869
2361.478329,2146.597232,-1072.533697,9918.759623
2361.478651,2516.700203,-1072.533697,9474.636058
2361.478973,2220.617826,-2221.676944,9400.615463
2361.479295,740.205942,-1608.800546,9252.574275
2361.479617,1184.329507,-2145.067394,9844.739029
2361.479939,962.267725,-2911.162892,10732.986159
2361.480261,518.144159,-1991.848295,10881.027347
2361.480583,-1258.350101,-2911.162892,10214.842000
2361.480905,-296.082377,-2834.553343,9548.656652
2361.481227,222.061783,-2911.162892,10362.883188
2361.481549,-222.061783,-2681.334243,9844.739029
2361.481871,-2072.576638,-2604.724693,10807.006753
2361.482193,-1998.556043,-2681.334243,10807.006753
2361.482515,-1998.556043,-3217.601092,10658.965565
2361.482837,-1998.556043,-3524.039291,9252.574275
2361.483159,-3552.988522,-2451.505594,9992.780217
2361.483481,-2442.679609,-1838.629195,9252.574275
2361.483803,0.000000,-766.095498,8216.285956
2361.484125,1110.308913,153.219100,7476.080014
2361.484447,444.123565,383.047749,7772.162391
2361.484769,592.164754,1762.019645,7698.141797
2361.485091,2294.638420,2145.067394,8216.285956
2361.485413,3108.864956,2145.067394,6809.894666
2361.485735,2220.617826,1838.629195,8660.409521
2361.486057,2146.597232,2068.457845,9400.615463
2361.486379,1702.473667,1532.190996,9844.739029
2361.486701,1628.453072,1378.971896,9992.780217
2361.487023,296.082377,612.876398,10066.800811
2361.487345,148.041188,1455.581446,10288.862594
2361.487668,666.185348,1991.848295,9992.780217
2361.487990,1924.535449,1685.410096,8956.491898
2361.488312,1036.288319,1072.533697,9178.553681
2361.488634,-444.123565,1608.800546,8364.327145
2361.488956,0.000000,2068.457845,8808.450710
2361.489278,888.247130,2374.896044,8290.306550
2361.489600,0.000000,1762.019645,7105.977043
2361.489922,-1480.411884,1378.971896,8438.347739
2361.490244,-1332.370696,1762.019645,7920.203579
2361.490566,0.000000,229.828649,6365.771101
2361.490888,370.102971,229.828649,7994.224174
2361.491210,148.041188,612.876398,9178.553681
2361.491532,0.000000,383.047749,9400.615463
2361.491854,2368.659014,306.438199,9992.780217
2361.492176,3478.967927,-383.047749,9178.553681
2361.492498,2812.782580,689.485948,10510.924376
2361.492820,3256.906145,1149.143247,10510.924376
2361.493142,6513.812290,689.485948,9474.636058
2361.493464,7402.059420,1149.143247,10140.821405
2361.493786,5847.626942,383.047749,9326.594869
2361.494108,3256.906145,0.000000,9918.759623
2361.494430,4589.276840,306.438199,11325.150913
2361.494752,4515.256246,-842.705048,9770.718434
2361.495074,3256.906145,-2298.286494,9326.594869
2361.495396,1110.308913,-2451.505594,9030.512492
2361.495718,-296.082377,-3447.429741,8882.471304
2361.496040,148.041188,-3524.039291,9474.636058
2361.496362,-1184.329507,-4290.134789,10362.883188
2361.496684,-2294.638420,-5592.497135,8956.491898
2361.497006,-1480.411884,-4903.011187,8956.491898
2361.497328,518.144159,-4136.915689,9992.780217
2361.497650,-296.082377,-5056.230287,10288.862594
2361.497972,-814.226536,-4826.401637,10288.862594
2361.498294,0.000000,-3983.696590,9326.594869
2361.498616,1406.391290,-4673.182538,8068.244768
2361.498938,3552.988522,-3677.258390,8142.265362
2361.499260,3849.070898,-3370.820191,9992.780217
2361.499582,4293.194464,-2681.334243,10288.862594
2361.499904,4441.235652,-2451.505594,10066.800811
2361.500226,5995.668130,-3677.258390,8438.347739
2361.500548,5107.421000,-3064.381992,9474.636058
2361.500870,3627.009116,-1455.581446,10288.862594
2361.501192,5477.523971,-2221.676944,9474.636058
2361.501514,5625.565159,-2298.286494,10658.965565
2361.501836,2590.720797,-2681.334243,10732.986159
2361.502158,1406.391290,-3140.991542,9252.574275
2361.502480,1554.432478,-2757.943793,9844.739029
2361.502802,666.185348,-2221.676944,10510.924376
2361.503124,296.082377,-2451.505594,8512.368333
2361.503446,592.164754,-2681.334243,7920.203579
2361.503768,-296.082377,-1838.629195,7402.059420
2361.504090,-370.102971,-2528.115143,6883.915261
2361.504412,-296.082377,-2681.334243,7402.059420
2361.504734,-1036.288319,-2145.067394,8882.471304
2361.505056,-1998.556043,-2145.067394,10436.903782
2361.505378,-296.082377,-2068.457845,10658.965565
2361.505700,888.247130,-1378.971896,9252.574275
2361.506022,666.185348,-1225.752797,9696.697840
2361.506344,444.123565,-689.485948,10807.006753
2361.506666,1110.308913,0.000000,11251.130318
2361.506988,2738.761985,306.438199,9474.636058
2361.507310,3108.864956,383.047749,8956.491898
2361.507632,1480.411884,766.095498,9252.574275
2361.507954,2516.700203,1072.533697,9548.656652
2361.508276,4219.173869,1455.581446,7846.182985
2361.508598,4885.359217,459.657299,7624.121203
2361.508920,3478.967927,919.314598,9030.512492
2361.509242,2516.700203,1225.752797,9474.636058
2361.509564,3330.926739,459.657299,9326.594869
2361.509886,2960.823768,76.609550,9030.512492
2361.510208,518.144159,-919.314598,9252.574275
2361.510530,148.041188,0.000000,11029.068536
2361.510852,962.267725,-153.219100,9918.759623
2361.511174,1406.391290,-76.609550,7846.182985
2361.511496,1406.391290,-536.266849,7920.203579
2361.511818,740.205942,0.000000,7624.121203
2361.512140,1998.556043,-229.828649,7179.997637
2361.512462,2738.761985,-306.438199,7179.997637
2361.512784,2220.617826,-842.705048,7920.203579
2361.513106,1110.308913,-1072.533697,9104.533087
2361.513428,1776.494261,-1149.143247,9178.553681
2361.513750,2072.576638,-1991.848295,9844.739029
2361.514072,1258.350101,-2834.553343,10436.903782
2361.514394,222.061783,-2528.115143,12139.377449
2361.514716,1998.556043,-1915.238745,11843.295072
2361.515038,3478.967927,-1991.848295,9844.739029
2361.515360,3997.112087,-2604.724693,9474.636058
2361.515682,3552.988522,-1685.410096,9400.615463
2361.516004,3849.070898,-1378.971896,9548.656652
2361.516326,5107.421000,-1149.143247,8660.409521
2361.516648,4737.318029,-1915.238745,8364.327145
2361.516970,3552.988522,-2068.457845,8882.471304
2361.517292,3478.967927,-1455.581446,9252.574275
2361.517614,3849.070898,-2451.505594,9104.533087
2361.517936,2072.576638,-2757.943793,9474.636058
2361.518258,592.164754,-2757.943793,10955.047942
2361.518580,74.020594,-3370.820191,10658.965565
2361.518902,962.267725,-3600.648841,9696.697840
2361.519224,1258.350101,-3983.696590,8216.285956
2361.519546,592.164754,-3677.258390,8882.471304
2361.519868,222.061783,-3447.429741,8808.450710
2361.520190,888.247130,-4596.572988,8364.327145
2361.520512,1332.370696,-4136.915689,8882.471304
2361.520834,74.020594,-4673.182538,10140.821405
2361.521156,-1036.288319,-3983.696590,10807.006753
2361.521478,222.061783,-3524.039291,11695.253884
2361.521800,1702.473667,-2757.943793,11399.171507
2361.522122,1480.411884,-2681.334243,10584.944971
2361.522444,814.226536,-1915.238745,10288.862594
2361.522766,1628.453072,-1455.581446,9770.718434
2361.523088,3034.844362,-1532.190996,9474.636058
2361.523410,2960.823768,-1225.752797,8734.430116
2361.523732,2072.576638,-995.924147,8882.471304
2361.524054,2294.638420,-919.314598,7550.100608
2361.524376,3478.967927,-1072.533697,6587.832884
2361.524698,3701.029710,-1532.190996,7402.059420
2361.525020,2072.576638,-995.924147,7698.141797
2361.525342,1924.535449,-1149.143247,8882.471304
2361.525664,3256.906145,-1991.848295,8882.471304
2361.525986,2812.782580,-1991.848295,9548.656652
2361.526308,1628.453072,-1762.019645,10881.027347
2361.526630,888.247130,-1608.800546,11843.295072
2361.526952,1702.473667,-1378.971896,11103.089130
2361.527274,2368.659014,-689.485948,10658.965565
2361.527596,1702.473667,-919.314598,10214.842000
2361.527918,814.226536,536.266849,9548.656652
2361.528240,1850.514855,1149.143247,8512.368333
2361.528562,3108.864956,76.609550,7846.182985
2361.528884,2220.617826,1072.533697,7994.224174
2361.529206,1036.288319,995.924147,7698.141797
2361.529528,2146.597232,1225.752797,7476.080014
2361.529850,3108.864956,306.438199,7920.203579
2361.530172,1924.535449,-459.657299,8438.347739
2361.530494,518.144159,-995.924147,9770.718434
2361.530816,444.123565,-919.314598,10066.800811
2361.531138,1110.308913,-1762.019645,9770.718434
2361.531460,1554.432478,-1378.971896,9696.697840
2361.531782,444.123565,-1149.143247,10288.862594
2361.532103,296.082377,-766.095498,9548.656652
2361.532425,2738.761985,0.000000,9326.594869
2361.532747,3552.988522,0.000000,8882.471304
2361.533069,3256.906145,536.266849,8364.327145
2361.533391,3256.906145,766.095498,8808.450710
2361.533713,4589.276840,995.924147,8142.265362
2361.534035,4737.318029,612.876398,8142.265362
2361.534357,2294.638420,-383.047749,8216.285956
2361.534679,518.144159,-919.314598,10362.883188
2361.535001,-222.061783,-1762.019645,10510.924376
2361.535323,-1036.288319,-2911.162892,10510.924376
2361.535645,-2960.823768,-3524.039291,11029.068536
2361.535967,-4737.318029,-3217.601092,11621.233289
2361.536289,-3627.009116,-2987.772442,11177.109724
2361.536611,-2368.659014,-3064.381992,10140.821405
2361.536933,-2368.659014,-2757.943793,9400.615463
2361.537255,-1850.514855,-2068.457845,9474.636058
2361.537577,-370.102971,-1378.971896,8660.409521
2361.537899,2368.659014,-1149.143247,8068.244768
2361.538221,2960.823768,-229.828649,8068.244768
2361.538543,2442.679609,0.000000,8290.306550
2361.538865,3256.906145,536.266849,8438.347739
2361.539187,4959.379811,-229.828649,8068.244768
2361.539509,5033.400406,-766.095498,8068.244768
2361.539831,2886.803174,-612.876398,9252.574275
2361.540153,1480.411884,-766.095498,9030.512492
2361.540475,2886.803174,-1762.019645,8586.388927
2361.540797,3330.926739,-2374.896044,8808.450710
2361.541119,1184.329507,-2068.457845,8882.471304
2361.541441,740.205942,-2145.067394,8290.306550
2361.541763,2664.741391,-2145.067394,8808.450710
2361.542085,3923.091493,-2528.115143,8734.430116
2361.542407,3182.885551,-2681.334243,8512.368333
2361.542729,2294.638420,-2604.724693,9104.533087
2361.543051,4145.153275,-2604.724693,9326.594869
2361.543373,5403.503377,-3140.991542,8956.491898
2361.543695,4885.359217,-3064.381992,9844.739029
2361.544017,4515.256246,-3140.991542,10436.903782
2361.544339,4515.256246,-3524.039291,10658.965565
2361.544661,5403.503377,-3524.039291,10584.944971
2361.544983,4663.297435,-3600.648841,11325.150913
2361.545305,3108.864956,-2757.943793,11843.295072
2361.545627,2368.659014,-3064.381992,11769.274478
2361.545949,3552.988522,-2834.553343,11103.089130
2361.546271,3552.988522,-3140.991542,10436.903782
2361.546593,2146.597232,-2451.505594,10140.821405
2361.546915,1924.535449,-1838.629195,10066.800811
2361.547237,2886.803174,-1685.410096,8438.347739
2361.547559,3923.091493,-2145.067394,7698.141797
2361.547881,3182.885551,-1838.629195,7772.162391
2361.548203,1776.494261,-1991.848295,7698.141797
2361.548525,1702.473667,-2145.067394,7994.224174
2361.548847,2072.576638,-2681.334243,9030.512492
2361.549169,148.041188,-2987.772442,9844.739029
2361.549491,-592.164754,-2834.553343,11103.089130
2361.549813,-296.082377,-1991.848295,11251.130318
2361.550135,1406.391290,-2451.505594,9696.697840
2361.550457,296.082377,-1762.019645,10288.862594
2361.550779,-518.144159,-459.657299,9992.780217
2361.551101,-518.144159,-229.828649,9992.780217
2361.551423,592.164754,76.609550,8364.327145
2361.551745,666.185348,383.047749,7920.203579
2361.552067,-296.082377,536.266849,7476.080014
2361.552389,0.000000,1378.971896,6809.894666
2361.552710,1406.391290,689.485948,6439.791695
2361.553032,518.144159,0.000000,6513.812290
2361.553354,-666.185348,-842.705048,8142.265362
2361.553676,-2146.597232,-1072.533697,8660.409521
2361.553998,-666.185348,-1225.752797,9548.656652
2361.554320,148.041188,-1455.581446,10436.903782
2361.554642,-888.247130,-1838.629195,11029.068536
2361.554964,-1480.411884,-1302.362347,12287.418637
2361.555286,74.020594,-1149.143247,12435.459826
2361.555608,1480.411884,-459.657299,11695.253884
2361.555930,1776.494261,0.000000,10955.047942
2361.556252,2368.659014,1225.752797,9326.594869
2361.556574,5403.503377,1762.019645,7772.162391
2361.556896,6587.832884,1991.848295,7254.018232
2361.557218,6883.915261,1838.629195,7031.956449
2361.557540,4811.338623,536.266849,6365.771101
2361.557862,5477.523971,689.485948,6735.874072
2361.558184,4959.379811,-995.924147,8068.244768
2361.558506,2590.720797,-2145.067394,8956.491898
2361.558828,666.185348,-2757.943793,10510.924376
2361.559150,0.000000,-2528.115143,10807.006753
2361.559472,0.000000,-3600.648841,9844.739029
2361.559794,518.144159,-3447.429741,9622.677246
2361.560116,518.144159,-3140.991542,10658.965565
2361.560438,1406.391290,-1915.238745,9400.615463
2361.560760,4293.194464,-1149.143247,8364.327145
2361.561082,6883.915261,-1455.581446,8068.244768
2361.561404,6513.812290,-536.266849,8364.327145
2361.561726,6217.729913,76.609550,9178.553681
2361.562048,6957.935855,0.000000,9474.636058
2361.562370,7920.203579,-1149.143247,9400.615463
2361.562692,5921.647536,-1762.019645,9918.759623
2361.563014,3478.967927,-3064.381992,11103.089130
2361.563336,2294.638420,-3830.477490,11029.068536
2361.563658,2590.720797,-4673.182538,10881.027347
2361.563980,740.205942,-5439.278036,11473.192101
2361.564302,-2812.782580,-5056.230287,12435.459826
2361.564624,-3627.009116,-4749.792088,10732.986159
2361.564946,-1184.329507,-4673.182538,8142.265362
2361.565268,-518.144159,-4673.182538,8438.347739
2361.565590,-1776.494261,-3294.210641,9326.594869
2361.565912,-666.185348,-2374.896044,8882.471304
2361.566234,3552.988522,-2068.457845,6513.812290
2361.566556,3256.906145,-2451.505594,5847.626942
2361.566878,814.226536,-1838.629195,8364.327145
2361.567200,888.247130,-1455.581446,10066.800811
2361.567522,3034.844362,-842.705048,8586.388927
2361.567844,3034.844362,-2451.505594,9326.594869
2361.568166,148.041188,-2451.505594,9770.718434
2361.568488,-1036.288319,-1991.848295,10066.800811
2361.568810,444.123565,-2221.676944,8438.347739
2361.569132,0.000000,-3064.381992,10214.842000
2361.569454,-1554.432478,-2221.676944,11177.109724
2361.569776,-666.185348,-2374.896044,10140.821405
