#time,accel_x,accel_y,accel_z
20573.325450,0.000000,-1149.143247,9474.636058
20573.325774,296.082377,-612.876398,9622.677246
20573.326097,222.061783,-766.095498,9252.574275
20573.326421,592.164754,-229.828649,9030.512492
20573.326744,888.247130,0.000000,9178.553681
20573.327067,740.205942,0.000000,8660.409521
20573.327391,0.000000,0.000000,9104.533087
20573.327714,296.082377,-459.657299,8956.491898
20573.328038,0.000000,0.000000,8956.491898
20573.328361,-1554.432478,0.000000,8438.347739
20573.328684,-1184.329507,-766.095498,8660.409521
20573.329008,-1184.329507,-1149.143247,8882.471304
20573.329331,-1406.391290,-459.657299,9030.512492
20573.329655,-1480.411884,-536.266849,8956.491898
20573.329978,-1036.288319,-383.047749,9030.512492
20573.330301,-518.144159,-766.095498,9030.512492
20573.330625,-296.082377,0.000000,9474.636058
20573.330948,-222.061783,153.219100,9474.636058
20573.331272,-592.164754,0.000000,9030.512492
20573.331595,0.000000,-459.657299,9474.636058
20573.331918,370.102971,-536.266849,9548.656652
20573.332242,-148.041188,-536.266849,9474.636058
20573.332565,-740.205942,-459.657299,9030.512492
20573.332889,296.082377,-919.314598,9400.615463
20573.333212,592.164754,-612.876398,9474.636058
20573.333535,296.082377,229.828649,8956.491898
20573.333859,592.164754,306.438199,9326.594869
20573.334182,1036.288319,536.266849,9030.512492
20573.334506,1480.411884,383.047749,9326.594869
20573.334829,1406.391290,919.314598,9252.574275
20573.335152,1036.288319,766.095498,9030.512492
20573.335476,518.144159,689.485948,8808.450710
20573.335799,1332.370696,766.095498,9178.553681
20573.336123,962.267725,459.657299,9474.636058
20573.336446,518.144159,459.657299,9178.553681
20573.336769,740.205942,383.047749,9400.615463
20573.337093,1258.350101,612.876398,9030.512492
20573.337416,1702.473667,1302.362347,9178.553681
20573.337740,2516.700203,1685.410096,9622.677246
20573.338063,2960.823768,1838.629195,9400.615463
20573.338387,3923.091493,2221.676944,9474.636058
20573.338710,4737.318029,2681.334243,9400.615463
20573.339033,4737.318029,3064.381992,9474.636058
20573.339357,4737.318029,3294.210641,9326.594869
20573.339680,5477.523971,3370.820191,9400.615463
20573.340004,5181.441594,3217.601092,9326.594869
20573.340327,3997.112087,3294.210641,8956.491898
20573.340650,4145.153275,3447.429741,8734.430116
20573.340974,4071.132681,3294.210641,8734.430116
20573.341297,3330.926739,3370.820191,8512.368333
20573.341621,3182.885551,3447.429741,8364.327145
20573.341944,2886.803174,4136.915689,7920.203579
20573.342267,2812.782580,4366.744339,7624.121203
20573.342591,2960.823768,3524.039291,8068.244768
20573.342914,1702.473667,3983.696590,7698.141797
20573.343238,962.267725,3524.039291,7994.224174
20573.343561,518.144159,2987.772442,8364.327145
20573.343884,0.000000,2451.505594,8512.368333
20573.344208,-1258.350101,1915.238745,8956.491898
20573.344531,-2368.659014,689.485948,8438.347739
20573.344855,-2738.761985,612.876398,8734.430116
20573.345178,-2664.741391,383.047749,8734.430116
20573.345501,-2516.700203,306.438199,8882.471304
20573.345825,-2294.638420,536.266849,8734.430116
20573.346148,-2220.617826,1072.533697,8438.347739
20573.346472,-592.164754,766.095498,8586.388927
20573.346795,370.102971,1072.533697,8734.430116
20573.347118,-296.082377,919.314598,8734.430116
20573.347442,-518.144159,536.266849,9622.677246
20573.347765,444.123565,-459.657299,9992.780217
20573.348089,222.061783,-1149.143247,10955.047942
20573.348412,-814.226536,-2068.457845,11251.130318
20573.348735,-666.185348,-2911.162892,11325.150913
20573.349059,444.123565,-3294.210641,12213.398043
20573.349382,1554.432478,-2528.115143,11843.295072
20573.349706,2072.576638,-1838.629195,11399.171507
20573.350029,2960.823768,-1685.410096,10362.883188
20573.350352,3552.988522,-689.485948,9252.574275
20573.350676,5033.400406,76.609550,8660.409521
20573.350999,5551.544565,842.705048,7920.203579
20573.351323,5329.482782,1532.190996,7550.100608
20573.351646,5921.647536,2604.724693,6957.935855
20573.351970,6587.832884,2298.286494,6513.812290
20573.352293,6069.688724,2298.286494,7105.977043
20573.352616,5181.441594,2068.457845,7920.203579
20573.352940,5255.462188,1685.410096,9178.553681
20573.353263,4959.379811,1225.752797,10288.862594
20573.353587,4515.256246,1225.752797,11621.233289
20573.353910,3478.967927,1149.143247,12509.480420
20573.354233,2146.597232,76.609550,12583.501014
20573.354557,1998.556043,-459.657299,12287.418637
20573.354880,1332.370696,0.000000,11399.171507
20573.355204,814.226536,842.705048,9474.636058
20573.355527,1776.494261,2528.115143,8290.306550
20573.355850,2738.761985,4673.182538,7254.018232
20573.356174,2960.823768,6281.983084,5403.503377
20573.356497,3552.988522,7660.954980,3330.926739
20573.356821,3775.050304,7737.564530,3256.906145
20573.357144,2368.659014,8120.612279,4145.153275
20573.357467,1184.329507,7124.688131,5773.606348
20573.357791,-666.185348,5209.449386,8364.327145
20573.358114,-2516.700203,3370.820191,10658.965565
20573.358438,-4737.318029,1072.533697,11399.171507
20573.358761,-4737.318029,-1225.752797,12361.439231
20573.359084,-4589.276840,-1685.410096,13471.748144
20573.359408,-3478.967927,-612.876398,14656.077652
20573.359731,-1110.308913,306.438199,13693.809927
20573.360055,1702.473667,1455.581446,10807.006753
20573.360378,2442.679609,3370.820191,8956.491898
20573.360701,2590.720797,5056.230287,6587.832884
20573.361025,3478.967927,6435.202183,4663.297435
20573.361348,5403.503377,5669.106685,3701.029710
20573.361672,5107.421000,6128.763984,3923.091493
20573.361995,3627.009116,5669.106685,4441.235652
20573.362318,2590.720797,4290.134789,5181.441594
20573.362642,1850.514855,2451.505594,5995.668130
20573.362965,1628.453072,1532.190996,8438.347739
20573.363289,-148.041188,153.219100,10881.027347
20573.363612,-2442.679609,-1532.190996,12139.377449
20573.363935,-2368.659014,-3983.696590,12287.418637
20573.364259,-222.061783,-5132.839837,12657.521608
20573.364582,296.082377,-4596.572988,13249.686362
20573.364906,1850.514855,-2374.896044,14211.954086
20573.365229,4367.215058,-1302.362347,13397.727550
20573.365553,5625.565159,-383.047749,11621.233289
20573.365876,5033.400406,-306.438199,10955.047942
20573.366199,4071.132681,-612.876398,10066.800811
20573.366523,5403.503377,-536.266849,8734.430116
20573.366846,5847.626942,-153.219100,8438.347739
20573.367170,4959.379811,1149.143247,8364.327145
20573.367493,4219.173869,1915.238745,7476.080014
20573.367816,3997.112087,1915.238745,5551.544565
20573.368140,3849.070898,1991.848295,5699.585753
20573.368463,1702.473667,612.876398,5255.462188
20573.368787,370.102971,229.828649,5921.647536
20573.369110,888.247130,-229.828649,7476.080014
20573.369433,666.185348,612.876398,9770.718434
20573.369757,-740.205942,229.828649,10881.027347
20573.370080,-1184.329507,-689.485948,11547.212695
20573.370404,-1628.453072,-1455.581446,13101.645173
20573.370727,-1702.473667,-1225.752797,13471.748144
20573.371050,-1702.473667,-2987.772442,11399.171507
20573.371374,-814.226536,-1608.800546,11695.253884
20573.371697,-296.082377,153.219100,11399.171507
20573.372021,592.164754,2987.772442,9030.512492
20573.372344,1850.514855,3600.648841,5181.441594
20573.372667,1850.514855,4213.525239,3034.844362
20573.372991,2294.638420,6358.592633,2812.782580
20573.373314,3182.885551,7277.907231,2590.720797
20573.373638,3701.029710,6435.202183,4959.379811
20573.373961,1332.370696,5362.668486,8068.244768
20573.374284,-1332.370696,3753.867940,9252.574275
20573.374608,-3923.091493,995.924147,11843.295072
20573.374931,-7105.977043,-2604.724693,14730.098246
20573.375255,-9770.718434,-4903.011187,15914.427753
20573.375578,-9400.615463,-6511.811733,16136.489536
20573.375901,-7624.121203,-7737.564530,15470.304188
20573.376225,-6143.709319,-5592.497135,13175.665768
20573.376548,-4071.132681,-1991.848295,9548.656652
20573.376872,-518.144159,536.266849,5699.585753
20573.377195,4071.132681,3064.381992,1258.350101
20573.377518,7772.162391,6818.249932,666.185348
20573.377842,9696.697840,9422.974625,666.185348
20573.378165,9770.718434,9652.803275,740.205942
20573.378489,9696.697840,7660.954980,2738.761985
20573.378812,6809.894666,4519.963438,6735.874072
20573.379136,1480.411884,0.000000,11103.089130
20573.379459,-2442.679609,-4366.744339,14656.077652
20573.379782,-5329.482782,-8503.660028,18579.169144
20573.380106,-6587.832884,-10418.898773,20133.601622
20573.380429,-7031.956449,-12027.699319,19541.436869
20573.380753,-5699.585753,-9806.022374,15692.365970
20573.381076,-1702.473667,-6435.202183,12287.418637
20573.381399,2220.617826,-1915.238745,7328.038826
20573.381723,6143.709319,3064.381992,4293.194464
20573.382046,9252.574275,6511.811733,3552.988522
20573.382369,9770.718434,7814.174080,2516.700203
20573.382693,7105.977043,6894.859482,1554.432478
20573.383016,4219.173869,4903.011187,3775.050304
20573.383340,1628.453072,1378.971896,7179.997637
20573.383663,-666.185348,-1455.581446,11325.150913
20573.383986,-3997.112087,-4290.134789,13545.768739
20573.384310,-6439.791695,-7354.516781,13397.727550
20573.384633,-7920.203579,-8810.098227,14211.954086
20573.384956,-7402.059420,-7967.393179,13767.830521
20573.385280,-5107.421000,-4903.011187,11843.295072
20573.385603,-1850.514855,-1762.019645,9696.697840
20573.385926,740.205942,1302.362347,7254.018232
20573.386250,2516.700203,3524.039291,6439.791695
20573.386573,2368.659014,4290.134789,5107.421000
20573.386896,1110.308913,4290.134789,4071.132681
20573.387220,444.123565,2528.115143,4737.318029
20573.387543,-1776.494261,1072.533697,6957.935855
20573.387866,-3182.885551,-612.876398,11029.068536
20573.388190,-3478.967927,-1762.019645,12065.356855
20573.388513,-4071.132681,-2604.724693,11177.109724
20573.388837,-5847.626942,-4060.306139,9474.636058
20573.389160,-4219.173869,-3983.696590,7698.141797
20573.389483,-370.102971,-2451.505594,7846.182985
20573.389807,888.247130,0.000000,9548.656652
20573.390130,1924.535449,2987.772442,10214.842000
20573.390453,2220.617826,2911.162892,9844.739029
20573.390777,666.185348,459.657299,9992.780217
20573.391100,-592.164754,-1302.362347,9770.718434
20573.391423,-962.267725,-2221.676944,11251.130318
20573.391747,-2294.638420,-3217.601092,13323.706956
20573.392070,-3404.947333,-2221.676944,12805.562797
20573.392393,-1776.494261,-2298.286494,11029.068536
20573.392717,-592.164754,-2528.115143,8364.327145
20573.393040,0.000000,-1302.362347,6587.832884
20573.393363,2664.741391,2068.457845,5625.565159
20573.393687,5921.647536,3753.867940,5477.523971
20573.394010,7328.038826,4366.744339,4663.297435
20573.394334,6365.771101,6128.763984,5329.482782
20573.394657,4367.215058,4290.134789,5699.585753
20573.394980,1406.391290,1149.143247,7031.956449
20573.395304,-296.082377,-1685.410096,9844.739029
20573.395627,-1850.514855,-2757.943793,14063.912898
20573.395950,-4367.215058,-4366.744339,16062.468941
20573.396274,-5699.585753,-5592.497135,14878.139434
20573.396597,-5921.647536,-5822.325785,12583.501014
20573.396920,-4663.297435,-4673.182538,9252.574275
20573.397244,-2072.576638,-2298.286494,6809.894666
20573.397567,2146.597232,1378.971896,5699.585753
20573.397890,4367.215058,4519.963438,5551.544565
20573.398214,4589.276840,6128.763984,5033.400406
20573.398537,3701.029710,5056.230287,4441.235652
20573.398860,1480.411884,3294.210641,5921.647536
20573.399184,888.247130,1072.533697,8512.368333
20573.399507,-1110.308913,-1225.752797,11177.109724
20573.399831,-3701.029710,-2604.724693,14063.912898
20573.400154,-4145.153275,-4213.525239,14804.118840
20573.400477,-4293.194464,-4979.620737,13619.789333
20573.400801,-5625.565159,-5209.449386,12213.398043
20573.401124,-3404.947333,-4290.134789,8956.491898
20573.401447,222.061783,-1378.971896,8068.244768
20573.401771,1628.453072,2145.067394,8438.347739
20573.402094,1702.473667,3907.087040,7031.956449
20573.402417,888.247130,3294.210641,5329.482782
20573.402741,296.082377,1225.752797,3849.070898
20573.403064,-1332.370696,0.000000,5033.400406
20573.403387,-2220.617826,-612.876398,8216.285956
20573.403711,-3701.029710,-1149.143247,11399.171507
20573.404034,-3256.906145,-2911.162892,11991.336260
20573.404358,-2294.638420,-4136.915689,10732.986159
20573.404681,-4219.173869,-4519.963438,9252.574275
20573.405004,-3627.009116,-3677.258390,8438.347739
20573.405328,1480.411884,-2374.896044,7179.997637
20573.405651,4071.132681,0.000000,8216.285956
20573.405974,3701.029710,1915.238745,10066.800811
20573.406298,3108.864956,2757.943793,9770.718434
20573.406621,2368.659014,306.438199,8808.450710
20573.406944,1036.288319,-2374.896044,8660.409521
20573.407268,0.000000,-2298.286494,11029.068536
20573.407591,-1776.494261,-2834.553343,14137.933492
20573.407914,-2738.761985,-3524.039291,13989.892304
20573.408238,-1628.453072,-4673.182538,11473.192101
20573.408561,-1332.370696,-3907.087040,10066.800811
20573.408884,-2368.659014,-2451.505594,7402.059420
20573.409208,148.041188,-306.438199,5181.441594
20573.409531,4737.318029,1685.410096,5551.544565
20573.409855,5477.523971,4060.306139,7031.956449
20573.410178,4367.215058,5209.449386,6883.915261
20573.410501,2442.679609,3217.601092,5921.647536
20573.410825,666.185348,0.000000,7105.977043
20573.411148,-148.041188,-1685.410096,9622.677246
20573.411471,-1702.473667,-1532.190996,12213.398043
20573.411795,-3034.844362,-2604.724693,14508.036463
20573.412118,-3701.029710,-3217.601092,13767.830521
20573.412441,-3108.864956,-3524.039291,11399.171507
20573.412765,-3330.926739,-2834.553343,8290.306550
20573.413088,-1332.370696,-536.266849,5625.565159
20573.413411,2294.638420,2298.286494,5181.441594
20573.413735,3923.091493,4903.011187,5033.400406
20573.414058,3701.029710,6128.763984,5921.647536
20573.414381,2368.659014,4749.792088,5477.523971
20573.414705,-740.205942,1838.629195,6661.853478
20573.415028,-2368.659014,-842.705048,8586.388927
20573.415352,-3404.947333,-2374.896044,11695.253884
20573.415675,-5033.400406,-2987.772442,15322.262999
20573.415998,-5477.523971,-4366.744339,15692.365970
20573.416322,-4663.297435,-5286.058936,12657.521608
20573.416645,-4293.194464,-4903.011187,10362.883188
20573.416968,-1702.473667,-2528.115143,8438.347739
20573.417292,2442.679609,459.657299,7920.203579
20573.417615,5403.503377,2911.162892,8808.450710
20573.417938,6143.709319,4826.401637,7846.182985
20573.418262,4367.215058,4673.182538,6809.894666
20573.418585,1036.288319,1685.410096,5625.565159
20573.418908,-370.102971,0.000000,6809.894666
20573.419232,-222.061783,-1149.143247,9844.739029
20573.419555,-2812.782580,-1915.238745,11991.336260
20573.419878,-5033.400406,-2681.334243,11843.295072
20573.420202,-4885.359217,-3447.429741,10807.006753
20573.420525,-5403.503377,-5056.230287,8068.244768
20573.420849,-4811.338623,-4136.915689,6439.791695
20573.421172,-1036.288319,-1915.238745,6069.688724
20573.421495,2146.597232,842.705048,7476.080014
20573.421819,2368.659014,3064.381992,8512.368333
20573.422142,1998.556043,2987.772442,6957.935855
20573.422465,1036.288319,76.609550,6365.771101
20573.422789,-888.247130,-2221.676944,8660.409521
20573.423112,-740.205942,-2987.772442,10807.006753
20573.423435,-1554.432478,-2681.334243,14063.912898
20573.423759,-2072.576638,-4213.525239,15174.221811
20573.424082,-592.164754,-3753.867940,12805.562797
20573.424405,-962.267725,-3370.820191,11251.130318
20573.424729,-740.205942,-3294.210641,7994.224174
20573.425052,1258.350101,-536.266849,5847.626942
20573.425375,4811.338623,1072.533697,5847.626942
20573.425699,4811.338623,3140.991542,7550.100608
20573.426022,3627.009116,3907.087040,6883.915261
20573.426346,1776.494261,2221.676944,7402.059420
20573.426669,-1258.350101,-306.438199,8660.409521
20573.426992,-1998.556043,-2451.505594,9696.697840
20573.427316,-1998.556043,-2911.162892,12361.439231
20573.427639,-4515.256246,-3447.429741,15100.201217
20573.427962,-3552.988522,-4060.306139,12583.501014
20573.428286,-2886.803174,-3064.381992,10362.883188
20573.428609,-2220.617826,-3524.039291,8290.306550
20573.428932,-888.247130,0.000000,5847.626942
20573.429256,3034.844362,1915.238745,4885.359217
20573.429579,5181.441594,4213.525239,7179.997637
20573.429902,4737.318029,5975.544884,6291.750507
20573.430226,3404.947333,5286.058936,5995.668130
20573.430549,222.061783,2298.286494,6883.915261
20573.430872,-1776.494261,-306.438199,8142.265362
20573.431196,-2294.638420,-1225.752797,11029.068536
20573.431519,-4441.235652,-2757.943793,13323.706956
20573.431843,-5995.668130,-3064.381992,14434.015869
20573.432166,-5329.482782,-3217.601092,11991.336260
20573.432489,-5625.565159,-4060.306139,9326.594869
20573.432813,-3775.050304,-3064.381992,7698.141797
20573.433136,370.102971,153.219100,6883.915261
20573.433459,3627.009116,3217.601092,7920.203579
20573.433783,5551.544565,4979.620737,7920.203579
20573.434106,4959.379811,5362.668486,6365.771101
20573.434429,3997.112087,3600.648841,5699.585753
20573.434753,2812.782580,1991.848295,7994.224174
20573.435076,2590.720797,919.314598,9992.780217
20573.435399,1036.288319,0.000000,12805.562797
20573.435723,-1258.350101,-1991.848295,13915.871710
20573.436046,-2442.679609,-3370.820191,12361.439231
20573.436370,-3034.844362,-4136.915689,10436.903782
20573.436693,-3404.947333,-4443.353888,7846.182985
20573.437016,-1406.391290,-2451.505594,6587.832884
20573.437340,1554.432478,689.485948,7254.018232
20573.437663,2368.659014,2451.505594,7550.100608
20573.437986,1998.556043,3140.991542,7179.997637
20573.438310,0.000000,1685.410096,6661.853478
20573.438633,-1776.494261,-612.876398,6217.729913
20573.438956,-1480.411884,-1838.629195,7994.224174
20573.439280,-1998.556043,-3140.991542,11399.171507
20573.439603,-3478.967927,-3447.429741,13915.871710
20573.439926,-3330.926739,-3370.820191,13175.665768
20573.440250,-2220.617826,-4060.306139,11399.171507
20573.440573,-962.267725,-3447.429741,9844.739029
20573.440896,962.267725,-2068.457845,8068.244768
20573.441220,4071.132681,995.924147,8438.347739
20573.441543,5625.565159,2451.505594,9030.512492
20573.441867,5773.606348,4136.915689,7698.141797
20573.442190,3701.029710,3447.429741,6883.915261
20573.442513,518.144159,612.876398,7624.121203
20573.442837,-740.205942,-842.705048,9030.512492
20573.443160,-1184.329507,-2145.067394,11991.336260
20573.443483,-3034.844362,-3217.601092,14582.057057
20573.443807,-5847.626942,-4213.525239,13101.645173
20573.444130,-5773.606348,-4136.915689,10362.883188
20573.444453,-5107.421000,-4903.011187,7846.182985
20573.444777,-3627.009116,-2987.772442,6365.771101
20573.445100,-962.267725,0.000000,5625.565159
20573.445423,1776.494261,2221.676944,5625.565159
20573.445747,2442.679609,3830.477490,5403.503377
20573.446070,1554.432478,4060.306139,5921.647536
20573.446393,-296.082377,1685.410096,7328.038826
20573.446717,-1554.432478,-612.876398,8438.347739
20573.447040,-888.247130,-1991.848295,10362.883188
20573.447364,-2146.597232,-2451.505594,13989.892304
20573.447687,-3849.070898,-2834.553343,14582.057057
20573.448010,-3330.926739,-3677.258390,12287.418637
20573.448334,-1850.514855,-3753.867940,11251.130318
20573.448657,-518.144159,-2298.286494,9178.553681
20573.448980,1998.556043,1225.752797,7402.059420
20573.449304,4737.318029,3217.601092,7624.121203
20573.449627,5255.462188,4596.572988,7772.162391
20573.449950,4959.379811,5209.449386,5699.585753
20573.450274,2738.761985,3370.820191,5477.523971
20573.450597,-74.020594,842.705048,6957.935855
20573.450920,-1406.391290,-995.924147,9252.574275
20573.451244,-1924.535449,-1455.581446,12953.603985
20573.451567,-3182.885551,-2911.162892,13989.892304
20573.451890,-3997.112087,-3447.429741,12509.480420
20573.452214,-3552.988522,-4136.915689,9992.780217
20573.452537,-3330.926739,-4060.306139,8068.244768
20573.452861,-740.205942,-1302.362347,7031.956449
20573.453184,2072.576638,766.095498,6661.853478
20573.453507,3923.091493,2681.334243,7772.162391
20573.453831,3627.009116,3677.258390,6883.915261
20573.454154,2294.638420,3064.381992,6217.729913
20573.454477,1628.453072,919.314598,7031.956449
20573.454801,1110.308913,-306.438199,9326.594869
20573.455124,666.185348,-1378.971896,11843.295072
20573.455447,-740.205942,-2451.505594,13915.871710
20573.455771,-1850.514855,-3064.381992,13027.624579
20573.456094,-1924.535449,-2451.505594,11251.130318
20573.456417,-1184.329507,-2528.115143,9992.780217
20573.456741,296.082377,-1762.019645,7920.203579
20573.457064,2368.659014,459.657299,6661.853478
20573.457387,3404.947333,2604.724693,7994.224174
20573.457711,2516.700203,2987.772442,8068.244768
20573.458034,814.226536,2451.505594,6217.729913
20573.458358,-1480.411884,536.266849,7772.162391
20573.458681,-2664.741391,-1915.238745,8882.471304
20573.459004,-4145.153275,-2374.896044,10881.027347
20573.459328,-4589.276840,-3524.039291,13545.768739
20573.459651,-5255.462188,-3830.477490,13471.748144
20573.459974,-5699.585753,-4366.744339,10807.006753
20573.460298,-4293.194464,-4366.744339,7920.203579
20573.460621,-1406.391290,-2681.334243,7031.956449
20573.460944,814.226536,153.219100,5477.523971
20573.461268,3552.988522,3140.991542,5847.626942
20573.461591,5551.544565,4136.915689,6291.750507
20573.461914,5329.482782,3907.087040,6217.729913
20573.462238,2442.679609,2451.505594,7328.038826
20573.462561,0.000000,919.314598,8142.265362
20573.462884,0.000000,-1455.581446,10584.944971
20573.463208,-740.205942,-2757.943793,13841.851115
20573.463531,-2294.638420,-2834.553343,15100.201217
20573.463855,-2220.617826,-3217.601092,13767.830521
20573.464178,-2146.597232,-4213.525239,11399.171507
20573.464501,-1628.453072,-3447.429741,8586.388927
20573.464825,1036.288319,-842.705048,7105.977043
20573.465148,3552.988522,1991.848295,7624.121203
20573.465471,3552.988522,3753.867940,7698.141797
20573.465795,3404.947333,4060.306139,7402.059420
20573.466118,1776.494261,2451.505594,6069.688724
20573.466441,-1702.473667,0.000000,7031.956449
20573.466765,-2368.659014,-1762.019645,9326.594869
20573.467088,-2294.638420,-1915.238745,12287.418637
20573.467411,-4367.215058,-3217.601092,13841.851115
20573.467735,-5033.400406,-3907.087040,12287.418637
20573.468058,-4367.215058,-3753.867940,10140.821405
20573.468382,-3330.926739,-3294.210641,7550.100608
20573.468705,-740.205942,-1149.143247,6365.771101
20573.469028,2442.679609,1532.190996,6291.750507
20573.469352,3701.029710,4213.525239,7031.956449
20573.469675,3849.070898,4673.182538,6883.915261
20573.469998,3552.988522,3447.429741,5773.606348
20573.470322,518.144159,1455.581446,7031.956449
20573.470645,-1332.370696,-229.828649,8364.327145
20573.470968,-1036.288319,-1225.752797,11251.130318
20573.471292,-1554.432478,-2451.505594,12731.542202
20573.471615,-2960.823768,-2757.943793,13471.748144
20573.471938,-4145.153275,-2834.553343,11769.274478
20573.472262,-4441.235652,-2757.943793,9474.636058
20573.472585,-2146.597232,-3294.210641,6957.935855
20573.472908,888.247130,-1072.533697,6365.771101
20573.473232,1110.308913,1532.190996,7994.224174
20573.473555,1406.391290,3140.991542,8512.368333
20573.473879,1036.288319,1762.019645,7254.018232
20573.474202,-1184.329507,-612.876398,6809.894666
20573.474525,-3034.844362,-2068.457845,8660.409521
20573.474849,-2590.720797,-1915.238745,11843.295072
20573.475172,-2960.823768,-2834.553343,13915.871710
20573.475495,-2738.761985,-3677.258390,13693.809927
20573.475819,-2368.659014,-3524.039291,11621.233289
20573.476142,-2368.659014,-3294.210641,9474.636058
20573.476465,-296.082377,-2145.067394,6957.935855
20573.476789,2960.823768,76.609550,5773.606348
20573.477112,4737.318029,2221.676944,7105.977043
20573.477435,3849.070898,3907.087040,7994.224174
20573.477759,3552.988522,3677.258390,6291.750507
20573.478082,2442.679609,1149.143247,5921.647536
20573.478405,-1036.288319,-1149.143247,8142.265362
20573.478729,-1332.370696,-1991.848295,10362.883188
20573.479052,-962.267725,-2987.772442,11991.336260
20573.479376,-1554.432478,-3983.696590,14285.974681
20573.479699,-2442.679609,-2834.553343,13471.748144
20573.480022,-1998.556043,-3140.991542,9844.739029
20573.480346,-592.164754,-3064.381992,7772.162391
20573.480669,2442.679609,-1225.752797,7402.059420
20573.480992,5329.482782,2604.724693,7476.080014
20573.481316,3701.029710,3983.696590,7179.997637
20573.481639,2738.761985,2451.505594,6291.750507
20573.481962,1110.308913,1685.410096,6069.688724
20573.482286,-1332.370696,-306.438199,7624.121203
20573.482609,-3330.926739,-2145.067394,9622.677246
20573.482932,-3923.091493,-2911.162892,12065.356855
20573.483255,-4663.297435,-3370.820191,14063.912898
20573.483578,-4811.338623,-4366.744339,13027.624579
20573.483902,-4441.235652,-3600.648841,10807.006753
20573.484225,-3404.947333,-3064.381992,8956.491898
20573.484548,-888.247130,-1225.752797,6365.771101
20573.484871,2886.803174,1302.362347,7105.977043
20573.485194,3775.050304,3907.087040,8364.327145
20573.485517,3552.988522,5209.449386,7772.162391
20573.485841,3182.885551,3907.087040,6069.688724
20573.486164,0.000000,1149.143247,7328.038826
20573.486487,0.000000,-306.438199,8734.430116
20573.486810,-666.185348,0.000000,10955.047942
20573.487133,-962.267725,-1991.848295,12509.480420
20573.487457,-2146.597232,-1685.410096,12805.562797
20573.487780,-2072.576638,-1225.752797,11029.068536
20573.488103,-2146.597232,-2145.067394,7772.162391
20573.488426,-1776.494261,-1838.629195,5995.668130
20573.488749,1036.288319,919.314598,6439.791695
20573.489073,1998.556043,2834.553343,7772.162391
20573.489396,370.102971,3217.601092,7550.100608
20573.489719,148.041188,1608.800546,6439.791695
20573.490042,-962.267725,-459.657299,6661.853478
20573.490365,-3182.885551,-2221.676944,8956.491898
20573.490689,-3256.906145,-3064.381992,10955.047942
20573.491012,-3256.906145,-3753.867940,12879.583391
20573.491335,-3034.844362,-3830.477490,14063.912898
20573.491658,-2590.720797,-3294.210641,12139.377449
20573.491981,-1184.329507,-3370.820191,9474.636058
20573.492304,222.061783,-2757.943793,7550.100608
20573.492628,3034.844362,536.266849,7698.141797
20573.492951,5551.544565,2681.334243,8364.327145
20573.493274,4885.359217,3524.039291,8512.368333
20573.493597,3775.050304,2451.505594,7328.038826
20573.493920,2812.782580,995.924147,7920.203579
20573.494244,-148.041188,-306.438199,9474.636058
20573.494567,-1554.432478,-2221.676944,10066.800811
20573.494890,-1850.514855,-3064.381992,11843.295072
20573.495213,-3108.864956,-3753.867940,12435.459826
20573.495536,-3701.029710,-2451.505594,11843.295072
20573.495860,-2738.761985,-3064.381992,9326.594869
20573.496183,-2442.679609,-2834.553343,6661.853478
20573.496506,-666.185348,-1225.752797,5847.626942
20573.496829,2294.638420,1608.800546,6735.874072
20573.497152,2220.617826,3217.601092,7624.121203
20573.497476,518.144159,2834.553343,6957.935855
20573.497799,-222.061783,919.314598,5995.668130
20573.498122,-2220.617826,-2221.676944,7920.203579
20573.498445,-3552.988522,-2757.943793,9918.759623
20573.498768,-3552.988522,-3217.601092,12435.459826
20573.499092,-3330.926739,-3983.696590,13841.851115
20573.499415,-3552.988522,-3677.258390,13619.789333
20573.499738,-2368.659014,-3140.991542,10881.027347
20573.500061,-1480.411884,-2987.772442,8882.471304
20573.500384,-370.102971,-1225.752797,7994.224174
20573.500707,3997.112087,2145.067394,7105.977043
20573.501031,4737.318029,3677.258390,7994.224174
20573.501354,3404.947333,3907.087040,8216.285956
20573.501677,2960.823768,3140.991542,7328.038826
20573.502000,1924.535449,1685.410096,7698.141797
20573.502323,-444.123565,-995.924147,8734.430116
20573.502647,-1480.411884,-1991.848295,10732.986159
20573.502970,-1480.411884,-1915.238745,12953.603985
20573.503293,-2294.638420,-2221.676944,12435.459826
20573.503616,-1998.556043,-1991.848295,10955.047942
20573.503939,-2072.576638,-1915.238745,8142.265362
20573.504263,-1332.370696,-995.924147,6809.894666
20573.504586,2368.659014,842.705048,5551.544565
20573.504909,3997.112087,3294.210641,6587.832884
20573.505232,1776.494261,3753.867940,7179.997637
20573.505555,666.185348,3677.258390,6143.709319
20573.505879,-592.164754,1685.410096,6661.853478
20573.506202,-2294.638420,-842.705048,7772.162391
20573.506525,-2664.741391,-2145.067394,9326.594869
20573.506848,-2886.803174,-2451.505594,13027.624579
20573.507171,-3108.864956,-2604.724693,13841.851115
20573.507494,-2220.617826,-2221.676944,11843.295072
20573.507818,-1258.350101,-2528.115143,10214.842000
20573.508141,-1110.308913,-1762.019645,8290.306550
20573.508464,1776.494261,306.438199,6513.812290
20573.508787,5921.647536,2757.943793,7846.182985
20573.509110,5921.647536,4213.525239,8882.471304
20573.509434,4293.194464,5056.230287,8216.285956
20573.509757,2590.720797,2987.772442,7476.080014
20573.510080,74.020594,-229.828649,7920.203579
20573.510403,-1554.432478,-2221.676944,10140.821405
20573.510726,-1924.535449,-2451.505594,12213.398043
20573.511050,-2664.741391,-2911.162892,14285.974681
20573.511373,-3404.947333,-3217.601092,13027.624579
20573.511696,-2442.679609,-2911.162892,9844.739029
20573.512019,-1998.556043,-2681.334243,7105.977043
20573.512342,-2072.576638,-919.314598,6439.791695
20573.512666,1406.391290,1225.752797,5181.441594
20573.512989,1628.453072,2528.115143,5773.606348
20573.513312,1184.329507,2757.943793,6957.935855
20573.513635,296.082377,2145.067394,6217.729913
20573.513958,-1850.514855,0.000000,7402.059420
20573.514282,-2738.761985,-2911.162892,8660.409521
20573.514605,-3256.906145,-3677.258390,10362.883188
20573.514928,-3256.906145,-3830.477490,14359.995275
20573.515251,-3627.009116,-3524.039291,14211.954086
20573.515574,-2220.617826,-3830.477490,12065.356855
20573.515897,0.000000,-3907.087040,9178.553681
20573.516221,148.041188,-2068.457845,7328.038826
20573.516544,3552.988522,153.219100,7402.059420
20573.516867,6143.709319,2451.505594,8808.450710
20573.517190,5329.482782,4366.744339,8512.368333
20573.517513,3182.885551,2987.772442,7698.141797
20573.517837,1036.288319,612.876398,7476.080014
20573.518160,-962.267725,-1532.190996,8586.388927
20573.518483,-962.267725,-2451.505594,10214.842000
20573.518806,-2516.700203,-2681.334243,12583.501014
20573.519129,-3775.050304,-3447.429741,12361.439231
20573.519453,-2812.782580,-1915.238745,11695.253884
20573.519776,-3108.864956,-2834.553343,8882.471304
20573.520099,-3256.906145,-2528.115143,6809.894666
20573.520422,-592.164754,-612.876398,5847.626942
20573.520745,3034.844362,2374.896044,6809.894666
20573.521069,3404.947333,3830.477490,7846.182985
20573.521392,1924.535449,4519.963438,7254.018232
20573.521715,0.000000,3140.991542,7031.956449
20573.522038,-1036.288319,-612.876398,7105.977043
20573.522361,-1998.556043,-1532.190996,8882.471304
20573.522684,-2442.679609,-2068.457845,12213.398043
20573.523008,-3478.967927,-2221.676944,13323.706956
20573.523331,-3256.906145,-1915.238745,12213.398043
20573.523654,-2072.576638,-2451.505594,9622.677246
20573.523977,-1184.329507,-2145.067394,7698.141797
20573.524300,0.000000,-76.609550,6883.915261
20573.524624,3701.029710,2145.067394,7328.038826
20573.524947,3701.029710,4060.306139,8068.244768
20573.525270,2812.782580,3600.648841,7772.162391
20573.525593,1480.411884,2145.067394,7624.121203
20573.525916,-1406.391290,0.000000,8290.306550
20573.526240,-2220.617826,-2298.286494,9918.759623
20573.526563,-2146.597232,-3677.258390,11917.315666
20573.526886,-3775.050304,-3600.648841,13915.871710
20573.527209,-3923.091493,-3447.429741,13545.768739
20573.527532,-2368.659014,-3217.601092,10288.862594
20573.527856,-740.205942,-3217.601092,8216.285956
20573.528179,888.247130,-1225.752797,5995.668130
20573.528502,3404.947333,1378.971896,5699.585753
20573.528825,4811.338623,3677.258390,7476.080014
20573.529148,4515.256246,4596.572988,7994.224174
20573.529472,2960.823768,2911.162892,6513.812290
20573.529795,444.123565,153.219100,7031.956449
20573.530118,-1406.391290,-2221.676944,8660.409521
20573.530441,-1332.370696,-1991.848295,11399.171507
20573.530764,-2442.679609,-3140.991542,13693.809927
20573.531087,-3552.988522,-3753.867940,13841.851115
20573.531411,-2886.803174,-3447.429741,11843.295072
20573.531734,-1702.473667,-3370.820191,9030.512492
20573.532057,-888.247130,-2298.286494,7031.956449
20573.532380,1776.494261,153.219100,7105.977043
20573.532703,3775.050304,3064.381992,7846.182985
20573.533027,4071.132681,5132.839837,8290.306550
20573.533350,2886.803174,4136.915689,7031.956449
20573.533673,444.123565,1532.190996,5921.647536
20573.533996,-2146.597232,-766.095498,7698.141797
20573.534319,-2960.823768,-2068.457845,9844.739029
20573.534643,-3108.864956,-2528.115143,12583.501014
20573.534966,-3849.070898,-3140.991542,13767.830521
20573.535289,-3923.091493,-3600.648841,12213.398043
20573.535612,-3034.844362,-3600.648841,9622.677246
20573.535935,-1332.370696,-3064.381992,7254.018232
20573.536259,666.185348,0.000000,6291.750507
20573.536582,3330.926739,2757.943793,6883.915261
20573.536905,4515.256246,4366.744339,7476.080014
20573.537228,3330.926739,4366.744339,7105.977043
20573.537551,1702.473667,2298.286494,6143.709319
20573.537875,74.020594,0.000000,7846.182985
20573.538198,-1776.494261,-1685.410096,10066.800811
20573.538521,-2812.782580,-2374.896044,12213.398043
20573.538844,-4071.132681,-3370.820191,13323.706956
20573.539167,-4071.132681,-3753.867940,12657.521608
20573.539490,-2886.803174,-3600.648841,10362.883188
20573.539814,-1406.391290,-2911.162892,8068.244768
20573.540137,592.164754,-612.876398,7031.956449
20573.540460,3034.844362,2145.067394,6661.853478
20573.540783,4293.194464,4213.525239,7920.203579
20573.541106,4219.173869,4443.353888,8216.285956
20573.541430,1850.514855,3064.381992,7254.018232
20573.541753,-592.164754,76.609550,7624.121203
20573.542076,-1406.391290,-2604.724693,8660.409521
20573.542399,-2664.741391,-3140.991542,11177.109724
20573.542722,-3552.988522,-3217.601092,13767.830521
20573.543046,-4737.318029,-3983.696590,14656.077652
20573.543369,-3701.029710,-3830.477490,11621.233289
20573.543692,-2590.720797,-4136.915689,8882.471304
20573.544015,-1184.329507,-2604.724693,6291.750507
20573.544338,2664.741391,536.266849,6217.729913
20573.544662,5181.441594,3064.381992,7031.956449
20573.544985,4145.153275,5439.278036,8068.244768
20573.545308,3182.885551,4673.182538,6809.894666
20573.545631,444.123565,1532.190996,6069.688724
20573.545954,-1998.556043,-1685.410096,8216.285956
20573.546277,-1850.514855,-2834.553343,10066.800811
20573.546601,-1850.514855,-2681.334243,13471.748144
20573.546924,-3034.844362,-3907.087040,14211.954086
20573.547247,-2886.803174,-3447.429741,11991.336260
20573.547570,-2146.597232,-2911.162892,9030.512492
20573.547893,-666.185348,-2604.724693,7328.038826
20573.548217,1480.411884,383.047749,6661.853478
20573.548540,4663.297435,3753.867940,7105.977043
20573.548863,5477.523971,4903.011187,7846.182985
20573.549186,4071.132681,4519.963438,6957.935855
20573.549509,148.041188,2911.162892,6439.791695
20573.549833,-2516.700203,-612.876398,6957.935855
20573.550156,-3034.844362,-2757.943793,9622.677246
20573.550479,-4959.379811,-3294.210641,13693.809927
20573.550802,-6365.771101,-4060.306139,14434.015869
20573.551125,-5773.606348,-4826.401637,12657.521608
20573.551449,-3552.988522,-4749.792088,10436.903782
20573.551772,-2368.659014,-2528.115143,9326.594869
20573.552095,962.267725,-459.657299,7328.038826
20573.552418,4145.153275,1225.752797,6217.729913
20573.552741,5847.626942,3907.087040,7105.977043
20573.553065,5551.544565,5822.325785,8734.430116
20573.553388,3256.906145,4136.915689,7254.018232
20573.553711,296.082377,459.657299,6069.688724
20573.554034,-370.102971,-1991.848295,8068.244768
20573.554357,-1184.329507,-2757.943793,11695.253884
20573.554680,-3849.070898,-2451.505594,14211.954086
20573.555004,-4441.235652,-3370.820191,13693.809927
20573.555327,-3034.844362,-3753.867940,9918.759623
20573.555650,-2368.659014,-4213.525239,6883.915261
20573.555973,-888.247130,-2068.457845,6069.688724
20573.556296,2442.679609,995.924147,6291.750507
20573.556620,4367.215058,3983.696590,7994.224174
20573.556943,3182.885551,4826.401637,7994.224174
20573.557266,1554.432478,2298.286494,6957.935855
20573.557589,-1924.535449,-459.657299,5995.668130
20573.557912,-3404.947333,-3064.381992,8142.265362
20573.558236,-3034.844362,-2911.162892,12139.377449
20573.558559,-3701.029710,-3677.258390,13989.892304
20573.558882,-4515.256246,-4366.744339,13915.871710
20573.559205,-3775.050304,-4290.134789,12953.603985
20573.559528,-1702.473667,-2987.772442,10510.924376
20573.559852,148.041188,-1915.238745,7698.141797
20573.560175,3627.009116,0.000000,6513.812290
20573.560498,6587.832884,3217.601092,7254.018232
20573.560821,7179.997637,5975.544884,7846.182985
20573.561144,5625.565159,5515.887586,6957.935855
20573.561467,2442.679609,2681.334243,6661.853478
20573.561791,-1628.453072,-842.705048,7550.100608
20573.562114,-2220.617826,-2834.553343,9918.759623
20573.562437,-3849.070898,-3907.087040,11991.336260
20573.562760,-4885.359217,-4596.572988,13767.830521
20573.563083,-4293.194464,-4443.353888,12435.459826
20573.563407,-3182.885551,-3294.210641,9844.739029
20573.563730,-1998.556043,-2145.067394,7476.080014
20573.564053,740.205942,-766.095498,4589.276840
20573.564376,3256.906145,2068.457845,5255.462188
20573.564699,3849.070898,4213.525239,6957.935855
20573.565023,3997.112087,5515.887586,7031.956449
20573.565346,3034.844362,3447.429741,6217.729913
20573.565669,0.000000,0.000000,7328.038826
20573.565992,-1702.473667,-2604.724693,9770.718434
20573.566315,-2590.720797,-2757.943793,12805.562797
20573.566639,-3404.947333,-3600.648841,15248.242405
20573.566962,-3478.967927,-3983.696590,15100.201217
20573.567285,-2664.741391,-3753.867940,11843.295072
20573.567608,-1702.473667,-3140.991542,8882.471304
20573.567931,962.267725,-1072.533697,7772.162391
20573.568255,3552.988522,2298.286494,6735.874072
20573.568578,4145.153275,4596.572988,7179.997637
20573.568901,3849.070898,5592.497135,7328.038826
20573.569224,2072.576638,3907.087040,6513.812290
20573.569547,-1184.329507,1072.533697,6439.791695
20573.569870,-2664.741391,-1532.190996,7624.121203
20573.570194,-2664.741391,-2145.067394,11917.315666
20573.570517,-4071.132681,-2451.505594,13767.830521
20573.570840,-5033.400406,-3217.601092,12805.562797
20573.571163,-4293.194464,-3753.867940,10066.800811
20573.571486,-3256.906145,-4596.572988,7402.059420
20573.571810,-2294.638420,-1838.629195,6661.853478
20573.572133,2146.597232,689.485948,5699.585753
20573.572456,4071.132681,3447.429741,7105.977043
20573.572779,3775.050304,4060.306139,7179.997637
20573.573102,1850.514855,3830.477490,6439.791695
20573.573426,-74.020594,1455.581446,6957.935855
20573.573749,-1554.432478,-2068.457845,7772.162391
20573.574072,-2516.700203,-3447.429741,11251.130318
20573.574395,-3997.112087,-3983.696590,13693.809927
20573.574718,-4515.256246,-4596.572988,13545.768739
20573.575042,-2590.720797,-4749.792088,12435.459826
20573.575365,-1702.473667,-3447.429741,10732.986159
20573.575688,74.020594,-3753.867940,9104.533087
20573.576011,2812.782580,-766.095498,7031.956449
20573.576334,5551.544565,1378.971896,7402.059420
20573.576658,5477.523971,4213.525239,8660.409521
20573.576981,4367.215058,4366.744339,8364.327145
20573.577304,2812.782580,1838.629195,7698.141797
20573.577627,296.082377,-612.876398,8290.306550
20573.577950,-1998.556043,-2757.943793,10436.903782
20573.578273,-3108.864956,-3447.429741,12879.583391
20573.578597,-4737.318029,-4060.306139,14211.954086
20573.578920,-4589.276840,-4366.744339,11991.336260
20573.579243,-3108.864956,-4060.306139,8882.471304
20573.579566,-2664.741391,-3217.601092,7550.100608
20573.579889,814.226536,-689.485948,6143.709319
20573.580213,3997.112087,2987.772442,5181.441594
20573.580536,3775.050304,4519.963438,6587.832884
20573.580859,2738.761985,4826.401637,5847.626942
20573.581182,2072.576638,3217.601092,5551.544565
20573.581505,-444.123565,0.000000,6957.935855
20573.581829,-2220.617826,-1685.410096,9474.636058
20573.582152,-2368.659014,-2451.505594,12435.459826
20573.582475,-3256.906145,-3677.258390,14211.954086
20573.582798,-3701.029710,-3600.648841,13619.789333
20573.583121,-2960.823768,-3217.601092,11399.171507
20573.583444,-1036.288319,-2604.724693,8290.306550
20573.583767,1554.432478,-229.828649,7402.059420
20573.584090,4737.318029,2681.334243,7328.038826
20573.584414,5551.544565,5286.058936,8142.265362
20573.584737,4515.256246,5439.278036,7031.956449
20573.585060,3775.050304,4290.134789,7105.977043
20573.585383,814.226536,1991.848295,7698.141797
20573.585706,-2220.617826,-766.095498,9178.553681
20573.586029,-3997.112087,-2298.286494,11695.253884
20573.586352,-4441.235652,-3064.381992,13027.624579
20573.586675,-4589.276840,-3524.039291,13175.665768
20573.586999,-4441.235652,-3907.087040,11029.068536
20573.587322,-4441.235652,-3370.820191,8438.347739
20573.587645,-2146.597232,-1532.190996,6587.832884
20573.587968,1406.391290,1149.143247,5995.668130
20573.588291,3849.070898,3830.477490,6439.791695
20573.588614,3330.926739,4749.792088,6587.832884
20573.588937,2886.803174,4443.353888,6513.812290
20573.589260,2294.638420,2298.286494,6439.791695
20573.589583,-666.185348,76.609550,7920.203579
20573.589907,-1702.473667,-1685.410096,9992.780217
20573.590230,-2368.659014,-2604.724693,12583.501014
20573.590553,-3627.009116,-3983.696590,14656.077652
20573.590876,-3256.906145,-3983.696590,12731.542202
20573.591199,-1924.535449,-3983.696590,10140.821405
20573.591522,-370.102971,-3370.820191,8512.368333
20573.591845,2220.617826,0.000000,7105.977043
20573.592168,4663.297435,2068.457845,6957.935855
20573.592491,4589.276840,3677.258390,8512.368333
20573.592815,3256.906145,3983.696590,7920.203579
20573.593138,1406.391290,2298.286494,8142.265362
20573.593461,-1110.308913,-1762.019645,8142.265362
20573.593784,-2886.803174,-3447.429741,9474.636058
20573.594107,-3701.029710,-3524.039291,12509.480420
20573.594430,-5033.400406,-4136.915689,13915.871710
20573.594753,-5107.421000,-4826.401637,12287.418637
20573.595076,-4145.153275,-4673.182538,9400.615463
20573.595400,-3108.864956,-3677.258390,8216.285956
20573.595723,0.000000,-1072.533697,7476.080014
20573.596046,3182.885551,1838.629195,7031.956449
20573.596369,3775.050304,3370.820191,7402.059420
20573.596692,3552.988522,3600.648841,6291.750507
20573.597015,2738.761985,3447.429741,7179.997637
20573.597338,-296.082377,842.705048,7994.224174
20573.597661,-2072.576638,-1608.800546,8586.388927
20573.597984,-2368.659014,-2604.724693,10732.986159
20573.598308,-3182.885551,-3217.601092,13619.789333
20573.598631,-2664.741391,-3140.991542,12879.583391
20573.598954,-1924.535449,-3140.991542,9844.739029
20573.599277,-2146.597232,-2604.724693,8438.347739
20573.599600,-444.123565,-689.485948,7328.038826
20573.599923,2664.741391,1225.752797,5847.626942
20573.600246,4737.318029,2757.943793,6809.894666
20573.600569,2590.720797,4519.963438,8586.388927
20573.600892,1776.494261,4290.134789,7920.203579
20573.601216,-444.123565,1072.533697,7698.141797
20573.601539,-3330.926739,-2757.943793,8438.347739
20573.601862,-3256.906145,-3677.258390,9400.615463
20573.602185,-3701.029710,-2834.553343,12657.521608
20573.602508,-4737.318029,-3753.867940,15100.201217
20573.602831,-3182.885551,-3677.258390,12953.603985
20573.603154,-1480.411884,-3370.820191,8734.430116
20573.603477,0.000000,-2374.896044,7328.038826
20573.603801,2960.823768,919.314598,7476.080014
20573.604124,5773.606348,3907.087040,7402.059420
20573.604447,6513.812290,4903.011187,7920.203579
20573.604770,5033.400406,4749.792088,7846.182985
20573.605093,2516.700203,4060.306139,7105.977043
20573.605416,-148.041188,919.314598,7476.080014
20573.605739,-1258.350101,-1455.581446,9622.677246
20573.606062,-1554.432478,-2451.505594,11843.295072
20573.606385,-4367.215058,-2528.115143,13175.665768
20573.606709,-4293.194464,-2987.772442,11547.212695
20573.607032,-4219.173869,-3753.867940,8438.347739
20573.607355,-3997.112087,-2528.115143,7031.956449
20573.607678,-296.082377,-612.876398,6513.812290
20573.608001,3256.906145,1608.800546,7031.956449
20573.608324,3923.091493,3830.477490,7328.038826
20573.608647,2886.803174,4060.306139,8364.327145
20573.608970,1850.514855,2374.896044,7402.059420
20573.609293,-444.123565,612.876398,7105.977043
20573.609617,-1850.514855,-2221.676944,10066.800811
20573.609940,-1850.514855,-2911.162892,11399.171507
20573.610263,-2442.679609,-3370.820191,13027.624579
20573.610586,-1850.514855,-3677.258390,13767.830521
20573.610909,-1850.514855,-1915.238745,10510.924376
20573.611232,-1998.556043,-2298.286494,7772.162391
20573.611555,592.164754,-1378.971896,5403.503377
20573.611878,4071.132681,1149.143247,5329.482782
20573.612202,3627.009116,3524.039291,8142.265362
20573.612525,2442.679609,4213.525239,8660.409521
20573.612848,1776.494261,3983.696590,8586.388927
20573.613171,0.000000,-153.219100,8216.285956
20573.613494,-3034.844362,-2987.772442,8290.306550
20573.613817,-4589.276840,-4519.963438,10436.903782
20573.614140,-4737.318029,-4673.182538,13767.830521
20573.614463,-4441.235652,-4060.306139,14211.954086
20573.614786,-2368.659014,-3064.381992,11621.233289
20573.615110,-1332.370696,-2987.772442,8290.306550
20573.615433,-962.267725,-1915.238745,6365.771101
20573.615756,3330.926739,1685.410096,6587.832884
20573.616079,5329.482782,3830.477490,7994.224174
20573.616402,4737.318029,4673.182538,8734.430116
20573.616725,2516.700203,3753.867940,7179.997637
20573.617048,222.061783,1072.533697,6365.771101
20573.617371,-2516.700203,-1991.848295,8586.388927
20573.617694,-3404.947333,-3600.648841,10362.883188
20573.618018,-4293.194464,-3677.258390,12657.521608
20573.618341,-4811.338623,-4443.353888,14508.036463
20573.618664,-4737.318029,-4673.182538,10955.047942
20573.618987,-4441.235652,-3907.087040,8364.327145
20573.619310,-2664.741391,-2911.162892,6809.894666
20573.619633,1406.391290,-306.438199,5699.585753
20573.619956,5033.400406,2681.334243,6291.750507
20573.620279,4885.359217,5515.887586,7994.224174
20573.620603,3923.091493,4903.011187,7402.059420
20573.620926,1776.494261,1991.848295,7254.018232
20573.621249,-962.267725,-536.266849,8734.430116
20573.621572,-2072.576638,-2528.115143,10658.965565
20573.621895,-2960.823768,-3830.477490,12287.418637
20573.622218,-3701.029710,-4596.572988,13989.892304
20573.622541,-3552.988522,-4596.572988,13397.727550
20573.622864,-3478.967927,-3064.381992,10288.862594
20573.623187,-2812.782580,-2757.943793,7698.141797
20573.623511,444.123565,-919.314598,6217.729913
20573.623834,4441.235652,2528.115143,6069.688724
20573.624157,4293.194464,4979.620737,7402.059420
20573.624480,2368.659014,4903.011187,7920.203579
20573.624803,592.164754,2987.772442,6735.874072
20573.625126,-888.247130,0.000000,7179.997637
20573.625449,-3108.864956,-2374.896044,9104.533087
20573.625772,-3923.091493,-3140.991542,11103.089130
20573.626096,-4737.318029,-4366.744339,13249.686362
20573.626419,-3849.070898,-3907.087040,13545.768739
20573.626742,-1850.514855,-2834.553343,11103.089130
20573.627065,-814.226536,-3064.381992,7920.203579
20573.627388,74.020594,-1762.019645,5329.482782
20573.627711,4293.194464,1149.143247,5773.606348
20573.628034,7105.977043,3830.477490,7254.018232
20573.628357,6143.709319,5286.058936,8216.285956
20573.628680,3701.029710,4749.792088,8142.265362
20573.629004,1110.308913,1915.238745,8438.347739
20573.629327,0.000000,-1838.629195,8364.327145
20573.629650,-1998.556043,-3600.648841,10362.883188
20573.629973,-3849.070898,-4366.744339,13397.727550
20573.630296,-4959.379811,-3830.477490,13989.892304
20573.630619,-3849.070898,-3753.867940,11473.192101
20573.630942,-2664.741391,-3524.039291,8734.430116
20573.631265,-1554.432478,-2451.505594,7031.956449
20573.631588,1332.370696,536.266849,5847.626942
20573.631912,3997.112087,2451.505594,7031.956449
20573.632235,4737.318029,4060.306139,7402.059420
20573.632558,3701.029710,4749.792088,7994.224174
20573.632881,814.226536,2681.334243,7328.038826
20573.633204,-1184.329507,-689.485948,8068.244768
20573.633527,-2442.679609,-2757.943793,9622.677246
20573.633850,-3627.009116,-3370.820191,12879.583391
20573.634173,-3849.070898,-3600.648841,14211.954086
20573.634497,-3627.009116,-3370.820191,12435.459826
20573.634820,-3627.009116,-3217.601092,9474.636058
20573.635143,-2960.823768,-3064.381992,6587.832884
20573.635466,0.000000,-842.705048,5181.441594
20573.635789,3404.947333,2374.896044,6365.771101
20573.636112,4589.276840,4749.792088,8068.244768
20573.636435,3478.967927,4673.182538,7846.182985
20573.636758,740.205942,2757.943793,6809.894666
20573.637081,-1850.514855,-76.609550,7179.997637
20573.637405,-2146.597232,-2298.286494,9030.512492
20573.637728,-2516.700203,-3370.820191,11621.233289
20573.638051,-4219.173869,-3677.258390,13841.851115
20573.638374,-3404.947333,-3677.258390,13101.645173
20573.638697,-1850.514855,-3907.087040,9844.739029
20573.639020,-2368.659014,-3217.601092,8364.327145
20573.639343,-444.123565,-2068.457845,6587.832884
20573.639666,3404.947333,1378.971896,6365.771101
20573.639989,5625.565159,2604.724693,8068.244768
20573.640313,4219.173869,3677.258390,8512.368333
20573.640636,1480.411884,3370.820191,8068.244768
20573.640959,-740.205942,383.047749,8364.327145
20573.641282,-1406.391290,-2145.067394,9178.553681
20573.641605,-1628.453072,-3830.477490,11251.130318
20573.641928,-3034.844362,-4366.744339,13767.830521
20573.642251,-4293.194464,-4060.306139,13397.727550
20573.642574,-2146.597232,-3140.991542,11251.130318
20573.642898,-1258.350101,-2528.115143,9030.512492
20573.643221,444.123565,-1838.629195,6661.853478
20573.643544,3552.988522,919.314598,6217.729913
20573.643867,5403.503377,3830.477490,7772.162391
20573.644190,4737.318029,4290.134789,8660.409521
20573.644513,2960.823768,3907.087040,7254.018232
20573.644836,-148.041188,1685.410096,7624.121203
20573.645159,-2738.761985,-1225.752797,8290.306550
20573.645482,-2960.823768,-2911.162892,9696.697840
20573.645806,-3923.091493,-4519.963438,11843.295072
20573.646129,-6143.709319,-4366.744339,12435.459826
20573.646452,-5033.400406,-3294.210641,11547.212695
20573.646775,-4071.132681,-3524.039291,8290.306550
20573.647098,-2664.741391,-3370.820191,5477.523971
20573.647421,666.185348,0.000000,5921.647536
20573.647744,3404.947333,3064.381992,6957.935855
20573.648067,4737.318029,4826.401637,7772.162391
20573.648390,4811.338623,4903.011187,7402.059420
20573.648714,2738.761985,2451.505594,6883.915261
20573.649037,-296.082377,-229.828649,8290.306550
20573.649360,-1332.370696,-1302.362347,10807.006753
20573.649683,-1628.453072,-2528.115143,13767.830521
20573.650006,-3627.009116,-3524.039291,14804.118840
20573.650329,-3478.967927,-3600.648841,13101.645173
20573.650652,-2072.576638,-3830.477490,10288.862594
20573.650975,-1702.473667,-2834.553343,7920.203579
20573.651299,0.000000,-383.047749,6365.771101
20573.651622,3330.926739,2374.896044,6957.935855
20573.651945,3627.009116,4749.792088,7846.182985
20573.652268,2516.700203,5056.230287,8290.306550
20573.652591,592.164754,3294.210641,7254.018232
20573.652914,-1850.514855,0.000000,7550.100608
20573.653237,-2664.741391,-2987.772442,8586.388927
20573.653560,-2738.761985,-2834.553343,11103.089130
20573.653883,-4219.173869,-2987.772442,12879.583391
20573.654207,-4589.276840,-4060.306139,11991.336260
20573.654530,-2442.679609,-3140.991542,9844.739029
20573.654853,-740.205942,-1915.238745,7476.080014
20573.655176,1110.308913,-229.828649,6587.832884
20573.655499,4737.318029,2221.676944,5699.585753
20573.655822,7402.059420,4749.792088,6587.832884
20573.656145,6143.709319,5439.278036,7402.059420
20573.656468,3627.009116,4749.792088,7328.038826
20573.656792,370.102971,1455.581446,7105.977043
20573.657115,-1110.308913,-1685.410096,8142.265362
20573.657438,-1480.411884,-3217.601092,11473.192101
20573.657761,-3108.864956,-3830.477490,14656.077652
20573.658084,-5921.647536,-4443.353888,14359.995275
20573.658407,-5551.544565,-5132.839837,11103.089130
20573.658730,-4663.297435,-5132.839837,8660.409521
20573.659053,-2738.761985,-3447.429741,7846.182985
20573.659376,1036.288319,-766.095498,7179.997637
20573.659700,3552.988522,2221.676944,7772.162391
20573.660023,4515.256246,3524.039291,8734.430116
20573.660346,3108.864956,4060.306139,7772.162391
20573.660669,1036.288319,2298.286494,7772.162391
20573.660992,-518.144159,-919.314598,8734.430116
20573.661315,-222.061783,-1915.238745,10140.821405
20573.661638,-1628.453072,-2757.943793,12805.562797
20573.661961,-2886.803174,-3064.381992,13397.727550
20573.662284,-2738.761985,-3370.820191,11473.192101
20573.662608,-1258.350101,-3064.381992,9326.594869
20573.662931,-1332.370696,-2451.505594,7550.100608
20573.663254,740.205942,0.000000,6513.812290
20573.663577,2960.823768,2221.676944,7698.141797
20573.663900,3256.906145,3370.820191,7179.997637
20573.664223,2294.638420,4136.915689,7179.997637
20573.664546,888.247130,2298.286494,6365.771101
20573.664869,-1110.308913,-153.219100,6513.812290
20573.665193,-2146.597232,-1685.410096,9622.677246
20573.665516,-2590.720797,-1378.971896,11917.315666
20573.665839,-3997.112087,-2911.162892,12657.521608
20573.666162,-4441.235652,-3677.258390,11547.212695
20573.666485,-2738.761985,-3524.039291,9400.615463
20573.666808,-1776.494261,-2374.896044,8364.327145
20573.667131,74.020594,-1762.019645,7105.977043
20573.667454,2516.700203,919.314598,7624.121203
20573.667777,4145.153275,3830.477490,9104.533087
20573.668101,3404.947333,4290.134789,9992.780217
20573.668424,2294.638420,2681.334243,8808.450710
20573.668747,-592.164754,383.047749,8734.430116
20573.669070,-1924.535449,-1991.848295,9030.512492
20573.669393,-2220.617826,-2451.505594,11177.109724
20573.669716,-2960.823768,-3140.991542,13397.727550
20573.670039,-3849.070898,-2528.115143,12065.356855
20573.670362,-3330.926739,-2451.505594,9992.780217
20573.670685,-2146.597232,-2451.505594,7846.182985
20573.671009,-1110.308913,-995.924147,6513.812290
20573.671332,1776.494261,1455.581446,6439.791695
20573.671655,3330.926739,3140.991542,7105.977043
20573.671978,3256.906145,3907.087040,7698.141797
20573.672301,3108.864956,3370.820191,7254.018232
20573.672624,444.123565,1532.190996,7846.182985
20573.672947,-1702.473667,-536.266849,8068.244768
20573.673270,-2516.700203,-2374.896044,9474.636058
20573.673594,-2220.617826,-3217.601092,11917.315666
20573.673917,-3034.844362,-3600.648841,12953.603985
20573.674240,-3627.009116,-3217.601092,11251.130318
20573.674563,-2812.782580,-3370.820191,8734.430116
20573.674886,-1036.288319,-2528.115143,6587.832884
20573.675209,1406.391290,-612.876398,6217.729913
20573.675532,3552.988522,2068.457845,8142.265362
20573.675855,3775.050304,3677.258390,8808.450710
20573.676178,3552.988522,3677.258390,8956.491898
20573.676502,2738.761985,1838.629195,8512.368333
20573.676825,296.082377,-612.876398,8512.368333
20573.677148,-1036.288319,-2834.553343,9844.739029
20573.677471,-1332.370696,-3677.258390,12139.377449
20573.677794,-1332.370696,-3370.820191,13619.789333
20573.678117,-1110.308913,-2987.772442,12213.398043
20573.678440,-1110.308913,-2834.553343,10732.986159
20573.678763,-592.164754,-2451.505594,8216.285956
20573.679086,1258.350101,-919.314598,6957.935855
20573.679410,3330.926739,1378.971896,7698.141797
20573.679733,2738.761985,2911.162892,9104.533087
20573.680056,2294.638420,3140.991542,8068.244768
20573.680379,0.000000,1608.800546,7254.018232
20573.680702,-2886.803174,-995.924147,7402.059420
20573.681025,-4145.153275,-1915.238745,8438.347739
20573.681348,-4441.235652,-2987.772442,10436.903782
20573.681671,-4811.338623,-3294.210641,11843.295072
20573.681995,-4811.338623,-3294.210641,11473.192101
20573.682318,-4811.338623,-3524.039291,9622.677246
20573.682641,-3478.967927,-2834.553343,7624.121203
20573.682964,-962.267725,-1149.143247,6143.709319
20573.683287,2442.679609,1225.752797,5773.606348
20573.683610,4219.173869,3294.210641,7550.100608
20573.683934,4145.153275,4673.182538,8734.430116
20573.684257,4219.173869,4290.134789,8586.388927
20573.684580,2812.782580,1685.410096,9178.553681
20573.684903,518.144159,-1149.143247,9992.780217
20573.685226,-592.164754,-1915.238745,11103.089130
20573.685549,-444.123565,-2451.505594,12953.603985
20573.685873,-814.226536,-3064.381992,13397.727550
20573.686196,-1850.514855,-2221.676944,11399.171507
20573.686519,-2294.638420,-3677.258390,9104.533087
20573.686842,-740.205942,-2681.334243,6587.832884
20573.687165,2368.659014,-842.705048,6365.771101
20573.687488,2442.679609,2298.286494,9178.553681
20573.687812,1776.494261,4213.525239,10214.842000
20573.688135,1406.391290,3294.210641,8364.327145
20573.688458,0.000000,842.705048,7105.977043
20573.688781,-2738.761985,-995.924147,7624.121203
20573.689104,-3923.091493,-2528.115143,9326.594869
20573.689428,-2960.823768,-2604.724693,11399.171507
20573.689751,-2738.761985,-3294.210641,11917.315666
20573.690074,-2442.679609,-2221.676944,11547.212695
20573.690397,-1554.432478,-1532.190996,9030.512492
20573.690720,-444.123565,-1532.190996,6439.791695
20573.691043,3478.967927,766.095498,5477.523971
20573.691367,5847.626942,3907.087040,6883.915261
20573.691690,5921.647536,5515.887586,8364.327145
20573.692013,5551.544565,5439.278036,7624.121203
20573.692336,3701.029710,3677.258390,6883.915261
20573.692659,-444.123565,1149.143247,8142.265362
20573.692983,-2072.576638,-1149.143247,9474.636058
20573.693306,-888.247130,-2987.772442,10066.800811
20573.693629,-3701.029710,-2987.772442,12879.583391
20573.693952,-5699.585753,-3677.258390,12805.562797
20573.694275,-6217.729913,-3370.820191,9622.677246
20573.694598,-4737.318029,-4903.011187,7254.018232
20573.694922,-3034.844362,-3447.429741,6883.915261
20573.695245,-740.205942,0.000000,7328.038826
20573.695568,518.144159,1455.581446,9104.533087
20573.695891,666.185348,2221.676944,8734.430116
20573.696214,370.102971,1991.848295,8586.388927
20573.696537,-1258.350101,0.000000,8068.244768
20573.696861,-2516.700203,-2068.457845,8956.491898
20573.697184,-1480.411884,-2987.772442,11103.089130
20573.697507,-1480.411884,-3447.429741,13175.665768
20573.697830,-2664.741391,-3064.381992,13841.851115
20573.698153,-2368.659014,-3064.381992,11029.068536
20573.698477,-1554.432478,-3370.820191,8142.265362
20573.698800,518.144159,-2681.334243,6291.750507
20573.699123,3701.029710,0.000000,7179.997637
20573.699446,4885.359217,3064.381992,8586.388927
20573.699769,4071.132681,4443.353888,8290.306550
20573.700092,2442.679609,3370.820191,6883.915261
20573.700416,296.082377,536.266849,5847.626942
20573.700739,-2072.576638,-1225.752797,7179.997637
20573.701062,-2368.659014,-2451.505594,8882.471304
20573.701385,-2738.761985,-3983.696590,11621.233289
20573.701708,-3627.009116,-3370.820191,12731.542202
20573.702032,-3627.009116,-3064.381992,10510.924376
20573.702355,-3330.926739,-3830.477490,8142.265362
20573.702678,-1628.453072,-4596.572988,6809.894666
20573.703001,1554.432478,-1608.800546,6957.935855
20573.703324,4293.194464,1455.581446,9474.636058
20573.703647,4219.173869,2987.772442,11103.089130
20573.703971,3108.864956,2757.943793,8956.491898
20573.704294,2590.720797,995.924147,8438.347739
20573.704617,1036.288319,-1532.190996,9326.594869
20573.704940,370.102971,-1915.238745,11325.150913
20573.705263,-592.164754,-2528.115143,12657.521608
20573.705586,-962.267725,-2298.286494,12879.583391
20573.705910,-1554.432478,-1991.848295,12287.418637
20573.706233,-1702.473667,-2145.067394,9104.533087
20573.706556,-1184.329507,-1532.190996,6957.935855
20573.706879,518.144159,-383.047749,5699.585753
20573.707202,3108.864956,2528.115143,6661.853478
20573.707526,2738.761985,4519.963438,8216.285956
20573.707849,1406.391290,4290.134789,7550.100608
20573.708172,0.000000,2374.896044,7105.977043
20573.708495,-1110.308913,919.314598,7179.997637
20573.708818,-2960.823768,-1072.533697,8364.327145
20573.709141,-2812.782580,-1915.238745,10436.903782
20573.709465,-2368.659014,-2221.676944,12583.501014
20573.709788,-2516.700203,-1685.410096,11695.253884
20573.710111,-2960.823768,-1455.581446,9252.574275
20573.710434,-2368.659014,-1532.190996,6587.832884
20573.710757,0.000000,-766.095498,5181.441594
20573.711081,1998.556043,1685.410096,6439.791695
20573.711404,3404.947333,3907.087040,9030.512492
20573.711727,2516.700203,4443.353888,9178.553681
20573.712050,1332.370696,2451.505594,8586.388927
20573.712373,0.000000,306.438199,8364.327145
20573.712696,-2146.597232,-1532.190996,9844.739029
20573.713020,-3108.864956,-2757.943793,11547.212695
20573.713343,-3404.947333,-3600.648841,13397.727550
20573.713666,-2738.761985,-3447.429741,13767.830521
20573.713989,-2368.659014,-3370.820191,10881.027347
20573.714312,-1924.535449,-3524.039291,7846.182985
20573.714635,0.000000,-2298.286494,6883.915261
20573.714959,3627.009116,536.266849,6883.915261
20573.715282,4811.338623,3524.039291,9104.533087
20573.715605,4367.215058,4136.915689,9104.533087
20573.715928,4145.153275,2528.115143,6587.832884
20573.716251,666.185348,689.485948,8142.265362
20573.716575,-222.061783,-2145.067394,9548.656652
20573.716898,-2294.638420,-2451.505594,10584.944971
20573.717221,-2664.741391,-4596.572988,11621.233289
20573.717544,-4515.256246,-4673.182538,12287.418637
20573.717867,-4589.276840,-4136.915689,11177.109724
20573.718190,-3849.070898,-3907.087040,8808.450710
20573.718514,-2812.782580,-3524.039291,5921.647536
20573.718837,0.000000,-1455.581446,5625.565159
20573.719160,1850.514855,1455.581446,6587.832884
20573.719483,1776.494261,3064.381992,8142.265362
20573.719806,1332.370696,2834.553343,8216.285956
20573.720130,888.247130,1608.800546,8216.285956
20573.720453,-1036.288319,-1225.752797,8734.430116
20573.720776,-1924.535449,-2451.505594,10584.944971
20573.721099,-1406.391290,-3217.601092,11695.253884
20573.721422,-1554.432478,-3294.210641,13619.789333
20573.721745,-592.164754,-3217.601092,13249.686362
20573.722069,-592.164754,-1608.800546,10881.027347
20573.722392,-222.061783,-1225.752797,7920.203579
20573.722715,2220.617826,-766.095498,6217.729913
20573.723038,3627.009116,2298.286494,6809.894666
20573.723361,3775.050304,4443.353888,8956.491898
20573.723684,2886.803174,4749.792088,8364.327145
20573.724008,1036.288319,3983.696590,7550.100608
20573.724331,-1258.350101,536.266849,8512.368333
20573.724654,-3701.029710,-842.705048,9104.533087
20573.724977,-5255.462188,-2834.553343,10362.883188
20573.725300,-5033.400406,-3524.039291,11991.336260
20573.725624,-4293.194464,-2757.943793,11843.295072
20573.725947,-3478.967927,-2298.286494,9400.615463
20573.726270,-2516.700203,-1302.362347,6957.935855
20573.726593,0.000000,0.000000,4959.379811
20573.726916,3478.967927,2834.553343,5477.523971
20573.727239,5033.400406,5669.106685,7698.141797
20573.727563,4959.379811,5745.716235,7772.162391
20573.727886,3775.050304,4826.401637,7920.203579
20573.728209,2146.597232,1915.238745,8586.388927
20573.728532,518.144159,-766.095498,9992.780217
20573.728855,-370.102971,-2145.067394,11399.171507
20573.729179,-2590.720797,-3447.429741,12805.562797
20573.729502,-2368.659014,-3064.381992,13619.789333
20573.729825,-1998.556043,-3064.381992,11843.295072
20573.730148,-2738.761985,-3524.039291,8956.491898
20573.730471,-2146.597232,-2834.553343,7031.956449
20573.730794,592.164754,-536.266849,6587.832884
20573.731118,2812.782580,1838.629195,7772.162391
20573.731441,2294.638420,2451.505594,8364.327145
20573.731764,1258.350101,2298.286494,7772.162391
20573.732087,-296.082377,0.000000,8142.265362
20573.732410,-2146.597232,-1762.019645,9030.512492
20573.732733,-1924.535449,-3217.601092,10436.903782
20573.733057,-1554.432478,-4213.525239,11917.315666
20573.733380,-2072.576638,-4060.306139,13619.789333
20573.733703,-592.164754,-3140.991542,12435.459826
20573.734026,222.061783,-2834.553343,10066.800811
20573.734349,148.041188,-2604.724693,7328.038826
20573.734673,3108.864956,-995.924147,5847.626942
20573.734996,5773.606348,1991.848295,7105.977043
20573.735319,5403.503377,3600.648841,8586.388927
20573.735642,3701.029710,4060.306139,8512.368333
20573.735965,1184.329507,2221.676944,7772.162391
20573.736288,-1332.370696,-995.924147,8068.244768
20573.736612,-2590.720797,-3217.601092,8364.327145
20573.736935,-3849.070898,-3907.087040,10658.965565
20573.737258,-5625.565159,-4213.525239,12583.501014
20573.737581,-5255.462188,-3907.087040,11769.274478
20573.737904,-4589.276840,-4213.525239,9918.759623
20573.738228,-4811.338623,-4060.306139,7624.121203
20573.738551,-1554.432478,-2451.505594,6513.812290
20573.738874,1850.514855,842.705048,7698.141797
20573.739197,1924.535449,2451.505594,9326.594869
20573.739520,1332.370696,3600.648841,9178.553681
20573.739843,1036.288319,2604.724693,8142.265362
20573.740167,-518.144159,536.266849,9474.636058
20573.740490,-592.164754,-766.095498,9770.718434
20573.740813,-518.144159,-2145.067394,11325.150913
20573.741136,-2442.679609,-2145.067394,13101.645173
20573.741459,-2812.782580,-1915.238745,12213.398043
20573.741782,-962.267725,-1455.581446,10214.842000
20573.742106,-1036.288319,-1455.581446,7476.080014
20573.742429,0.000000,0.000000,5921.647536
20573.742752,3552.988522,2604.724693,5255.462188
20573.743075,5403.503377,5056.230287,6587.832884
20573.743398,4589.276840,6052.154434,8660.409521
20573.743722,2442.679609,6052.154434,7105.977043
20573.744045,0.000000,2834.553343,6365.771101
20573.744368,-1110.308913,-306.438199,8068.244768
20573.744691,-1628.453072,-1149.143247,9918.759623
20573.745014,-3552.988522,-1915.238745,12361.439231
20573.745337,-5107.421000,-3064.381992,12139.377449
20573.745661,-3997.112087,-3294.210641,10732.986159
20573.745984,-3701.029710,-2911.162892,9326.594869
20573.746307,-3034.844362,-2911.162892,6069.688724
20573.746630,-444.123565,-383.047749,5625.565159
20573.746953,2220.617826,2681.334243,7994.224174
20573.747276,2738.761985,4519.963438,8438.347739
20573.747600,2516.700203,3983.696590,7476.080014
20573.747923,962.267725,995.924147,7179.997637
20573.748246,-1554.432478,-995.924147,8956.491898
20573.748569,-1184.329507,-2145.067394,10658.965565
20573.748892,-1110.308913,-3677.258390,12583.501014
20573.749216,-2072.576638,-4826.401637,14359.995275
20573.749539,-1628.453072,-4136.915689,13323.706956
20573.749862,0.000000,-3447.429741,10584.944971
20573.750185,814.226536,-3447.429741,8956.491898
20573.750508,2812.782580,-1608.800546,6217.729913
20573.750831,5329.482782,1455.581446,6957.935855
20573.751155,5181.441594,3217.601092,9104.533087
20573.751478,4071.132681,3983.696590,7920.203579
20573.751801,2072.576638,2068.457845,6883.915261
20573.752124,-962.267725,-766.095498,8290.306550
20573.752447,-2442.679609,-3217.601092,9104.533087
20573.752771,-3404.947333,-3983.696590,11103.089130
20573.753094,-5329.482782,-4979.620737,13249.686362
20573.753417,-5773.606348,-5362.668486,12657.521608
20573.753740,-4367.215058,-4749.792088,10066.800811
20573.754063,-4071.132681,-4290.134789,7698.141797
20573.754386,-2368.659014,-2834.553343,6069.688724
20573.754710,1332.370696,0.000000,5625.565159
20573.755033,2738.761985,2911.162892,7550.100608
20573.755356,2886.803174,4290.134789,8586.388927
20573.755679,2294.638420,3447.429741,7994.224174
20573.756002,0.000000,919.314598,8216.285956
20573.756325,-592.164754,-1302.362347,9400.615463
20573.756649,0.000000,-1991.848295,11251.130318
20573.756972,-1628.453072,-2451.505594,13841.851115
20573.757295,-2886.803174,-2757.943793,13915.871710
20573.757618,-1332.370696,-2757.943793,11399.171507
20573.757941,-666.185348,-2911.162892,8660.409521
20573.758265,-1406.391290,-1455.581446,7328.038826
20573.758588,1258.350101,766.095498,5625.565159
20573.758911,4367.215058,3217.601092,6439.791695
20573.759234,4737.318029,4596.572988,8734.430116
20573.759557,2220.617826,5669.106685,7772.162391
20573.759880,0.000000,3524.039291,7402.059420
20573.760204,-1850.514855,0.000000,8068.244768
20573.760527,-2368.659014,-1455.581446,8734.430116
20573.760850,-2664.741391,-1608.800546,10807.006753
20573.761173,-2812.782580,-2298.286494,11769.274478
20573.761496,-2960.823768,-1685.410096,11621.233289
20573.761820,-1776.494261,-2145.067394,9326.594869
20573.762143,-962.267725,-1455.581446,7031.956449
20573.762466,1850.514855,306.438199,6069.688724
20573.762789,4071.132681,2298.286494,7476.080014
20573.763112,4441.235652,4749.792088,9104.533087
20573.763435,3701.029710,5056.230287,8956.491898
20573.763759,2516.700203,3447.429741,8216.285956
20573.764082,74.020594,306.438199,7772.162391
20573.764405,-1554.432478,-1302.362347,8808.450710
20573.764728,-1776.494261,-2451.505594,11399.171507
20573.765051,-2368.659014,-2757.943793,14063.912898
20573.765374,-3034.844362,-2604.724693,13397.727550
20573.765698,-2590.720797,-3140.991542,10658.965565
20573.766021,-2590.720797,-3677.258390,8216.285956
20573.766344,-1184.329507,-2451.505594,6143.709319
20573.766667,592.164754,0.000000,6809.894666
20573.766990,1998.556043,2145.067394,8882.471304
20573.767314,1628.453072,3064.381992,8808.450710
20573.767637,74.020594,1608.800546,7476.080014
20573.767960,-2146.597232,-459.657299,7698.141797
20573.768283,-2146.597232,-2374.896044,9030.512492
20573.768606,-962.267725,-3370.820191,9770.718434
20573.768929,-2220.617826,-3830.477490,12065.356855
20573.769253,-3256.906145,-3370.820191,12731.542202
20573.769576,-2220.617826,-2834.553343,10584.944971
20573.769899,-1406.391290,-3370.820191,7994.224174
20573.770222,-888.247130,-3447.429741,5921.647536
20573.770545,1628.453072,-1072.533697,6365.771101
20573.770869,3330.926739,1838.629195,7846.182985
20573.771192,2960.823768,3140.991542,8808.450710
20573.771515,2442.679609,2221.676944,7846.182985
20573.771838,-444.123565,306.438199,7846.182985
20573.772161,-3034.844362,-1685.410096,8438.347739
20573.772484,-2146.597232,-3064.381992,9992.780217
20573.772808,-2220.617826,-3830.477490,11917.315666
20573.773131,-3849.070898,-4060.306139,13101.645173
20573.773454,-4071.132681,-3677.258390,11695.253884
20573.773777,-2960.823768,-4060.306139,9104.533087
20573.774100,-1184.329507,-3677.258390,7402.059420
20573.774423,370.102971,-1455.581446,7105.977043
20573.774747,2368.659014,1225.752797,8142.265362
20573.775070,3478.967927,2987.772442,8882.471304
20573.775393,3923.091493,3217.601092,8512.368333
20573.775716,2442.679609,2145.067394,8586.388927
20573.776039,0.000000,0.000000,7772.162391
20573.776363,-740.205942,-1762.019645,8290.306550
20573.776686,-740.205942,-2528.115143,12139.377449
20573.777009,-1480.411884,-2298.286494,13249.686362
20573.777332,-2146.597232,-2068.457845,12139.377449
20573.777655,-1776.494261,-2604.724693,9770.718434
20573.777978,-1702.473667,-2145.067394,7550.100608
20573.778302,296.082377,-766.095498,6217.729913
20573.778625,2664.741391,612.876398,6069.688724
20573.778948,2812.782580,3064.381992,8142.265362
20573.779271,2664.741391,4903.011187,8290.306550
20573.779594,1480.411884,4136.915689,8364.327145
20573.779918,0.000000,1455.581446,7920.203579
20573.780241,74.020594,0.000000,8364.327145
20573.780564,444.123565,-766.095498,10362.883188
20573.780887,-1258.350101,-1608.800546,13027.624579
20573.781210,-1110.308913,-766.095498,12583.501014
20573.781533,-296.082377,0.000000,10510.924376
20573.781857,-1036.288319,-1149.143247,7550.100608
20573.782180,74.020594,-995.924147,5551.544565
20573.782503,2442.679609,1762.019645,6365.771101
20573.782826,3552.988522,3600.648841,9178.553681
20573.783149,2664.741391,4749.792088,9326.594869
20573.783473,962.267725,3830.477490,7402.059420
20573.783796,-2368.659014,306.438199,7105.977043
20573.784119,-4589.276840,-2068.457845,7476.080014
20573.784442,-4515.256246,-2528.115143,9622.677246
20573.784766,-4737.318029,-3370.820191,11917.315666
20573.785089,-4293.194464,-3983.696590,11103.089130
20573.785412,-4219.173869,-3064.381992,10807.006753
20573.785735,-3404.947333,-3064.381992,8882.471304
20573.786059,-1184.329507,-2604.724693,6587.832884
20573.786382,1628.453072,-995.924147,6587.832884
20573.786705,2960.823768,1302.362347,8808.450710
20573.787028,3849.070898,3447.429741,9844.739029
20573.787352,4145.153275,2757.943793,8734.430116
20573.787675,2294.638420,306.438199,9030.512492
20573.787998,-888.247130,-2298.286494,9030.512492
20573.788321,-1184.329507,-2681.334243,10436.903782
20573.788645,-370.102971,-3753.867940,13397.727550
20573.788968,-1332.370696,-3907.087040,13767.830521
20573.789291,-1184.329507,-3447.429741,11695.253884
20573.789614,-1998.556043,-3983.696590,9474.636058
20573.789938,-518.144159,-3830.477490,8586.388927
20573.790261,1480.411884,-766.095498,7105.977043
20573.790584,2590.720797,842.705048,7698.141797
20573.790907,2294.638420,1455.581446,8882.471304
20573.791231,1480.411884,2451.505594,7772.162391
20573.791554,-148.041188,1302.362347,6809.894666
20573.791877,-2072.576638,-1302.362347,7698.141797
20573.792200,-3330.926739,-2604.724693,8660.409521
20573.792524,-2886.803174,-3447.429741,10288.862594
20573.792847,-3256.906145,-3983.696590,11991.336260
20573.793170,-3182.885551,-3447.429741,12213.398043
20573.793493,-3627.009116,-2757.943793,10955.047942
20573.793817,-2960.823768,-2451.505594,8142.265362
20573.794140,0.000000,-1762.019645,7105.977043
20573.794463,3108.864956,612.876398,6883.915261
20573.794786,2590.720797,3294.210641,8216.285956
20573.795110,2146.597232,2987.772442,8512.368333
20573.795433,740.205942,2374.896044,7772.162391
20573.795756,-888.247130,1302.362347,8882.471304
20573.796079,-1480.411884,-153.219100,9622.677246
20573.796403,-740.205942,-1302.362347,9844.739029
20573.796726,-296.082377,-1532.190996,10732.986159
20573.797049,-1258.350101,-842.705048,12065.356855
20573.797372,-814.226536,383.047749,10658.965565
20573.797696,444.123565,306.438199,8438.347739
20573.798019,1924.535449,0.000000,5329.482782
20573.798342,3478.967927,1762.019645,4737.318029
20573.798665,3108.864956,3753.867940,7920.203579
20573.798989,2812.782580,4903.011187,9918.759623
20573.799312,2072.576638,4213.525239,8956.491898
20573.799635,74.020594,1608.800546,7994.224174
20573.799958,-2886.803174,-1608.800546,7772.162391
20573.800282,-3478.967927,-2604.724693,9548.656652
20573.800605,-3404.947333,-2681.334243,12213.398043
20573.800928,-3034.844362,-2298.286494,13175.665768
20573.801251,-3108.864956,-1838.629195,11029.068536
20573.801575,-3182.885551,-1608.800546,7402.059420
20573.801898,-1702.473667,-3217.601092,6069.688724
20573.802221,148.041188,-1302.362347,6439.791695
20573.802544,1480.411884,1608.800546,7772.162391
20573.802868,1998.556043,2911.162892,9400.615463
20573.803191,2146.597232,2451.505594,8956.491898
20573.803514,1184.329507,612.876398,8364.327145
20573.803837,-666.185348,-995.924147,8808.450710
20573.804161,-888.247130,-2757.943793,10066.800811
20573.804484,-296.082377,-2757.943793,11695.253884
20573.804807,0.000000,-3140.991542,13545.768739
20573.805130,1110.308913,-2604.724693,11917.315666
20573.805454,296.082377,-2834.553343,9474.636058
20573.805777,0.000000,-2528.115143,8216.285956
20573.806100,2442.679609,-1302.362347,6809.894666
20573.806423,4441.235652,1225.752797,7846.182985
20573.806747,3701.029710,1685.410096,8734.430116
20573.807070,1998.556043,2681.334243,8364.327145
20573.807393,-444.123565,536.266849,7920.203579
20573.807716,-3034.844362,-2221.676944,8512.368333
20573.808040,-4367.215058,-3753.867940,8586.388927
20573.808363,-4071.132681,-4826.401637,9474.636058
20573.808686,-4293.194464,-3907.087040,11547.212695
20573.809009,-3404.947333,-3600.648841,12065.356855
20573.809333,-2886.803174,-2987.772442,10288.862594
20573.809656,-2516.700203,-3217.601092,7624.121203
20573.809979,-370.102971,-2451.505594,5551.544565
20573.810302,2590.720797,536.266849,7105.977043
20573.810626,3404.947333,2298.286494,9030.512492
20573.810949,3627.009116,3217.601092,9474.636058
20573.811272,2886.803174,2528.115143,9178.553681
20573.811595,0.000000,842.705048,9622.677246
20573.811919,-1036.288319,-842.705048,9326.594869
20573.812242,-1184.329507,-2911.162892,10288.862594
20573.812565,-1258.350101,-3907.087040,12805.562797
20573.812888,-2072.576638,-2681.334243,13323.706956
20573.813212,-2368.659014,-1072.533697,11177.109724
20573.813535,-2886.803174,-2221.676944,8512.368333
20573.813858,-1924.535449,-1225.752797,6069.688724
20573.814181,296.082377,76.609550,5847.626942
20573.814505,1036.288319,2451.505594,8364.327145
20573.814828,222.061783,3370.820191,9474.636058
20573.815151,-370.102971,3524.039291,8438.347739
20573.815474,-1702.473667,1838.629195,7476.080014
20573.815798,-2590.720797,-459.657299,7179.997637
20573.816121,-2368.659014,-1302.362347,8364.327145
20573.816444,-2294.638420,-1455.581446,10807.006753
20573.816767,-1628.453072,-689.485948,11769.274478
20573.817091,222.061783,153.219100,10362.883188
20573.817414,666.185348,459.657299,8882.471304
20573.817737,1406.391290,153.219100,6587.832884
20573.818060,4071.132681,1685.410096,5625.565159
20573.818384,6217.729913,3830.477490,7550.100608
20573.818707,4885.359217,5056.230287,9696.697840
20573.819030,2886.803174,4826.401637,9400.615463
20573.819353,666.185348,2221.676944,7105.977043
20573.819677,-1998.556043,-689.485948,8290.306550
20573.820000,-3701.029710,-2374.896044,9178.553681
20573.820323,-4737.318029,-2987.772442,11103.089130
20573.820646,-4071.132681,-4060.306139,12213.398043
20573.820970,-3997.112087,-4060.306139,10955.047942
20573.821293,-4367.215058,-3677.258390,9474.636058
20573.821616,-3997.112087,-3064.381992,7698.141797
20573.821939,-1332.370696,-2221.676944,6809.894666
20573.822263,2220.617826,0.000000,7772.162391
20573.822586,2886.803174,1608.800546,9696.697840
20573.822909,2368.659014,2068.457845,9104.533087
20573.823232,1776.494261,0.000000,8660.409521
20573.823556,666.185348,-1838.629195,8364.327145
20573.823879,-592.164754,-2987.772442,9474.636058
20573.824202,-740.205942,-3677.258390,11251.130318
20573.824525,-518.144159,-3294.210641,13175.665768
20573.824849,296.082377,-2451.505594,13249.686362
20573.825172,518.144159,-2604.724693,10436.903782
20573.825495,222.061783,-3447.429741,7920.203579
20573.825818,1110.308913,-2834.553343,6661.853478
20573.826142,3330.926739,0.000000,7846.182985
20573.826465,4367.215058,1378.971896,9474.636058
20573.826788,2072.576638,2298.286494,9474.636058
20573.827111,592.164754,1225.752797,8364.327145
20573.827435,-1258.350101,-766.095498,7846.182985
20573.827758,-3330.926739,-3294.210641,7698.141797
20573.828081,-3256.906145,-3524.039291,9918.759623
20573.828404,-3404.947333,-3600.648841,11251.130318
20573.828728,-3923.091493,-3370.820191,11695.253884
20573.829051,-4293.194464,-3064.381992,11177.109724
20573.829374,-3627.009116,-2834.553343,9030.512492
20573.829697,-1850.514855,-2451.505594,6661.853478
20573.830021,444.123565,-306.438199,6735.874072
20573.830344,2072.576638,2298.286494,9326.594869
20573.830667,1332.370696,3370.820191,8586.388927
20573.830990,1036.288319,3140.991542,8956.491898
20573.831314,0.000000,1149.143247,7994.224174
20573.831637,-2146.597232,0.000000,8142.265362
20573.831960,-2072.576638,-1225.752797,8734.430116
20573.832283,-1332.370696,-1149.143247,11621.233289
20573.832607,-1258.350101,-383.047749,12287.418637
20573.832930,-814.226536,0.000000,9474.636058
20573.833253,-1110.308913,-536.266849,7698.141797
20573.833576,296.082377,76.609550,7254.018232
20573.833900,2590.720797,2604.724693,6439.791695
20573.834223,5329.482782,4060.306139,7328.038826
20573.834546,5329.482782,4443.353888,8734.430116
20573.834869,2664.741391,5209.449386,8512.368333
20573.835193,1184.329507,3753.867940,7994.224174
20573.835516,0.000000,1072.533697,7846.182985
20573.835839,-1480.411884,-1532.190996,8364.327145
20573.836162,-1924.535449,-1915.238745,10658.965565
20573.836486,-2960.823768,-1685.410096,12583.501014
20573.836809,-2886.803174,-1685.410096,12213.398043
20573.837132,-2368.659014,-995.924147,9918.759623
20573.837455,-2146.597232,-1685.410096,7254.018232
20573.837779,-1184.329507,-1225.752797,6069.688724
20573.838102,1702.473667,919.314598,6513.812290
20573.838425,2294.638420,2681.334243,8142.265362
20573.838748,666.185348,3370.820191,9252.574275
20573.839072,-444.123565,2374.896044,8216.285956
20573.839395,-1480.411884,-229.828649,7920.203579
20573.839718,-2146.597232,-2757.943793,8142.265362
20573.840041,-1480.411884,-3064.381992,10066.800811
20573.840364,-1702.473667,-3064.381992,13841.851115
20573.840688,-1628.453072,-3370.820191,13175.665768
20573.841011,-296.082377,-3294.210641,10510.924376
20573.841334,296.082377,-3753.867940,8882.471304
20573.841657,740.205942,-2298.286494,7624.121203
20573.841981,2812.782580,-459.657299,7254.018232
20573.842304,4959.379811,995.924147,9474.636058
20573.842627,3775.050304,2145.067394,10140.821405
20573.842950,1702.473667,1685.410096,8364.327145
20573.843274,-592.164754,-842.705048,7846.182985
20573.843597,-2664.741391,-3677.258390,7994.224174
20573.843920,-3552.988522,-4290.134789,9548.656652
20573.844243,-4071.132681,-4596.572988,11177.109724
20573.844567,-5033.400406,-4060.306139,12435.459826
20573.844890,-3997.112087,-4290.134789,10362.883188
20573.845213,-4219.173869,-4519.963438,8216.285956
20573.845536,-3923.091493,-3983.696590,7476.080014
20573.845860,-666.185348,-1915.238745,7179.997637
20573.846183,2072.576638,536.266849,8364.327145
20573.846506,2442.679609,1762.019645,9548.656652
20573.846829,1776.494261,2298.286494,8586.388927
20573.847153,1258.350101,919.314598,7698.141797
20573.847476,-740.205942,-1455.581446,8216.285956
20573.847799,-1776.494261,-2298.286494,9696.697840
20573.848122,-1258.350101,-2221.676944,11917.315666
20573.848446,-1258.350101,-2528.115143,12657.521608
20573.848769,-814.226536,-2145.067394,11399.171507
20573.849092,-592.164754,-1915.238745,10362.883188
20573.849415,-370.102971,-1225.752797,8660.409521
20573.849739,1036.288319,306.438199,6439.791695
20573.850062,3034.844362,1991.848295,6513.812290
20573.850385,3552.988522,3447.429741,8216.285956
20573.850708,1924.535449,4136.915689,8734.430116
20573.851032,0.000000,3600.648841,7994.224174
20573.851355,-1480.411884,229.828649,8290.306550
20573.851678,-2738.761985,-1915.238745,8364.327145
20573.852001,-2442.679609,-2298.286494,9474.636058
20573.852325,-2516.700203,-2068.457845,12213.398043
20573.852648,-2368.659014,-1838.629195,11843.295072
20573.852971,-592.164754,-995.924147,9770.718434
20573.853294,370.102971,0.000000,8512.368333
20573.853618,1406.391290,229.828649,6365.771101
20573.853941,4145.153275,2834.553343,5699.585753
20573.854264,5699.585753,3830.477490,9178.553681
20573.854587,3849.070898,5209.449386,10288.862594
20573.854911,1850.514855,4826.401637,8808.450710
20573.855234,222.061783,1149.143247,7031.956449
20573.855557,-1924.535449,-1685.410096,8216.285956
20573.855880,-3182.885551,-2528.115143,10066.800811
20573.856204,-3552.988522,-1915.238745,12065.356855
20573.856527,-3775.050304,-2374.896044,11991.336260
20573.856850,-3404.947333,-2834.553343,10807.006753
20573.857173,-2812.782580,-1991.848295,7846.182985
20573.857497,-2294.638420,-1915.238745,5699.585753
20573.857820,666.185348,-689.485948,5477.523971
20573.858143,3404.947333,1991.848295,8216.285956
20573.858466,3923.091493,3677.258390,9696.697840
20573.858790,2220.617826,3064.381992,8438.347739
20573.859113,370.102971,1149.143247,8512.368333
20573.859436,-592.164754,-1149.143247,9030.512492
20573.859759,-1702.473667,-2528.115143,10288.862594
20573.860083,-2072.576638,-3753.867940,12065.356855
20573.860406,-2368.659014,-3217.601092,13915.871710
20573.860729,-1850.514855,-2528.115143,12657.521608
20573.861052,-1480.411884,-3677.258390,10066.800811
20573.861376,-1406.391290,-4366.744339,7328.038826
20573.861699,0.000000,-2068.457845,6513.812290
20573.862022,1332.370696,689.485948,8142.265362
20573.862345,2516.700203,2451.505594,9622.677246
20573.862669,2146.597232,2451.505594,8512.368333
20573.862992,888.247130,383.047749,7698.141797
20573.863315,-1258.350101,-1149.143247,7994.224174
20573.863638,-1110.308913,-2068.457845,7846.182985
20573.863962,-444.123565,-2528.115143,10732.986159
20573.864285,-1184.329507,-2528.115143,12361.439231
20573.864608,-1554.432478,-1762.019645,11695.253884
20573.864931,-666.185348,-1991.848295,9622.677246
20573.865255,370.102971,-2451.505594,7254.018232
20573.865578,1184.329507,-919.314598,7105.977043
20573.865901,2442.679609,1149.143247,8586.388927
20573.866224,2590.720797,2451.505594,10288.862594
20573.866548,1998.556043,1991.848295,9178.553681
20573.866871,-1258.350101,919.314598,7624.121203
20573.867194,-4293.194464,-1149.143247,7698.141797
20573.867517,-4737.318029,-2911.162892,8068.244768
20573.867841,-4219.173869,-2834.553343,9474.636058
20573.868164,-3552.988522,-2757.943793,11103.089130
20573.868487,-4071.132681,-2298.286494,10955.047942
20573.868810,-3701.029710,-1762.019645,9918.759623
20573.869134,-2220.617826,-1762.019645,8290.306550
20573.869457,74.020594,-842.705048,6883.915261
20573.869780,2886.803174,842.705048,7031.956449
20573.870103,4441.235652,3447.429741,8586.388927
20573.870427,4885.359217,4136.915689,9326.594869
20573.870750,3627.009116,3294.210641,9252.574275
20573.871073,1554.432478,842.705048,8808.450710
20573.871396,666.185348,-383.047749,9178.553681
20573.871720,592.164754,-1685.410096,10436.903782
20573.872043,-962.267725,-2298.286494,12287.418637
20573.872366,-2368.659014,-2604.724693,12731.542202
20573.872689,-1850.514855,-2145.067394,11029.068536
20573.873013,-2368.659014,-2298.286494,8956.491898
20573.873336,-1776.494261,-1838.629195,6069.688724
20573.873659,-740.205942,-536.266849,5847.626942
20573.873982,888.247130,1532.190996,7179.997637
20573.874306,592.164754,2987.772442,8734.430116
20573.874629,444.123565,3294.210641,8068.244768
20573.874952,-666.185348,1378.971896,7105.977043
20573.875275,-2442.679609,-1685.410096,8142.265362
20573.875599,-2368.659014,-2451.505594,8142.265362
20573.875922,-2072.576638,-3217.601092,10510.924376
20573.876245,-2664.741391,-2757.943793,13323.706956
20573.876568,-1406.391290,-1838.629195,12139.377449
20573.876892,518.144159,-1532.190996,9622.677246
20573.877215,1998.556043,-1685.410096,8142.265362
20573.877538,3108.864956,76.609550,7550.100608
20573.877861,4589.276840,2834.553343,8660.409521
20573.878185,5033.400406,3140.991542,9178.553681
20573.878508,4219.173869,4213.525239,8808.450710
20573.878831,1628.453072,2757.943793,8142.265362
20573.879154,-1332.370696,-306.438199,7328.038826
20573.879478,-2220.617826,-2757.943793,7920.203579
20573.879801,-2516.700203,-3064.381992,10807.006753
20573.880124,-3701.029710,-2757.943793,11917.315666
20573.880447,-4589.276840,-2987.772442,11399.171507
20573.880771,-3330.926739,-3140.991542,9030.512492
20573.881094,-2516.700203,-2451.505594,8142.265362
20573.881417,-1184.329507,-1455.581446,7476.080014
20573.881740,1702.473667,842.705048,7105.977043
20573.882064,2590.720797,2681.334243,9252.574275
20573.882387,3034.844362,3217.601092,9252.574275
20573.882710,1628.453072,2528.115143,8438.347739
20573.883033,-814.226536,536.266849,8512.368333
20573.883357,-2294.638420,-995.924147,8438.347739
20573.883680,-1998.556043,-1455.581446,9030.512492
20573.884003,-1998.556043,-2834.553343,10066.800811
20573.884326,-2368.659014,-2604.724693,11399.171507
20573.884649,-2960.823768,-1838.629195,10362.883188
20573.884973,-2442.679609,-2221.676944,9178.553681
20573.885296,-888.247130,-2298.286494,7920.203579
20573.885619,1036.288319,-612.876398,6957.935855
20573.885942,2368.659014,919.314598,8290.306550
20573.886265,1924.535449,1762.019645,9548.656652
20573.886589,2220.617826,2298.286494,9474.636058
20573.886912,0.000000,689.485948,8068.244768
20573.887235,-1776.494261,-1532.190996,8290.306550
20573.887558,-1036.288319,-2451.505594,9178.553681
20573.887881,-962.267725,-2451.505594,10881.027347
20573.888205,-1702.473667,-2145.067394,12213.398043
20573.888528,-1332.370696,-1991.848295,11177.109724
20573.888851,-518.144159,-1149.143247,9178.553681
20573.889174,222.061783,-1149.143247,7105.977043
20573.889497,2072.576638,-536.266849,5995.668130
20573.889821,2812.782580,1762.019645,7698.141797
20573.890144,2368.659014,2451.505594,9474.636058
20573.890467,1332.370696,2757.943793,9178.553681
20573.890790,-370.102971,1149.143247,8142.265362
20573.891113,-2368.659014,-2221.676944,8734.430116
20573.891437,-2294.638420,-3064.381992,8734.430116
20573.891760,-2146.597232,-2221.676944,10436.903782
20573.892083,-2812.782580,-1838.629195,12805.562797
20573.892406,-2368.659014,-919.314598,11843.295072
20573.892729,-1332.370696,-919.314598,9030.512492
20573.893053,-814.226536,-1302.362347,7179.997637
20573.893376,888.247130,-383.047749,5995.668130
20573.893699,2368.659014,1608.800546,7179.997637
20573.894022,2812.782580,2757.943793,10288.862594
20573.894346,1406.391290,3370.820191,8882.471304
20573.894669,444.123565,2145.067394,8512.368333
20573.894992,-1776.494261,-689.485948,8068.244768
20573.895315,-3849.070898,-2068.457845,8216.285956
20573.895638,-2590.720797,-2528.115143,9696.697840
20573.895962,-1998.556043,-2145.067394,11695.253884
20573.896285,-2960.823768,-1608.800546,11621.233289
20573.896608,-2368.659014,-1302.362347,9400.615463
20573.896931,-2368.659014,-1685.410096,6957.935855
20573.897254,-740.205942,-1302.362347,6143.709319
20573.897578,1480.411884,842.705048,7105.977043
20573.897901,2072.576638,1915.238745,9104.533087
20573.898224,1480.411884,1991.848295,10584.944971
20573.898547,1998.556043,1225.752797,8808.450710
20573.898870,-148.041188,0.000000,9400.615463
20573.899194,-2072.576638,-2451.505594,9252.574275
20573.899517,-1702.473667,-3600.648841,9252.574275
20573.899840,0.000000,-3524.039291,11621.233289
20573.900163,-148.041188,-2374.896044,12953.603985
20573.900486,222.061783,-383.047749,10584.944971
20573.900810,370.102971,-1608.800546,8734.430116
20573.901133,1850.514855,-1455.581446,7328.038826
20573.901456,3923.091493,383.047749,7031.956449
20573.901779,4441.235652,1838.629195,9252.574275
20573.902102,2886.803174,2451.505594,10436.903782
20573.902426,1850.514855,2145.067394,9104.533087
20573.902749,0.000000,-459.657299,8586.388927
20573.903072,-3034.844362,-2681.334243,8586.388927
20573.903395,-3330.926739,-3140.991542,9474.636058
20573.903718,-2664.741391,-3600.648841,10955.047942
20573.904042,-3552.988522,-3140.991542,11547.212695
20573.904365,-3108.864956,-2757.943793,10658.965565
20573.904688,-2590.720797,-2068.457845,8142.265362
20573.905011,-1480.411884,-1838.629195,6439.791695
20573.905335,962.267725,153.219100,6365.771101
20573.905658,3478.967927,2604.724693,7402.059420
20573.905981,2664.741391,3447.429741,9474.636058
20573.906304,1850.514855,3447.429741,9252.574275
20573.906627,1480.411884,1762.019645,8290.306550
20573.906951,-1184.329507,-459.657299,8586.388927
20573.907274,-2072.576638,-2145.067394,8956.491898
20573.907597,-1184.329507,-2604.724693,10214.842000
20573.907920,-1184.329507,-2528.115143,11769.274478
20573.908243,-1258.350101,-1225.752797,11991.336260
20573.908567,-1628.453072,-612.876398,9474.636058
20573.908890,-1036.288319,-995.924147,7698.141797
20573.909213,888.247130,-306.438199,6365.771101
20573.909536,3034.844362,2145.067394,7328.038826
20573.909859,2738.761985,3753.867940,9622.677246
20573.910183,1554.432478,3753.867940,9252.574275
20573.910506,370.102971,2298.286494,7994.224174
20573.910829,-888.247130,-612.876398,8216.285956
20573.911152,-4071.132681,-2451.505594,8734.430116
20573.911475,-4071.132681,-3294.210641,9918.759623
20573.911799,-4219.173869,-3294.210641,11695.253884
20573.912122,-4071.132681,-3217.601092,11843.295072
20573.912445,-2368.659014,-2221.676944,10140.821405
20573.912768,-2072.576638,-1915.238745,8142.265362
20573.913091,0.000000,-1302.362347,6587.832884
20573.913415,2812.782580,689.485948,6661.853478
20573.913738,4219.173869,2681.334243,8734.430116
20573.914061,3849.070898,3907.087040,9252.574275
20573.914384,3701.029710,3753.867940,8068.244768
20573.914707,2442.679609,1072.533697,8216.285956
20573.915031,222.061783,-1608.800546,9030.512492
20573.915354,-222.061783,-3217.601092,8586.388927
20573.915677,-222.061783,-3064.381992,11695.253884
20573.916000,-1702.473667,-3064.381992,13619.789333
20573.916324,-2590.720797,-2451.505594,11917.315666
20573.916647,-2072.576638,-3294.210641,8956.491898
20573.916970,-1184.329507,-3294.210641,8068.244768
20573.917293,1258.350101,-1762.019645,7031.956449
20573.917616,1776.494261,689.485948,7846.182985
20573.917940,888.247130,2068.457845,8586.388927
20573.918263,0.000000,2451.505594,9178.553681
20573.918586,-888.247130,459.657299,8068.244768
20573.918909,-3034.844362,-2451.505594,7846.182985
20573.919232,-3701.029710,-3753.867940,9474.636058
20573.919556,-3330.926739,-3370.820191,10584.944971
20573.919879,-3775.050304,-2757.943793,11991.336260
20573.920202,-2738.761985,-3064.381992,11251.130318
20573.920525,-1184.329507,-1991.848295,8956.491898
20573.920848,-740.205942,-1532.190996,7698.141797
20573.921172,592.164754,-76.609550,6957.935855
20573.921495,3478.967927,1762.019645,7328.038826
20573.921818,3849.070898,2834.553343,8882.471304
20573.922141,1554.432478,3983.696590,8956.491898
20573.922464,888.247130,2604.724693,8142.265362
20573.922788,-888.247130,-459.657299,8068.244768
20573.923111,-2368.659014,-2834.553343,8734.430116
20573.923434,-3256.906145,-2834.553343,9548.656652
20573.923757,-3108.864956,-2681.334243,11621.233289
20573.924080,-2368.659014,-2911.162892,10362.883188
20573.924404,-1554.432478,-1225.752797,9252.574275
20573.924727,-1258.350101,-1378.971896,8438.347739
20573.925050,296.082377,-153.219100,7105.977043
20573.925373,2738.761985,1378.971896,6883.915261
20573.925696,4219.173869,2987.772442,9474.636058
20573.926020,2960.823768,3907.087040,9992.780217
20573.926343,2294.638420,2604.724693,9696.697840
20573.926666,1406.391290,229.828649,9252.574275
20573.926989,0.000000,-842.705048,9252.574275
20573.927313,-1480.411884,-995.924147,9326.594869
20573.927636,-2368.659014,-2068.457845,10362.883188
20573.927959,-2294.638420,-2451.505594,10955.047942
20573.928282,-1628.453072,-1608.800546,10288.862594
20573.928605,-2146.597232,-995.924147,9178.553681
20573.928929,-1554.432478,-612.876398,7476.080014
20573.929252,1258.350101,153.219100,7105.977043
20573.929575,1998.556043,2145.067394,8660.409521
20573.929898,1554.432478,2911.162892,9326.594869
20573.930221,1628.453072,3064.381992,8808.450710
20573.930545,1036.288319,1302.362347,8142.265362
20573.930868,-962.267725,-766.095498,8586.388927
20573.931191,-1998.556043,-1991.848295,8216.285956
20573.931514,-1702.473667,-2068.457845,9918.759623
20573.931837,-1702.473667,-2451.505594,11769.274478
20573.932161,-1406.391290,-2221.676944,10658.965565
20573.932484,-1406.391290,-1915.238745,9474.636058
20573.932807,-888.247130,-2374.896044,7994.224174
20573.933130,1776.494261,-459.657299,6809.894666
20573.933453,3552.988522,1608.800546,8290.306550
20573.933777,3034.844362,2451.505594,9622.677246
20573.934100,1776.494261,3294.210641,8586.388927
20573.934423,1184.329507,1762.019645,7624.121203
20573.934746,-1184.329507,-1378.971896,7624.121203
20573.935069,-2442.679609,-3217.601092,8512.368333
20573.935393,-3330.926739,-3140.991542,10362.883188
20573.935716,-3552.988522,-3370.820191,11991.336260
20573.936039,-2812.782580,-3370.820191,11177.109724
20573.936362,-1776.494261,-3064.381992,9992.780217
20573.936685,-2072.576638,-3524.039291,8364.327145
20573.937009,-666.185348,-1838.629195,7772.162391
20573.937332,2886.803174,612.876398,8586.388927
20573.937655,3552.988522,2374.896044,9548.656652
20573.937978,2590.720797,2604.724693,9252.574275
20573.938301,1184.329507,2374.896044,8882.471304
20573.938625,740.205942,0.000000,8808.450710
20573.938948,-814.226536,-1455.581446,8882.471304
20573.939271,-1554.432478,-2604.724693,9474.636058
20573.939594,-2812.782580,-2834.553343,11547.212695
20573.939918,-2368.659014,-2604.724693,12213.398043
20573.940241,-2368.659014,-2221.676944,10140.821405
20573.940564,-2368.659014,-1532.190996,8216.285956
20573.940887,-740.205942,-2221.676944,7328.038826
20573.941210,2294.638420,306.438199,6661.853478
20573.941534,2960.823768,2451.505594,7698.141797
20573.941857,1850.514855,3217.601092,9770.718434
20573.942180,222.061783,2757.943793,9178.553681
20573.942503,-1110.308913,459.657299,7698.141797
20573.942826,-2442.679609,-2068.457845,7772.162391
20573.943150,-2960.823768,-3140.991542,9400.615463
20573.943473,-3849.070898,-3677.258390,11621.233289
20573.943796,-3478.967927,-2911.162892,12287.418637
20573.944119,-2812.782580,-3294.210641,10807.006753
20573.944442,-2738.761985,-2451.505594,8586.388927
20573.944766,-1628.453072,-1915.238745,6587.832884
20573.945089,1554.432478,459.657299,7105.977043
20573.945412,4145.153275,3294.210641,8438.347739
20573.945735,4737.318029,5056.230287,9400.615463
20573.946058,3923.091493,4673.182538,8734.430116
20573.946382,1628.453072,2451.505594,8882.471304
20573.946705,-518.144159,-229.828649,8586.388927
20573.947028,-962.267725,-1915.238745,8586.388927
20573.947351,-1258.350101,-2681.334243,11251.130318
20573.947674,-2368.659014,-3294.210641,11769.274478
20573.947998,-1036.288319,-2298.286494,10807.006753
20573.948321,-1480.411884,-1685.410096,9770.718434
20573.948644,-1998.556043,-1532.190996,8586.388927
20573.948967,-296.082377,-306.438199,6957.935855
20573.949290,2590.720797,919.314598,6809.894666
20573.949614,2886.803174,2604.724693,9326.594869
20573.949937,2146.597232,4290.134789,9326.594869
20573.950260,888.247130,2451.505594,8364.327145
20573.950583,-888.247130,-612.876398,7994.224174
20573.950907,-2368.659014,-2145.067394,7920.203579
20573.951230,-2368.659014,-2987.772442,9474.636058
20573.951553,-3256.906145,-3140.991542,11473.192101
20573.951876,-2886.803174,-3064.381992,11991.336260
20573.952199,-1998.556043,-2298.286494,10362.883188
20573.952523,-740.205942,-1991.848295,8956.491898
20573.952846,888.247130,-1991.848295,6513.812290
20573.953169,3108.864956,919.314598,6809.894666
20573.953492,4145.153275,2451.505594,9696.697840
20573.953815,2960.823768,3524.039291,9918.759623
20573.954139,2220.617826,2834.553343,8438.347739
20573.954462,888.247130,383.047749,8438.347739
20573.954785,-666.185348,-2221.676944,8586.388927
20573.955108,-444.123565,-2834.553343,9178.553681
20573.955431,-1924.535449,-2911.162892,11251.130318
20573.955755,-2886.803174,-2528.115143,12805.562797
20573.956078,-2738.761985,-2298.286494,10955.047942
20573.956401,-2220.617826,-2757.943793,8290.306550
20573.956724,-1258.350101,-2834.553343,6883.915261
20573.957047,518.144159,-383.047749,6957.935855
20573.957371,2886.803174,2221.676944,8586.388927
20573.957694,3552.988522,3600.648841,10066.800811
20573.958017,1184.329507,2681.334243,8512.368333
20573.958340,-962.267725,612.876398,7105.977043
20573.958663,-2886.803174,-1915.238745,7772.162391
20573.958987,-3404.947333,-2987.772442,9548.656652
20573.959310,-3330.926739,-2834.553343,10362.883188
20573.959633,-3923.091493,-3677.258390,11547.212695
20573.959956,-3997.112087,-3217.601092,10362.883188
20573.960279,-3701.029710,-2681.334243,9474.636058
20573.960603,-2368.659014,-2451.505594,7402.059420
20573.960926,1258.350101,-1225.752797,6957.935855
20573.961249,4219.173869,995.924147,8216.285956
20573.961572,5107.421000,4213.525239,9992.780217
20573.961896,5403.503377,4826.401637,9992.780217
20573.962219,5033.400406,3677.258390,9326.594869
20573.962542,3108.864956,1072.533697,9400.615463
20573.962865,1480.411884,-1149.143247,9474.636058
20573.963188,0.000000,-2221.676944,10436.903782
20573.963512,-1332.370696,-2604.724693,12361.439231
20573.963835,-2072.576638,-2834.553343,12287.418637
20573.964158,-1776.494261,-1838.629195,9696.697840
20573.964481,-2220.617826,-1991.848295,7846.182985
20573.964804,-1480.411884,-1149.143247,6069.688724
20573.965128,296.082377,995.924147,7476.080014
20573.965451,962.267725,2451.505594,8808.450710
20573.965774,0.000000,2528.115143,8290.306550
20573.966097,-2146.597232,2374.896044,8216.285956
20573.966420,-2812.782580,612.876398,7328.038826
20573.966744,-2886.803174,-689.485948,7031.956449
20573.967067,-2812.782580,-1838.629195,9252.574275
20573.967390,-3478.967927,-2221.676944,10288.862594
20573.967713,-3849.070898,-1915.238745,11029.068536
20573.968036,-2442.679609,-1915.238745,10066.800811
20573.968360,-1702.473667,-1838.629195,8142.265362
20573.968683,-666.185348,-842.705048,6587.832884
20573.969006,1776.494261,612.876398,7920.203579
20573.969329,3701.029710,3294.210641,9918.759623
20573.969652,4145.153275,4290.134789,9696.697840
20573.969976,3849.070898,3677.258390,8660.409521
20573.970299,1110.308913,1838.629195,8586.388927
20573.970622,-814.226536,-306.438199,8586.388927
20573.970945,-592.164754,-1608.800546,8808.450710
20573.971268,-1184.329507,-2681.334243,10955.047942
20573.971592,-3330.926739,-2757.943793,12213.398043
20573.971915,-3627.009116,-2298.286494,11029.068536
20573.972238,-2516.700203,-3830.477490,9178.553681
20573.972561,-1924.535449,-3524.039291,7920.203579
20573.972885,0.000000,-1991.848295,7624.121203
20573.973208,1554.432478,459.657299,8734.430116
20573.973531,2738.761985,2757.943793,10510.924376
20573.973854,3478.967927,3753.867940,9326.594869
20573.974177,2368.659014,2068.457845,7698.141797
20573.974501,-518.144159,-919.314598,5995.668130
20573.974824,-962.267725,-1991.848295,7994.224174
20573.975147,-666.185348,-1915.238745,10584.944971
20573.975470,-1776.494261,-2451.505594,11325.150913
20573.975793,-2516.700203,-3600.648841,10214.842000
20573.976117,-2072.576638,-2834.553343,10288.862594
20573.976440,-1110.308913,-2451.505594,9326.594869
20573.976763,666.185348,-2528.115143,7402.059420
20573.977086,2368.659014,-612.876398,8290.306550
20573.977409,3108.864956,1608.800546,9696.697840
20573.977733,3330.926739,3140.991542,9474.636058
20573.978056,2368.659014,1685.410096,8438.347739
20573.978379,-296.082377,-306.438199,8512.368333
20573.978702,-444.123565,-1072.533697,9178.553681
20573.979025,-222.061783,-1991.848295,9992.780217
20573.979349,-1480.411884,-2987.772442,11769.274478
20573.979672,-2368.659014,-2911.162892,11547.212695
20573.979995,-2886.803174,-2987.772442,9918.759623
20573.980318,-2590.720797,-2911.162892,8364.327145
20573.980641,-1036.288319,-2145.067394,7328.038826
20573.980965,592.164754,76.609550,7624.121203
20573.981288,1406.391290,2145.067394,9474.636058
20573.981611,1554.432478,3140.991542,9474.636058
20573.981934,1110.308913,2451.505594,8586.388927
20573.982257,-1258.350101,306.438199,7846.182985
20573.982581,-2368.659014,-1532.190996,7550.100608
20573.982904,-1184.329507,-1838.629195,8808.450710
20573.983227,-1924.535449,-1685.410096,11399.171507
20573.983550,-2516.700203,-2221.676944,11399.171507
20573.983874,-2072.576638,-1762.019645,9844.739029
20573.984197,-2294.638420,-2221.676944,8438.347739
20573.984520,-1110.308913,-1608.800546,6587.832884
20573.984843,592.164754,612.876398,7105.977043
20573.985166,2294.638420,2298.286494,9104.533087
20573.985490,3330.926739,3600.648841,9030.512492
20573.985813,2368.659014,3064.381992,8586.388927
20573.986136,518.144159,1762.019645,7772.162391
20573.986459,-1702.473667,-383.047749,8142.265362
20573.986782,-1184.329507,-1991.848295,9252.574275
20573.987106,-888.247130,-2681.334243,10658.965565
20573.987429,-3108.864956,-2451.505594,12213.398043
20573.987752,-3034.844362,-2451.505594,11399.171507
20573.988075,-1480.411884,-2681.334243,9844.739029
20573.988398,-888.247130,-3064.381992,8734.430116
20573.988722,592.164754,-919.314598,7328.038826
20573.989045,1924.535449,1225.752797,8586.388927
20573.989368,2442.679609,2604.724693,10436.903782
20573.989691,2368.659014,3294.210641,9252.574275
20573.990015,1036.288319,1762.019645,7254.018232
20573.990338,-148.041188,-306.438199,7698.141797
20573.990661,-1332.370696,-2374.896044,9474.636058
20573.990984,-1924.535449,-2068.457845,11177.109724
20573.991307,-1628.453072,-2757.943793,11399.171507
20573.991631,-1924.535449,-2987.772442,11029.068536
20573.991954,-1924.535449,-2911.162892,9326.594869
20573.992277,-1184.329507,-1762.019645,7994.224174
20573.992600,1036.288319,-1072.533697,7105.977043
20573.992923,2590.720797,1302.362347,8734.430116
20573.993247,2886.803174,2911.162892,8956.491898
20573.993570,2294.638420,2834.553343,8068.244768
20573.993893,2072.576638,2145.067394,8216.285956
20573.994216,-296.082377,689.485948,8586.388927
20573.994539,-2146.597232,-995.924147,9178.553681
20573.994863,-2368.659014,-2528.115143,9030.512492
20573.995186,-2960.823768,-3753.867940,11103.089130
20573.995509,-3552.988522,-3370.820191,11325.150913
20573.995832,-4367.215058,-3447.429741,10140.821405
20573.996156,-4441.235652,-3830.477490,8808.450710
20573.996479,-2590.720797,-2911.162892,7328.038826
20573.996802,-222.061783,-612.876398,7846.182985
20573.997125,518.144159,1225.752797,8956.491898
20573.997448,666.185348,2298.286494,8956.491898
20573.997772,2590.720797,2451.505594,8586.388927
20573.998095,1332.370696,383.047749,8882.471304
20573.998418,-740.205942,-1149.143247,9030.512492
20573.998741,0.000000,-2221.676944,9030.512492
20573.999064,-222.061783,-2451.505594,10807.006753
20573.999388,-296.082377,-2451.505594,11843.295072
20573.999711,-592.164754,-2145.067394,10955.047942
20574.000034,0.000000,-2221.676944,9326.594869
20574.000357,222.061783,-2757.943793,8142.265362
20574.000680,1554.432478,-306.438199,7624.121203
20574.001004,2072.576638,1455.581446,9104.533087
20574.001327,1924.535449,2221.676944,9474.636058
20574.001650,2072.576638,2681.334243,8882.471304
20574.001973,740.205942,1685.410096,7846.182985
20574.002297,-1036.288319,-536.266849,8068.244768
20574.002620,-2146.597232,-2451.505594,8216.285956
20574.002943,-2294.638420,-2221.676944,9918.759623
20574.003266,-2368.659014,-2757.943793,11325.150913
20574.003589,-2960.823768,-2604.724693,10732.986159
20574.003913,-2812.782580,-2451.505594,9474.636058
20574.004236,-1554.432478,-2145.067394,8438.347739
20574.004559,0.000000,-1225.752797,7550.100608
20574.004882,1924.535449,612.876398,8364.327145
20574.005205,3034.844362,2298.286494,9474.636058
20574.005529,3478.967927,3830.477490,9400.615463
20574.005852,2442.679609,3064.381992,9326.594869
20574.006175,1184.329507,1225.752797,7994.224174
20574.006498,666.185348,-383.047749,7328.038826
20574.006821,592.164754,-1225.752797,9548.656652
20574.007145,-222.061783,-1991.848295,11843.295072
20574.007468,0.000000,-1762.019645,11177.109724
20574.007791,-1110.308913,-1532.190996,10584.944971
20574.008114,-1258.350101,-2528.115143,8290.306550
20574.008438,-888.247130,-2068.457845,6735.874072
20574.008761,0.000000,0.000000,7624.121203
20574.009084,592.164754,2604.724693,9252.574275
20574.009407,1480.411884,3447.429741,8956.491898
20574.009730,592.164754,1838.629195,7476.080014
20574.010054,-2368.659014,-383.047749,7179.997637
20574.010377,-3627.009116,-1225.752797,8216.285956
20574.010700,-2812.782580,-1149.143247,9474.636058
20574.011023,-2294.638420,-2145.067394,9844.739029
20574.011346,-1702.473667,-3370.820191,10214.842000
20574.011670,-2146.597232,-2221.676944,10881.027347
20574.011993,-1850.514855,-1225.752797,10066.800811
20574.012316,-296.082377,-1149.143247,8364.327145
20574.012639,1184.329507,-153.219100,7624.121203
20574.012962,1998.556043,1762.019645,8438.347739
20574.013286,3034.844362,3370.820191,9622.677246
20574.013609,2812.782580,3600.648841,9474.636058
20574.013932,888.247130,2834.553343,8364.327145
20574.014255,-1258.350101,0.000000,7772.162391
20574.014579,-2072.576638,-2221.676944,7550.100608
20574.014902,-3034.844362,-2834.553343,9844.739029
20574.015225,-3256.906145,-2987.772442,11473.192101
20574.015548,-3256.906145,-2987.772442,10584.944971
20574.015871,-4663.297435,-3600.648841,8734.430116
20574.016195,-3478.967927,-3064.381992,7476.080014
20574.016518,-296.082377,-1378.971896,6883.915261
20574.016841,1850.514855,383.047749,8734.430116
20574.017164,2812.782580,2681.334243,10510.924376
20574.017487,2886.803174,3370.820191,9992.780217
20574.017811,1776.494261,1762.019645,8956.491898
20574.018134,444.123565,0.000000,8364.327145
20574.018457,888.247130,-1149.143247,8586.388927
20574.018780,962.267725,-2451.505594,10807.006753
20574.019103,-1332.370696,-1915.238745,11843.295072
20574.019427,-1850.514855,-2145.067394,11547.212695
20574.019750,-2294.638420,-2451.505594,9918.759623
20574.020073,-3108.864956,-3064.381992,8068.244768
20574.020396,-2072.576638,-1915.238745,7402.059420
20574.020719,740.205942,0.000000,8142.265362
20574.021043,1406.391290,1225.752797,9178.553681
20574.021366,444.123565,2451.505594,8808.450710
20574.021689,-962.267725,2145.067394,7402.059420
20574.022012,-1480.411884,-76.609550,7254.018232
20574.022336,-1702.473667,-1915.238745,7550.100608
20574.022659,-1406.391290,-2374.896044,8808.450710
20574.022982,-1184.329507,-2757.943793,10881.027347
20574.023305,-1406.391290,-1838.629195,11325.150913
20574.023628,-1036.288319,-1149.143247,10658.965565
20574.023952,-814.226536,-2145.067394,8586.388927
20574.024275,592.164754,-1762.019645,7105.977043
20574.024598,2812.782580,0.000000,7846.182985
20574.024921,4293.194464,2374.896044,10288.862594
20574.025244,4441.235652,2987.772442,9770.718434
20574.025568,3478.967927,3140.991542,9178.553681
20574.025891,1628.453072,1302.362347,8586.388927
20574.026214,-296.082377,-1072.533697,8660.409521
20574.026537,-888.247130,-2221.676944,9474.636058
20574.026860,-1850.514855,-2834.553343,11325.150913
20574.027184,-2368.659014,-2374.896044,11843.295072
20574.027507,-3330.926739,-1915.238745,10584.944971
20574.027830,-3775.050304,-2451.505594,7846.182985
20574.028153,-3108.864956,-2834.553343,6143.709319
20574.028477,-1480.411884,-1608.800546,6365.771101
20574.028800,-370.102971,612.876398,8290.306550
20574.029123,148.041188,2451.505594,9918.759623
20574.029446,444.123565,2681.334243,9104.533087
20574.029769,148.041188,842.705048,8142.265362
20574.030093,-814.226536,-1072.533697,8216.285956
20574.030416,-740.205942,-1225.752797,8956.491898
20574.030739,0.000000,-1149.143247,10288.862594
20574.031062,0.000000,-1302.362347,11843.295072
20574.031385,0.000000,-1455.581446,10658.965565
20574.031709,-888.247130,-1302.362347,8142.265362
20574.032032,-1184.329507,-1685.410096,7179.997637
20574.032355,1036.288319,-229.828649,7254.018232
20574.032678,2886.803174,1302.362347,8956.491898
20574.033001,2960.823768,2757.943793,10436.903782
20574.033325,1406.391290,2604.724693,9622.677246
20574.033648,-148.041188,1455.581446,8734.430116
20574.033971,-1036.288319,-995.924147,7846.182985
20574.034294,-1554.432478,-1915.238745,8290.306550
20574.034618,-2072.576638,-2298.286494,9770.718434
20574.034941,-2960.823768,-2068.457845,11399.171507
20574.035264,-3108.864956,-2834.553343,10881.027347
20574.035587,-3256.906145,-2987.772442,9400.615463
20574.035910,-3034.844362,-2757.943793,8438.347739
20574.036234,-1036.288319,-2451.505594,7105.977043
20574.036557,1406.391290,0.000000,8438.347739
20574.036880,2442.679609,1532.190996,10214.842000
20574.037203,3108.864956,3983.696590,9770.718434
20574.037526,1924.535449,2604.724693,8586.388927
20574.037850,1554.432478,766.095498,7550.100608
20574.038173,666.185348,-612.876398,8364.327145
20574.038496,518.144159,-1378.971896,9178.553681
20574.038819,-1036.288319,-1608.800546,11547.212695
20574.039142,-1554.432478,-2068.457845,10955.047942
20574.039466,-1554.432478,-1685.410096,9548.656652
20574.039789,-2146.597232,-2757.943793,7698.141797
20574.040112,-1332.370696,-1072.533697,6957.935855
20574.040435,814.226536,383.047749,7846.182985
20574.040759,1554.432478,2221.676944,9178.553681
20574.041082,962.267725,2834.553343,9400.615463
20574.041405,370.102971,2604.724693,7846.182985
20574.041728,-1184.329507,459.657299,7031.956449
20574.042051,-2664.741391,-1608.800546,7624.121203
20574.042375,-2294.638420,-1762.019645,9474.636058
20574.042698,-3404.947333,-2451.505594,10584.944971
20574.043021,-4589.276840,-3140.991542,10955.047942
20574.043344,-4071.132681,-3983.696590,9548.656652
20574.043667,-3627.009116,-3600.648841,8660.409521
20574.043991,-3182.885551,-4290.134789,8068.244768
20574.044314,0.000000,-1072.533697,8142.265362
20574.044637,2738.761985,612.876398,9326.594869
20574.044960,2960.823768,2451.505594,9992.780217
20574.045283,1406.391290,2987.772442,8586.388927
20574.045607,1702.473667,1225.752797,7476.080014
20574.045930,1332.370696,-689.485948,7920.203579
20574.046253,1036.288319,-536.266849,9770.718434
20574.046576,-370.102971,-689.485948,11695.253884
20574.046900,-1110.308913,-1225.752797,10881.027347
20574.047223,0.000000,-3983.696590,9104.533087
20574.047546,-1702.473667,-2987.772442,9844.739029
20574.047869,-1776.494261,-2528.115143,9030.512492
20574.048192,0.000000,-995.924147,8438.347739
20574.048516,2516.700203,383.047749,8586.388927
20574.048839,2738.761985,2681.334243,8734.430116
20574.049162,1850.514855,2987.772442,8882.471304
20574.049485,1036.288319,2145.067394,8290.306550
20574.049808,222.061783,612.876398,8290.306550
20574.050132,0.000000,-766.095498,8068.244768
20574.050455,-1110.308913,-1608.800546,9474.636058
20574.050778,-3108.864956,-2374.896044,11177.109724
20574.051101,-2886.803174,-2451.505594,10807.006753
20574.051424,-2590.720797,-2528.115143,9178.553681
20574.051748,-2590.720797,-2834.553343,8142.265362
20574.052071,-1480.411884,-2221.676944,7698.141797
20574.052394,888.247130,153.219100,8216.285956
20574.052717,2368.659014,2068.457845,8956.491898
20574.053041,3034.844362,3064.381992,9400.615463
20574.053364,2220.617826,3064.381992,7772.162391
20574.053687,740.205942,1685.410096,7105.977043
20574.054010,1702.473667,842.705048,7772.162391
20574.054333,1924.535449,-153.219100,9770.718434
20574.054657,74.020594,-229.828649,11621.233289
20574.054980,-740.205942,-919.314598,11399.171507
20574.055303,-1332.370696,-2221.676944,10436.903782
20574.055626,-3256.906145,-2528.115143,9622.677246
20574.055949,-1480.411884,-2145.067394,8216.285956
20574.056273,-148.041188,-536.266849,8142.265362
20574.056596,222.061783,0.000000,8882.471304
20574.056919,-296.082377,1685.410096,8808.450710
20574.057242,-666.185348,1608.800546,7994.224174
20574.057565,-1702.473667,842.705048,8956.491898
20574.057889,-2442.679609,-306.438199,8364.327145
20574.058212,-1554.432478,-1991.848295,8142.265362
20574.058535,-2812.782580,-2911.162892,9992.780217
20574.058858,-3701.029710,-2068.457845,10955.047942
20574.059182,-1628.453072,-2145.067394,9622.677246
20574.059505,-1406.391290,-3524.039291,8882.471304
20574.059828,-1850.514855,-2911.162892,9178.553681
20574.060151,444.123565,-766.095498,8290.306550
20574.060474,2664.741391,306.438199,8290.306550
20574.060798,3330.926739,842.705048,9548.656652
20574.061121,3182.885551,3140.991542,9326.594869
20574.061444,2516.700203,2221.676944,9178.553681
20574.061767,2072.576638,-153.219100,8882.471304
20574.062090,1628.453072,-612.876398,8586.388927
20574.062414,666.185348,-842.705048,9770.718434
20574.062737,-592.164754,-1225.752797,10584.944971
20574.063060,-962.267725,-2221.676944,9770.718434
20574.063383,296.082377,-1685.410096,9770.718434
20574.063706,-1480.411884,-1378.971896,9400.615463
20574.064030,-2294.638420,-1838.629195,7772.162391
20574.064353,-740.205942,-1072.533697,7698.141797
20574.064676,0.000000,76.609550,9474.636058
20574.064999,0.000000,995.924147,10066.800811
20574.065323,-518.144159,919.314598,8290.306550
20574.065646,-1184.329507,306.438199,7994.224174
20574.065969,-2146.597232,-1149.143247,8808.450710
20574.066292,-1998.556043,-1072.533697,9770.718434
20574.066615,-1628.453072,-1455.581446,10584.944971
20574.066939,-1332.370696,-1838.629195,10584.944971
20574.067262,-1776.494261,-1532.190996,9622.677246
20574.067585,-2220.617826,-1608.800546,8660.409521
20574.067908,-1406.391290,-1532.190996,7402.059420
20574.068231,222.061783,0.000000,7254.018232
20574.068555,1184.329507,919.314598,9030.512492
20574.068878,592.164754,2298.286494,9622.677246
20574.069201,0.000000,1991.848295,8512.368333
20574.069524,-222.061783,1225.752797,8142.265362
20574.069847,-740.205942,153.219100,7772.162391
20574.070171,-962.267725,-1302.362347,8216.285956
20574.070494,-814.226536,-1915.238745,10066.800811
20574.070817,-2072.576638,-2451.505594,10510.924376
20574.071140,-2516.700203,-2451.505594,10436.903782
20574.071464,-2368.659014,-3140.991542,9400.615463
20574.071787,-1480.411884,-2604.724693,8512.368333
20574.072110,-222.061783,-1378.971896,7698.141797
20574.072433,1406.391290,-229.828649,8290.306550
20574.072756,2442.679609,1378.971896,9474.636058
20574.073080,2220.617826,3140.991542,9770.718434
20574.073403,962.267725,2298.286494,9400.615463
20574.073726,222.061783,-459.657299,7698.141797
20574.074049,370.102971,-1991.848295,7846.182985
20574.074372,222.061783,-1915.238745,9918.759623
20574.074696,-888.247130,-1608.800546,11991.336260
20574.075019,-1036.288319,-1302.362347,11843.295072
20574.075342,-1406.391290,-2604.724693,9474.636058
20574.075665,-370.102971,-2604.724693,8068.244768
20574.075988,148.041188,-1685.410096,7105.977043
20574.076312,1628.453072,459.657299,8882.471304
20574.076635,3256.906145,3524.039291,10807.006753
20574.076958,3923.091493,4290.134789,9104.533087
20574.077281,2368.659014,2757.943793,6809.894666
20574.077605,296.082377,536.266849,6587.832884
20574.077928,1036.288319,-383.047749,8882.471304
20574.078251,814.226536,76.609550,10066.800811
20574.078574,0.000000,-766.095498,11399.171507
20574.078897,-2146.597232,-1838.629195,10288.862594
20574.079221,-3108.864956,-2834.553343,8364.327145
20574.079544,-3404.947333,-3753.867940,8068.244768
20574.079867,-2368.659014,-2068.457845,7698.141797
20574.080190,-1184.329507,-995.924147,8586.388927
20574.080513,0.000000,459.657299,9696.697840
20574.080837,-148.041188,1991.848295,9474.636058
20574.081160,-296.082377,1838.629195,7994.224174
20574.081483,-1480.411884,0.000000,7698.141797
20574.081806,-2146.597232,-766.095498,8142.265362
20574.082129,-222.061783,0.000000,9252.574275
20574.082453,518.144159,-229.828649,11029.068536
20574.082776,-962.267725,-1838.629195,11621.233289
20574.083099,-1554.432478,-2068.457845,10288.862594
20574.083422,-1406.391290,-2145.067394,9918.759623
20574.083745,0.000000,-2298.286494,9252.574275
20574.084069,1184.329507,-306.438199,9474.636058
20574.084392,2516.700203,612.876398,8956.491898
20574.084715,2368.659014,1991.848295,10362.883188
20574.085038,1480.411884,2145.067394,8956.491898
20574.085362,666.185348,1225.752797,7994.224174
20574.085685,0.000000,76.609550,8216.285956
20574.086008,-370.102971,-766.095498,8068.244768
20574.086331,-888.247130,-1608.800546,9104.533087
20574.086654,-2368.659014,-2911.162892,9548.656652
20574.086978,-3552.988522,-2757.943793,8882.471304
20574.087301,-3034.844362,-2757.943793,7920.203579
20574.087624,-2516.700203,-2681.334243,7328.038826
20574.087947,-1110.308913,-2068.457845,7254.018232
20574.088270,0.000000,0.000000,7698.141797
20574.088594,962.267725,995.924147,8956.491898
20574.088917,1258.350101,1991.848295,9992.780217
20574.089240,1406.391290,1991.848295,8438.347739
20574.089563,1258.350101,306.438199,9252.574275
20574.089887,888.247130,-1378.971896,10362.883188
20574.090210,592.164754,-1532.190996,10584.944971
20574.090533,-370.102971,-1532.190996,11843.295072
20574.090856,-1110.308913,-2221.676944,11399.171507
20574.091179,-1628.453072,-2374.896044,10362.883188
20574.091503,-1036.288319,-1838.629195,10510.924376
20574.091826,-740.205942,-1685.410096,9104.533087
20574.092149,0.000000,-153.219100,8216.285956
20574.092472,-444.123565,1072.533697,9474.636058
20574.092796,-518.144159,2145.067394,9474.636058
20574.093119,0.000000,2145.067394,8290.306550
20574.093442,-1110.308913,229.828649,6883.915261
20574.093765,-2220.617826,-1532.190996,7254.018232
20574.094088,-2664.741391,-612.876398,8438.347739
20574.094412,-2368.659014,-1072.533697,9548.656652
20574.094735,-1998.556043,-1455.581446,10214.842000
20574.095058,-1924.535449,-1685.410096,9252.574275
20574.095381,-2146.597232,-1378.971896,8512.368333
20574.095704,-1332.370696,-1302.362347,7476.080014
20574.096028,518.144159,-459.657299,8068.244768
20574.096351,1998.556043,842.705048,8660.409521
20574.096674,2368.659014,2374.896044,9474.636058
20574.096997,2368.659014,1915.238745,9474.636058
20574.097321,2072.576638,612.876398,7698.141797
20574.097644,1406.391290,-689.485948,8734.430116
20574.097967,1924.535449,-842.705048,9770.718434
20574.098290,1628.453072,-766.095498,11251.130318
20574.098613,0.000000,-1915.238745,10955.047942
20574.098937,-370.102971,-1915.238745,10066.800811
20574.099260,-1258.350101,-2221.676944,9696.697840
20574.099583,-814.226536,-2681.334243,8734.430116
20574.099906,148.041188,-1455.581446,8068.244768
20574.100230,1036.288319,0.000000,8808.450710
20574.100553,814.226536,536.266849,9474.636058
20574.100876,-370.102971,1302.362347,10214.842000
20574.101199,-1184.329507,919.314598,8734.430116
20574.101522,-1850.514855,-1532.190996,8364.327145
20574.101846,-1776.494261,-2987.772442,8068.244768
20574.102169,-814.226536,-2604.724693,9326.594869
20574.102492,-1110.308913,-1915.238745,11251.130318
